Pressure_Rel,GyroX_Rel,GyroY_Rel,GyroZ_Rel,AccX_Rel,AccY_Rel,AccZ_Rel,Timestamp,Pressure_abs,HeartRate,Oxygen,Status,GyroX,GyroY,GyroZ,AccX,AccY,AccZ
-10.024414,-0.10546415,-0.04464157,-0.100369185,0.73,0.22,-0.58,14563,9952.30,0,0,0,-6.93,-5.67,-6.51,0.73,0.22,-0.58
-11.024414,-0.09746415,-0.03364157,-0.08336919,0.73,0.25,-0.57,14579,9951.30,0,0,0,-6.37,-4.90,-5.32,0.73,0.25,-0.57
-8.923828,-0.07446416,-0.027641572,-0.09136918,0.75,0.25,-0.55,14594,9953.40,0,0,0,-4.76,-4.48,-5.88,0.75,0.25,-0.55
-10.324219,-0.06746416,-0.034641564,-0.08636919,0.75,0.27,-0.54,14616,9952.00,0,0,0,-4.27,-4.97,-5.53,0.75,0.27,-0.54
-10.324219,-0.076464154,-0.05164157,-0.045369186,0.74,0.3,-0.56,14631,9952.00,0,0,0,-4.90,-6.16,-2.66,0.74,0.30,-0.56
-8.224609,-0.069464155,-0.04464157,0.014630815,0.78,0.34,-0.61,14646,9954.10,0,0,0,-4.41,-5.67,1.54,0.78,0.34,-0.61
-8.224609,-0.07446416,-0.038641572,0.034630813,0.85,0.35,-0.67,14661,9954.10,0,0,0,-4.76,-5.25,2.94,0.85,0.35,-0.67
-8.224609,-0.09446415,-0.09564157,-0.029369185,0.94,0.28,-0.69,14683,9954.10,0,0,0,-6.16,-9.24,-1.54,0.94,0.28,-0.69
-8.624023,-0.15146415,-0.19064157,-0.092369184,0.93,0.2,-0.68,14690,9953.70,0,0,0,-10.15,-15.89,-5.95,0.93,0.20,-0.68
-7.2246094,-0.24846417,-0.30164158,-0.13836919,0.85,0.12,-0.66,14706,9955.10,0,0,0,-16.94,-23.66,-9.17,0.85,0.12,-0.66
-7.923828,-0.33946416,-0.27064157,-0.20536919,0.81,0.09,-0.65,14721,9954.40,0,0,0,-23.31,-21.49,-13.86,0.81,0.09,-0.65
-7.524414,-0.41546413,-0.19164157,-0.3633692,0.78,0.12,-0.63,14744,9954.80,0,0,0,-28.63,-15.96,-24.92,0.78,0.12,-0.63
-6.524414,-0.43946415,-0.11964157,-0.4673692,0.76,0.27,-0.62,14759,9955.80,0,0,0,-30.31,-10.92,-32.20,0.76,0.27,-0.62
-6.524414,-0.43546417,-0.06264157,-0.4443692,0.76,0.33,-0.59,14773,9955.80,0,0,0,-30.03,-6.93,-30.59,0.76,0.33,-0.59
-6.524414,-0.40246415,-0.05164157,-0.4243692,0.71,0.38,-0.57,14789,9955.80,0,0,0,-27.72,-6.16,-29.19,0.71,0.38,-0.57
-6.524414,-0.24146417,-0.014641568,-0.31036916,0.67,0.5,-0.54,14817,9955.80,0,0,0,-16.45,-3.57,-21.21,0.67,0.50,-0.54
-5.8242188,-0.17246415,0.05135843,-0.2483692,0.69,0.41,-0.52,14826,9956.50,0,0,0,-11.62,1.05,-16.87,0.69,0.41,-0.52
-5.524414,-0.18046416,0.042358432,-0.26536918,0.71,0.36,-0.51,14850,9956.80,0,0,0,-12.18,0.42,-18.06,0.71,0.36,-0.51
-5.524414,-0.22346415,-6.415695E-4,-0.24736919,0.71,0.35,-0.5,14867,9956.80,0,0,0,-15.19,-2.59,-16.80,0.71,0.35,-0.50
-4.8242188,-0.27946416,-0.08964157,-0.09536918,0.68,0.35,-0.52,14886,9957.50,0,0,0,-19.11,-8.82,-6.16,0.68,0.35,-0.52
-4.8242188,-0.23646416,-0.08564157,-0.10236918,0.64,0.35,-0.55,14902,9957.50,0,0,0,-16.10,-8.54,-6.65,0.64,0.35,-0.55
-4.8242188,-0.054464154,-0.034641564,-0.19836919,0.62,0.34,-0.56,14923,9957.50,0,0,0,-3.36,-4.97,-13.37,0.62,0.34,-0.56
-4.1240234,0.043535843,0.00835843,-0.23336919,0.62,0.32,-0.57,14938,9958.20,0,0,0,3.50,-1.96,-15.82,0.62,0.32,-0.57
-3.8242188,0.046535842,0.013358431,-0.1703692,0.64,0.26,-0.55,14963,9958.50,0,0,0,3.71,-1.61,-11.41,0.64,0.26,-0.55
-5.8242188,-0.030464156,-0.035641566,-0.08436918,0.65,0.26,-0.54,14976,9956.50,0,0,0,-1.68,-5.04,-5.39,0.65,0.26,-0.54
-3.1240234,-0.09446415,-0.09064157,0.032630816,0.64,0.32,-0.53,14999,9959.20,0,0,0,-6.16,-8.89,2.80,0.64,0.32,-0.53
-3.8242188,-0.091464154,-0.11864157,0.09963081,0.6,0.34,-0.55,15017,9958.50,0,0,0,-5.95,-10.85,7.49,0.60,0.34,-0.55
-3.1240234,-0.034464158,-0.07564157,0.06663082,0.6,0.35,-0.56,15036,9959.20,0,0,0,-1.96,-7.84,5.18,0.60,0.35,-0.56
-2.024414,0.010535844,0.07435843,0.010630814,0.68,0.36,-0.55,15051,9960.30,0,0,0,1.19,2.66,1.26,0.68,0.36,-0.55
-2.024414,0.07153585,0.21735843,-0.10836919,0.75,0.36,-0.51,15074,9960.30,0,0,0,5.46,12.67,-7.07,0.75,0.36,-0.51
-0.7246094,0.14653584,0.30935842,-0.27636918,0.87,0.42,-0.47,15089,9961.60,0,0,0,10.71,19.11,-18.83,0.87,0.42,-0.47
-2.024414,0.14953585,0.28335845,-0.28836918,0.91,0.43,-0.43,15111,9960.30,0,0,0,10.92,17.29,-19.67,0.91,0.43,-0.43
-1.0244141,0.13253585,0.08335843,-0.22036919,0.9,0.46,-0.43,15126,9961.30,0,0,0,9.73,3.29,-14.91,0.90,0.46,-0.43
-1.3242188,0.12653585,-0.045641564,-0.1633692,0.79,0.44,-0.47,15150,9961.00,0,0,0,9.31,-5.74,-10.92,0.79,0.44,-0.47
-1.0244141,0.18653585,-0.01764157,-0.2643692,0.71,0.42,-0.53,15168,9961.30,0,0,0,13.51,-3.78,-17.99,0.71,0.42,-0.53
-0.024414062,0.20753583,0.05635843,-0.2443692,0.72,0.42,-0.57,15186,9962.30,0,0,0,14.98,1.40,-16.59,0.72,0.42,-0.57
-0.024414062,0.14153585,0.15035844,-0.1373692,0.7,0.4,-0.62,15202,9962.30,0,0,0,10.36,7.98,-9.10,0.70,0.40,-0.62
-0.32421875,0.15053584,0.15835842,-0.16036919,0.73,0.37,-0.61,15224,9962.00,0,0,0,10.99,8.54,-10.71,0.73,0.37,-0.61
-0.32421875,0.19953585,0.17335844,-0.08436918,0.75,0.4,-0.62,15239,9962.00,0,0,0,14.42,9.59,-5.39,0.75,0.40,-0.62
-0.32421875,0.23853584,0.14135844,-0.002369185,0.73,0.43,-0.63,15263,9962.00,0,0,0,17.15,7.35,0.35,0.73,0.43,-0.63
0.67578125,0.27853584,0.11935843,-0.059369184,0.67,0.35,-0.61,15276,9963.00,0,0,0,19.95,5.81,-3.64,0.67,0.35,-0.61
0.67578125,0.29053587,0.11435843,0.17563082,0.64,0.41,-0.6,15307,9963.00,0,0,0,20.79,5.46,12.81,0.64,0.41,-0.60
1.6757812,0.22853586,0.15035844,0.3456308,0.59,0.36,-0.64,15316,9964.00,0,0,0,16.45,7.98,24.71,0.59,0.36,-0.64
1.6757812,0.055535845,0.25235844,0.17963082,0.54,0.27,-0.65,15336,9964.00,0,0,0,4.34,15.12,13.09,0.54,0.27,-0.65
1.3759766,0.081535846,0.45435846,0.12063082,0.59,0.33,-0.61,15350,9963.70,0,0,0,6.16,29.26,8.96,0.59,0.33,-0.61
2.3759766,0.19153585,0.6723584,0.21363081,0.73,0.38,-0.55,15373,9964.70,0,0,0,13.86,44.52,15.47,0.73,0.38,-0.55
1.6757812,0.19653584,0.6273584,0.08563082,0.79,0.35,-0.55,15388,9964.00,0,0,0,14.21,41.37,6.51,0.79,0.35,-0.55
2.7753906,0.07853585,0.34835845,0.023630816,0.78,0.28,-0.51,15410,9965.10,0,0,0,5.95,21.84,2.17,0.78,0.28,-0.51
2.3759766,-0.061464157,0.16635844,0.12563081,0.74,0.28,-0.49,15426,9964.70,0,0,0,-3.85,9.10,9.31,0.74,0.28,-0.49
3.3759766,-0.16846415,0.05835843,0.2256308,0.71,0.29,-0.48,15449,9965.70,0,0,0,-11.34,1.54,16.31,0.71,0.29,-0.48
2.3759766,-0.17046414,-0.014641568,0.20863082,0.71,0.29,-0.45,15464,9964.70,0,0,0,-11.48,-3.57,15.12,0.71,0.29,-0.45
2.475586,-0.069464155,-0.09964158,0.12663081,0.74,0.29,-0.43,15479,9964.80,0,0,0,-4.41,-9.52,9.38,0.74,0.29,-0.43
2.3759766,0.024535844,-0.19264159,0.064630814,0.71,0.28,-0.43,15494,9964.70,0,0,0,2.17,-16.03,5.04,0.71,0.28,-0.43
2.3759766,0.0015358436,-0.2736416,0.10863081,0.65,0.25,-0.45,15516,9964.70,0,0,0,0.56,-21.70,8.12,0.65,0.25,-0.45
2.0761719,-0.17646416,-0.3056416,0.2936308,0.59,0.19,-0.51,15531,9964.40,0,0,0,-11.90,-23.94,21.07,0.59,0.19,-0.51
3.3759766,-0.27146414,-0.20064157,0.4266308,0.59,0.22,-0.56,15554,9965.70,0,0,0,-18.55,-16.59,30.38,0.59,0.22,-0.56
2.0761719,-0.21646415,0.06335843,0.4426308,0.69,0.26,-0.6,15569,9964.40,0,0,0,-14.70,1.89,31.50,0.69,0.26,-0.60
3.0761719,-0.05846416,0.32935846,0.30363083,0.84,0.28,-0.63,15591,9965.40,0,0,0,-3.64,20.51,21.77,0.84,0.28,-0.63
4.076172,0.08753584,0.52135843,0.094630815,1.0,0.23,-0.57,15606,9966.40,0,0,0,6.58,33.95,7.14,1.00,0.23,-0.57
3.0761719,0.057535846,0.46935844,-0.041369185,1.04,0.14,-0.48,15629,9965.40,0,0,0,4.48,30.31,-2.38,1.04,0.14,-0.48
3.0761719,-0.13446416,0.19335842,-0.08036918,1.0,0.12,-0.41,15643,9965.40,0,0,0,-8.96,10.99,-5.11,1.00,0.12,-0.41
4.076172,-0.29146415,0.053358432,-0.082369186,0.93,0.18,-0.41,15666,9966.40,0,0,0,-19.95,1.19,-5.25,0.93,0.18,-0.41
3.0761719,-0.29246417,-0.039641574,-0.122369185,0.83,0.32,-0.46,15681,9965.40,0,0,0,-20.02,-5.32,-8.05,0.83,0.32,-0.46
2.7753906,-0.18346415,0.02035843,-0.15336919,0.8,0.42,-0.49,15704,9965.10,0,0,0,-12.39,-1.12,-10.22,0.80,0.42,-0.49
4.076172,0.023535842,0.123358436,-0.1813692,0.82,0.44,-0.49,15719,9966.40,0,0,0,2.10,6.09,-12.18,0.82,0.44,-0.49
5.1757812,0.084535845,0.13435844,-0.07836918,0.81,0.41,-0.48,15741,9967.50,0,0,0,6.37,6.86,-4.97,0.81,0.41,-0.48
3.7753906,0.08553585,0.07935843,0.015630815,0.81,0.37,-0.48,15756,9966.10,0,0,0,6.44,3.01,1.61,0.81,0.37,-0.48
5.1757812,0.027535845,0.011358431,0.09163082,0.78,0.33,-0.48,15779,9967.50,0,0,0,2.38,-1.75,6.93,0.78,0.33,-0.48
4.076172,-0.014464157,-0.021641567,0.086630814,0.75,0.32,-0.49,15793,9966.40,0,0,0,-0.56,-4.06,6.58,0.75,0.32,-0.49
5.1757812,-0.019464158,0.011358431,0.042630814,0.74,0.34,-0.5,15816,9967.50,0,0,0,-0.91,-1.75,3.50,0.74,0.34,-0.50
4.7753906,0.052535843,0.04535843,0.04063081,0.76,0.38,-0.51,15832,9967.10,0,0,0,4.13,0.63,3.36,0.76,0.38,-0.51
5.8759766,0.13853584,0.08735843,0.021630814,0.79,0.35,-0.5,15854,9968.20,0,0,0,10.15,3.57,2.03,0.79,0.35,-0.50
5.8759766,0.15153585,0.07035843,-0.007369185,0.81,0.31,-0.49,15869,9968.20,0,0,0,11.06,2.38,0.00,0.81,0.31,-0.49
5.475586,0.08553585,0.016358431,0.020630816,0.8,0.29,-0.5,15891,9967.80,0,0,0,6.44,-1.40,1.96,0.80,0.29,-0.50
6.8759766,0.025535844,-0.0066415705,0.057630822,0.8,0.29,-0.51,15906,9969.20,0,0,0,2.24,-3.01,4.55,0.80,0.29,-0.51
6.8759766,-0.020464158,-0.02264157,0.075630814,0.81,0.3,-0.5,15929,9969.20,0,0,0,-0.98,-4.13,5.81,0.81,0.30,-0.50
7.8759766,-0.012464156,-0.025641572,0.050630815,0.8,0.3,-0.5,15943,9970.20,0,0,0,-0.42,-4.34,4.06,0.80,0.30,-0.50
8.576172,-0.007464157,-0.035641566,0.002630815,0.81,0.28,-0.49,15967,9970.90,0,0,0,-0.07,-5.04,0.70,0.81,0.28,-0.49
10.975586,-0.011464156,-0.06664157,0.009630816,0.79,0.29,-0.49,15990,9973.30,0,0,0,-0.35,-7.21,1.19,0.79,0.29,-0.49
10.675781,-0.045464158,-0.09464157,0.06663082,0.77,0.3,-0.49,16004,9973.00,0,0,0,-2.73,-9.17,5.18,0.77,0.30,-0.49
9.576172,-0.04446416,-0.09364158,0.08863081,0.74,0.3,-0.5,16020,9971.90,0,0,0,-2.66,-9.10,6.72,0.74,0.30,-0.50
11.975586,-0.037464157,-0.061641574,0.09363082,0.73,0.28,-0.49,16034,9974.30,0,0,0,-2.17,-6.86,7.07,0.73,0.28,-0.49
11.975586,-0.030464156,-0.02664157,0.09163082,0.76,0.28,-0.48,16064,9974.30,0,0,0,-1.68,-4.41,6.93,0.76,0.28,-0.48
12.675781,-0.04046416,-0.01364157,0.05963082,0.77,0.25,-0.48,16072,9975.00,0,0,0,-2.38,-3.50,4.69,0.77,0.25,-0.48
12.675781,-0.046464156,-0.034641564,0.06763082,0.79,0.26,-0.48,16094,9975.00,0,0,0,-2.80,-4.97,5.25,0.79,0.26,-0.48
13.675781,-0.095464155,-0.05664157,0.11563081,0.8,0.25,-0.48,16109,9976.00,0,0,0,-6.23,-6.51,8.61,0.80,0.25,-0.48
13.675781,-0.12646416,-0.11564158,0.1386308,0.78,0.25,-0.48,16131,9976.00,0,0,0,-8.40,-10.64,10.22,0.78,0.25,-0.48
13.675781,-0.13546415,-0.13164157,0.13363081,0.78,0.25,-0.49,16146,9976.00,0,0,0,-9.03,-11.76,9.87,0.78,0.25,-0.49
13.675781,-0.13546415,-0.12064156,0.11763082,0.79,0.26,-0.5,16161,9976.00,0,0,0,-9.03,-10.99,8.75,0.79,0.26,-0.50
13.675781,-0.12646416,-0.09964158,0.105630815,0.79,0.27,-0.51,16176,9976.00,0,0,0,-8.40,-9.52,7.91,0.79,0.27,-0.51
13.675781,-0.10146415,-0.07364157,0.098630816,0.8,0.28,-0.51,16191,9976.00,0,0,0,-6.65,-7.70,7.42,0.80,0.28,-0.51
12.675781,-0.059464157,-0.07064156,0.06963082,0.81,0.28,-0.51,16213,9975.00,0,0,0,-3.71,-7.49,5.39,0.81,0.28,-0.51
12.675781,-0.07046416,-0.08564157,0.04163082,0.81,0.28,-0.5,16236,9975.00,0,0,0,-4.48,-8.54,3.43,0.81,0.28,-0.50
12.675781,-0.11546416,-0.09664157,0.10163082,0.8,0.28,-0.5,16251,9975.00,0,0,0,-7.63,-9.31,7.63,0.80,0.28,-0.50
12.675781,-0.14146414,-0.07764157,0.11963082,0.79,0.3,-0.5,16274,9975.00,0,0,0,-9.45,-7.98,8.89,0.79,0.30,-0.50
11.675781,-0.14146414,-0.04464157,0.065630816,0.8,0.32,-0.51,16296,9974.00,0,0,0,-9.45,-5.67,5.11,0.80,0.32,-0.51
11.375977,-0.13046417,-0.0036415681,0.026630817,0.8,0.33,-0.5,16311,9973.70,0,0,0,-8.68,-2.80,2.38,0.80,0.33,-0.50
10.275391,-0.11646415,0.044358432,-0.044369183,0.82,0.33,-0.49,16334,9972.60,0,0,0,-7.70,0.56,-2.59,0.82,0.33,-0.49
9.576172,-0.11146415,0.035358433,-0.056369185,0.85,0.35,-0.49,16348,9971.90,0,0,0,-7.35,-0.07,-3.43,0.85,0.35,-0.49
10.275391,-0.11346415,-0.01564157,-0.048369184,0.87,0.36,-0.49,16371,9972.60,0,0,0,-7.49,-3.64,-2.87,0.87,0.36,-0.49
8.275391,-0.12946415,-0.02664157,-0.034369186,0.84,0.35,-0.47,16386,9970.60,0,0,0,-8.61,-4.41,-1.89,0.84,0.35,-0.47
8.576172,-0.10546415,-0.043641567,-0.042369187,0.83,0.34,-0.48,16408,9970.90,0,0,0,-6.93,-5.60,-2.45,0.83,0.34,-0.48
8.275391,-0.10346416,-0.050641574,-0.057369187,0.8,0.33,-0.48,16423,9970.60,0,0,0,-6.79,-6.09,-3.50,0.80,0.33,-0.48
7.2753906,-0.08546416,-0.04164157,-0.062369183,0.79,0.33,-0.48,16446,9969.60,0,0,0,-5.53,-5.46,-3.85,0.79,0.33,-0.48
5.1757812,-0.08646415,-0.046641566,-0.04336918,0.79,0.33,-0.48,16461,9967.50,0,0,0,-5.60,-5.81,-2.52,0.79,0.33,-0.48
7.2753906,-0.07946415,-0.059641562,0.0066308156,0.77,0.35,-0.48,16483,9969.60,0,0,0,-5.11,-6.72,0.98,0.77,0.35,-0.48
5.1757812,-0.052464157,-0.06364157,0.025630815,0.75,0.35,-0.48,16499,9967.50,0,0,0,-3.22,-7.00,2.31,0.75,0.35,-0.48
6.1757812,-0.018464155,-0.05164157,0.038630813,0.75,0.34,-0.49,16514,9968.50,0,0,0,-0.84,-6.16,3.22,0.75,0.34,-0.49
6.1757812,0.0095358435,-0.03364157,0.042630814,0.75,0.33,-0.49,16529,9968.50,0,0,0,1.12,-4.90,3.50,0.75,0.33,-0.49
5.1757812,0.019535843,-0.025641572,0.06963082,0.76,0.31,-0.49,16551,9967.50,0,0,0,1.82,-4.34,5.39,0.76,0.31,-0.49
5.1757812,0.024535844,-0.0036415681,0.08563082,0.76,0.31,-0.49,16566,9967.50,0,0,0,2.17,-2.80,6.51,0.76,0.31,-0.49
3.7753906,0.04053584,0.012358433,0.053630814,0.78,0.29,-0.49,16581,9966.10,0,0,0,3.29,-1.68,4.27,0.78,0.29,-0.49
4.1757812,0.059535842,0.02035843,0.012630815,0.8,0.3,-0.49,16595,9966.50,0,0,0,4.62,-1.12,1.40,0.80,0.30,-0.49
4.1757812,0.061535846,0.014358431,0.002630815,0.81,0.29,-0.49,16611,9966.50,0,0,0,4.76,-1.54,0.70,0.81,0.29,-0.49
3.7753906,0.056535844,-0.0036415681,0.010630814,0.81,0.28,-0.49,16626,9966.10,0,0,0,4.41,-2.80,1.26,0.81,0.28,-0.49
3.1757812,0.03353584,-0.014641568,0.023630816,0.8,0.28,-0.49,16641,9965.50,0,0,0,2.80,-3.57,2.17,0.80,0.28,-0.49
3.1757812,0.023535842,-0.010641567,0.023630816,0.79,0.29,-0.5,16656,9965.50,0,0,0,2.10,-3.29,2.17,0.79,0.29,-0.50
2.0761719,0.022535842,0.0033584312,0.009630816,0.79,0.29,-0.5,16679,9964.40,0,0,0,2.03,-2.31,1.19,0.79,0.29,-0.50
1.7753906,0.029535841,0.015358431,-0.010369184,0.81,0.31,-0.5,16693,9964.10,0,0,0,2.52,-1.47,-0.21,0.81,0.31,-0.50
1.0761719,0.059535842,-6.415695E-4,-0.030369185,0.83,0.32,-0.49,16708,9963.40,0,0,0,4.62,-2.59,-1.61,0.83,0.32,-0.49
0.7753906,0.08053585,-0.023641568,-0.047369182,0.82,0.3,-0.5,16723,9963.10,0,0,0,6.09,-4.20,-2.80,0.82,0.30,-0.50
2.0761719,0.08053585,-0.050641574,-0.056369185,0.81,0.27,-0.5,16739,9964.40,0,0,0,6.09,-6.09,-3.43,0.81,0.27,-0.50
0.076171875,0.060535844,-0.05664157,-0.051369183,0.8,0.27,-0.5,16754,9962.40,0,0,0,4.69,-6.51,-3.08,0.80,0.27,-0.50
0.37597656,0.04053584,-0.054641567,-0.060369186,0.8,0.28,-0.49,16777,9962.70,0,0,0,3.29,-6.37,-3.71,0.80,0.28,-0.49
0.076171875,0.037535843,-0.049641572,-0.06836919,0.78,0.3,-0.49,16792,9962.40,0,0,0,3.08,-6.02,-4.27,0.78,0.30,-0.49
-1.3242188,0.035535842,-0.04464157,-0.06636918,0.76,0.31,-0.5,16807,9961.00,0,0,0,2.94,-5.67,-4.13,0.76,0.31,-0.50
-0.9238281,0.036535844,-0.04064157,-0.042369187,0.75,0.32,-0.5,16821,9961.40,0,0,0,3.01,-5.39,-2.45,0.75,0.32,-0.50
-3.6240234,0.052535843,-0.03064157,-0.021369185,0.75,0.32,-0.51,16843,9958.70,0,0,0,4.13,-4.69,-0.98,0.75,0.32,-0.51
-2.3242188,0.066535845,-0.020641569,-0.03936919,0.76,0.3,-0.51,16858,9960.00,0,0,0,5.11,-3.99,-2.24,0.76,0.30,-0.51
-3.024414,0.073535845,-0.009641569,-0.06636918,0.77,0.3,-0.52,16873,9959.30,0,0,0,5.60,-3.22,-4.13,0.77,0.30,-0.52
-4.423828,0.057535846,-0.012641571,-0.047369182,0.79,0.29,-0.51,16888,9957.90,0,0,0,4.48,-3.43,-2.80,0.79,0.29,-0.51
-4.423828,0.03453584,-0.025641572,-0.024369186,0.8,0.29,-0.51,16904,9957.90,0,0,0,2.87,-4.34,-1.19,0.80,0.29,-0.51
-6.423828,0.027535845,-0.046641566,-0.032369185,0.78,0.31,-0.52,16918,9955.90,0,0,0,2.38,-5.81,-1.75,0.78,0.31,-0.52
-6.423828,0.021535844,-0.046641566,-0.016369184,0.78,0.31,-0.52,16941,9955.90,0,0,0,1.96,-5.81,-0.63,0.78,0.31,-0.52
-6.423828,0.027535845,-0.025641572,-0.025369184,0.78,0.3,-0.52,16955,9955.90,0,0,0,2.38,-4.34,-1.26,0.78,0.30,-0.52
-7.423828,0.019535843,-0.007641569,-0.041369185,0.79,0.3,-0.51,16970,9954.90,0,0,0,1.82,-3.08,-2.38,0.79,0.30,-0.51
-8.524414,0.0095358435,-0.008641571,-0.029369185,0.79,0.3,-0.5,16985,9953.80,0,0,0,1.12,-3.15,-1.54,0.79,0.30,-0.50
-7.1240234,0.0065358435,-0.010641567,-0.033369184,0.79,0.31,-0.5,17001,9955.20,0,0,0,0.91,-3.29,-1.82,0.79,0.31,-0.50
-8.524414,0.020535843,-0.025641572,-0.040369183,0.79,0.32,-0.5,17016,9953.80,0,0,0,1.89,-4.34,-2.31,0.79,0.32,-0.50
-9.824219,0.035535842,-0.035641566,-0.030369185,0.79,0.33,-0.5,17031,9952.50,0,0,0,2.94,-5.04,-1.61,0.79,0.33,-0.50
-9.524414,0.03453584,-0.05164157,-0.022369184,0.79,0.32,-0.51,17054,9952.80,0,0,0,2.87,-6.16,-1.05,0.79,0.32,-0.51
-9.524414,0.037535843,-0.06964157,-0.023369186,0.77,0.32,-0.51,17069,9952.80,0,0,0,3.08,-7.42,-1.12,0.77,0.32,-0.51
-9.824219,0.045535844,-0.060641572,-0.015369185,0.77,0.32,-0.51,17083,9952.50,0,0,0,3.64,-6.79,-0.56,0.77,0.32,-0.51
-9.524414,0.043535843,-0.047641568,-0.0053691845,0.77,0.32,-0.52,17099,9952.80,0,0,0,3.50,-5.88,0.14,0.77,0.32,-0.52
-8.524414,0.049535844,-0.03364157,-0.018369185,0.76,0.31,-0.52,17114,9953.80,0,0,0,3.92,-4.90,-0.77,0.76,0.31,-0.52
-9.824219,0.047535844,-0.023641568,-0.021369185,0.77,0.31,-0.52,17129,9952.50,0,0,0,3.78,-4.20,-0.98,0.77,0.31,-0.52
-8.824219,0.049535844,-0.01564157,-0.013369184,0.77,0.31,-0.52,17151,9953.50,0,0,0,3.92,-3.64,-0.42,0.77,0.31,-0.52
-9.824219,0.047535844,-0.01564157,-0.009369185,0.77,0.3,-0.53,17165,9952.50,0,0,0,3.78,-3.64,-0.14,0.77,0.30,-0.53
-8.824219,0.035535842,-0.01564157,-0.009369185,0.77,0.3,-0.53,17180,9953.50,0,0,0,2.94,-3.64,-0.14,0.77,0.30,-0.53
-7.8242188,0.025535844,-0.01964157,0.008630816,0.78,0.3,-0.53,17196,9954.50,0,0,0,2.24,-3.92,1.12,0.78,0.30,-0.53
-8.824219,0.015535843,-0.018641569,0.0046308143,0.77,0.3,-0.53,17211,9953.50,0,0,0,1.54,-3.85,0.84,0.77,0.30,-0.53
-7.8242188,0.0025358428,-0.020641569,-0.0033691847,0.77,0.31,-0.53,17226,9954.50,0,0,0,0.63,-3.99,0.28,0.77,0.31,-0.53
-8.824219,-4.641572E-4,-0.018641569,0.019630816,0.76,0.31,-0.53,17249,9953.50,0,0,0,0.42,-3.85,1.89,0.76,0.31,-0.53
-7.8242188,0.016535843,-0.012641571,0.002630815,0.76,0.32,-0.53,17268,9954.50,0,0,0,1.61,-3.43,0.70,0.76,0.32,-0.53
-5.024414,0.023535842,-0.01964157,-0.021369185,0.77,0.31,-0.52,17279,9957.30,0,0,0,2.10,-3.92,-0.98,0.77,0.31,-0.52
-6.024414,0.020535843,-0.016641568,-0.007369185,0.77,0.31,-0.52,17293,9956.30,0,0,0,1.89,-3.71,0.00,0.77,0.31,-0.52
-6.024414,0.013535842,-0.021641567,0.014630815,0.77,0.3,-0.52,17308,9956.30,0,0,0,1.40,-4.06,1.54,0.77,0.30,-0.52
-5.024414,5.358434E-4,-0.03064157,0.028630814,0.77,0.3,-0.52,17324,9957.30,0,0,0,0.49,-4.69,2.52,0.77,0.30,-0.52
-5.024414,0.0025358428,-0.029641569,0.013630815,0.77,0.3,-0.53,17339,9957.30,0,0,0,0.63,-4.62,1.47,0.77,0.30,-0.53
-4.3242188,0.0025358428,-0.025641572,0.007630815,0.77,0.31,-0.53,17361,9958.00,0,0,0,0.63,-4.34,1.05,0.77,0.31,-0.53
-2.3242188,-0.006464157,-0.02264157,0.014630815,0.76,0.31,-0.53,17376,9960.00,0,0,0,0.00,-4.13,1.54,0.76,0.31,-0.53
-2.3242188,-0.007464157,-0.023641568,0.022630814,0.76,0.32,-0.53,17391,9960.00,0,0,0,-0.07,-4.20,2.10,0.76,0.32,-0.53
-1.2246094,-4.641572E-4,-0.018641569,0.023630816,0.76,0.3,-0.53,17406,9961.10,0,0,0,0.42,-3.85,2.17,0.76,0.30,-0.53
-0.22460938,0.0065358435,-0.0046415664,-0.016369184,0.77,0.29,-0.53,17421,9962.10,0,0,0,0.91,-2.87,-0.63,0.77,0.29,-0.53
1.7753906,0.0025358428,0.0043584295,-0.023369186,0.78,0.3,-0.52,17444,9964.10,0,0,0,0.63,-2.24,-1.12,0.78,0.30,-0.52
-1.2246094,-0.011464156,0.0023584291,-0.009369185,0.78,0.3,-0.52,17459,9961.10,0,0,0,-0.35,-2.38,-0.14,0.78,0.30,-0.52
0.7753906,-0.014464157,-0.0046415664,6.308155E-4,0.78,0.31,-0.52,17474,9963.10,0,0,0,-0.56,-2.87,0.56,0.78,0.31,-0.52
1.4755859,-0.0024641566,-0.009641569,0.007630815,0.78,0.31,-0.52,17489,9963.80,0,0,0,0.28,-3.22,1.05,0.78,0.31,-0.52
1.4755859,0.004535843,-0.0066415705,-0.0013691853,0.78,0.31,-0.52,17504,9963.80,0,0,0,0.77,-3.01,0.42,0.78,0.31,-0.52
2.8759766,0.010535844,-0.0036415681,-0.0033691847,0.78,0.3,-0.53,17518,9965.20,0,0,0,1.19,-2.80,0.28,0.78,0.30,-0.53
3.8759766,0.004535843,-0.007641569,-0.0013691853,0.78,0.3,-0.53,17542,9966.20,0,0,0,0.77,-3.08,0.42,0.78,0.30,-0.53
2.475586,-0.018464155,-0.01964157,0.017630816,0.77,0.3,-0.54,17556,9964.80,0,0,0,-0.84,-3.92,1.75,0.77,0.30,-0.54
2.475586,-0.03846416,-0.01564157,0.032630816,0.76,0.3,-0.53,17571,9964.80,0,0,0,-2.24,-3.64,2.80,0.76,0.30,-0.53
2.475586,-0.05846416,-0.01964157,0.061630815,0.76,0.31,-0.54,17586,9964.80,0,0,0,-3.64,-3.92,4.83,0.76,0.31,-0.54
3.5761719,-0.039464157,-0.0026415698,0.021630814,0.76,0.3,-0.53,17601,9965.90,0,0,0,-2.31,-2.73,2.03,0.76,0.30,-0.53
1.8759766,-0.04446416,0.015358431,-0.009369185,0.76,0.3,-0.53,17616,9964.20,0,0,0,-2.66,-1.47,-0.14,0.76,0.30,-0.53
2.475586,-0.04046416,0.01035843,-0.0053691845,0.77,0.32,-0.52,17631,9964.80,0,0,0,-2.38,-1.82,0.14,0.77,0.32,-0.52
2.475586,-0.04046416,0.0043584295,0.013630815,0.78,0.31,-0.52,17653,9964.80,0,0,0,-2.38,-2.24,1.47,0.78,0.31,-0.52
2.475586,-0.048464157,-0.014641568,0.03763082,0.77,0.31,-0.52,17668,9964.80,0,0,0,-2.94,-3.57,3.15,0.77,0.31,-0.52
2.1757812,-0.06046416,-0.01764157,0.038630813,0.76,0.31,-0.53,17684,9964.50,0,0,0,-3.78,-3.78,3.22,0.76,0.31,-0.53
3.1757812,-0.06346416,-0.0066415705,0.034630813,0.75,0.31,-0.52,17698,9965.50,0,0,0,-3.99,-3.01,2.94,0.75,0.31,-0.52
1.1757812,-0.05546416,0.01035843,0.019630816,0.76,0.31,-0.51,17713,9963.50,0,0,0,-3.43,-1.82,1.89,0.76,0.31,-0.51
3.5761719,-0.043464158,0.0053584296,0.020630816,0.78,0.32,-0.51,17729,9965.90,0,0,0,-2.59,-2.17,1.96,0.78,0.32,-0.51
3.1757812,-0.042464156,-0.009641569,0.047630817,0.78,0.32,-0.51,17752,9965.50,0,0,0,-2.52,-3.22,3.85,0.78,0.32,-0.51
1.8759766,-0.04446416,-0.020641569,0.06663082,0.78,0.32,-0.51,17766,9964.20,0,0,0,-2.66,-3.99,5.18,0.78,0.32,-0.51
3.1757812,-0.025464159,-0.01764157,0.050630815,0.77,0.32,-0.52,17781,9965.50,0,0,0,-1.33,-3.78,4.06,0.77,0.32,-0.52
2.8759766,-0.0024641566,-0.007641569,0.015630815,0.78,0.3,-0.52,17796,9965.20,0,0,0,0.28,-3.08,1.61,0.78,0.30,-0.52
2.8759766,-0.0014641569,-0.016641568,-0.0043691853,0.79,0.28,-0.52,17811,9965.20,0,0,0,0.35,-3.71,0.21,0.79,0.28,-0.52
3.1757812,-0.022464158,-0.020641569,0.020630816,0.78,0.29,-0.52,17827,9965.50,0,0,0,-1.12,-3.99,1.96,0.78,0.29,-0.52
2.8759766,-0.03846416,-0.018641569,0.032630816,0.78,0.29,-0.53,17849,9965.20,0,0,0,-2.24,-3.85,2.80,0.78,0.29,-0.53
3.1757812,-0.047464155,-0.012641571,0.012630815,0.77,0.3,-0.52,17864,9965.50,0,0,0,-2.87,-3.43,1.40,0.77,0.30,-0.52
2.8759766,-0.048464157,-0.0016415715,0.0016308147,0.77,0.3,-0.52,17879,9965.20,0,0,0,-2.94,-2.66,0.63,0.77,0.30,-0.52
1.8759766,-0.041464157,0.0033584312,6.308155E-4,0.78,0.3,-0.52,17893,9964.20,0,0,0,-2.45,-2.31,0.56,0.78,0.30,-0.52
1.8759766,-0.04046416,-6.415695E-4,-3.6918465E-4,0.77,0.31,-0.52,17909,9964.20,0,0,0,-2.38,-2.59,0.49,0.77,0.31,-0.52
2.8759766,-0.043464158,-0.010641567,0.003630815,0.77,0.31,-0.51,17924,9965.20,0,0,0,-2.59,-3.29,0.77,0.77,0.31,-0.51
3.8759766,-0.039464157,-0.01564157,0.009630816,0.77,0.32,-0.52,17946,9966.20,0,0,0,-2.31,-3.64,1.19,0.77,0.32,-0.52
2.8759766,-0.036464155,-0.021641567,0.014630815,0.77,0.31,-0.52,17961,9965.20,0,0,0,-2.10,-4.06,1.54,0.77,0.31,-0.52
2.8759766,-0.033464156,-0.014641568,0.008630816,0.77,0.31,-0.52,17976,9965.20,0,0,0,-1.89,-3.57,1.12,0.77,0.31,-0.52
2.5761719,-0.026464157,-0.0066415705,0.0046308143,0.78,0.31,-0.52,17991,9964.90,0,0,0,-1.40,-3.01,0.84,0.78,0.31,-0.52
3.5761719,-0.023464158,-0.0046415664,0.002630815,0.77,0.31,-0.52,18014,9965.90,0,0,0,-1.19,-2.87,0.70,0.77,0.31,-0.52
2.5761719,-0.027464157,-0.0026415698,0.003630815,0.79,0.3,-0.52,18021,9964.90,0,0,0,-1.47,-2.73,0.77,0.79,0.30,-0.52
1.4755859,-0.025464159,-0.012641571,-0.008369185,0.79,0.31,-0.51,18044,9963.80,0,0,0,-1.33,-3.43,-0.07,0.79,0.31,-0.51
2.5761719,-0.024464156,-0.029641569,-0.024369186,0.78,0.31,-0.51,18059,9964.90,0,0,0,-1.26,-4.62,-1.19,0.78,0.31,-0.51
2.5761719,-0.018464155,-0.04164157,-0.015369185,0.77,0.33,-0.51,18074,9964.90,0,0,0,-0.84,-5.46,-0.56,0.77,0.33,-0.51
2.5761719,-0.019464158,-0.047641568,0.009630816,0.76,0.32,-0.51,18089,9964.90,0,0,0,-0.91,-5.88,1.19,0.76,0.32,-0.51
2.5761719,-0.006464157,-0.032641567,0.003630815,0.75,0.32,-0.52,18103,9964.90,0,0,0,0.00,-4.83,0.77,0.75,0.32,-0.52
2.5761719,0.0075358436,-0.014641568,-0.002369185,0.76,0.31,-0.52,18119,9964.90,0,0,0,0.98,-3.57,0.35,0.76,0.31,-0.52
2.5761719,0.011535842,-0.0066415705,0.007630815,0.79,0.31,-0.52,18141,9964.90,0,0,0,1.26,-3.01,1.05,0.79,0.31,-0.52
2.1757812,0.015535843,-0.020641569,0.021630814,0.78,0.32,-0.52,18156,9964.50,0,0,0,1.54,-3.99,2.03,0.78,0.32,-0.52
2.5761719,0.022535842,-0.046641566,0.020630816,0.77,0.3,-0.53,18171,9964.90,0,0,0,2.03,-5.81,1.96,0.77,0.30,-0.53
2.5761719,0.0075358436,-0.04864157,0.019630816,0.75,0.29,-0.53,18186,9964.90,0,0,0,0.98,-5.95,1.89,0.75,0.29,-0.53
3.5761719,-0.004464157,-0.032641567,6.308155E-4,0.75,0.31,-0.53,18200,9965.90,0,0,0,0.14,-4.83,0.56,0.75,0.31,-0.53
3.2753906,-0.012464156,-0.0046415664,0.0056308154,0.74,0.32,-0.53,18216,9965.60,0,0,0,-0.42,-2.87,0.91,0.74,0.32,-0.53
3.2753906,0.011535842,0.01735843,-0.015369185,0.75,0.32,-0.53,18238,9965.60,0,0,0,1.26,-1.33,-0.56,0.75,0.32,-0.53
4.576172,0.015535843,0.025358431,-0.020369185,0.77,0.3,-0.52,18253,9966.90,0,0,0,1.54,-0.77,-0.91,0.77,0.30,-0.52
5.2753906,0.011535842,0.018358432,-0.009369185,0.79,0.3,-0.52,18268,9967.60,0,0,0,1.26,-1.26,-0.14,0.79,0.30,-0.52
5.2753906,0.004535843,-6.415695E-4,6.308155E-4,0.79,0.31,-0.51,18284,9967.60,0,0,0,0.77,-2.59,0.56,0.79,0.31,-0.51
6.2753906,-0.008464157,-0.029641569,0.015630815,0.77,0.29,-0.52,18300,9968.60,0,0,0,-0.14,-4.62,1.61,0.77,0.29,-0.52
6.2753906,-0.008464157,-0.023641568,-0.014369185,0.76,0.3,-0.52,18314,9968.60,0,0,0,-0.14,-4.20,-0.49,0.76,0.30,-0.52
6.2753906,-0.007464157,-0.0036415681,-0.019369185,0.76,0.3,-0.52,18329,9968.60,0,0,0,-0.07,-2.80,-0.84,0.76,0.30,-0.52
8.375977,-0.006464157,0.00935843,-0.013369184,0.77,0.32,-0.51,18344,9970.70,0,0,0,0.00,-1.89,-0.42,0.77,0.32,-0.51
8.375977,-4.641572E-4,-0.0036415681,-0.0053691845,0.76,0.33,-0.51,18367,9970.70,0,0,0,0.42,-2.80,0.14,0.76,0.33,-0.51
8.375977,0.0075358436,-0.012641571,0.007630815,0.76,0.33,-0.51,18382,9970.70,0,0,0,0.98,-3.43,1.05,0.76,0.33,-0.51
8.375977,0.012535844,-0.01564157,0.028630814,0.75,0.32,-0.51,18401,9970.70,0,0,0,1.33,-3.64,2.52,0.75,0.32,-0.51
11.475586,0.026535843,-0.01764157,0.023630816,0.75,0.32,-0.52,18411,9973.80,0,0,0,2.31,-3.78,2.17,0.75,0.32,-0.52
12.475586,0.030535843,-0.011641566,0.020630816,0.76,0.31,-0.52,18426,9974.80,0,0,0,2.59,-3.36,1.96,0.76,0.31,-0.52
11.475586,0.03353584,-0.0066415705,0.020630816,0.77,0.29,-0.53,18440,9973.80,0,0,0,2.80,-3.01,1.96,0.77,0.29,-0.53
13.475586,0.022535842,0.0013584308,0.024630817,0.77,0.3,-0.53,18464,9975.80,0,0,0,2.03,-2.45,2.24,0.77,0.30,-0.53
13.775391,0.020535843,0.007358432,0.019630816,0.77,0.3,-0.53,18478,9976.10,0,0,0,1.89,-2.03,1.89,0.77,0.30,-0.53
14.475586,0.020535843,0.011358431,0.0016308147,0.78,0.3,-0.53,18493,9976.80,0,0,0,1.89,-1.75,0.63,0.78,0.30,-0.53
15.576172,0.020535843,0.0033584312,-0.0043691853,0.79,0.3,-0.52,18508,9977.90,0,0,0,1.89,-2.31,0.21,0.79,0.30,-0.52
16.576172,0.024535844,-0.0036415681,-0.0043691853,0.79,0.31,-0.52,18523,9978.90,0,0,0,2.17,-2.80,0.21,0.79,0.31,-0.52
16.576172,0.022535842,-0.0066415705,6.308155E-4,0.77,0.31,-0.52,18538,9978.90,0,0,0,2.03,-3.01,0.56,0.77,0.31,-0.52
18.576172,0.029535841,-0.0016415715,-0.007369185,0.77,0.3,-0.52,18561,9980.90,0,0,0,2.52,-2.66,0.00,0.77,0.30,-0.52
19.27539,0.042535845,0.011358431,-0.033369184,0.77,0.3,-0.52,18575,9981.60,0,0,0,3.43,-1.75,-1.82,0.77,0.30,-0.52
19.675781,0.04153584,0.011358431,-0.045369186,0.78,0.29,-0.52,18590,9982.00,0,0,0,3.36,-1.75,-2.66,0.78,0.29,-0.52
19.675781,0.028535843,0.0033584312,-0.027369184,0.78,0.3,-0.52,18605,9982.00,0,0,0,2.45,-2.31,-1.40,0.78,0.30,-0.52
21.375977,0.017535841,-0.0056415685,-0.017369185,0.77,0.3,-0.52,18621,9983.70,0,0,0,1.68,-2.94,-0.70,0.77,0.30,-0.52
20.675781,0.018535843,-0.0066415705,-0.025369184,0.77,0.31,-0.53,18636,9983.00,0,0,0,1.75,-3.01,-1.26,0.77,0.31,-0.53
22.675781,0.025535844,0.0033584312,-0.026369186,0.77,0.31,-0.53,18658,9985.00,0,0,0,2.24,-2.31,-1.33,0.77,0.31,-0.53
22.375977,0.021535844,0.0033584312,-0.031369183,0.77,0.31,-0.53,18673,9984.70,0,0,0,1.96,-2.31,-1.68,0.77,0.31,-0.53
22.375977,0.0065358435,-0.008641571,0.003630815,0.77,0.32,-0.52,18688,9984.70,0,0,0,0.91,-3.15,0.77,0.77,0.32,-0.52
23.77539,0.015535843,-0.010641567,0.008630816,0.77,0.32,-0.53,18703,9986.10,0,0,0,1.54,-3.29,1.12,0.77,0.32,-0.53
22.675781,0.025535844,-0.009641569,-0.020369185,0.77,0.31,-0.52,18719,9985.00,0,0,0,2.24,-3.22,-0.91,0.77,0.31,-0.52
24.375977,0.021535844,-0.011641566,-0.020369185,0.77,0.31,-0.52,18734,9986.70,0,0,0,1.96,-3.36,-0.91,0.77,0.31,-0.52
23.375977,0.011535842,-0.016641568,-0.009369185,0.77,0.3,-0.53,18756,9985.70,0,0,0,1.26,-3.71,-0.14,0.77,0.30,-0.53
22.375977,-4.641572E-4,-0.01764157,-0.0113691855,0.76,0.3,-0.53,18771,9984.70,0,0,0,0.42,-3.78,-0.28,0.76,0.30,-0.53
24.076172,-0.0014641569,-0.010641567,-0.009369185,0.76,0.31,-0.53,18786,9986.40,0,0,0,0.35,-3.29,-0.14,0.76,0.31,-0.53
24.77539,0.010535844,0.0013584308,-0.019369185,0.76,0.31,-0.53,18801,9987.10,0,0,0,1.19,-2.45,-0.84,0.76,0.31,-0.53
24.77539,0.015535843,-0.0016415715,-0.030369185,0.77,0.3,-0.53,18817,9987.10,0,0,0,1.54,-2.66,-1.61,0.77,0.30,-0.53
26.77539,-0.0024641566,-0.010641567,-0.0063691847,0.76,0.3,-0.52,18831,9989.10,0,0,0,0.28,-3.29,0.07,0.76,0.30,-0.52
26.77539,-0.013464157,-0.01764157,0.010630814,0.76,0.31,-0.53,18854,9989.10,0,0,0,-0.49,-3.78,1.26,0.76,0.31,-0.53
25.77539,-4.641572E-4,-0.014641568,0.0066308156,0.76,0.32,-0.52,18868,9988.10,0,0,0,0.42,-3.57,0.98,0.76,0.32,-0.52
25.77539,0.017535841,-0.008641571,-0.0113691855,0.77,0.31,-0.52,18891,9988.10,0,0,0,1.68,-3.15,-0.28,0.77,0.31,-0.52
26.475586,0.012535844,-0.011641566,-0.012369185,0.77,0.31,-0.52,18898,9988.80,0,0,0,1.33,-3.36,-0.35,0.77,0.31,-0.52
26.77539,0.0025358428,-0.01964157,0.014630815,0.77,0.31,-0.52,18915,9989.10,0,0,0,0.63,-3.92,1.54,0.77,0.31,-0.52
26.77539,0.0025358428,-0.021641567,0.029630816,0.77,0.31,-0.53,18935,9989.10,0,0,0,0.63,-4.06,2.59,0.77,0.31,-0.53
26.77539,0.013535842,-0.009641569,-3.6918465E-4,0.76,0.31,-0.53,18950,9989.10,0,0,0,1.40,-3.22,0.49,0.76,0.31,-0.53
26.77539,0.017535841,0.0033584312,-0.014369185,0.76,0.31,-0.53,18966,9989.10,0,0,0,1.68,-2.31,-0.49,0.76,0.31,-0.53
27.875977,0.011535842,0.015358431,-0.008369185,0.76,0.31,-0.53,18981,9990.20,0,0,0,1.26,-1.47,-0.07,0.76,0.31,-0.53
27.875977,0.0065358435,0.007358432,0.007630815,0.77,0.32,-0.52,18995,9990.20,0,0,0,0.91,-2.03,1.05,0.77,0.32,-0.52
28.175781,0.0095358435,-0.0056415685,0.0056308154,0.78,0.31,-0.52,19011,9990.50,0,0,0,1.12,-2.94,0.91,0.78,0.31,-0.52
27.875977,0.0055358424,-0.018641569,0.008630816,0.77,0.31,-0.52,19026,9990.20,0,0,0,0.84,-3.85,1.12,0.77,0.31,-0.52
27.875977,0.0065358435,-0.020641569,0.017630816,0.76,0.31,-0.53,19048,9990.20,0,0,0,0.91,-3.99,1.75,0.76,0.31,-0.53
27.475586,0.010535844,-0.01564157,0.017630816,0.76,0.31,-0.53,19063,9989.80,0,0,0,1.19,-3.64,1.75,0.76,0.31,-0.53
28.875977,0.023535842,-0.008641571,0.003630815,0.77,0.31,-0.53,19078,9991.20,0,0,0,2.10,-3.15,0.77,0.77,0.31,-0.53
27.875977,0.019535843,-0.007641569,-0.0053691845,0.77,0.3,-0.53,19093,9990.20,0,0,0,1.82,-3.08,0.14,0.77,0.30,-0.53
28.875977,0.011535842,-0.0046415664,0.009630816,0.76,0.3,-0.53,19108,9991.20,0,0,0,1.26,-2.87,1.19,0.76,0.30,-0.53
28.875977,0.0065358435,0.0023584291,0.011630816,0.76,0.29,-0.53,19130,9991.20,0,0,0,0.91,-2.38,1.33,0.76,0.29,-0.53
29.875977,0.003535843,-0.0016415715,0.002630815,0.77,0.31,-0.53,19146,9992.20,0,0,0,0.70,-2.66,0.70,0.77,0.31,-0.53
28.875977,-4.641572E-4,-6.415695E-4,0.0066308156,0.76,0.3,-0.53,19161,9991.20,0,0,0,0.42,-2.59,0.98,0.76,0.30,-0.53
29.875977,0.003535843,0.0013584308,0.016630813,0.77,0.31,-0.53,19176,9992.20,0,0,0,0.70,-2.45,1.68,0.77,0.31,-0.53
28.475586,0.004535843,-0.0036415681,0.016630813,0.76,0.31,-0.53,19191,9990.80,0,0,0,0.77,-2.80,1.68,0.76,0.31,-0.53
28.875977,0.0065358435,-0.0016415715,0.008630816,0.76,0.3,-0.53,19206,9991.20,0,0,0,0.91,-2.66,1.12,0.76,0.30,-0.53
29.875977,0.003535843,0.0013584308,0.019630816,0.77,0.3,-0.53,19221,9992.20,0,0,0,0.70,-2.45,1.89,0.77,0.30,-0.53
29.875977,0.004535843,0.0033584312,0.022630814,0.77,0.3,-0.53,19243,9992.20,0,0,0,0.77,-2.31,2.10,0.77,0.30,-0.53
30.576172,0.014535842,0.0033584312,-0.016369184,0.78,0.29,-0.53,19258,9992.90,0,0,0,1.47,-2.31,-0.63,0.78,0.29,-0.53
28.875977,0.011535842,-0.0036415681,-0.018369185,0.78,0.3,-0.53,19274,9991.20,0,0,0,1.26,-2.80,-0.77,0.78,0.30,-0.53
29.875977,-0.0054641566,-0.0056415685,-3.6918465E-4,0.78,0.3,-0.52,19288,9992.20,0,0,0,0.07,-2.94,0.49,0.78,0.30,-0.52
29.875977,-0.011464156,-0.012641571,0.003630815,0.77,0.32,-0.52,19303,9992.20,0,0,0,-0.35,-3.43,0.77,0.77,0.32,-0.52
29.875977,-0.010464157,-0.01764157,0.025630815,0.75,0.32,-0.53,19318,9992.20,0,0,0,-0.28,-3.78,2.31,0.75,0.32,-0.53
29.875977,0.010535844,-0.0026415698,-3.6918465E-4,0.76,0.32,-0.53,19340,9992.20,0,0,0,1.19,-2.73,0.49,0.76,0.32,-0.53
31.27539,0.027535845,-6.415695E-4,-0.014369185,0.77,0.31,-0.52,19356,9993.60,0,0,0,2.38,-2.59,-0.49,0.77,0.31,-0.52
29.875977,0.016535843,-6.415695E-4,0.0056308154,0.77,0.31,-0.52,19371,9992.20,0,0,0,1.61,-2.59,0.91,0.77,0.31,-0.52
30.875977,0.010535844,-0.01764157,0.024630817,0.76,0.31,-0.52,19386,9993.20,0,0,0,1.19,-3.78,2.24,0.76,0.31,-0.52
31.576172,0.015535843,-0.023641568,0.023630816,0.76,0.32,-0.52,19401,9993.90,0,0,0,1.54,-4.20,2.17,0.76,0.32,-0.52
31.27539,0.013535842,-0.025641572,0.036630817,0.74,0.32,-0.52,19416,9993.60,0,0,0,1.40,-4.34,3.08,0.74,0.32,-0.52
30.875977,0.030535843,-0.018641569,0.032630816,0.75,0.33,-0.52,19431,9993.20,0,0,0,2.59,-3.85,2.80,0.75,0.33,-0.52
30.875977,0.042535845,-0.010641567,0.03763082,0.75,0.33,-0.53,19453,9993.20,0,0,0,3.43,-3.29,3.15,0.75,0.33,-0.53
30.875977,0.056535844,-0.012641571,0.030630818,0.76,0.32,-0.53,19468,9993.20,0,0,0,4.41,-3.43,2.66,0.76,0.32,-0.53
32.27539,0.062535845,-0.0056415685,0.035630815,0.77,0.31,-0.53,19484,9994.60,0,0,0,4.83,-2.94,3.01,0.77,0.31,-0.53
32.27539,0.06553584,-0.01364157,0.035630815,0.78,0.28,-0.54,19498,9994.60,0,0,0,5.04,-3.50,3.01,0.78,0.28,-0.54
31.27539,0.060535844,-0.020641569,0.021630814,0.77,0.28,-0.54,19513,9993.60,0,0,0,4.69,-3.99,2.03,0.77,0.28,-0.54
31.27539,0.060535844,-0.02664157,0.017630816,0.78,0.26,-0.55,19529,9993.60,0,0,0,4.69,-4.41,1.75,0.78,0.26,-0.55
30.875977,0.045535844,-0.021641567,0.011630816,0.77,0.25,-0.55,19551,9993.20,0,0,0,3.64,-4.06,1.33,0.77,0.25,-0.55
32.27539,0.027535845,-0.010641567,0.021630814,0.77,0.24,-0.55,19566,9994.60,0,0,0,2.38,-3.29,2.03,0.77,0.24,-0.55
30.875977,0.0095358435,0.01035843,0.0046308143,0.77,0.24,-0.55,19580,9993.20,0,0,0,1.12,-1.82,0.84,0.77,0.24,-0.55
32.27539,-0.009464157,0.011358431,-0.0013691853,0.78,0.27,-0.54,19596,9994.60,0,0,0,-0.21,-1.75,0.42,0.78,0.27,-0.54
32.27539,-0.029464157,0.0063584317,0.021630814,0.77,0.29,-0.53,19612,9994.60,0,0,0,-1.61,-2.10,2.03,0.77,0.29,-0.53
32.27539,-0.016464157,0.0023584291,0.007630815,0.77,0.29,-0.53,19626,9994.60,0,0,0,-0.70,-2.38,1.05,0.77,0.29,-0.53
30.576172,-0.008464157,-0.0036415681,0.0016308147,0.78,0.29,-0.53,19640,9992.90,0,0,0,-0.14,-2.80,0.63,0.78,0.29,-0.53
31.975586,-0.013464157,-0.007641569,-0.0013691853,0.77,0.28,-0.53,19664,9994.30,0,0,0,-0.49,-3.08,0.42,0.77,0.28,-0.53
32.57617,-0.017464157,-0.009641569,0.0066308156,0.77,0.3,-0.53,19679,9994.90,0,0,0,-0.77,-3.22,0.98,0.77,0.30,-0.53
31.27539,-0.018464155,-0.0016415715,0.011630816,0.76,0.31,-0.53,19693,9993.60,0,0,0,-0.84,-2.66,1.33,0.76,0.31,-0.53
31.27539,-0.0014641569,0.0013584308,-0.007369185,0.77,0.31,-0.53,19708,9993.60,0,0,0,0.35,-2.45,0.00,0.77,0.31,-0.53
32.27539,0.0095358435,0.014358431,-0.017369185,0.77,0.31,-0.53,19738,9994.60,0,0,0,1.12,-1.54,-0.70,0.77,0.31,-0.53
31.27539,0.010535844,0.013358431,-0.015369185,0.78,0.29,-0.53,19739,9993.60,0,0,0,1.19,-1.61,-0.56,0.78,0.29,-0.53
32.27539,-0.006464157,-0.0056415685,0.0046308143,0.77,0.3,-0.53,19753,9994.60,0,0,0,0.00,-2.94,0.84,0.77,0.30,-0.53
32.27539,-0.013464157,-0.018641569,0.017630816,0.77,0.3,-0.53,19776,9994.60,0,0,0,-0.49,-3.85,1.75,0.77,0.30,-0.53
31.576172,-0.0054641566,-0.011641566,-0.0063691847,0.75,0.3,-0.53,19791,9993.90,0,0,0,0.07,-3.36,0.07,0.75,0.30,-0.53
31.27539,-0.008464157,-6.415695E-4,-0.007369185,0.75,0.29,-0.53,19806,9993.60,0,0,0,-0.14,-2.59,0.00,0.75,0.29,-0.53
32.27539,-0.006464157,0.01035843,-0.0013691853,0.76,0.3,-0.53,19821,9994.60,0,0,0,0.00,-1.82,0.42,0.76,0.30,-0.53
31.27539,-0.007464157,0.0053584296,0.002630815,0.77,0.29,-0.53,19836,9993.60,0,0,0,-0.07,-2.17,0.70,0.77,0.29,-0.53
30.175781,-0.007464157,-6.415695E-4,0.015630815,0.77,0.29,-0.53,19851,9992.50,0,0,0,-0.07,-2.59,1.61,0.77,0.29,-0.53
30.576172,5.358434E-4,-0.0036415681,-3.6918465E-4,0.78,0.29,-0.53,19866,9992.90,0,0,0,0.49,-2.80,0.49,0.78,0.29,-0.53
31.27539,-0.008464157,-0.0066415705,6.308155E-4,0.78,0.3,-0.53,19888,9993.60,0,0,0,-0.14,-3.01,0.56,0.78,0.30,-0.53
30.175781,-0.012464156,-0.014641568,0.012630815,0.77,0.29,-0.53,19903,9992.50,0,0,0,-0.42,-3.57,1.40,0.77,0.29,-0.53
30.576172,-0.014464157,-0.011641566,0.010630814,0.77,0.29,-0.53,19919,9992.90,0,0,0,-0.56,-3.36,1.26,0.77,0.29,-0.53
30.576172,-0.004464157,-0.0056415685,-0.0013691853,0.77,0.29,-0.53,19933,9992.90,0,0,0,0.14,-2.94,0.42,0.77,0.29,-0.53
31.576172,-4.641572E-4,0.0043584295,-0.009369185,0.77,0.29,-0.53,19949,9993.90,0,0,0,0.42,-2.24,-0.14,0.77,0.29,-0.53
29.475586,-0.003464157,-0.0026415698,-0.002369185,0.77,0.31,-0.53,19964,9991.80,0,0,0,0.21,-2.73,0.35,0.77,0.31,-0.53
29.475586,-0.006464157,-0.01764157,0.022630814,0.77,0.32,-0.53,19986,9991.80,0,0,0,0.00,-3.78,2.10,0.77,0.32,-0.53
27.875977,-4.641572E-4,-0.025641572,0.027630815,0.76,0.3,-0.54,20002,9990.20,0,0,0,0.42,-4.34,2.45,0.76,0.30,-0.54
29.475586,0.004535843,-0.01764157,0.008630816,0.75,0.3,-0.54,20016,9991.80,0,0,0,0.77,-3.78,1.12,0.75,0.30,-0.54
29.475586,0.004535843,-0.0036415681,0.0046308143,0.76,0.3,-0.54,20032,9991.80,0,0,0,0.77,-2.80,0.84,0.76,0.30,-0.54
28.475586,0.0025358428,0.00835843,0.0016308147,0.76,0.29,-0.54,20046,9990.80,0,0,0,0.63,-1.96,0.63,0.76,0.29,-0.54
28.475586,-4.641572E-4,0.01035843,-0.008369185,0.77,0.29,-0.54,20061,9990.80,0,0,0,0.42,-1.82,-0.07,0.77,0.29,-0.54
27.475586,-0.007464157,0.012358433,-0.0043691853,0.77,0.28,-0.54,20083,9989.80,0,0,0,-0.07,-1.68,0.21,0.77,0.28,-0.54
26.475586,-0.021464156,0.0063584317,6.308155E-4,0.77,0.28,-0.53,20099,9988.80,0,0,0,-1.05,-2.10,0.56,0.77,0.28,-0.53
27.475586,-0.042464156,-0.007641569,0.017630816,0.77,0.28,-0.53,20115,9989.80,0,0,0,-2.52,-3.08,1.75,0.77,0.28,-0.53
27.475586,-0.048464157,-0.009641569,0.026630817,0.75,0.3,-0.53,20129,9989.80,0,0,0,-2.94,-3.22,2.38,0.75,0.30,-0.53
25.375977,-0.042464156,0.0023584291,0.019630816,0.75,0.3,-0.53,20144,9987.70,0,0,0,-2.52,-2.38,1.89,0.75,0.30,-0.53
27.475586,-0.032464158,0.02035843,0.010630814,0.75,0.3,-0.53,20158,9989.80,0,0,0,-1.82,-1.12,1.26,0.75,0.30,-0.53
26.475586,-0.016464157,0.027358431,0.007630815,0.77,0.31,-0.52,20182,9988.80,0,0,0,-0.70,-0.63,1.05,0.77,0.31,-0.52
26.77539,-0.008464157,0.01735843,0.012630815,0.79,0.3,-0.53,20197,9989.10,0,0,0,-0.14,-1.33,1.40,0.79,0.30,-0.53
26.77539,-0.015464157,-0.0056415685,0.016630813,0.78,0.29,-0.53,20212,9989.10,0,0,0,-0.63,-2.94,1.68,0.78,0.29,-0.53
26.77539,-0.027464157,-0.011641566,0.022630814,0.78,0.29,-0.53,20226,9989.10,0,0,0,-1.47,-3.36,2.10,0.78,0.29,-0.53
26.77539,-0.035464156,-0.01364157,0.022630814,0.78,0.29,-0.53,20240,9989.10,0,0,0,-2.03,-3.50,2.10,0.78,0.29,-0.53
25.375977,-0.032464158,-0.01364157,0.0046308143,0.77,0.29,-0.53,20256,9987.70,0,0,0,-1.82,-3.50,0.84,0.77,0.29,-0.53
26.77539,-0.027464157,3.5843253E-4,-0.012369185,0.77,0.29,-0.53,20279,9989.10,0,0,0,-1.47,-2.52,-0.35,0.77,0.29,-0.53
25.77539,-0.027464157,0.01035843,-0.002369185,0.77,0.3,-0.53,20294,9988.10,0,0,0,-1.47,-1.82,0.35,0.77,0.30,-0.53
25.77539,-0.025464159,0.0043584295,0.0056308154,0.77,0.3,-0.53,20308,9988.10,0,0,0,-1.33,-2.24,0.91,0.77,0.30,-0.53
25.77539,-0.023464158,-0.0036415681,0.007630815,0.77,0.3,-0.53,20323,9988.10,0,0,0,-1.19,-2.80,1.05,0.77,0.30,-0.53
24.675781,-0.012464156,-0.010641567,0.0056308154,0.77,0.3,-0.53,20339,9987.00,0,0,0,-0.42,-3.29,0.91,0.77,0.30,-0.53
25.375977,-0.012464156,-0.009641569,0.009630816,0.77,0.3,-0.53,20354,9987.70,0,0,0,-0.42,-3.22,1.19,0.77,0.30,-0.53
25.77539,-0.018464155,-0.011641566,0.018630816,0.77,0.29,-0.53,20370,9988.10,0,0,0,-0.84,-3.36,1.82,0.77,0.29,-0.53
25.77539,-0.023464158,0.0033584312,0.015630815,0.77,0.29,-0.53,20391,9988.10,0,0,0,-1.19,-2.31,1.61,0.77,0.29,-0.53
25.076172,-0.021464156,0.007358432,0.013630815,0.78,0.3,-0.53,20405,9987.40,0,0,0,-1.05,-2.03,1.47,0.78,0.30,-0.53
23.675781,-0.022464158,0.011358431,0.0056308154,0.77,0.3,-0.53,20421,9986.00,0,0,0,-1.12,-1.75,0.91,0.77,0.30,-0.53
24.675781,-0.022464158,0.0043584295,0.0056308154,0.77,0.31,-0.53,20436,9987.00,0,0,0,-1.12,-2.24,0.91,0.77,0.31,-0.53
23.675781,-0.018464155,-6.415695E-4,0.020630816,0.77,0.31,-0.53,20451,9986.00,0,0,0,-0.84,-2.59,1.96,0.77,0.31,-0.53
24.076172,-0.012464156,-0.0046415664,0.003630815,0.77,0.3,-0.52,20466,9986.40,0,0,0,-0.42,-2.87,0.77,0.77,0.30,-0.52
23.675781,-0.010464157,-0.010641567,-0.0033691847,0.77,0.29,-0.53,20488,9986.00,0,0,0,-0.28,-3.29,0.28,0.77,0.29,-0.53
22.975586,-0.019464158,-0.012641571,0.012630815,0.77,0.29,-0.53,20503,9985.30,0,0,0,-0.91,-3.43,1.40,0.77,0.29,-0.53
22.975586,-0.017464157,-0.0066415705,6.308155E-4,0.77,0.29,-0.53,20519,9985.30,0,0,0,-0.77,-3.01,0.56,0.77,0.29,-0.53
21.975586,-0.016464157,-0.0026415698,-0.0033691847,0.77,0.3,-0.53,20541,9984.30,0,0,0,-0.70,-2.73,0.28,0.77,0.30,-0.53
22.975586,-0.023464158,-0.0026415698,0.017630816,0.77,0.29,-0.53,20556,9985.30,0,0,0,-1.19,-2.73,1.75,0.77,0.29,-0.53
22.675781,-0.024464156,-0.0036415681,0.019630816,0.77,0.3,-0.53,20579,9985.00,0,0,0,-1.26,-2.80,1.89,0.77,0.30,-0.53
22.975586,-0.010464157,-0.007641569,0.012630815,0.77,0.3,-0.53,20593,9985.30,0,0,0,-0.28,-3.08,1.40,0.77,0.30,-0.53
20.576172,-0.014464157,-0.0056415685,0.010630814,0.77,0.29,-0.53,20615,9982.90,0,0,0,-0.56,-2.94,1.26,0.77,0.29,-0.53
21.975586,-0.022464158,-0.011641566,0.010630814,0.76,0.29,-0.53,20638,9984.30,0,0,0,-1.12,-3.36,1.26,0.76,0.29,-0.53
21.975586,-0.019464158,0.0043584295,0.012630815,0.77,0.3,-0.52,20653,9984.30,0,0,0,-0.91,-2.24,1.40,0.77,0.30,-0.52
21.975586,-0.015464157,0.01035843,-0.0043691853,0.77,0.3,-0.53,20668,9984.30,0,0,0,-0.63,-1.82,0.21,0.77,0.30,-0.53
21.27539,-0.016464157,0.007358432,0.010630814,0.78,0.3,-0.52,20691,9983.60,0,0,0,-0.70,-2.03,1.26,0.78,0.30,-0.52
21.27539,-0.021464156,-6.415695E-4,0.018630816,0.78,0.3,-0.53,20706,9983.60,0,0,0,-1.05,-2.59,1.82,0.78,0.30,-0.53
21.27539,-0.021464156,-0.008641571,0.010630814,0.77,0.29,-0.53,20729,9983.60,0,0,0,-1.05,-3.15,1.26,0.77,0.29,-0.53
21.975586,-0.014464157,0.007358432,-0.010369184,0.77,0.3,-0.53,20743,9984.30,0,0,0,-0.56,-2.03,-0.21,0.77,0.30,-0.53
20.27539,-0.016464157,0.00935843,-0.0043691853,0.77,0.32,-0.52,20766,9982.60,0,0,0,-0.70,-1.89,0.21,0.77,0.32,-0.52
21.27539,-0.0054641566,0.0063584317,0.009630816,0.77,0.3,-0.52,20781,9983.60,0,0,0,0.07,-2.10,1.19,0.77,0.30,-0.52
21.27539,-0.009464157,0.007358432,0.002630815,0.77,0.29,-0.52,20803,9983.60,0,0,0,-0.21,-2.03,0.70,0.77,0.29,-0.52
21.576172,-0.0054641566,0.011358431,-0.0043691853,0.78,0.29,-0.52,20818,9983.90,0,0,0,0.07,-1.75,0.21,0.78,0.29,-0.52
20.576172,-0.013464157,0.0043584295,-0.0113691855,0.78,0.29,-0.53,20841,9982.90,0,0,0,-0.49,-2.24,-0.28,0.78,0.29,-0.53
21.576172,-0.030464156,-0.010641567,6.308155E-4,0.77,0.29,-0.53,20856,9983.90,0,0,0,-1.68,-3.29,0.56,0.77,0.29,-0.53
19.27539,-0.033464156,-0.0016415715,-0.007369185,0.76,0.29,-0.53,20879,9981.60,0,0,0,-1.89,-2.66,0.00,0.76,0.29,-0.53
21.576172,-0.029464157,0.00935843,-0.016369184,0.76,0.3,-0.52,20893,9983.90,0,0,0,-1.61,-1.89,-0.63,0.76,0.30,-0.52
21.576172,-0.020464158,0.018358432,-0.030369185,0.77,0.3,-0.51,20908,9983.90,0,0,0,-0.98,-1.26,-1.61,0.77,0.30,-0.51
21.576172,-0.026464157,-6.415695E-4,0.003630815,0.78,0.31,-0.51,20931,9983.90,0,0,0,-1.40,-2.59,0.77,0.78,0.31,-0.51
21.576172,-0.024464156,-0.01564157,0.027630815,0.78,0.33,-0.51,20946,9983.90,0,0,0,-1.26,-3.64,2.45,0.78,0.33,-0.51
22.675781,-0.008464157,-0.02264157,0.026630817,0.76,0.33,-0.51,20961,9985.00,0,0,0,-0.14,-4.13,2.38,0.76,0.33,-0.51
21.576172,0.011535842,-0.012641571,0.013630815,0.76,0.32,-0.52,20976,9983.90,0,0,0,1.26,-3.43,1.47,0.76,0.32,-0.52
22.675781,0.036535844,3.5843253E-4,-0.0043691853,0.77,0.29,-0.52,20998,9985.00,0,0,0,3.01,-2.52,0.21,0.77,0.29,-0.52
23.675781,0.037535843,0.00935843,-0.020369185,0.78,0.28,-0.52,21014,9986.00,0,0,0,3.08,-1.89,-0.91,0.78,0.28,-0.52
23.975586,0.016535843,-0.0066415705,0.003630815,0.78,0.28,-0.52,21036,9986.30,0,0,0,1.61,-3.01,0.77,0.78,0.28,-0.52
23.675781,0.008535843,-0.012641571,0.009630816,0.77,0.29,-0.52,21050,9986.00,0,0,0,1.05,-3.43,1.19,0.77,0.29,-0.52
24.975586,0.0095358435,-0.016641568,-0.0013691853,0.75,0.3,-0.52,21065,9987.30,0,0,0,1.12,-3.71,0.42,0.75,0.30,-0.52
25.675781,0.0075358436,0.0033584312,0.007630815,0.75,0.31,-0.52,21088,9988.00,0,0,0,0.98,-2.31,1.05,0.75,0.31,-0.52
26.076172,0.015535843,0.00935843,0.024630817,0.75,0.32,-0.53,21103,9988.40,0,0,0,1.54,-1.89,2.24,0.75,0.32,-0.53
26.076172,0.024535844,0.016358431,0.03763082,0.76,0.31,-0.53,21126,9988.40,0,0,0,2.17,-1.40,3.15,0.76,0.31,-0.53
26.076172,0.032535844,0.011358431,0.03763082,0.78,0.3,-0.53,21141,9988.40,0,0,0,2.73,-1.75,3.15,0.78,0.30,-0.53
26.77539,0.036535844,0.011358431,0.003630815,0.79,0.28,-0.52,21164,9989.10,0,0,0,3.01,-1.75,0.77,0.79,0.28,-0.52
28.076172,0.023535842,3.5843253E-4,6.308155E-4,0.81,0.27,-0.52,21179,9990.40,0,0,0,2.10,-2.52,0.56,0.81,0.27,-0.52
28.076172,0.004535843,-0.01564157,0.0056308154,0.81,0.28,-0.52,21201,9990.40,0,0,0,0.77,-3.64,0.91,0.81,0.28,-0.52
28.475586,0.0025358428,-0.01764157,-0.0053691845,0.8,0.29,-0.52,21215,9990.80,0,0,0,0.63,-3.78,0.14,0.80,0.29,-0.52
29.076172,-0.003464157,-0.016641568,-0.017369185,0.78,0.29,-0.52,21239,9991.40,0,0,0,0.21,-3.71,-0.70,0.78,0.29,-0.52
28.076172,-0.008464157,-0.012641571,-0.012369185,0.77,0.31,-0.52,21253,9990.40,0,0,0,-0.14,-3.43,-0.35,0.77,0.31,-0.52
29.076172,0.003535843,-0.011641566,-0.020369185,0.76,0.32,-0.52,21268,9991.40,0,0,0,0.70,-3.36,-0.91,0.76,0.32,-0.52
29.076172,0.016535843,-0.018641569,-0.008369185,0.76,0.31,-0.53,21291,9991.40,0,0,0,1.61,-3.85,-0.07,0.76,0.31,-0.53
29.475586,0.020535843,-0.011641566,6.308155E-4,0.76,0.31,-0.52,21306,9991.80,0,0,0,1.89,-3.36,0.56,0.76,0.31,-0.52
29.076172,0.026535843,-0.0066415705,-0.010369184,0.76,0.3,-0.53,21329,9991.40,0,0,0,2.31,-3.01,-0.21,0.76,0.30,-0.53
28.475586,0.022535842,-0.0056415685,-3.6918465E-4,0.77,0.29,-0.53,21343,9990.80,0,0,0,2.03,-2.94,0.49,0.77,0.29,-0.53
28.475586,0.0065358435,-0.0066415705,0.0066308156,0.76,0.29,-0.53,21365,9990.80,0,0,0,0.91,-3.01,0.98,0.76,0.29,-0.53
29.475586,-0.0024641566,-0.0046415664,0.021630814,0.76,0.29,-0.53,21380,9991.80,0,0,0,0.28,-2.87,2.03,0.76,0.29,-0.53
28.475586,0.0025358428,0.015358431,0.0056308154,0.77,0.3,-0.53,21403,9990.80,0,0,0,0.63,-1.47,0.91,0.77,0.30,-0.53
29.475586,0.0095358435,0.011358431,-0.010369184,0.78,0.29,-0.53,21418,9991.80,0,0,0,1.12,-1.75,-0.21,0.78,0.29,-0.53
29.475586,-4.641572E-4,-0.0056415685,0.015630815,0.79,0.3,-0.52,21441,9991.80,0,0,0,0.42,-2.94,1.61,0.79,0.30,-0.52
28.475586,-0.007464157,-0.01764157,0.024630817,0.78,0.3,-0.52,21456,9990.80,0,0,0,-0.07,-3.78,2.24,0.78,0.30,-0.52
27.375977,0.011535842,-0.01564157,6.308155E-4,0.77,0.3,-0.53,21478,9989.70,0,0,0,1.26,-3.64,0.56,0.77,0.30,-0.53
28.77539,0.026535843,0.0053584296,-0.021369185,0.78,0.29,-0.53,21493,9991.10,0,0,0,2.31,-2.17,-0.98,0.78,0.29,-0.53
29.076172,0.021535844,0.0023584291,-0.030369185,0.79,0.28,-0.53,21508,9991.40,0,0,0,1.96,-2.38,-1.61,0.79,0.28,-0.53
29.475586,-0.0054641566,-0.01964157,0.013630815,0.79,0.29,-0.52,21531,9991.80,0,0,0,0.07,-3.92,1.47,0.79,0.29,-0.52
30.77539,-0.008464157,-0.025641572,0.011630816,0.77,0.3,-0.53,21553,9993.10,0,0,0,-0.14,-4.34,1.33,0.77,0.30,-0.53
29.076172,0.008535843,-0.02464157,-0.016369184,0.76,0.29,-0.53,21568,9991.40,0,0,0,1.05,-4.27,-0.63,0.76,0.29,-0.53
28.475586,0.010535844,-0.0026415698,-0.015369185,0.76,0.29,-0.53,21583,9990.80,0,0,0,1.19,-2.73,-0.56,0.76,0.29,-0.53
28.475586,-4.641572E-4,-0.0026415698,-0.012369185,0.77,0.3,-0.53,21605,9990.80,0,0,0,0.42,-2.73,-0.35,0.77,0.30,-0.53
28.77539,-0.006464157,-0.0026415698,0.002630815,0.77,0.31,-0.52,21621,9991.10,0,0,0,0.00,-2.73,0.70,0.77,0.31,-0.52
29.77539,0.0015358436,-0.0046415664,0.014630815,0.77,0.3,-0.53,21644,9992.10,0,0,0,0.56,-2.87,1.54,0.77,0.30,-0.53
29.77539,0.0055358424,-0.009641569,-0.0013691853,0.76,0.3,-0.52,21659,9992.10,0,0,0,0.84,-3.22,0.42,0.76,0.30,-0.52
30.77539,-0.003464157,-0.0046415664,0.021630814,0.77,0.29,-0.52,21681,9993.10,0,0,0,0.21,-2.87,2.03,0.77,0.29,-0.52
30.77539,-0.004464157,-0.007641569,0.021630814,0.77,0.3,-0.53,21696,9993.10,0,0,0,0.14,-3.08,2.03,0.77,0.30,-0.53
30.076172,-0.0054641566,-0.0066415705,0.009630816,0.77,0.3,-0.53,21719,9992.40,0,0,0,0.07,-3.01,1.19,0.77,0.30,-0.53
31.175781,-0.014464157,-0.0026415698,0.024630817,0.76,0.31,-0.53,21734,9993.50,0,0,0,-0.56,-2.73,2.24,0.76,0.31,-0.53
30.076172,5.358434E-4,-6.415695E-4,0.011630816,0.76,0.3,-0.53,21756,9992.40,0,0,0,0.49,-2.59,1.33,0.76,0.30,-0.53
30.076172,0.0055358424,0.00835843,0.0046308143,0.77,0.3,-0.52,21770,9992.40,0,0,0,0.84,-1.96,0.84,0.77,0.30,-0.52
30.77539,0.0025358428,3.5843253E-4,0.007630815,0.78,0.28,-0.52,21793,9993.10,0,0,0,0.63,-2.52,1.05,0.78,0.28,-0.52
30.076172,-0.003464157,-0.010641567,0.014630815,0.78,0.29,-0.52,21808,9992.40,0,0,0,0.21,-3.29,1.54,0.78,0.29,-0.52
31.175781,-0.003464157,-0.01564157,0.034630813,0.79,0.29,-0.52,21831,9993.50,0,0,0,0.21,-3.64,2.94,0.79,0.29,-0.52
30.076172,0.0025358428,-0.01964157,0.012630815,0.78,0.3,-0.53,21846,9992.40,0,0,0,0.63,-3.92,1.40,0.78,0.30,-0.53
30.076172,5.358434E-4,-0.020641569,0.021630814,0.77,0.29,-0.53,21861,9992.40,0,0,0,0.49,-3.99,2.03,0.77,0.29,-0.53
31.175781,0.0095358435,0.0023584291,0.009630816,0.77,0.29,-0.53,21884,9993.50,0,0,0,1.12,-2.38,1.19,0.77,0.29,-0.53
30.076172,0.012535844,0.0053584296,-0.010369184,0.78,0.29,-0.53,21906,9992.40,0,0,0,1.33,-2.17,-0.21,0.78,0.29,-0.53
31.175781,0.0075358436,0.0043584295,6.308155E-4,0.78,0.28,-0.53,21921,9993.50,0,0,0,0.98,-2.24,0.56,0.78,0.28,-0.53
31.175781,-0.0014641569,-0.012641571,0.002630815,0.78,0.28,-0.53,21943,9993.50,0,0,0,0.35,-3.43,0.70,0.78,0.28,-0.53
31.475586,-0.022464158,-0.018641569,0.013630815,0.76,0.29,-0.53,21958,9993.80,0,0,0,-1.12,-3.85,1.47,0.76,0.29,-0.53
30.076172,-0.018464155,-0.0066415705,0.010630814,0.75,0.3,-0.53,21981,9992.40,0,0,0,-0.84,-3.01,1.26,0.75,0.30,-0.53
31.475586,-0.006464157,0.014358431,0.008630816,0.76,0.31,-0.53,21996,9993.80,0,0,0,0.00,-1.54,1.12,0.76,0.31,-0.53
31.475586,0.010535844,0.02135843,-0.0043691853,0.78,0.29,-0.52,22018,9993.80,0,0,0,1.19,-1.05,0.21,0.78,0.29,-0.52
31.175781,-0.006464157,0.0053584296,0.013630815,0.78,0.29,-0.53,22033,9993.50,0,0,0,0.00,-2.17,1.47,0.78,0.29,-0.53
31.475586,-0.009464157,-0.011641566,0.019630816,0.78,0.29,-0.53,22049,9993.80,0,0,0,-0.21,-3.36,1.89,0.78,0.29,-0.53
31.475586,-0.017464157,-0.01564157,0.008630816,0.77,0.29,-0.53,22070,9993.80,0,0,0,-0.77,-3.64,1.12,0.77,0.29,-0.53
31.475586,-0.017464157,-0.0066415705,6.308155E-4,0.77,0.3,-0.53,22086,9993.80,0,0,0,-0.77,-3.01,0.56,0.77,0.30,-0.53
30.076172,-0.0054641566,0.0043584295,0.003630815,0.76,0.31,-0.52,22109,9992.40,0,0,0,0.07,-2.24,0.77,0.76,0.31,-0.52
32.875977,-4.641572E-4,3.5843253E-4,0.017630816,0.77,0.3,-0.52,22130,9995.20,0,0,0,0.42,-2.52,1.75,0.77,0.30,-0.52
32.475586,0.0025358428,3.5843253E-4,0.022630814,0.77,0.3,-0.52,22146,9994.80,0,0,0,0.63,-2.52,2.10,0.77,0.30,-0.52
30.475586,0.011535842,-0.0016415715,0.002630815,0.77,0.29,-0.53,22176,9992.80,0,0,0,1.26,-2.66,0.70,0.77,0.29,-0.53
30.475586,0.0015358436,-0.01364157,0.009630816,0.77,0.28,-0.53,22183,9992.80,0,0,0,0.56,-3.50,1.19,0.77,0.28,-0.53
31.475586,-0.0054641566,-0.01364157,0.027630815,0.77,0.29,-0.53,22206,9993.80,0,0,0,0.07,-3.50,2.45,0.77,0.29,-0.53
30.475586,-0.011464156,-0.007641569,0.027630815,0.77,0.29,-0.53,22220,9992.80,0,0,0,-0.35,-3.08,2.45,0.77,0.29,-0.53
31.77539,-0.017464157,-0.0056415685,0.035630815,0.75,0.3,-0.53,22243,9994.10,0,0,0,-0.77,-2.94,3.01,0.75,0.30,-0.53
31.77539,-0.019464158,0.012358433,0.051630817,0.75,0.3,-0.53,22259,9994.10,0,0,0,-0.91,-1.68,4.13,0.75,0.30,-0.53
30.77539,-0.0054641566,0.024358433,0.046630815,0.75,0.31,-0.52,22296,9993.10,0,0,0,0.07,-0.84,3.78,0.75,0.31,-0.52
31.475586,0.014535842,0.033358432,0.049630813,0.77,0.3,-0.51,22297,9993.80,0,0,0,1.47,-0.21,3.99,0.77,0.30,-0.51
32.875977,0.028535843,0.03235843,0.046630815,0.8,0.28,-0.51,22318,9995.20,0,0,0,2.45,-0.28,3.78,0.80,0.28,-0.51
30.77539,0.042535845,0.013358431,0.036630817,0.81,0.28,-0.52,22333,9993.10,0,0,0,3.43,-1.61,3.08,0.81,0.28,-0.52
31.77539,0.026535843,3.5843253E-4,0.047630817,0.82,0.26,-0.52,22348,9994.10,0,0,0,2.31,-2.52,3.85,0.82,0.26,-0.52
31.77539,0.015535843,-0.0026415698,0.013630815,0.82,0.25,-0.53,22370,9994.10,0,0,0,1.54,-2.73,1.47,0.82,0.25,-0.53
30.77539,0.0055358424,-0.012641571,-0.012369185,0.81,0.27,-0.53,22385,9993.10,0,0,0,0.84,-3.43,-0.35,0.81,0.27,-0.53
31.77539,-0.013464157,-0.01964157,-0.0113691855,0.8,0.26,-0.53,22408,9994.10,0,0,0,-0.49,-3.92,-0.28,0.80,0.26,-0.53
30.77539,-0.011464156,-0.01364157,-0.032369185,0.79,0.27,-0.53,22423,9993.10,0,0,0,-0.35,-3.50,-1.75,0.79,0.27,-0.53
30.77539,-0.016464157,-0.014641568,-0.040369183,0.78,0.28,-0.53,22446,9993.10,0,0,0,-0.70,-3.57,-2.31,0.78,0.28,-0.53
29.77539,-0.019464158,-0.021641567,-0.024369186,0.77,0.28,-0.53,22461,9992.10,0,0,0,-0.91,-4.06,-1.19,0.77,0.28,-0.53
28.675781,-0.019464158,-0.01564157,-0.016369184,0.75,0.29,-0.53,22483,9991.00,0,0,0,-0.91,-3.64,-0.63,0.75,0.29,-0.53
30.076172,-0.012464156,-0.010641567,-0.010369184,0.76,0.3,-0.53,22499,9992.40,0,0,0,-0.42,-3.29,-0.21,0.76,0.30,-0.53
28.375977,-0.015464157,-0.0026415698,0.0016308147,0.76,0.3,-0.53,22521,9990.70,0,0,0,-0.63,-2.73,0.63,0.76,0.30,-0.53
28.076172,-0.024464156,-0.0036415681,0.018630816,0.76,0.29,-0.53,22536,9990.40,0,0,0,-1.26,-2.80,1.82,0.76,0.29,-0.53
28.076172,-0.029464157,-6.415695E-4,0.018630816,0.77,0.3,-0.52,22551,9990.40,0,0,0,-1.61,-2.59,1.82,0.77,0.30,-0.52
28.076172,-0.020464158,3.5843253E-4,0.0046308143,0.78,0.3,-0.52,22573,9990.40,0,0,0,-0.98,-2.52,0.84,0.78,0.30,-0.52
26.975586,-0.0054641566,-0.0016415715,-0.0113691855,0.78,0.3,-0.52,22588,9989.30,0,0,0,0.07,-2.66,-0.28,0.78,0.30,-0.52
26.975586,-0.027464157,-0.01764157,0.017630816,0.78,0.29,-0.52,22613,9989.30,0,0,0,-1.47,-3.78,1.75,0.78,0.29,-0.52
25.975586,-0.024464156,-0.01964157,0.020630816,0.77,0.29,-0.53,22626,9988.30,0,0,0,-1.26,-3.92,1.96,0.77,0.29,-0.53
25.975586,-0.017464157,-0.012641571,-0.0013691853,0.77,0.29,-0.53,22648,9988.30,0,0,0,-0.77,-3.43,0.42,0.77,0.29,-0.53
24.975586,-0.022464158,-0.011641566,0.013630815,0.77,0.29,-0.53,22663,9987.30,0,0,0,-1.12,-3.36,1.47,0.77,0.29,-0.53
24.975586,-0.021464156,-0.0026415698,0.007630815,0.77,0.28,-0.53,22686,9987.30,0,0,0,-1.05,-2.73,1.05,0.77,0.28,-0.53
25.27539,-0.020464158,-0.0036415681,0.0016308147,0.78,0.29,-0.52,22700,9987.60,0,0,0,-0.98,-2.80,0.63,0.78,0.29,-0.52
25.27539,-0.025464159,-0.0056415685,0.008630816,0.78,0.3,-0.52,22723,9987.60,0,0,0,-1.33,-2.94,1.12,0.78,0.30,-0.52
24.27539,-0.025464159,-0.016641568,0.014630815,0.78,0.3,-0.52,22737,9986.60,0,0,0,-1.33,-3.71,1.54,0.78,0.30,-0.52
23.27539,-0.017464157,-0.018641569,0.022630814,0.78,0.29,-0.52,22760,9985.60,0,0,0,-0.77,-3.85,2.10,0.78,0.29,-0.52
23.27539,-0.013464157,-0.014641568,0.0066308156,0.78,0.29,-0.52,22775,9985.60,0,0,0,-0.49,-3.57,0.98,0.78,0.29,-0.52
24.27539,-0.008464157,-0.008641571,0.007630815,0.77,0.29,-0.53,22799,9986.60,0,0,0,-0.14,-3.15,1.05,0.77,0.29,-0.53
22.175781,-0.012464156,-0.0016415715,0.003630815,0.77,0.28,-0.53,22813,9984.50,0,0,0,-0.42,-2.66,0.77,0.77,0.28,-0.53
23.875977,-0.017464157,0.0053584296,-0.0053691845,0.77,0.29,-0.52,22835,9986.20,0,0,0,-0.77,-2.17,0.14,0.77,0.29,-0.52
21.175781,-0.020464158,0.007358432,0.0046308143,0.77,0.29,-0.52,22858,9983.50,0,0,0,-0.98,-2.03,0.84,0.77,0.29,-0.52
20.175781,-0.022464158,0.0043584295,0.009630816,0.77,0.29,-0.52,22882,9982.50,0,0,0,-1.12,-2.24,1.19,0.77,0.29,-0.52
21.175781,-0.022464158,-0.0026415698,0.011630816,0.77,0.29,-0.53,22896,9983.50,0,0,0,-1.12,-2.73,1.33,0.77,0.29,-0.53
17.375977,-0.030464156,-0.0026415698,0.023630816,0.77,0.3,-0.53,22918,9979.70,0,0,0,-1.68,-2.73,2.17,0.77,0.30,-0.53
21.475586,-0.020464158,-0.0026415698,0.010630814,0.77,0.3,-0.53,22933,9983.80,0,0,0,-0.98,-2.73,1.26,0.77,0.30,-0.53
20.475586,-0.023464158,3.5843253E-4,0.014630815,0.78,0.29,-0.53,22948,9982.80,0,0,0,-1.19,-2.52,1.54,0.78,0.29,-0.53
19.175781,-0.032464158,3.5843253E-4,0.012630815,0.77,0.28,-0.53,22971,9981.50,0,0,0,-1.82,-2.52,1.40,0.77,0.28,-0.53
19.475586,-0.036464155,0.0013584308,0.010630814,0.78,0.29,-0.52,22986,9981.80,0,0,0,-2.10,-2.45,1.26,0.78,0.29,-0.52
18.475586,-0.030464156,-0.010641567,0.0046308143,0.79,0.29,-0.51,23008,9980.80,0,0,0,-1.68,-3.29,0.84,0.79,0.29,-0.51
19.475586,-0.041464157,-0.016641568,0.0046308143,0.78,0.3,-0.51,23023,9981.80,0,0,0,-2.45,-3.71,0.84,0.78,0.30,-0.51
18.475586,-0.030464156,-0.014641568,0.018630816,0.77,0.31,-0.52,23046,9980.80,0,0,0,-1.68,-3.57,1.82,0.77,0.31,-0.52
18.475586,-0.016464157,-0.012641571,0.014630815,0.77,0.29,-0.52,23062,9980.80,0,0,0,-0.70,-3.43,1.54,0.77,0.29,-0.52
19.475586,-0.011464156,-0.012641571,-0.008369185,0.77,0.3,-0.52,23083,9981.80,0,0,0,-0.35,-3.43,-0.07,0.77,0.30,-0.52
17.375977,-0.004464157,-0.0046415664,0.002630815,0.78,0.29,-0.52,23098,9979.70,0,0,0,0.14,-2.87,0.70,0.78,0.29,-0.52
17.375977,-0.011464156,-0.0046415664,-0.012369185,0.78,0.28,-0.51,23121,9979.70,0,0,0,-0.35,-2.87,-0.35,0.78,0.28,-0.51
18.475586,-0.013464157,-0.008641571,-0.0043691853,0.78,0.29,-0.52,23136,9980.80,0,0,0,-0.49,-3.15,0.21,0.78,0.29,-0.52
17.375977,-0.020464158,-0.0046415664,0.010630814,0.77,0.29,-0.52,23158,9979.70,0,0,0,-0.98,-2.87,1.26,0.77,0.29,-0.52
17.77539,-0.025464159,-0.0056415685,0.015630815,0.77,0.3,-0.52,23173,9980.10,0,0,0,-1.33,-2.94,1.61,0.77,0.30,-0.52
17.77539,-0.015464157,0.0013584308,0.007630815,0.77,0.31,-0.52,23188,9980.10,0,0,0,-0.63,-2.45,1.05,0.77,0.31,-0.52
18.076172,-0.016464157,0.0063584317,0.0056308154,0.77,0.31,-0.52,23211,9980.40,0,0,0,-0.70,-2.10,0.91,0.77,0.31,-0.52
17.77539,-0.011464156,0.0013584308,0.017630816,0.77,0.3,-0.52,23225,9980.10,0,0,0,-0.35,-2.45,1.75,0.77,0.30,-0.52
18.375977,-0.007464157,0.0033584312,0.014630815,0.77,0.29,-0.52,23249,9980.70,0,0,0,-0.07,-2.31,1.54,0.77,0.29,-0.52
16.675781,-0.009464157,0.0023584291,0.015630815,0.78,0.29,-0.52,23263,9979.00,0,0,0,-0.21,-2.38,1.61,0.78,0.29,-0.52
18.076172,-0.012464156,0.0013584308,0.026630817,0.78,0.3,-0.52,23286,9980.40,0,0,0,-0.42,-2.45,2.38,0.78,0.30,-0.52
16.675781,-0.003464157,3.5843253E-4,0.026630817,0.78,0.3,-0.52,23301,9979.00,0,0,0,0.21,-2.52,2.38,0.78,0.30,-0.52
16.675781,0.0015358436,0.0013584308,0.0066308156,0.78,0.29,-0.52,23323,9979.00,0,0,0,0.56,-2.45,0.98,0.78,0.29,-0.52
17.77539,0.003535843,0.0033584312,0.014630815,0.77,0.29,-0.52,23339,9980.10,0,0,0,0.70,-2.31,1.54,0.77,0.29,-0.52
17.076172,-0.003464157,0.0053584296,0.020630816,0.77,0.3,-0.51,23361,9979.40,0,0,0,0.21,-2.17,1.96,0.77,0.30,-0.51
18.076172,0.0055358424,0.01035843,0.019630816,0.77,0.3,-0.51,23376,9980.40,0,0,0,0.84,-1.82,1.89,0.77,0.30,-0.51
18.076172,0.029535841,0.02135843,0.007630815,0.8,0.24,-0.53,23399,9980.40,0,0,0,2.52,-1.05,1.05,0.80,0.24,-0.53
18.076172,5.358434E-4,0.01935843,-0.008369185,0.79,0.24,-0.55,23414,9980.40,0,0,0,0.49,-1.19,-0.07,0.79,0.24,-0.55
19.076172,0.0075358436,0.052358434,-0.067369185,0.77,0.24,-0.57,23436,9981.40,0,0,0,0.98,1.12,-4.20,0.77,0.24,-0.57
18.77539,-0.011464156,0.08035843,-0.10136918,0.78,0.26,-0.57,23451,9981.10,0,0,0,-0.35,3.08,-6.58,0.78,0.26,-0.57
20.475586,-0.048464157,0.101358436,-0.11036918,0.71,0.28,-0.56,23473,9982.80,0,0,0,-2.94,4.55,-7.21,0.71,0.28,-0.56
21.175781,-0.07846415,0.104358435,-0.10936918,0.75,0.31,-0.53,23488,9983.50,0,0,0,-5.04,4.76,-7.14,0.75,0.31,-0.53
20.475586,-0.18946417,0.053358432,0.09563082,0.76,0.34,-0.49,23510,9982.80,0,0,0,-12.81,1.19,7.21,0.76,0.34,-0.49
21.475586,-0.18246415,0.02835843,0.1386308,0.75,0.39,-0.47,23526,9983.80,0,0,0,-12.32,-0.56,10.22,0.75,0.39,-0.47
22.475586,-0.08546416,0.025358431,0.11563081,0.77,0.38,-0.46,23541,9984.80,0,0,0,-5.53,-0.77,8.61,0.77,0.38,-0.46
22.475586,0.0095358435,0.029358432,0.064630814,0.8,0.34,-0.46,23563,9984.80,0,0,0,1.12,-0.49,5.04,0.80,0.34,-0.46
22.475586,0.048535842,0.013358431,0.055630818,0.78,0.3,-0.47,23579,9984.80,0,0,0,3.85,-1.61,4.41,0.78,0.30,-0.47
22.475586,0.07853585,0.026358431,0.014630815,0.82,0.26,-0.48,23601,9984.80,0,0,0,5.95,-0.70,1.54,0.82,0.26,-0.48
23.576172,0.05153584,0.0053584296,0.013630815,0.84,0.25,-0.48,23623,9985.90,0,0,0,4.06,-2.17,1.47,0.84,0.25,-0.48
23.576172,0.032535844,0.01035843,0.013630815,0.83,0.27,-0.49,23638,9985.90,0,0,0,2.73,-1.82,1.47,0.83,0.27,-0.49
23.875977,0.054535843,0.0013584308,-0.009369185,0.84,0.26,-0.49,23663,9986.20,0,0,0,4.27,-2.45,-0.14,0.84,0.26,-0.49
23.576172,0.049535844,-0.025641572,-0.038369186,0.83,0.28,-0.5,23676,9985.90,0,0,0,3.92,-4.34,-2.17,0.83,0.28,-0.50
24.576172,0.039535843,-0.03364157,-0.022369184,0.8,0.29,-0.51,23698,9986.90,0,0,0,3.22,-4.90,-1.05,0.80,0.29,-0.51
24.875977,0.036535844,-0.028641574,-0.014369185,0.78,0.28,-0.52,23713,9987.20,0,0,0,3.01,-4.55,-0.49,0.78,0.28,-0.52
25.875977,0.029535841,-0.01964157,-0.032369185,0.77,0.29,-0.52,23735,9988.20,0,0,0,2.52,-3.92,-1.75,0.77,0.29,-0.52
26.975586,0.03353584,0.0033584312,-0.037369184,0.77,0.29,-0.52,23750,9989.30,0,0,0,2.80,-2.31,-2.10,0.77,0.29,-0.52
26.975586,0.025535844,0.01935843,-0.020369185,0.78,0.29,-0.52,23773,9989.30,0,0,0,2.24,-1.19,-0.91,0.78,0.29,-0.52
25.875977,0.017535841,0.01935843,-0.0043691853,0.79,0.29,-0.51,23789,9988.20,0,0,0,1.68,-1.19,0.21,0.79,0.29,-0.51
25.875977,-0.0054641566,0.007358432,0.011630816,0.78,0.3,-0.51,23810,9988.20,0,0,0,0.07,-2.03,1.33,0.78,0.30,-0.51
25.875977,-0.023464158,0.0043584295,0.049630813,0.76,0.31,-0.51,23826,9988.20,0,0,0,-1.19,-2.24,3.99,0.76,0.31,-0.51
26.975586,-0.010464157,0.030358432,0.03363081,0.75,0.32,-0.51,23848,9989.30,0,0,0,-0.28,-0.42,2.87,0.75,0.32,-0.51
26.975586,0.0065358435,0.04135843,0.009630816,0.76,0.32,-0.51,23863,9989.30,0,0,0,0.91,0.35,1.19,0.76,0.32,-0.51
27.27539,0.008535843,0.03735843,0.017630816,0.78,0.31,-0.51,23886,9989.60,0,0,0,1.05,0.07,1.75,0.78,0.31,-0.51
26.975586,-0.0024641566,0.018358432,0.053630814,0.79,0.31,-0.51,23901,9989.30,0,0,0,0.28,-1.26,4.27,0.79,0.31,-0.51
25.875977,0.003535843,-0.0036415681,0.054630816,0.8,0.29,-0.5,23923,9988.20,0,0,0,0.70,-2.80,4.34,0.80,0.29,-0.50
26.975586,0.023535842,-0.007641569,0.013630815,0.8,0.28,-0.5,23938,9989.30,0,0,0,2.10,-3.08,1.47,0.80,0.28,-0.50
26.975586,0.012535844,-0.0066415705,0.019630816,0.79,0.26,-0.5,23961,9989.30,0,0,0,1.33,-3.01,1.89,0.79,0.26,-0.50
26.975586,0.0095358435,-0.0016415715,0.016630813,0.8,0.27,-0.5,23975,9989.30,0,0,0,1.12,-2.66,1.68,0.80,0.27,-0.50
26.975586,0.0065358435,-0.007641569,0.014630815,0.81,0.26,-0.5,23999,9989.30,0,0,0,0.91,-3.08,1.54,0.81,0.26,-0.50
28.27539,5.358434E-4,-0.009641569,0.0046308143,0.8,0.28,-0.49,24013,9990.60,0,0,0,0.49,-3.22,0.84,0.80,0.28,-0.49
29.675781,0.013535842,-0.016641568,0.014630815,0.8,0.29,-0.49,24035,9992.00,0,0,0,1.40,-3.71,1.54,0.80,0.29,-0.49
28.27539,0.027535845,-0.020641569,0.0066308156,0.8,0.29,-0.49,24051,9990.60,0,0,0,2.38,-3.99,0.98,0.80,0.29,-0.49
28.27539,0.030535843,-0.018641569,-0.0013691853,0.8,0.3,-0.49,24066,9990.60,0,0,0,2.59,-3.85,0.42,0.80,0.30,-0.49
27.975586,0.037535843,-0.020641569,0.0066308156,0.79,0.31,-0.49,24080,9990.30,0,0,0,3.08,-3.99,0.98,0.79,0.31,-0.49
28.27539,0.046535842,-0.01964157,0.017630816,0.78,0.31,-0.49,24096,9990.60,0,0,0,3.71,-3.92,1.75,0.78,0.31,-0.49
27.576172,0.062535845,-0.01764157,0.002630815,0.79,0.31,-0.5,24111,9989.90,0,0,0,4.83,-3.78,0.70,0.79,0.31,-0.50
28.576172,0.066535845,-0.010641567,0.0016308147,0.79,0.3,-0.5,24134,9990.90,0,0,0,5.11,-3.29,0.63,0.79,0.30,-0.50
28.576172,0.07153585,-0.010641567,0.007630815,0.78,0.3,-0.51,24148,9990.90,0,0,0,5.46,-3.29,1.05,0.78,0.30,-0.51
28.27539,0.08253585,-0.008641571,0.007630815,0.79,0.28,-0.51,24163,9990.60,0,0,0,6.23,-3.15,1.05,0.79,0.28,-0.51
29.675781,0.088535845,-0.007641569,-0.018369185,0.81,0.28,-0.51,24178,9992.00,0,0,0,6.65,-3.08,-0.77,0.81,0.28,-0.51
28.576172,0.084535845,-0.01764157,-0.022369184,0.8,0.27,-0.52,24193,9990.90,0,0,0,6.37,-3.78,-1.05,0.80,0.27,-0.52
27.975586,0.070535846,-0.02664157,-0.018369185,0.81,0.26,-0.52,24208,9990.30,0,0,0,5.39,-4.41,-0.77,0.81,0.26,-0.52
29.675781,0.04453584,-0.05264157,-0.0063691847,0.8,0.26,-0.52,24231,9992.00,0,0,0,3.57,-6.23,0.07,0.80,0.26,-0.52
29.675781,0.048535842,-0.05564157,-0.026369186,0.8,0.26,-0.53,24245,9992.00,0,0,0,3.85,-6.44,-1.33,0.80,0.26,-0.53
28.975586,0.049535844,-0.046641566,-0.060369186,0.79,0.24,-0.52,24268,9991.30,0,0,0,3.92,-5.81,-3.71,0.79,0.24,-0.52
29.675781,0.039535843,-0.04164157,-0.074369185,0.8,0.26,-0.52,24275,9992.00,0,0,0,3.22,-5.46,-4.69,0.80,0.26,-0.52
29.675781,0.024535844,-0.05164157,-0.048369184,0.81,0.27,-0.51,24290,9992.00,0,0,0,2.17,-6.16,-2.87,0.81,0.27,-0.51
28.576172,0.024535844,-0.068641566,-0.037369184,0.8,0.28,-0.51,24305,9990.90,0,0,0,2.17,-7.35,-2.10,0.80,0.28,-0.51
28.576172,0.028535843,-0.08164157,-0.045369186,0.79,0.28,-0.52,24321,9990.90,0,0,0,2.45,-8.26,-2.66,0.79,0.28,-0.52
28.576172,0.036535844,-0.07364157,-0.051369183,0.77,0.29,-0.53,24343,9990.90,0,0,0,3.01,-7.70,-3.08,0.77,0.29,-0.53
28.975586,0.052535843,-0.050641574,-0.059369184,0.76,0.29,-0.53,24358,9991.30,0,0,0,4.13,-6.09,-3.64,0.76,0.29,-0.53
28.576172,0.058535848,-0.03364157,-0.05036919,0.76,0.28,-0.53,24374,9990.90,0,0,0,4.55,-4.90,-3.01,0.76,0.28,-0.53
28.576172,0.05353584,-0.012641571,-0.059369184,0.77,0.27,-0.53,24389,9990.90,0,0,0,4.20,-3.43,-3.64,0.77,0.27,-0.53
29.675781,0.04153584,-0.0056415685,-0.037369184,0.76,0.29,-0.53,24403,9992.00,0,0,0,3.36,-2.94,-2.10,0.76,0.29,-0.53
29.675781,0.045535844,-6.415695E-4,-0.027369184,0.78,0.3,-0.53,24418,9992.00,0,0,0,3.64,-2.59,-1.40,0.78,0.30,-0.53
29.975586,0.052535843,-0.014641568,-0.029369185,0.78,0.3,-0.53,24433,9992.30,0,0,0,4.13,-3.57,-1.54,0.78,0.30,-0.53
28.975586,0.04453584,-0.027641572,-0.010369184,0.76,0.29,-0.53,24455,9991.30,0,0,0,3.57,-4.48,-0.21,0.76,0.29,-0.53
33.07617,0.026535843,-0.029641569,0.014630815,0.75,0.29,-0.54,24471,9995.40,0,0,0,2.31,-4.62,1.54,0.75,0.29,-0.54
29.975586,0.017535841,-0.014641568,0.030630818,0.74,0.3,-0.55,24485,9992.30,0,0,0,1.68,-3.57,2.66,0.74,0.30,-0.55
29.975586,0.029535841,0.013358431,0.018630816,0.76,0.28,-0.55,24501,9992.30,0,0,0,2.52,-1.61,1.82,0.76,0.28,-0.55
28.975586,0.031535845,0.03235843,-0.0113691855,0.78,0.27,-0.55,24523,9991.30,0,0,0,2.66,-0.28,-0.28,0.78,0.27,-0.55
28.975586,0.013535842,0.02135843,6.308155E-4,0.79,0.27,-0.54,24531,9991.30,0,0,0,1.40,-1.05,0.56,0.79,0.27,-0.54
29.975586,-0.013464157,0.0043584295,0.018630816,0.79,0.25,-0.54,24553,9992.30,0,0,0,-0.49,-2.24,1.82,0.79,0.25,-0.54
29.975586,-0.033464156,-0.010641567,0.016630813,0.79,0.25,-0.54,24570,9992.30,0,0,0,-1.89,-3.29,1.68,0.79,0.25,-0.54
30.975586,-0.046464156,-0.0036415681,0.0066308156,0.78,0.26,-0.54,24583,9993.30,0,0,0,-2.80,-2.80,0.98,0.78,0.26,-0.54
28.975586,-0.047464155,0.0023584291,-3.6918465E-4,0.78,0.28,-0.53,24598,9991.30,0,0,0,-2.87,-2.38,0.49,0.78,0.28,-0.53
29.975586,-0.045464158,0.0053584296,0.012630815,0.78,0.29,-0.52,24614,9992.30,0,0,0,-2.73,-2.17,1.40,0.78,0.29,-0.52
30.27539,-0.029464157,0.0023584291,0.011630816,0.79,0.3,-0.52,24629,9992.60,0,0,0,-1.61,-2.38,1.33,0.79,0.30,-0.52
30.27539,-0.014464157,-0.009641569,-0.0043691853,0.78,0.3,-0.51,24644,9992.60,0,0,0,-0.56,-3.22,0.21,0.78,0.30,-0.51
29.975586,-0.26146415,-0.014641568,0.011630816,0.78,0.3,-0.52,24666,9992.30,0,0,0,-17.85,-3.57,1.33,0.78,0.30,-0.52
31.375977,5.358434E-4,-0.01364157,0.017630816,0.77,0.3,-0.51,24681,9993.70,0,0,0,0.49,-3.50,1.75,0.77,0.30,-0.51
30.27539,-0.0014641569,-0.01764157,0.023630816,0.76,0.3,-0.52,24696,9992.60,0,0,0,0.35,-3.78,2.17,0.76,0.30,-0.52
27.675781,5.358434E-4,-0.0046415664,0.035630815,0.75,0.3,-0.52,24711,9990.00,0,0,0,0.49,-2.87,3.01,0.75,0.30,-0.52
31.375977,0.012535844,0.024358433,0.029630816,0.74,0.3,-0.53,24725,9993.70,0,0,0,1.33,-0.84,2.59,0.74,0.30,-0.53
31.375977,0.015535843,0.04035843,0.031630814,0.75,0.29,-0.52,24741,9993.70,0,0,0,1.54,0.28,2.73,0.75,0.29,-0.52
30.27539,5.358434E-4,0.04835843,0.05663082,0.75,0.3,-0.53,24763,9992.60,0,0,0,0.49,0.84,4.48,0.75,0.30,-0.53
31.375977,-0.014464157,0.04535843,0.10063082,0.75,0.3,-0.52,24778,9993.70,0,0,0,-0.56,0.63,7.56,0.75,0.30,-0.52
30.27539,-0.017464157,0.05135843,0.112630814,0.75,0.32,-0.52,24793,9992.60,0,0,0,-0.77,1.05,8.40,0.75,0.32,-0.52
31.375977,0.0015358436,0.05635843,0.112630814,0.77,0.34,-0.51,24808,9993.70,0,0,0,0.56,1.40,8.40,0.77,0.34,-0.51
30.27539,0.017535841,0.05735843,0.1366308,0.77,0.34,-0.51,24832,9992.60,0,0,0,1.68,1.47,10.08,0.77,0.34,-0.51
30.675781,0.035535842,0.04535843,0.1526308,0.76,0.33,-0.52,24838,9993.00,0,0,0,2.94,0.63,11.20,0.76,0.33,-0.52
30.27539,0.046535842,0.04835843,0.17963082,0.76,0.31,-0.53,24861,9992.60,0,0,0,3.71,0.84,13.09,0.76,0.31,-0.53
28.576172,0.050535843,0.060358427,0.1806308,0.77,0.27,-0.53,24876,9990.90,0,0,0,3.99,1.68,13.16,0.77,0.27,-0.53
30.675781,0.056535844,0.06635843,0.14863081,0.78,0.26,-0.54,24891,9993.00,0,0,0,4.41,2.10,10.92,0.78,0.26,-0.54
30.27539,0.056535844,0.055358432,0.1276308,0.8,0.24,-0.54,24906,9992.60,0,0,0,4.41,1.33,9.45,0.80,0.24,-0.54
29.576172,0.043535843,0.04935843,0.1376308,0.81,0.22,-0.54,24920,9991.90,0,0,0,3.50,0.91,10.15,0.81,0.22,-0.54
29.27539,0.028535843,0.05435843,0.10763082,0.83,0.18,-0.54,24935,9991.60,0,0,0,2.45,1.26,8.05,0.83,0.18,-0.54
28.576172,-0.004464157,0.04735843,0.08563082,0.83,0.17,-0.53,24951,9990.90,0,0,0,0.14,0.77,6.51,0.83,0.17,-0.53
30.975586,-0.050464157,0.035358433,0.08563082,0.83,0.19,-0.51,24973,9993.30,0,0,0,-3.08,-0.07,6.51,0.83,0.19,-0.51
28.576172,-0.06246416,0.024358433,0.09163082,0.84,0.2,-0.48,24988,9990.90,0,0,0,-3.92,-0.84,6.93,0.84,0.20,-0.48
28.576172,-0.050464157,0.00835843,0.07063082,0.85,0.21,-0.46,25010,9990.90,0,0,0,-3.08,-1.96,5.46,0.85,0.21,-0.46
28.576172,-0.046464156,-0.014641568,0.052630812,0.84,0.22,-0.45,25018,9990.90,0,0,0,-2.80,-3.57,4.20,0.84,0.22,-0.45
27.875977,-0.048464157,-0.046641566,0.06263082,0.81,0.24,-0.46,25033,9990.20,0,0,0,-2.94,-5.81,4.90,0.81,0.24,-0.46
28.576172,-0.052464157,-0.06264157,0.105630815,0.77,0.27,-0.48,25048,9990.90,0,0,0,-3.22,-6.93,7.91,0.77,0.27,-0.48
27.875977,-0.028464157,-0.04064157,0.10363082,0.76,0.28,-0.51,25071,9990.20,0,0,0,-1.54,-5.39,7.77,0.76,0.28,-0.51
26.175781,0.0055358424,-6.415695E-4,0.055630818,0.75,0.27,-0.53,25086,9988.50,0,0,0,0.84,-2.59,4.41,0.75,0.27,-0.53
26.875977,0.026535843,0.03835843,0.030630818,0.77,0.26,-0.55,25100,9989.20,0,0,0,2.31,0.14,2.66,0.77,0.26,-0.55
25.875977,0.015535843,0.03935843,0.04063081,0.8,0.24,-0.55,25116,9988.20,0,0,0,1.54,0.21,3.36,0.80,0.24,-0.55
25.475586,-0.011464156,0.02135843,0.055630818,0.82,0.21,-0.54,25131,9987.80,0,0,0,-0.35,-1.05,4.41,0.82,0.21,-0.54
26.875977,-0.050464157,-0.0056415685,0.057630822,0.83,0.2,-0.54,25145,9989.20,0,0,0,-3.08,-2.94,4.55,0.83,0.20,-0.54
25.875977,-0.07746415,-0.028641574,0.046630815,0.85,0.2,-0.53,25168,9988.20,0,0,0,-4.97,-4.55,3.78,0.85,0.20,-0.53
24.475586,-0.08646415,-0.034641564,0.003630815,0.84,0.19,-0.52,25183,9986.80,0,0,0,-5.60,-4.97,0.77,0.84,0.19,-0.52
25.875977,-0.10346416,-0.049641572,-0.022369184,0.84,0.2,-0.51,25198,9988.20,0,0,0,-6.79,-6.02,-1.05,0.84,0.20,-0.51
24.77539,-0.12646416,-0.047641568,-0.0053691845,0.82,0.21,-0.5,25213,9987.10,0,0,0,-8.40,-5.88,0.14,0.82,0.21,-0.50
24.77539,-0.12846416,-0.029641569,-0.022369184,0.8,0.23,-0.5,25228,9987.10,0,0,0,-8.54,-4.62,-1.05,0.80,0.23,-0.50
25.875977,-0.10046415,-0.010641567,-0.051369183,0.81,0.26,-0.49,25242,9988.20,0,0,0,-6.58,-3.29,-3.08,0.81,0.26,-0.49
25.175781,-0.07546415,3.5843253E-4,-0.049369186,0.81,0.28,-0.49,25258,9987.50,0,0,0,-4.83,-2.52,-2.94,0.81,0.28,-0.49
23.77539,-0.05546416,-0.0026415698,-0.032369185,0.81,0.29,-0.5,25281,9986.10,0,0,0,-3.43,-2.73,-1.75,0.81,0.29,-0.50
24.076172,-0.018464155,-0.0026415698,-0.028369185,0.81,0.3,-0.51,25295,9986.40,0,0,0,-0.84,-2.73,-1.47,0.81,0.30,-0.51
24.475586,0.024535844,3.5843253E-4,-0.049369186,0.81,0.28,-0.5,25310,9986.80,0,0,0,2.17,-2.52,-2.94,0.81,0.28,-0.50
23.77539,0.056535844,0.0063584317,-0.071369186,0.83,0.26,-0.5,25326,9986.10,0,0,0,4.41,-2.10,-4.48,0.83,0.26,-0.50
24.076172,0.061535846,0.007358432,-0.070369184,0.82,0.25,-0.5,25341,9986.40,0,0,0,4.76,-2.03,-4.41,0.82,0.25,-0.50
23.076172,0.07153585,0.00835843,-0.05036919,0.83,0.26,-0.5,25356,9985.40,0,0,0,5.46,-1.96,-3.01,0.83,0.26,-0.50
23.076172,0.11653584,0.01735843,-0.09136918,0.82,0.26,-0.49,25378,9985.40,0,0,0,8.61,-1.33,-5.88,0.82,0.26,-0.49
23.076172,0.17153585,0.04535843,-0.1633692,0.83,0.24,-0.47,25393,9985.40,0,0,0,12.46,0.63,-10.92,0.83,0.24,-0.47
22.076172,0.19453584,0.05435843,-0.1703692,0.84,0.24,-0.46,25408,9984.40,0,0,0,14.07,1.26,-11.41,0.84,0.24,-0.46
22.076172,0.17253584,0.033358432,-0.10236918,0.82,0.27,-0.46,25423,9984.40,0,0,0,12.53,-0.21,-6.65,0.82,0.27,-0.46
22.076172,0.17953585,3.5843253E-4,-0.062369183,0.79,0.3,-0.47,25439,9984.40,0,0,0,13.02,-2.52,-3.85,0.79,0.30,-0.47
21.375977,0.20553584,0.0053584296,-0.049369186,0.75,0.32,-0.48,25453,9983.70,0,0,0,14.84,-2.17,-2.94,0.75,0.32,-0.48
21.375977,0.23053585,0.027358431,-0.045369186,0.73,0.32,-0.49,25476,9983.70,0,0,0,16.59,-0.63,-2.66,0.73,0.32,-0.49
21.076172,0.25153583,0.052358434,-0.032369185,0.7,0.33,-0.49,25491,9983.40,0,0,0,18.06,1.12,-1.75,0.70,0.33,-0.49
22.375977,0.28353584,0.067358434,0.019630816,0.72,0.33,-0.49,25505,9984.70,0,0,0,20.30,2.17,1.89,0.72,0.33,-0.49
20.375977,0.28553584,0.06635843,0.057630822,0.73,0.31,-0.5,25520,9982.70,0,0,0,20.44,2.10,4.55,0.73,0.31,-0.50
21.375977,0.27453583,0.05135843,0.09963081,0.73,0.31,-0.51,25536,9983.70,0,0,0,19.67,1.05,7.49,0.73,0.31,-0.51
19.975586,0.28353584,0.06135843,0.12663081,0.75,0.28,-0.53,25558,9982.30,0,0,0,20.30,1.75,9.38,0.75,0.28,-0.53
20.375977,0.29253584,0.06135843,0.11763082,0.78,0.26,-0.55,25573,9982.70,0,0,0,20.93,1.75,8.75,0.78,0.26,-0.55
21.375977,0.27853584,0.025358431,0.112630814,0.8,0.2,-0.57,25588,9983.70,0,0,0,19.95,-0.77,8.40,0.80,0.20,-0.57
20.375977,0.24053586,0.0063584317,0.11163081,0.8,0.14,-0.59,25603,9982.70,0,0,0,17.29,-2.10,8.33,0.80,0.14,-0.59
21.375977,0.15753584,0.01735843,0.09263082,0.82,0.09,-0.61,25618,9983.70,0,0,0,11.48,-1.33,7.00,0.82,0.09,-0.61
20.375977,0.10053584,0.04335843,0.065630816,0.81,0.08,-0.62,25640,9982.70,0,0,0,7.49,0.49,5.11,0.81,0.08,-0.62
20.375977,0.010535844,-0.0056415685,0.022630814,0.83,0.07,-0.62,25655,9982.70,0,0,0,1.19,-2.94,2.10,0.83,0.07,-0.62
20.375977,-0.07746415,0.03835843,-0.0113691855,0.84,0.07,-0.59,25670,9982.70,0,0,0,-4.97,0.14,-0.28,0.84,0.07,-0.59
21.375977,-0.14946416,0.05035843,0.021630814,0.85,0.12,-0.56,25685,9983.70,0,0,0,-10.01,0.98,2.03,0.85,0.12,-0.56
20.675781,-0.20646416,-0.010641567,0.016630813,0.83,0.16,-0.54,25700,9983.00,0,0,0,-14.00,-3.29,1.68,0.83,0.16,-0.54
19.375977,-0.22046414,-0.042641573,0.016630813,0.82,0.2,-0.52,25716,9981.70,0,0,0,-14.98,-5.53,1.68,0.82,0.20,-0.52
20.375977,-0.20546415,-0.016641568,0.009630816,0.8,0.22,-0.51,25737,9982.70,0,0,0,-13.93,-3.71,1.19,0.80,0.22,-0.51
19.675781,-0.18346415,3.5843253E-4,-0.010369184,0.81,0.24,-0.49,25754,9982.00,0,0,0,-12.39,-2.52,-0.21,0.81,0.24,-0.49
19.675781,-0.16646415,-0.0016415715,-0.0053691845,0.8,0.25,-0.47,25768,9982.00,0,0,0,-11.20,-2.66,0.14,0.80,0.25,-0.47
19.675781,-0.13846415,0.00935843,0.011630816,0.81,0.27,-0.47,25783,9982.00,0,0,0,-9.24,-1.89,1.33,0.81,0.27,-0.47
19.675781,-0.10046415,0.02835843,0.020630816,0.82,0.28,-0.47,25798,9982.00,0,0,0,-6.58,-0.56,1.96,0.82,0.28,-0.47
19.675781,-0.04946416,0.03935843,0.018630816,0.83,0.27,-0.47,25813,9982.00,0,0,0,-3.01,0.21,1.82,0.83,0.27,-0.47
20.675781,-0.013464157,0.04935843,-0.009369185,0.84,0.25,-0.47,25829,9983.00,0,0,0,-0.49,0.91,-0.14,0.84,0.25,-0.47
18.675781,0.010535844,0.03735843,-0.037369184,0.84,0.25,-0.47,25851,9981.00,0,0,0,1.19,0.07,-2.10,0.84,0.25,-0.47
18.675781,0.025535844,0.030358432,-0.055369183,0.86,0.24,-0.47,25866,9981.00,0,0,0,2.24,-0.42,-3.36,0.86,0.24,-0.47
19.675781,0.022535842,0.007358432,-0.058369182,0.85,0.23,-0.47,25881,9982.00,0,0,0,2.03,-2.03,-3.57,0.85,0.23,-0.47
19.675781,0.014535842,-0.02464157,-0.058369182,0.83,0.22,-0.49,25896,9982.00,0,0,0,1.47,-4.27,-3.57,0.83,0.22,-0.49
19.975586,-0.014464157,-0.04064157,-0.028369185,0.81,0.23,-0.5,25910,9982.30,0,0,0,-0.56,-5.39,-1.47,0.81,0.23,-0.50
19.675781,-0.029464157,-0.032641567,-0.007369185,0.79,0.24,-0.51,25925,9982.00,0,0,0,-1.61,-4.83,0.00,0.79,0.24,-0.51
19.975586,-0.028464157,-0.018641569,-0.017369185,0.77,0.25,-0.52,25948,9982.30,0,0,0,-1.54,-3.85,-0.70,0.77,0.25,-0.52
19.975586,-0.025464159,3.5843253E-4,-0.031369183,0.77,0.24,-0.52,25963,9982.30,0,0,0,-1.33,-2.52,-1.68,0.77,0.24,-0.52
20.975586,-0.041464157,0.007358432,-0.015369185,0.78,0.22,-0.51,25978,9983.30,0,0,0,-2.45,-2.03,-0.56,0.78,0.22,-0.51
20.975586,-0.073464155,-0.0066415705,0.020630816,0.79,0.22,-0.51,25993,9983.30,0,0,0,-4.69,-3.01,1.96,0.79,0.22,-0.51
20.975586,-0.10546415,-0.01764157,0.058630817,0.78,0.25,-0.51,26008,9983.30,0,0,0,-6.93,-3.78,4.62,0.78,0.25,-0.51
20.975586,-0.095464155,-0.01764157,0.058630817,0.79,0.25,-0.5,26023,9983.30,0,0,0,-6.23,-3.78,4.62,0.79,0.25,-0.50
20.975586,-0.084464155,-0.018641569,0.043630816,0.79,0.26,-0.5,26038,9983.30,0,0,0,-5.46,-3.85,3.57,0.79,0.26,-0.50
20.975586,-0.08146416,-0.020641569,0.058630817,0.8,0.26,-0.5,26060,9983.30,0,0,0,-5.25,-3.99,4.62,0.80,0.26,-0.50
20.975586,-0.08246416,-0.02464157,0.08563082,0.81,0.25,-0.5,26075,9983.30,0,0,0,-5.32,-4.27,6.51,0.81,0.25,-0.50
22.076172,-0.08146416,-0.039641574,0.08263082,0.81,0.24,-0.5,26090,9984.40,0,0,0,-5.25,-5.32,6.30,0.81,0.24,-0.50
22.375977,-0.065464154,-0.039641574,0.06663082,0.81,0.24,-0.5,26106,9984.70,0,0,0,-4.13,-5.32,5.18,0.81,0.24,-0.50
20.975586,-0.052464157,-0.023641568,0.042630814,0.82,0.23,-0.5,26120,9983.30,0,0,0,-3.22,-4.20,3.50,0.82,0.23,-0.50
21.375977,-0.045464158,-0.027641572,0.024630817,0.81,0.22,-0.5,26135,9983.70,0,0,0,-2.73,-4.48,2.24,0.81,0.22,-0.50
23.375977,-0.042464156,-0.027641572,0.018630816,0.83,0.21,-0.5,26158,9985.70,0,0,0,-2.52,-4.48,1.82,0.83,0.21,-0.50
23.076172,-0.046464156,-0.01964157,0.019630816,0.82,0.21,-0.5,26174,9985.40,0,0,0,-2.80,-3.92,1.89,0.82,0.21,-0.50
23.076172,-0.027464157,-0.011641566,0.002630815,0.83,0.21,-0.5,26188,9985.40,0,0,0,-1.47,-3.36,0.70,0.83,0.21,-0.50
23.375977,-0.009464157,-0.0036415681,-0.018369185,0.84,0.2,-0.5,26203,9985.70,0,0,0,-0.21,-2.80,-0.77,0.84,0.20,-0.50
23.375977,-0.0054641566,-0.023641568,-0.022369184,0.85,0.2,-0.49,26218,9985.70,0,0,0,0.07,-4.20,-1.05,0.85,0.20,-0.49
23.076172,-0.023464158,-0.04464157,-0.017369185,0.84,0.19,-0.5,26234,9985.40,0,0,0,-1.19,-5.67,-0.70,0.84,0.19,-0.50
23.375977,-0.05146416,-0.054641567,0.009630816,0.82,0.21,-0.51,26248,9985.70,0,0,0,-3.15,-6.37,1.19,0.82,0.21,-0.51
24.375977,-0.056464158,-0.034641564,0.0016308147,0.8,0.23,-0.51,26271,9986.70,0,0,0,-3.50,-4.97,0.63,0.80,0.23,-0.51
24.375977,-0.030464156,-0.011641566,-0.031369183,0.8,0.24,-0.51,26286,9986.70,0,0,0,-1.68,-3.36,-1.68,0.80,0.24,-0.51
24.375977,-0.012464156,0.007358432,-0.061369188,0.8,0.25,-0.5,26302,9986.70,0,0,0,-0.42,-2.03,-3.78,0.80,0.25,-0.50
23.375977,-0.019464158,0.00835843,-0.041369185,0.82,0.24,-0.51,26316,9985.70,0,0,0,-0.91,-1.96,-2.38,0.82,0.24,-0.51
24.375977,-0.033464156,-0.0056415685,-0.035369188,0.82,0.25,-0.51,26331,9986.70,0,0,0,-1.89,-2.94,-1.96,0.82,0.25,-0.51
26.076172,-0.042464156,-0.029641569,-0.035369188,0.81,0.26,-0.52,26346,9988.40,0,0,0,-2.52,-4.62,-1.96,0.81,0.26,-0.52
25.475586,-0.043464158,-0.038641572,-0.030369185,0.78,0.26,-0.52,26368,9987.80,0,0,0,-2.59,-5.25,-1.61,0.78,0.26,-0.52
23.375977,-0.041464157,-0.027641572,-0.040369183,0.77,0.26,-0.52,26383,9985.70,0,0,0,-2.45,-4.48,-2.31,0.77,0.26,-0.52
25.77539,-0.04046416,-0.01764157,-0.026369186,0.76,0.26,-0.52,26398,9988.10,0,0,0,-2.38,-3.78,-1.33,0.76,0.26,-0.52
24.77539,-0.031464156,0.0043584295,-0.042369187,0.78,0.26,-0.51,26412,9987.10,0,0,0,-1.75,-2.24,-2.45,0.78,0.26,-0.51
25.77539,-0.008464157,3.5843253E-4,-0.053369187,0.79,0.27,-0.5,26428,9988.10,0,0,0,-0.14,-2.52,-3.22,0.79,0.27,-0.50
25.77539,-0.006464157,-0.012641571,-0.035369188,0.79,0.26,-0.5,26452,9988.10,0,0,0,0.00,-3.43,-1.96,0.79,0.26,-0.50
25.77539,-0.011464156,-0.028641574,-0.012369185,0.8,0.26,-0.5,26466,9988.10,0,0,0,-0.35,-4.55,-0.35,0.80,0.26,-0.50
25.77539,-0.013464157,-0.038641572,0.011630816,0.79,0.26,-0.5,26480,9988.10,0,0,0,-0.49,-5.25,1.33,0.79,0.26,-0.50
26.77539,-0.016464157,-0.04064157,0.026630817,0.79,0.26,-0.51,26495,9989.10,0,0,0,-0.70,-5.39,2.38,0.79,0.26,-0.51
25.475586,-0.010464157,-0.028641574,0.025630815,0.77,0.27,-0.53,26510,9987.80,0,0,0,-0.28,-4.55,2.31,0.77,0.27,-0.53
24.77539,-0.013464157,-0.011641566,0.035630815,0.78,0.26,-0.53,26526,9987.10,0,0,0,-0.49,-3.36,3.01,0.78,0.26,-0.53
25.77539,-0.016464157,0.0023584291,0.04163082,0.79,0.26,-0.53,26540,9988.10,0,0,0,-0.70,-2.38,3.43,0.79,0.26,-0.53
25.77539,-0.022464158,-0.0026415698,0.042630814,0.79,0.25,-0.52,26563,9988.10,0,0,0,-1.12,-2.73,3.50,0.79,0.25,-0.52
25.77539,-0.028464157,-6.415695E-4,0.06063082,0.79,0.24,-0.52,26578,9988.10,0,0,0,-1.54,-2.59,4.76,0.79,0.24,-0.52
26.076172,-0.027464157,-6.415695E-4,0.061630815,0.8,0.23,-0.53,26593,9988.40,0,0,0,-1.47,-2.59,4.83,0.80,0.23,-0.53
28.076172,-0.037464157,3.5843253E-4,0.055630818,0.81,0.22,-0.53,26608,9990.40,0,0,0,-2.17,-2.52,4.41,0.81,0.22,-0.53
27.875977,-0.04946416,0.011358431,0.057630822,0.81,0.21,-0.53,26623,9990.20,0,0,0,-3.01,-1.75,4.55,0.81,0.21,-0.53
28.175781,-0.061464157,0.026358431,0.046630815,0.81,0.21,-0.53,26638,9990.50,0,0,0,-3.85,-0.70,3.78,0.81,0.21,-0.53
26.076172,-0.06746416,0.030358432,0.026630817,0.82,0.21,-0.51,26661,9988.40,0,0,0,-4.27,-0.42,2.38,0.82,0.21,-0.51
27.175781,-0.069464155,0.030358432,0.019630816,0.84,0.22,-0.5,26675,9989.50,0,0,0,-4.41,-0.42,1.89,0.84,0.22,-0.50
27.175781,-0.06246416,0.01735843,0.003630815,0.85,0.22,-0.49,26691,9989.50,0,0,0,-3.92,-1.33,0.77,0.85,0.22,-0.49
27.175781,-0.06246416,0.007358432,-0.0043691853,0.84,0.23,-0.49,26706,9989.50,0,0,0,-3.92,-2.03,0.21,0.84,0.23,-0.49
26.77539,-0.05546416,-0.0046415664,-0.0053691845,0.84,0.24,-0.48,26720,9989.10,0,0,0,-3.43,-2.87,0.14,0.84,0.24,-0.48
27.175781,-0.04046416,-0.01764157,-0.015369185,0.85,0.24,-0.48,26735,9989.50,0,0,0,-2.38,-3.78,-0.56,0.85,0.24,-0.48
27.175781,-0.017464157,-0.04164157,-0.046369188,0.85,0.26,-0.48,26758,9989.50,0,0,0,-0.77,-5.46,-2.73,0.85,0.26,-0.48
28.175781,0.0015358436,-0.07164157,-0.038369186,0.86,0.27,-0.49,26773,9990.50,0,0,0,0.56,-7.56,-2.17,0.86,0.27,-0.49
27.175781,0.042535845,-0.11164157,-0.08636919,0.89,0.26,-0.5,26788,9989.50,0,0,0,3.43,-10.36,-5.53,0.89,0.26,-0.50
26.076172,0.08753584,-0.17964157,-0.15436919,0.91,0.31,-0.48,26803,9988.40,0,0,0,6.58,-15.12,-10.29,0.91,0.31,-0.48
27.475586,0.22753583,-0.2676416,-0.2683692,1.01,0.36,-0.48,26819,9989.80,0,0,0,16.38,-21.28,-18.27,1.01,0.36,-0.48
26.076172,0.40153584,-0.34964156,-0.4113692,1.0,0.41,-0.47,26834,9988.40,0,0,0,28.56,-27.02,-28.28,1.00,0.41,-0.47
27.475586,0.5325358,-0.43264157,-0.4103692,0.99,0.44,-0.49,26848,9989.80,0,0,0,37.73,-32.83,-28.21,0.99,0.44,-0.49
27.77539,0.6645358,-0.46564156,-0.16236919,1.04,0.43,-0.49,26870,9990.10,0,0,0,46.97,-35.14,-10.85,1.04,0.43,-0.49
27.475586,0.58953583,-0.6086416,0.15063082,1.02,0.29,-0.47,26885,9989.80,0,0,0,41.72,-45.15,11.06,1.02,0.29,-0.47
27.475586,0.48653582,-0.7226416,0.029630816,0.99,0.24,-0.61,26900,9989.80,0,0,0,34.51,-53.13,2.59,0.99,0.24,-0.61
27.475586,0.25353587,-0.6496416,0.055630818,0.89,0.13,-0.56,26916,9989.80,0,0,0,18.20,-48.02,4.41,0.89,0.13,-0.56
27.475586,0.23553586,-0.6806416,-0.040369183,0.84,0.08,-0.66,26930,9989.80,0,0,0,16.94,-50.19,-2.31,0.84,0.08,-0.66
28.77539,0.13353585,-0.5096416,-0.3563692,0.77,0.09,-0.72,26953,9991.10,0,0,0,9.80,-38.22,-24.43,0.77,0.09,-0.72
29.475586,0.16153584,-0.5526416,-0.5103691,0.69,0.05,-0.68,26970,9991.80,0,0,0,11.76,-41.23,-35.21,0.69,0.05,-0.68
28.475586,0.12753585,-0.3376416,-0.72136915,0.7,0.12,-0.7,26983,9990.80,0,0,0,9.38,-26.18,-49.98,0.70,0.12,-0.70
29.875977,-0.016464157,-0.24264158,-0.7513692,0.63,0.17,-0.71,26998,9992.20,0,0,0,-0.70,-19.53,-52.08,0.63,0.17,-0.71
27.475586,-0.14046416,-0.10564156,-0.63636917,0.61,0.23,-0.73,27013,9989.80,0,0,0,-9.38,-9.94,-44.03,0.61,0.23,-0.73
28.77539,-0.19746415,0.030358432,-0.5473691,0.57,0.21,-0.74,27028,9991.10,0,0,0,-13.37,-0.42,-37.80,0.57,0.21,-0.74
27.475586,-0.29246417,0.19135843,-0.65536916,0.55,0.21,-0.74,27051,9989.80,0,0,0,-20.02,10.85,-45.36,0.55,0.21,-0.74
28.77539,-0.41846415,0.38335842,-0.60536915,0.53,0.23,-0.7,27066,9991.10,0,0,0,-28.84,24.29,-41.86,0.53,0.23,-0.70
27.77539,-0.51246417,0.5133584,-0.4313692,0.49,0.26,-0.63,27081,9990.10,0,0,0,-35.42,33.39,-29.68,0.49,0.26,-0.63
27.77539,-0.41046417,0.68135846,-0.5933692,0.56,0.32,-0.62,27095,9990.10,0,0,0,-28.28,45.15,-41.02,0.56,0.32,-0.62
27.076172,-0.30046415,0.7153584,-0.84736913,0.59,0.35,-0.58,27110,9989.40,0,0,0,-20.58,47.53,-58.80,0.59,0.35,-0.58
25.375977,-0.23346415,0.60935843,-0.7183692,0.59,0.5,-0.54,27126,9987.70,0,0,0,-15.89,40.11,-49.77,0.59,0.50,-0.54
25.77539,-0.16446416,0.52135843,-0.51736915,0.58,0.44,-0.51,27148,9988.10,0,0,0,-11.06,33.95,-35.70,0.58,0.44,-0.51
27.77539,-0.23146415,0.41935843,-0.35836917,0.63,0.4,-0.51,27164,9990.10,0,0,0,-15.75,26.81,-24.57,0.63,0.40,-0.51
27.076172,-0.36946416,0.2503584,-0.10536919,0.64,0.34,-0.51,27178,9989.40,0,0,0,-25.41,14.98,-6.86,0.64,0.34,-0.51
28.77539,-0.47946417,0.15535843,0.16363081,0.62,0.33,-0.51,27193,9991.10,0,0,0,-33.11,8.33,11.97,0.62,0.33,-0.51
27.076172,-0.5204642,0.14135844,0.29263082,0.59,0.32,-0.54,27208,9989.40,0,0,0,-35.98,7.35,21.00,0.59,0.32,-0.54
26.77539,-0.5394642,0.15835842,0.3826308,0.57,0.33,-0.55,27223,9989.10,0,0,0,-37.31,8.54,27.30,0.57,0.33,-0.55
25.77539,-0.5554642,0.25635844,0.4166308,0.6,0.26,-0.55,27253,9988.10,0,0,0,-38.43,15.40,29.68,0.60,0.26,-0.55
27.076172,-0.46846417,0.3983584,0.2776308,0.62,0.28,-0.52,27260,9989.40,0,0,0,-32.34,25.34,19.95,0.62,0.28,-0.52
26.076172,-0.38646415,0.47535843,0.1346308,0.65,0.41,-0.46,27275,9988.40,0,0,0,-26.60,30.73,9.94,0.65,0.41,-0.46
27.076172,-0.5274642,0.29735845,0.30863082,0.77,0.47,-0.35,27291,9989.40,0,0,0,-36.47,18.27,22.12,0.77,0.47,-0.35
25.77539,-0.6784642,-0.14964157,0.5906308,0.87,0.51,-0.31,27306,9988.10,0,0,0,-47.04,-13.02,41.86,0.87,0.51,-0.31
26.076172,-0.7834642,-0.32064158,0.73163086,0.82,0.41,-0.34,27320,9988.40,0,0,0,-54.39,-24.99,51.73,0.82,0.41,-0.34
27.076172,-0.5644642,-0.29264158,0.46063077,0.8,0.37,-0.38,27343,9989.40,0,0,0,-39.06,-23.03,32.76,0.80,0.37,-0.38
25.375977,-0.35446417,-0.10264157,0.20363082,0.75,0.37,-0.42,27357,9987.70,0,0,0,-24.36,-9.73,14.77,0.75,0.37,-0.42
26.076172,-0.30146414,-0.046641566,0.09063082,0.76,0.39,-0.46,27373,9988.40,0,0,0,-20.65,-5.81,6.86,0.76,0.39,-0.46
26.076172,-0.5424642,-0.04464157,0.14663081,0.78,0.42,-0.49,27387,9988.40,0,0,0,-37.52,-5.67,10.78,0.78,0.42,-0.49
25.375977,-0.7274642,-0.05664157,0.17563082,0.8,0.39,-0.5,27403,9987.70,0,0,0,-50.47,-6.51,12.81,0.80,0.39,-0.50
25.375977,-0.6634642,-0.039641574,0.086630814,0.75,0.39,-0.5,27425,9987.70,0,0,0,-45.99,-5.32,6.58,0.75,0.39,-0.50
24.375977,-0.5264642,0.0023584291,0.047630817,0.77,0.41,-0.47,27440,9986.70,0,0,0,-36.40,-2.38,3.85,0.77,0.41,-0.47
24.375977,-0.42146415,-0.012641571,0.007630815,0.8,0.41,-0.44,27455,9986.70,0,0,0,-29.05,-3.43,1.05,0.80,0.41,-0.44
23.375977,-0.32646415,0.04135843,0.053630814,0.82,0.42,-0.41,27470,9985.70,0,0,0,-22.40,0.35,4.27,0.82,0.42,-0.41
22.975586,-0.22446416,0.044358432,0.07063082,0.8,0.47,-0.38,27485,9985.30,0,0,0,-15.26,0.56,5.46,0.80,0.47,-0.38
23.675781,-0.11246415,0.024358433,0.057630822,0.77,0.49,-0.37,27500,9986.00,0,0,0,-7.42,-0.84,4.55,0.77,0.49,-0.37
23.375977,-0.05846416,-0.012641571,0.020630816,0.72,0.43,-0.43,27523,9985.70,0,0,0,-3.64,-3.43,1.96,0.72,0.43,-0.43
22.27539,-0.013464157,0.02235843,0.044630818,0.74,0.42,-0.42,27538,9984.60,0,0,0,-0.49,-0.98,3.64,0.74,0.42,-0.42
21.27539,-0.030464156,0.02035843,0.094630815,0.77,0.44,-0.42,27553,9983.60,0,0,0,-1.68,-1.12,7.14,0.77,0.44,-0.42
23.27539,-0.10146415,0.018358432,0.09063082,0.78,0.41,-0.43,27569,9985.60,0,0,0,-6.65,-1.26,6.86,0.78,0.41,-0.43
22.27539,-0.030464156,0.035358433,0.007630815,0.78,0.39,-0.44,27591,9984.60,0,0,0,-1.68,-0.07,1.05,0.78,0.39,-0.44
21.27539,0.0015358436,0.03635843,0.0066308156,0.77,0.41,-0.45,27600,9983.60,0,0,0,0.56,0.00,0.98,0.77,0.41,-0.45
21.27539,-0.012464156,0.02835843,0.07063082,0.78,0.43,-0.45,27621,9983.60,0,0,0,-0.42,-0.56,5.46,0.78,0.43,-0.45
20.27539,-0.007464157,0.016358431,0.11563081,0.78,0.4,-0.44,27636,9982.60,0,0,0,-0.07,-1.40,8.61,0.78,0.40,-0.44
21.27539,0.023535842,0.01035843,0.123630814,0.8,0.39,-0.42,27651,9983.60,0,0,0,2.10,-1.82,9.17,0.80,0.39,-0.42
19.875977,0.049535844,0.01035843,0.12963082,0.79,0.41,-0.42,27666,9982.20,0,0,0,3.92,-1.82,9.59,0.79,0.41,-0.42
21.576172,0.035535842,-0.0016415715,0.1276308,0.77,0.42,-0.41,27681,9983.90,0,0,0,2.94,-2.66,9.45,0.77,0.42,-0.41
19.875977,-0.030464156,-0.03064157,0.1566308,0.78,0.42,-0.43,27696,9982.20,0,0,0,-1.68,-4.69,11.48,0.78,0.42,-0.43
19.175781,-0.10746416,-0.08864157,0.1516308,0.77,0.38,-0.44,27718,9981.50,0,0,0,-7.07,-8.75,11.13,0.77,0.38,-0.44
19.175781,-0.10546415,-0.09264156,0.10963081,0.77,0.38,-0.43,27733,9981.50,0,0,0,-6.93,-9.03,8.19,0.77,0.38,-0.43
19.576172,-0.124464154,-0.10964157,0.10063082,0.78,0.39,-0.44,27748,9981.90,0,0,0,-8.26,-10.22,7.56,0.78,0.39,-0.44
18.475586,-0.14046416,-0.12864158,0.11863082,0.78,0.39,-0.45,27763,9980.80,0,0,0,-9.38,-11.55,8.82,0.78,0.39,-0.45
18.475586,-0.13246416,-0.11864157,0.14263082,0.81,0.39,-0.44,27778,9980.80,0,0,0,-8.82,-10.85,10.50,0.81,0.39,-0.44
18.475586,-0.09346416,-0.10564156,0.16863081,0.81,0.38,-0.43,27793,9980.80,0,0,0,-6.09,-9.94,12.32,0.81,0.38,-0.43
18.475586,-0.10946415,-0.12164158,0.1526308,0.82,0.39,-0.44,27815,9980.80,0,0,0,-7.21,-11.06,11.20,0.82,0.39,-0.44
19.576172,-0.15346415,-0.11264157,0.09663082,0.8,0.37,-0.43,27838,9981.90,0,0,0,-10.29,-10.43,7.28,0.80,0.37,-0.43
18.475586,-0.13946415,-0.11864157,0.044630818,0.78,0.38,-0.42,27853,9980.80,0,0,0,-9.31,-10.85,3.64,0.78,0.38,-0.42
18.475586,-0.11546416,-0.12064156,-0.0113691855,0.77,0.4,-0.43,27875,9980.80,0,0,0,-7.63,-10.99,-0.28,0.77,0.40,-0.43
18.475586,-0.08546416,-0.12164158,-0.026369186,0.78,0.41,-0.43,27891,9980.80,0,0,0,-5.53,-11.06,-1.33,0.78,0.41,-0.43
20.875977,-0.006464157,-0.10264157,-0.058369182,0.78,0.38,-0.45,27913,9983.20,0,0,0,0.00,-9.73,-3.57,0.78,0.38,-0.45
17.875977,0.049535844,-0.07464157,-0.08836918,0.79,0.4,-0.45,27928,9980.20,0,0,0,3.92,-7.77,-5.67,0.79,0.40,-0.45
16.77539,0.025535844,-0.050641574,-0.049369186,0.8,0.4,-0.46,27943,9979.10,0,0,0,2.24,-6.09,-2.94,0.80,0.40,-0.46
16.77539,-0.003464157,-0.029641569,0.04063081,0.8,0.39,-0.48,27966,9979.10,0,0,0,0.21,-4.62,3.36,0.80,0.39,-0.48
17.875977,0.0055358424,-0.0046415664,0.06663082,0.81,0.39,-0.47,27981,9980.20,0,0,0,0.84,-2.87,5.18,0.81,0.39,-0.47
17.875977,0.032535844,0.014358431,0.051630817,0.8,0.41,-0.46,28002,9980.20,0,0,0,2.73,-1.54,4.13,0.80,0.41,-0.46
16.77539,0.022535842,0.01735843,0.065630816,0.77,0.41,-0.45,28018,9979.10,0,0,0,2.03,-1.33,5.11,0.77,0.41,-0.45
16.77539,0.032535844,0.02035843,0.06363081,0.77,0.4,-0.45,28040,9979.10,0,0,0,2.73,-1.12,4.97,0.77,0.40,-0.45
16.77539,0.008535843,0.012358433,0.064630814,0.78,0.41,-0.46,28064,9979.10,0,0,0,1.05,-1.68,5.04,0.78,0.41,-0.46
17.875977,-0.019464158,-0.0046415664,0.072630815,0.76,0.4,-0.46,28078,9980.20,0,0,0,-0.91,-2.87,5.60,0.76,0.40,-0.46
16.77539,-0.084464155,-0.028641574,0.11663082,0.77,0.42,-0.46,28093,9979.10,0,0,0,-5.46,-4.55,8.68,0.77,0.42,-0.46
16.77539,-0.12246415,-0.04464157,0.112630814,0.77,0.42,-0.46,28116,9979.10,0,0,0,-8.12,-5.67,8.40,0.77,0.42,-0.46
17.875977,-0.10746416,-0.05564157,0.09263082,0.76,0.41,-0.45,28130,9980.20,0,0,0,-7.07,-6.44,7.00,0.76,0.41,-0.45
17.875977,-0.10846415,-0.06764157,0.113630824,0.77,0.42,-0.45,28153,9980.20,0,0,0,-7.14,-7.28,8.47,0.77,0.42,-0.45
16.77539,-0.13246416,-0.082641564,0.14663081,0.76,0.41,-0.46,28169,9979.10,0,0,0,-8.82,-8.33,10.78,0.76,0.41,-0.46
17.875977,-0.16546415,-0.12764156,0.16163081,0.76,0.4,-0.45,28183,9980.20,0,0,0,-11.13,-11.48,11.83,0.76,0.40,-0.45
17.875977,-0.14946416,-0.11164157,0.1806308,0.76,0.4,-0.46,28205,9980.20,0,0,0,-10.01,-10.36,13.16,0.76,0.40,-0.46
18.175781,-0.15846416,-0.12764156,0.2096308,0.77,0.39,-0.46,28221,9980.50,0,0,0,-10.64,-11.48,15.19,0.77,0.39,-0.46
17.875977,-0.14346416,-0.13164157,0.19263081,0.78,0.38,-0.45,28250,9980.20,0,0,0,-9.59,-11.76,14.00,0.78,0.38,-0.45
19.475586,-0.14746416,-0.12464158,0.20063081,0.79,0.39,-0.45,28258,9981.80,0,0,0,-9.87,-11.27,14.56,0.79,0.39,-0.45
19.175781,-0.14546415,-0.10464157,0.17263082,0.8,0.37,-0.45,28281,9981.50,0,0,0,-9.73,-9.87,12.60,0.80,0.37,-0.45
19.175781,-0.12246415,-0.09364158,0.16863081,0.79,0.36,-0.45,28296,9981.50,0,0,0,-8.12,-9.10,12.32,0.79,0.36,-0.45
19.175781,-0.07446416,-0.06964157,0.11863082,0.79,0.35,-0.45,28318,9981.50,0,0,0,-4.76,-7.42,8.82,0.79,0.35,-0.45
20.576172,-0.07046416,-0.06664157,0.11863082,0.78,0.36,-0.44,28334,9982.90,0,0,0,-4.48,-7.21,8.82,0.78,0.36,-0.44
20.175781,-0.06046416,-0.047641568,0.14063081,0.78,0.38,-0.45,28355,9982.50,0,0,0,-3.78,-5.88,10.36,0.78,0.38,-0.45
21.27539,-0.042464156,-0.04864157,0.1496308,0.78,0.37,-0.46,28370,9983.60,0,0,0,-2.52,-5.95,10.99,0.78,0.37,-0.46
20.175781,-0.065464154,-0.06664157,0.20863082,0.77,0.36,-0.46,28393,9982.50,0,0,0,-4.13,-7.21,15.12,0.77,0.36,-0.46
22.27539,-0.06446415,-0.07164157,0.1966308,0.78,0.36,-0.46,28411,9984.60,0,0,0,-4.06,-7.56,14.28,0.78,0.36,-0.46
21.27539,-0.076464154,-0.07164157,0.1966308,0.78,0.36,-0.45,28431,9983.60,0,0,0,-4.90,-7.56,14.28,0.78,0.36,-0.45
22.576172,-0.087464154,-0.082641564,0.2156308,0.77,0.35,-0.46,28446,9984.90,0,0,0,-5.67,-8.33,15.61,0.77,0.35,-0.46
22.27539,-0.07846415,-0.09064157,0.21463081,0.77,0.34,-0.46,28460,9984.60,0,0,0,-5.04,-8.89,15.54,0.77,0.34,-0.46
22.27539,-0.056464158,-0.084641576,0.17263082,0.77,0.35,-0.47,28483,9984.60,0,0,0,-3.50,-8.47,12.60,0.77,0.35,-0.47
20.576172,-0.04446416,-0.08864157,0.1436308,0.78,0.33,-0.47,28498,9982.90,0,0,0,-2.66,-8.75,10.57,0.78,0.33,-0.47
22.576172,-0.087464154,-0.12564157,0.1746308,0.8,0.33,-0.47,28520,9984.90,0,0,0,-5.67,-11.34,12.74,0.80,0.33,-0.47
23.27539,-0.07946415,-0.12464158,0.1736308,0.81,0.31,-0.48,28535,9985.60,0,0,0,-5.11,-11.27,12.67,0.81,0.31,-0.48
23.975586,-0.045464158,-0.11464156,0.11163081,0.81,0.3,-0.47,28557,9986.30,0,0,0,-2.73,-10.57,8.33,0.81,0.30,-0.47
22.576172,-4.641572E-4,-0.09464157,0.046630815,0.81,0.34,-0.47,28572,9984.90,0,0,0,0.42,-9.17,3.78,0.81,0.34,-0.47
22.576172,-0.018464155,-0.08564157,0.047630817,0.8,0.33,-0.47,28596,9984.90,0,0,0,-0.84,-8.54,3.85,0.80,0.33,-0.47
23.576172,-0.012464156,-0.08364157,0.04163082,0.8,0.34,-0.47,28618,9985.90,0,0,0,-0.42,-8.40,3.43,0.80,0.34,-0.47
23.576172,-0.020464158,-0.09664157,0.04163082,0.8,0.35,-0.47,28625,9985.90,0,0,0,-0.98,-9.31,3.43,0.80,0.35,-0.47
23.576172,-0.018464155,-0.09764157,0.03363081,0.79,0.35,-0.47,28648,9985.90,0,0,0,-0.84,-9.38,2.87,0.79,0.35,-0.47
23.975586,-0.014464157,-0.087641574,0.047630817,0.79,0.34,-0.48,28662,9986.30,0,0,0,-0.56,-8.68,3.85,0.79,0.34,-0.48
23.27539,0.0065358435,-0.08064156,0.019630816,0.79,0.34,-0.48,28685,9985.60,0,0,0,0.91,-8.19,1.89,0.79,0.34,-0.48
24.975586,0.04053584,-0.053641573,0.007630815,0.79,0.33,-0.48,28700,9987.30,0,0,0,3.29,-6.30,1.05,0.79,0.33,-0.48
24.675781,0.04053584,-0.03764157,-0.0053691845,0.79,0.34,-0.48,28723,9987.00,0,0,0,3.29,-5.18,0.14,0.79,0.34,-0.48
23.975586,0.039535843,-0.025641572,-0.002369185,0.79,0.34,-0.48,28738,9986.30,0,0,0,3.22,-4.34,0.35,0.79,0.34,-0.48
23.975586,0.04053584,-0.016641568,-0.0013691853,0.79,0.34,-0.49,28760,9986.30,0,0,0,3.29,-3.71,0.42,0.79,0.34,-0.49
23.975586,0.025535844,-0.011641566,0.009630816,0.78,0.35,-0.49,28775,9986.30,0,0,0,2.24,-3.36,1.19,0.78,0.35,-0.49
24.975586,0.026535843,-0.0046415664,0.0046308143,0.79,0.34,-0.48,28798,9987.30,0,0,0,2.31,-2.87,0.84,0.79,0.34,-0.48
23.975586,0.0095358435,3.5843253E-4,0.0056308154,0.79,0.34,-0.48,28813,9986.30,0,0,0,1.12,-2.52,0.91,0.79,0.34,-0.48
23.975586,0.0065358435,0.015358431,0.0066308156,0.79,0.34,-0.48,28835,9986.30,0,0,0,0.91,-1.47,0.98,0.79,0.34,-0.48
24.975586,-4.641572E-4,0.02135843,0.0046308143,0.79,0.34,-0.49,28850,9987.30,0,0,0,0.42,-1.05,0.84,0.79,0.34,-0.49
24.975586,0.003535843,0.013358431,0.012630815,0.79,0.34,-0.48,28874,9987.30,0,0,0,0.70,-1.61,1.40,0.79,0.34,-0.48
24.975586,-0.013464157,0.0033584312,0.03763082,0.79,0.35,-0.48,28888,9987.30,0,0,0,-0.49,-2.31,3.15,0.79,0.35,-0.48
24.975586,-0.014464157,-6.415695E-4,0.054630816,0.79,0.34,-0.48,28903,9987.30,0,0,0,-0.56,-2.59,4.34,0.79,0.34,-0.48
23.975586,-0.003464157,-0.0046415664,0.052630812,0.79,0.33,-0.47,28918,9986.30,0,0,0,0.21,-2.87,4.20,0.79,0.33,-0.47
24.975586,0.011535842,-0.012641571,0.04163082,0.79,0.33,-0.47,28941,9987.30,0,0,0,1.26,-3.43,3.43,0.79,0.33,-0.47
25.27539,0.017535841,-0.01964157,0.030630818,0.78,0.33,-0.48,28956,9987.60,0,0,0,1.68,-3.92,2.66,0.78,0.33,-0.48
24.27539,0.022535842,-0.021641567,0.015630815,0.79,0.33,-0.48,28978,9986.60,0,0,0,2.03,-4.06,1.61,0.79,0.33,-0.48
24.975586,0.019535843,-0.02664157,0.027630815,0.79,0.33,-0.48,28993,9987.30,0,0,0,1.82,-4.41,2.45,0.79,0.33,-0.48
25.27539,0.025535844,-0.032641567,0.03763082,0.79,0.32,-0.48,29015,9987.60,0,0,0,2.24,-4.83,3.15,0.79,0.32,-0.48
25.27539,0.03353584,-0.029641569,0.039630815,0.8,0.31,-0.48,29030,9987.60,0,0,0,2.80,-4.62,3.29,0.80,0.31,-0.48
25.975586,0.04453584,-0.02464157,0.030630818,0.79,0.31,-0.49,29053,9988.30,0,0,0,3.57,-4.27,2.66,0.79,0.31,-0.49
26.375977,0.047535844,-0.010641567,0.011630816,0.78,0.3,-0.49,29068,9988.70,0,0,0,3.78,-3.29,1.33,0.78,0.30,-0.49
26.675781,0.055535845,-0.0016415715,-0.002369185,0.78,0.32,-0.49,29090,9989.00,0,0,0,4.34,-2.66,0.35,0.78,0.32,-0.49
25.27539,0.03453584,-0.0046415664,0.007630815,0.79,0.32,-0.5,29106,9987.60,0,0,0,2.87,-2.87,1.05,0.79,0.32,-0.50
25.27539,0.020535843,-0.007641569,0.008630816,0.79,0.33,-0.5,29129,9987.60,0,0,0,1.89,-3.08,1.12,0.79,0.33,-0.50
25.27539,0.0095358435,-0.016641568,0.0066308156,0.79,0.33,-0.49,29143,9987.60,0,0,0,1.12,-3.71,0.98,0.79,0.33,-0.49
26.375977,-0.004464157,-0.023641568,-0.0013691853,0.78,0.32,-0.49,29166,9988.70,0,0,0,0.14,-4.20,0.42,0.78,0.32,-0.49
26.375977,-0.012464156,-0.029641569,0.011630816,0.78,0.33,-0.49,29181,9988.70,0,0,0,-0.42,-4.62,1.33,0.78,0.33,-0.49
25.675781,-0.036464155,-0.04464157,0.015630815,0.79,0.33,-0.49,29203,9988.00,0,0,0,-2.10,-5.67,1.61,0.79,0.33,-0.49
26.675781,-0.026464157,-0.043641567,0.0016308147,0.79,0.32,-0.49,29218,9989.00,0,0,0,-1.40,-5.60,0.63,0.79,0.32,-0.49
25.27539,-0.018464155,-0.049641572,0.0046308143,0.79,0.32,-0.49,29241,9987.60,0,0,0,-0.84,-6.02,0.84,0.79,0.32,-0.49
25.675781,-0.004464157,-0.04464157,-0.0053691845,0.79,0.32,-0.49,29256,9988.00,0,0,0,0.14,-5.67,0.14,0.79,0.32,-0.49
26.375977,0.010535844,-0.025641572,-0.018369185,0.79,0.32,-0.49,29278,9988.70,0,0,0,1.19,-4.34,-0.77,0.79,0.32,-0.49
25.675781,-0.0054641566,-0.020641569,-0.015369185,0.8,0.32,-0.49,29293,9988.00,0,0,0,0.07,-3.99,-0.56,0.80,0.32,-0.49
26.675781,0.0065358435,-0.016641568,-0.018369185,0.79,0.33,-0.49,29315,9989.00,0,0,0,0.91,-3.71,-0.77,0.79,0.33,-0.49
26.675781,0.0055358424,-0.009641569,-0.017369185,0.79,0.33,-0.49,29331,9989.00,0,0,0,0.84,-3.22,-0.70,0.79,0.33,-0.49
26.375977,0.013535842,-0.010641567,-0.032369185,0.79,0.32,-0.49,29352,9988.70,0,0,0,1.40,-3.29,-1.75,0.79,0.32,-0.49
26.675781,0.016535843,-0.008641571,-0.041369185,0.78,0.33,-0.49,29368,9989.00,0,0,0,1.61,-3.15,-2.38,0.78,0.33,-0.49
26.675781,0.003535843,-0.018641569,-0.042369187,0.78,0.33,-0.49,29390,9989.00,0,0,0,0.70,-3.85,-2.45,0.78,0.33,-0.49
26.675781,0.0095358435,-0.020641569,-0.056369185,0.78,0.35,-0.48,29405,9989.00,0,0,0,1.12,-3.99,-3.43,0.78,0.35,-0.48
26.675781,-0.0054641566,-0.02464157,-0.038369186,0.78,0.35,-0.49,29421,9989.00,0,0,0,0.07,-4.27,-2.17,0.78,0.35,-0.49
26.675781,-0.007464157,-0.02664157,-0.036369182,0.78,0.35,-0.49,29443,9989.00,0,0,0,-0.07,-4.41,-2.03,0.78,0.35,-0.49
26.675781,-0.0054641566,-0.031641573,-0.020369185,0.77,0.35,-0.5,29458,9989.00,0,0,0,0.07,-4.76,-0.91,0.77,0.35,-0.50
26.675781,-0.004464157,-0.038641572,0.0046308143,0.77,0.34,-0.5,29481,9989.00,0,0,0,0.14,-5.25,0.84,0.77,0.34,-0.50
26.675781,-4.641572E-4,-0.038641572,0.018630816,0.78,0.34,-0.5,29496,9989.00,0,0,0,0.42,-5.25,1.82,0.78,0.34,-0.50
26.975586,0.003535843,-0.039641574,0.027630815,0.78,0.34,-0.5,29518,9989.30,0,0,0,0.70,-5.32,2.45,0.78,0.34,-0.50
26.675781,0.003535843,-0.034641564,0.035630815,0.78,0.34,-0.5,29533,9989.00,0,0,0,0.70,-4.97,3.01,0.78,0.34,-0.50
24.975586,0.011535842,-0.029641569,0.024630817,0.77,0.34,-0.5,29555,9987.30,0,0,0,1.26,-4.62,2.24,0.77,0.34,-0.50
26.675781,0.017535841,-0.023641568,0.027630815,0.77,0.33,-0.62,29571,9989.00,0,0,0,1.68,-4.20,2.45,0.77,0.33,-0.62
25.975586,0.023535842,-0.023641568,0.031630814,0.78,0.32,-0.5,29593,9988.30,0,0,0,2.10,-4.20,2.73,0.78,0.32,-0.50
26.675781,0.016535843,-0.018641569,0.028630814,0.79,0.33,-0.5,29608,9989.00,0,0,0,1.61,-3.85,2.52,0.79,0.33,-0.50
25.675781,0.003535843,-0.010641567,0.031630814,0.79,0.31,-0.5,29631,9988.00,0,0,0,0.70,-3.29,2.73,0.79,0.31,-0.50
25.975586,-0.004464157,-0.008641571,0.021630814,0.78,0.32,-0.5,29645,9988.30,0,0,0,0.14,-3.15,2.03,0.78,0.32,-0.50
25.975586,0.24853584,-0.007641569,0.0066308156,0.78,0.32,-0.5,29662,9988.30,0,0,0,17.85,-3.08,0.98,0.78,0.32,-0.50
25.975586,-0.0024641566,-0.020641569,0.007630815,0.79,0.32,-0.5,29683,9988.30,0,0,0,0.28,-3.99,1.05,0.79,0.32,-0.50
24.975586,-0.0024641566,-0.020641569,-3.6918465E-4,0.78,0.33,-0.5,29698,9987.30,0,0,0,0.28,-3.99,0.49,0.78,0.33,-0.50
25.975586,0.0015358436,-0.016641568,-0.008369185,0.78,0.33,-0.5,29720,9988.30,0,0,0,0.56,-3.71,-0.07,0.78,0.33,-0.50
26.975586,-0.008464157,-0.02264157,0.0046308143,0.78,0.34,-0.5,29736,9989.30,0,0,0,-0.14,-4.13,0.84,0.78,0.34,-0.50
26.975586,-0.034464158,-0.03064157,0.022630814,0.76,0.33,-0.51,29758,9989.30,0,0,0,-1.96,-4.69,2.10,0.76,0.33,-0.51
24.975586,-0.032464158,-0.035641566,0.023630816,0.77,0.32,-0.5,29773,9987.30,0,0,0,-1.82,-5.04,2.17,0.77,0.32,-0.50
25.975586,-0.03846416,-0.03764157,0.019630816,0.77,0.32,-0.5,29796,9988.30,0,0,0,-2.24,-5.18,1.89,0.77,0.32,-0.50
25.975586,-0.025464159,-0.032641567,0.0016308147,0.78,0.33,-0.5,29810,9988.30,0,0,0,-1.33,-4.83,0.63,0.78,0.33,-0.50
24.975586,-0.012464156,-0.035641566,-0.013369184,0.77,0.33,-0.5,29832,9987.30,0,0,0,-0.42,-5.04,-0.42,0.77,0.33,-0.50
26.27539,-0.010464157,-0.04064157,-0.0053691845,0.77,0.32,-0.5,29847,9988.60,0,0,0,-0.28,-5.39,0.14,0.77,0.32,-0.50
25.27539,-0.011464156,-0.032641567,-0.0113691855,0.78,0.33,-0.5,29871,9987.60,0,0,0,-0.35,-4.83,-0.28,0.78,0.33,-0.50
25.27539,-0.006464157,-0.027641572,0.002630815,0.79,0.34,-0.5,29886,9987.60,0,0,0,0.00,-4.48,0.70,0.79,0.34,-0.50
25.27539,-0.0014641569,-0.01964157,0.008630816,0.78,0.33,-0.51,29909,9987.60,0,0,0,0.35,-3.92,1.12,0.78,0.33,-0.51
25.27539,-0.006464157,-0.016641568,0.011630816,0.77,0.33,-0.51,29923,9987.60,0,0,0,0.00,-3.71,1.33,0.77,0.33,-0.51
24.27539,5.358434E-4,-0.012641571,0.0016308147,0.77,0.33,-0.51,29938,9986.60,0,0,0,0.49,-3.43,0.63,0.77,0.33,-0.51
25.27539,0.0055358424,-0.0026415698,-0.0013691853,0.77,0.33,-0.51,29960,9987.60,0,0,0,0.84,-2.73,0.42,0.77,0.33,-0.51
23.175781,0.012535844,0.0023584291,-0.0053691845,0.77,0.33,-0.51,29975,9985.50,0,0,0,1.33,-2.38,0.14,0.77,0.33,-0.51
23.875977,0.018535843,-0.0026415698,-0.0053691845,0.77,0.33,-0.51,29998,9986.20,0,0,0,1.75,-2.73,0.14,0.77,0.33,-0.51
23.175781,0.011535842,-0.0026415698,-0.002369185,0.77,0.33,-0.51,30020,9985.50,0,0,0,1.26,-2.73,0.35,0.77,0.33,-0.51
24.27539,-0.012464156,3.5843253E-4,0.0016308147,0.77,0.33,-0.51,30035,9986.60,0,0,0,-0.42,-2.52,0.63,0.77,0.33,-0.51
23.175781,-0.020464158,-0.0046415664,6.308155E-4,0.77,0.33,-0.51,30058,9985.50,0,0,0,-0.98,-2.87,0.56,0.77,0.33,-0.51
24.576172,-0.020464158,-0.0066415705,0.0016308147,0.77,0.33,-0.51,30073,9986.90,0,0,0,-0.98,-3.01,0.63,0.77,0.33,-0.51
22.175781,-0.014464157,-0.012641571,6.308155E-4,0.78,0.33,-0.51,30096,9984.50,0,0,0,-0.56,-3.43,0.56,0.78,0.33,-0.51
21.475586,-0.012464156,-0.0046415664,-0.0063691847,0.78,0.32,-0.51,30110,9983.80,0,0,0,-0.42,-2.87,0.07,0.78,0.32,-0.51
23.175781,-0.006464157,0.0043584295,-0.012369185,0.78,0.33,-0.5,30125,9985.50,0,0,0,0.00,-2.24,-0.35,0.78,0.33,-0.50
22.875977,0.003535843,0.00935843,-0.0043691853,0.78,0.34,-0.5,30148,9985.20,0,0,0,0.70,-1.89,0.21,0.78,0.34,-0.50
22.475586,0.010535844,0.02335843,-0.0113691855,0.78,0.33,-0.5,30163,9984.80,0,0,0,1.19,-0.91,-0.28,0.78,0.33,-0.50
22.475586,0.030535843,0.035358433,-0.022369184,0.77,0.34,-0.5,30185,9984.80,0,0,0,2.59,-0.07,-1.05,0.77,0.34,-0.50
21.475586,0.03453584,0.027358431,-0.0063691847,0.78,0.33,-0.5,30208,9983.80,0,0,0,2.87,-0.63,0.07,0.78,0.33,-0.50
21.475586,0.030535843,0.016358431,0.008630816,0.77,0.33,-0.5,30223,9983.80,0,0,0,2.59,-1.40,1.12,0.77,0.33,-0.50
21.475586,0.028535843,0.02335843,-0.002369185,0.77,0.32,-0.5,30246,9983.80,0,0,0,2.45,-0.91,0.35,0.77,0.32,-0.50
21.475586,0.024535844,0.026358431,-0.010369184,0.77,0.32,-0.5,30261,9983.80,0,0,0,2.17,-0.70,-0.21,0.77,0.32,-0.50
20.475586,0.017535841,0.018358432,-0.002369185,0.76,0.33,-0.5,30283,9982.80,0,0,0,1.68,-1.26,0.35,0.76,0.33,-0.50
20.175781,0.004535843,0.014358431,0.0046308143,0.77,0.33,-0.5,30297,9982.50,0,0,0,0.77,-1.54,0.84,0.77,0.33,-0.50
20.475586,-0.009464157,0.0053584296,0.009630816,0.77,0.33,-0.5,30320,9982.80,0,0,0,-0.21,-2.17,1.19,0.77,0.33,-0.50
18.076172,-0.011464156,-0.0016415715,0.015630815,0.77,0.33,-0.5,30343,9980.40,0,0,0,-0.35,-2.66,1.61,0.77,0.33,-0.50
20.77539,-0.013464157,-0.0056415685,0.019630816,0.78,0.34,-0.5,30358,9983.10,0,0,0,-0.49,-2.94,1.89,0.78,0.34,-0.50
19.475586,-0.022464158,-0.008641571,0.029630816,0.78,0.33,-0.5,30373,9981.80,0,0,0,-1.12,-3.15,2.59,0.78,0.33,-0.50
18.375977,-0.016464157,-0.0016415715,0.017630816,0.78,0.32,-0.5,30396,9980.70,0,0,0,-0.70,-2.66,1.75,0.78,0.32,-0.50
19.77539,-0.0024641566,0.0043584295,0.003630815,0.78,0.32,-0.5,30410,9982.10,0,0,0,0.28,-2.24,0.77,0.78,0.32,-0.50
19.77539,0.010535844,0.00935843,-0.0113691855,0.77,0.34,-0.5,30433,9982.10,0,0,0,1.19,-1.89,-0.28,0.77,0.34,-0.50
19.77539,0.004535843,0.0063584317,0.0016308147,0.78,0.34,-0.5,30448,9982.10,0,0,0,0.77,-2.10,0.63,0.78,0.34,-0.50
18.77539,0.0075358436,-0.0026415698,0.010630814,0.77,0.33,-0.5,30471,9981.10,0,0,0,0.98,-2.73,1.26,0.77,0.33,-0.50
19.375977,-0.004464157,0.0023584291,0.013630815,0.77,0.33,-0.5,30486,9981.70,0,0,0,0.14,-2.38,1.47,0.77,0.33,-0.50
19.475586,-0.011464156,0.012358433,0.019630816,0.78,0.32,-0.5,30508,9981.80,0,0,0,-0.35,-1.68,1.89,0.78,0.32,-0.50
14.975586,-0.011464156,0.012358433,0.014630815,0.78,0.32,-0.5,30523,9977.30,0,0,0,-0.35,-1.68,1.54,0.78,0.32,-0.50
18.076172,-0.0024641566,0.011358431,0.0066308156,0.78,0.33,-0.5,30538,9980.40,0,0,0,0.28,-1.75,0.98,0.78,0.33,-0.50
17.675781,0.0065358435,0.00835843,-0.010369184,0.77,0.33,-0.5,30561,9980.00,0,0,0,0.91,-1.96,-0.21,0.77,0.33,-0.50
18.076172,0.004535843,0.012358433,-0.013369184,0.77,0.32,-0.5,30576,9980.40,0,0,0,0.77,-1.68,-0.42,0.77,0.32,-0.50
18.77539,-0.011464156,0.007358432,-0.008369185,0.78,0.32,-0.5,30591,9981.10,0,0,0,-0.35,-2.03,-0.07,0.78,0.32,-0.50
16.675781,-0.007464157,3.5843253E-4,-0.0063691847,0.78,0.33,-0.5,30605,9979.00,0,0,0,-0.07,-2.52,0.07,0.78,0.33,-0.50
18.076172,-0.009464157,0.0023584291,-0.0033691847,0.78,0.34,-0.49,30628,9980.40,0,0,0,-0.21,-2.38,0.28,0.78,0.34,-0.49
18.076172,-0.006464157,3.5843253E-4,0.002630815,0.78,0.33,-0.5,30650,9980.40,0,0,0,0.00,-2.52,0.70,0.78,0.33,-0.50
16.375977,-4.641572E-4,0.0063584317,-0.007369185,0.78,0.32,-0.5,30666,9978.70,0,0,0,0.42,-2.10,0.00,0.78,0.32,-0.50
19.076172,-0.004464157,0.0013584308,-0.007369185,0.78,0.32,-0.5,30681,9981.40,0,0,0,0.14,-2.45,0.00,0.78,0.32,-0.50
16.975586,-0.003464157,0.0013584308,-0.0063691847,0.78,0.32,-0.5,30695,9979.30,0,0,0,0.21,-2.45,0.07,0.78,0.32,-0.50
16.975586,0.0055358424,0.0023584291,-0.0113691855,0.78,0.33,-0.49,30718,9979.30,0,0,0,0.84,-2.38,-0.28,0.78,0.33,-0.49
16.975586,0.004535843,0.0063584317,-0.0113691855,0.78,0.34,-0.49,30733,9979.30,0,0,0,0.77,-2.10,-0.28,0.78,0.34,-0.49
17.375977,-0.004464157,0.0043584295,6.308155E-4,0.77,0.34,-0.5,30755,9979.70,0,0,0,0.14,-2.24,0.56,0.77,0.34,-0.50
18.076172,-0.0054641566,0.0033584312,0.014630815,0.78,0.34,-0.5,30770,9980.40,0,0,0,0.07,-2.31,1.54,0.78,0.34,-0.50
16.975586,-0.0024641566,0.0043584295,0.0046308143,0.78,0.33,-0.5,30800,9979.30,0,0,0,0.28,-2.24,0.84,0.78,0.33,-0.50
18.375977,5.358434E-4,0.0033584312,-0.0063691847,0.78,0.32,-0.49,30807,9980.70,0,0,0,0.49,-2.31,0.07,0.78,0.32,-0.49
18.076172,0.0015358436,0.0023584291,-0.013369184,0.78,0.33,-0.5,30830,9980.40,0,0,0,0.56,-2.38,-0.42,0.78,0.33,-0.50
18.675781,0.011535842,0.0023584291,-0.021369185,0.77,0.34,-0.49,30845,9981.00,0,0,0,1.26,-2.38,-0.98,0.77,0.34,-0.49
16.975586,0.0065358435,-0.0026415698,-0.013369184,0.78,0.33,-0.49,30868,9979.30,0,0,0,0.91,-2.73,-0.42,0.78,0.33,-0.49
18.375977,0.0025358428,-0.0026415698,-0.010369184,0.78,0.34,-0.49,30882,9980.70,0,0,0,0.63,-2.73,-0.21,0.78,0.34,-0.49
19.375977,-0.0024641566,-0.008641571,0.008630816,0.78,0.34,-0.5,30897,9981.70,0,0,0,0.28,-3.15,1.12,0.78,0.34,-0.50
19.076172,-0.0054641566,-0.01364157,0.012630815,0.77,0.33,-0.5,30920,9981.40,0,0,0,0.07,-3.50,1.40,0.77,0.33,-0.50
19.375977,0.0055358424,-0.008641571,0.015630815,0.78,0.33,-0.5,30935,9981.70,0,0,0,0.84,-3.15,1.61,0.78,0.33,-0.50
19.375977,0.008535843,-0.0026415698,0.0046308143,0.79,0.32,-0.49,30957,9981.70,0,0,0,1.05,-2.73,0.84,0.79,0.32,-0.49
19.375977,0.029535841,0.0043584295,6.308155E-4,0.78,0.32,-0.5,30972,9981.70,0,0,0,2.52,-2.24,0.56,0.78,0.32,-0.50
19.375977,0.020535843,-0.0036415681,-0.0013691853,0.77,0.33,-0.49,30996,9981.70,0,0,0,1.89,-2.80,0.42,0.77,0.33,-0.49
20.475586,0.010535844,-0.0066415705,0.007630815,0.77,0.34,-0.49,31010,9982.80,0,0,0,1.19,-3.01,1.05,0.77,0.34,-0.49
19.375977,0.0025358428,-0.011641566,0.011630816,0.77,0.33,-0.49,31034,9981.70,0,0,0,0.63,-3.36,1.33,0.77,0.33,-0.49
21.475586,-0.0024641566,-0.014641568,0.013630815,0.78,0.33,-0.5,31048,9983.80,0,0,0,0.28,-3.57,1.47,0.78,0.33,-0.50
20.475586,0.003535843,-0.010641567,0.010630814,0.79,0.32,-0.5,31070,9982.80,0,0,0,0.70,-3.29,1.26,0.79,0.32,-0.50
20.475586,0.003535843,-0.009641569,0.0046308143,0.79,0.31,-0.5,31086,9982.80,0,0,0,0.70,-3.22,0.84,0.79,0.31,-0.50
21.77539,0.010535844,-0.010641567,-0.0033691847,0.78,0.33,-0.5,31108,9984.10,0,0,0,1.19,-3.29,0.28,0.78,0.33,-0.50
22.475586,0.013535842,-0.009641569,-0.016369184,0.77,0.34,-0.38,31123,9984.80,0,0,0,1.40,-3.22,-0.63,0.77,0.34,-0.38
21.77539,0.008535843,-0.012641571,-0.012369185,0.77,0.35,-0.49,31139,9984.10,0,0,0,1.05,-3.43,-0.35,0.77,0.35,-0.49
21.77539,0.0055358424,-0.010641567,-3.6918465E-4,0.78,0.34,-0.49,31160,9984.10,0,0,0,0.84,-3.29,0.49,0.78,0.34,-0.49
22.77539,0.0015358436,-0.008641571,-0.002369185,0.77,0.34,-0.5,31175,9985.10,0,0,0,0.56,-3.15,0.35,0.77,0.34,-0.50
21.175781,5.358434E-4,-0.009641569,0.0016308147,0.77,0.32,-0.5,31198,9983.50,0,0,0,0.49,-3.22,0.63,0.77,0.32,-0.50
21.77539,0.003535843,-0.008641571,0.0066308156,0.78,0.33,-0.5,31214,9984.10,0,0,0,0.70,-3.15,0.98,0.78,0.33,-0.50
22.77539,0.0065358435,-0.009641569,0.014630815,0.79,0.34,-0.5,31235,9985.10,0,0,0,0.91,-3.22,1.54,0.79,0.34,-0.50
22.77539,0.008535843,-0.010641567,0.016630813,0.78,0.33,-0.5,31250,9985.10,0,0,0,1.05,-3.29,1.68,0.78,0.33,-0.50
22.77539,5.358434E-4,-0.0056415685,0.023630816,0.78,0.33,-0.5,31272,9985.10,0,0,0,0.49,-2.94,2.17,0.78,0.33,-0.50
22.77539,-0.006464157,-0.0036415681,0.024630817,0.78,0.33,-0.5,31288,9985.10,0,0,0,0.00,-2.80,2.24,0.78,0.33,-0.50
22.475586,-0.019464158,-0.0046415664,0.025630815,0.78,0.33,-0.5,31311,9984.80,0,0,0,-0.91,-2.87,2.31,0.78,0.33,-0.50
24.175781,-0.016464157,-0.011641566,0.026630817,0.78,0.32,-0.5,31333,9986.50,0,0,0,-0.70,-3.36,2.38,0.78,0.32,-0.50
22.77539,-0.010464157,-0.01964157,0.021630814,0.78,0.32,-0.5,31348,9985.10,0,0,0,-0.28,-3.92,2.03,0.78,0.32,-0.50
22.77539,-0.012464156,-0.02264157,0.019630816,0.78,0.32,-0.5,31363,9985.10,0,0,0,-0.42,-4.13,1.89,0.78,0.32,-0.50
26.875977,-0.008464157,-0.02264157,0.0056308154,0.78,0.33,-0.49,31386,9989.20,0,0,0,-0.14,-4.13,0.91,0.78,0.33,-0.49
23.875977,-0.017464157,-0.02464157,0.014630815,0.78,0.33,-0.5,31401,9986.20,0,0,0,-0.77,-4.27,1.54,0.78,0.33,-0.50
22.77539,-0.021464156,-0.02264157,0.019630816,0.79,0.33,-0.5,31423,9985.10,0,0,0,-1.05,-4.13,1.89,0.79,0.33,-0.50
22.77539,-0.007464157,-0.018641569,0.0016308147,0.79,0.31,-0.5,31439,9985.10,0,0,0,-0.07,-3.85,0.63,0.79,0.31,-0.50
23.175781,0.004535843,-0.01564157,-0.0043691853,0.78,0.31,-0.5,31461,9985.50,0,0,0,0.77,-3.64,0.21,0.78,0.31,-0.50
23.175781,0.0055358424,-0.01764157,-0.002369185,0.78,0.31,-0.5,31476,9985.50,0,0,0,0.84,-3.78,0.35,0.78,0.31,-0.50
24.175781,0.0055358424,-0.016641568,0.002630815,0.78,0.32,-0.5,31491,9986.50,0,0,0,0.84,-3.71,0.70,0.78,0.32,-0.50
22.77539,0.0095358435,-0.010641567,-3.6918465E-4,0.77,0.34,-0.5,31513,9985.10,0,0,0,1.12,-3.29,0.49,0.77,0.34,-0.50
24.175781,0.004535843,-0.011641566,-3.6918465E-4,0.77,0.33,-0.5,31542,9986.50,0,0,0,0.77,-3.36,0.49,0.77,0.33,-0.50
24.175781,-0.003464157,-0.020641569,0.011630816,0.78,0.33,-0.5,31557,9986.50,0,0,0,0.21,-3.99,1.33,0.78,0.33,-0.50
24.175781,-0.008464157,-0.023641568,0.022630814,0.78,0.31,-0.5,31573,9986.50,0,0,0,-0.14,-4.20,2.10,0.78,0.31,-0.50
24.175781,-0.0024641566,-0.018641569,0.008630816,0.78,0.31,-0.5,31588,9986.50,0,0,0,0.28,-3.85,1.12,0.78,0.31,-0.50
24.175781,0.0095358435,-0.01364157,0.0016308147,0.78,0.31,-0.5,31614,9986.50,0,0,0,1.12,-3.50,0.63,0.78,0.31,-0.50
24.475586,0.014535842,-0.007641569,-0.0063691847,0.78,0.33,-0.5,31626,9986.80,0,0,0,1.47,-3.08,0.07,0.78,0.33,-0.50
23.175781,0.008535843,-0.009641569,-0.009369185,0.78,0.34,-0.5,31655,9985.50,0,0,0,1.05,-3.22,-0.14,0.78,0.34,-0.50
23.475586,-0.0024641566,-0.01964157,-3.6918465E-4,0.77,0.33,-0.5,31663,9985.80,0,0,0,0.28,-3.92,0.49,0.77,0.33,-0.50
24.475586,-4.641572E-4,-0.025641572,0.002630815,0.77,0.32,-0.5,31685,9986.80,0,0,0,0.42,-4.34,0.70,0.77,0.32,-0.50
24.475586,0.014535842,-0.01964157,-0.018369185,0.78,0.33,-0.51,31700,9986.80,0,0,0,1.47,-3.92,-0.77,0.78,0.33,-0.51
25.175781,0.0055358424,-0.021641567,-0.013369184,0.78,0.33,-0.5,31723,9987.50,0,0,0,0.84,-4.06,-0.42,0.78,0.33,-0.50
25.576172,-0.003464157,-0.020641569,-0.0053691845,0.78,0.33,-0.5,31738,9987.90,0,0,0,0.21,-3.99,0.14,0.78,0.33,-0.50
24.175781,0.014535842,-0.012641571,-0.018369185,0.78,0.33,-0.5,31761,9986.50,0,0,0,1.47,-3.43,-0.77,0.78,0.33,-0.50
24.475586,0.020535843,-0.016641568,-0.016369184,0.77,0.34,-0.51,31775,9986.80,0,0,0,1.89,-3.71,-0.63,0.77,0.34,-0.51
24.475586,0.021535844,-0.012641571,-0.009369185,0.77,0.33,-0.51,31798,9986.80,0,0,0,1.96,-3.43,-0.14,0.77,0.33,-0.51
24.475586,0.014535842,-0.012641571,-0.007369185,0.78,0.34,-0.51,31812,9986.80,0,0,0,1.47,-3.43,0.00,0.78,0.34,-0.51
24.475586,0.0055358424,-0.009641569,6.308155E-4,0.77,0.32,-0.51,31835,9986.80,0,0,0,0.84,-3.22,0.56,0.77,0.32,-0.51
24.475586,0.0055358424,-0.010641567,-0.0033691847,0.77,0.32,-0.51,31850,9986.80,0,0,0,0.84,-3.29,0.28,0.77,0.32,-0.51
25.576172,0.012535844,-0.012641571,-3.6918465E-4,0.77,0.33,-0.51,31873,9987.90,0,0,0,1.33,-3.43,0.49,0.77,0.33,-0.51
25.576172,0.012535844,-0.012641571,6.308155E-4,0.77,0.33,-0.51,31888,9987.90,0,0,0,1.33,-3.43,0.56,0.77,0.33,-0.51
25.576172,0.011535842,-0.010641567,0.010630814,0.77,0.32,-0.51,31903,9987.90,0,0,0,1.26,-3.29,1.26,0.77,0.32,-0.51
27.576172,0.018535843,-0.010641567,0.010630814,0.77,0.33,-0.51,31918,9989.90,0,0,0,1.75,-3.29,1.26,0.77,0.33,-0.51
24.475586,0.012535844,-0.011641566,0.014630815,0.77,0.33,-0.51,31940,9986.80,0,0,0,1.33,-3.36,1.54,0.77,0.33,-0.51
24.475586,0.0065358435,-0.0056415685,0.017630816,0.77,0.34,-0.51,31955,9986.80,0,0,0,0.91,-2.94,1.75,0.77,0.34,-0.51
25.875977,0.0015358436,-0.0066415705,0.015630815,0.77,0.33,-0.51,31978,9988.20,0,0,0,0.56,-3.01,1.61,0.77,0.33,-0.51
24.475586,5.358434E-4,-0.0016415715,0.013630815,0.77,0.32,-0.52,32001,9986.80,0,0,0,0.49,-2.66,1.47,0.77,0.32,-0.52
25.875977,0.0025358428,-0.0016415715,0.009630816,0.77,0.31,-0.51,32015,9988.20,0,0,0,0.63,-2.66,1.19,0.77,0.31,-0.51
25.875977,0.003535843,-0.0046415664,0.015630815,0.78,0.32,-0.52,32038,9988.20,0,0,0,0.70,-2.87,1.61,0.78,0.32,-0.52
25.875977,5.358434E-4,-6.415695E-4,0.0056308154,0.78,0.33,-0.51,32053,9988.20,0,0,0,0.49,-2.59,0.91,0.78,0.33,-0.51
24.475586,-0.004464157,-0.0026415698,0.016630813,0.77,0.33,-0.5,32068,9986.80,0,0,0,0.14,-2.73,1.68,0.77,0.33,-0.50
24.475586,-0.012464156,-0.0026415698,0.013630815,0.77,0.33,-0.51,32090,9986.80,0,0,0,-0.42,-2.73,1.47,0.77,0.33,-0.51
24.875977,-0.0054641566,-0.0016415715,-0.002369185,0.77,0.33,-0.51,32105,9987.20,0,0,0,0.07,-2.66,0.35,0.77,0.33,-0.51
24.875977,-0.0054641566,-0.0026415698,-0.0013691853,0.78,0.32,-0.51,32128,9987.20,0,0,0,0.07,-2.73,0.42,0.78,0.32,-0.51
26.875977,-4.641572E-4,-0.0016415715,-0.0033691847,0.78,0.32,-0.51,32143,9989.20,0,0,0,0.42,-2.66,0.28,0.78,0.32,-0.51
24.875977,0.0025358428,-0.0056415685,0.002630815,0.77,0.32,-0.51,32166,9987.20,0,0,0,0.63,-2.94,0.70,0.77,0.32,-0.51
25.175781,0.0065358435,-0.0056415685,0.007630815,0.77,0.32,-0.51,32180,9987.50,0,0,0,0.91,-2.94,1.05,0.77,0.32,-0.51
25.875977,-0.0014641569,0.0013584308,0.009630816,0.77,0.33,-0.51,32203,9988.20,0,0,0,0.35,-2.45,1.19,0.77,0.33,-0.51
25.875977,-0.003464157,0.0013584308,0.014630815,0.77,0.33,-0.5,32218,9988.20,0,0,0,0.21,-2.45,1.54,0.77,0.33,-0.50
24.875977,-0.0014641569,0.0053584296,0.011630816,0.77,0.32,-0.51,32240,9987.20,0,0,0,0.35,-2.17,1.33,0.77,0.32,-0.51
25.875977,0.004535843,0.0043584295,0.0056308154,0.78,0.31,-0.51,32255,9988.20,0,0,0,0.77,-2.24,0.91,0.78,0.31,-0.51
25.175781,0.004535843,0.0033584312,0.003630815,0.78,0.33,-0.51,32279,9987.50,0,0,0,0.77,-2.31,0.77,0.78,0.33,-0.51
26.175781,-0.0014641569,0.0063584317,6.308155E-4,0.78,0.33,-0.51,32293,9988.50,0,0,0,0.35,-2.10,0.56,0.78,0.33,-0.51
25.175781,0.0025358428,0.0063584317,-0.0053691845,0.77,0.33,-0.51,32323,9987.50,0,0,0,0.63,-2.10,0.14,0.77,0.33,-0.51
26.175781,-4.641572E-4,3.5843253E-4,6.308155E-4,0.78,0.33,-0.51,32331,9988.50,0,0,0,0.42,-2.52,0.56,0.78,0.33,-0.51
24.875977,-0.010464157,-0.014641568,0.022630814,0.77,0.33,-0.51,32353,9987.20,0,0,0,-0.28,-3.57,2.10,0.77,0.33,-0.51
25.175781,-0.015464157,-0.018641569,0.023630816,0.77,0.32,-0.51,32368,9987.50,0,0,0,-0.63,-3.85,2.17,0.77,0.32,-0.51
25.175781,-0.015464157,-0.01364157,0.017630816,0.78,0.32,-0.5,32391,9987.50,0,0,0,-0.63,-3.50,1.75,0.78,0.32,-0.50
24.875977,5.358434E-4,-0.0036415681,0.002630815,0.78,0.32,-0.5,32406,9987.20,0,0,0,0.49,-2.80,0.70,0.78,0.32,-0.50
25.175781,-0.004464157,-6.415695E-4,0.008630816,0.78,0.31,-0.51,32428,9987.50,0,0,0,0.14,-2.59,1.12,0.78,0.31,-0.51
24.77539,-0.0014641569,-0.0016415715,0.003630815,0.78,0.32,-0.51,32443,9987.10,0,0,0,0.35,-2.66,0.77,0.78,0.32,-0.51
24.175781,-4.641572E-4,3.5843253E-4,-3.6918465E-4,0.78,0.32,-0.51,32465,9986.50,0,0,0,0.42,-2.52,0.49,0.78,0.32,-0.51
26.175781,0.004535843,-0.0036415681,0.007630815,0.77,0.32,-0.5,32481,9988.50,0,0,0,0.77,-2.80,1.05,0.77,0.32,-0.50
25.175781,0.008535843,-0.0066415705,0.0056308154,0.77,0.33,-0.51,32495,9987.50,0,0,0,1.05,-3.01,0.91,0.77,0.33,-0.51
25.175781,0.0055358424,-0.008641571,0.011630816,0.77,0.32,-0.51,32518,9987.50,0,0,0,0.84,-3.15,1.33,0.77,0.32,-0.51
24.175781,-0.0024641566,-0.0056415685,0.008630816,0.78,0.32,-0.51,32533,9986.50,0,0,0,0.28,-2.94,1.12,0.78,0.32,-0.51
25.175781,0.003535843,-0.007641569,0.0056308154,0.78,0.32,-0.51,32555,9987.50,0,0,0,0.70,-3.08,0.91,0.78,0.32,-0.51
24.175781,-0.006464157,-0.007641569,0.013630815,0.78,0.31,-0.51,32571,9986.50,0,0,0,0.00,-3.08,1.47,0.78,0.31,-0.51
25.175781,-0.0054641566,-0.0046415664,0.0046308143,0.77,0.33,-0.51,32593,9987.50,0,0,0,0.07,-2.87,0.84,0.77,0.33,-0.51
25.175781,5.358434E-4,-0.0016415715,-0.0053691845,0.77,0.33,-0.51,32608,9987.50,0,0,0,0.49,-2.66,0.14,0.77,0.33,-0.51
