Pressure_Rel,GyroX_Rel,GyroY_Rel,GyroZ_Rel,AccX_Rel,AccY_Rel,AccZ_Rel,Timestamp,Pressure_abs,HeartRate,Oxygen,Status,GyroX,GyroY,GyroZ,AccX,AccY,AccZ
0.0,0.0,0.0,0.0,0.0,0.0,0.0,4533,10077.10,0,0,0,1.12,-3.36,1.47,-0.20,-0.65,-0.73
0.0,0.0,0.0,0.0,0.0,0.0,0.0,4548,10078.10,0,0,0,0.84,-4.27,1.33,-0.19,-0.65,-0.73
0.0,0.0,0.0,0.0,0.0,0.0,0.0,4562,10078.80,0,0,0,0.77,-4.06,1.26,-0.20,-0.65,-0.73
0.0,0.0,0.0,0.0,0.0,0.0,0.0,4577,10078.10,0,0,0,-0.21,-4.69,1.40,-0.19,-0.64,-0.73
0.0,0.0,0.0,0.0,0.0,0.0,0.0,4593,10078.10,0,0,0,0.00,-3.99,1.05,-0.19,-0.65,-0.72
0.0,0.0,0.0,0.0,0.0,0.0,0.0,4615,10077.10,0,0,0,-0.77,-3.78,0.91,-0.19,-0.65,-0.72
0.0,0.0,0.0,0.0,0.0,0.0,0.0,4629,10077.10,0,0,0,-0.98,-4.34,0.14,-0.19,-0.64,-0.73
0.0,0.0,0.0,0.0,0.0,0.0,0.0,4645,10078.10,0,0,0,-0.56,-3.85,0.00,-0.20,-0.64,-0.72
0.0,0.0,0.0,0.0,0.0,0.0,0.0,4660,10077.10,0,0,0,0.14,-3.50,0.14,-0.20,-0.63,-0.72
0.0,0.0,0.0,0.0,0.0,0.0,0.0,4674,10077.40,0,0,0,0.84,-3.92,0.28,-0.20,-0.63,-0.72
0.0,0.0,0.0,0.0,0.0,0.0,0.0,4689,10077.10,0,0,0,1.12,-3.57,0.49,-0.20,-0.64,-0.72
0.0,0.0,0.0,0.0,0.0,0.0,0.0,4712,10077.10,0,0,0,0.91,-3.78,0.35,-0.20,-0.64,-0.73
0.0,0.0,0.0,0.0,0.0,0.0,0.0,4727,10078.50,0,0,0,0.77,-3.57,0.35,-0.20,-0.64,-0.73
0.0,0.0,0.0,0.0,0.0,0.0,0.0,4742,10078.50,0,0,0,0.35,-3.22,0.56,-0.20,-0.64,-0.72
0.0,0.0,0.0,0.0,0.0,0.0,0.0,4757,10078.50,0,0,0,0.14,-3.43,0.77,-0.20,-0.64,-0.72
0.0,0.0,0.0,0.0,0.0,0.0,0.0,4771,10078.10,0,0,0,-0.70,-3.71,0.70,-0.20,-0.64,-0.73
0.0,0.0,0.0,0.0,0.0,0.0,0.0,4787,10077.40,0,0,0,-0.21,-3.43,0.49,-0.20,-0.65,-0.73
0.0,0.0,0.0,0.0,0.0,0.0,0.0,4809,10078.50,0,0,0,0.28,-3.78,0.07,-0.20,-0.65,-0.71
0.0,0.0,0.0,0.0,0.0,0.0,0.0,4824,10077.40,0,0,0,-0.49,-4.20,0.07,-0.20,-0.64,-0.72
0.0,0.0,0.0,0.0,0.0,0.0,0.0,4840,10078.50,0,0,0,-0.63,-3.64,0.56,-0.21,-0.64,-0.73
0.0,0.0,0.0,0.0,0.0,0.0,0.0,4854,10078.50,0,0,0,-1.33,-2.87,1.19,-0.20,-0.64,-0.73
0.0,0.0,0.0,0.0,0.0,0.0,0.0,4869,10078.50,0,0,0,-1.61,-2.66,1.54,-0.20,-0.65,-0.73
0.0,0.0,0.0,0.0,0.0,0.0,0.0,4885,10077.40,0,0,0,-0.91,-2.80,1.12,-0.20,-0.65,-0.73
0.0,0.0,0.0,0.0,0.0,0.0,0.0,4907,10077.40,0,0,0,-0.28,-2.80,0.98,-0.20,-0.65,-0.73
0.0,0.0,0.0,0.0,0.0,0.0,0.0,4922,10077.40,0,0,0,0.00,-3.15,1.12,-0.20,-0.64,-0.72
0.0,0.0,0.0,0.0,0.0,0.0,0.0,4937,10077.40,0,0,0,0.21,-4.34,0.98,-0.20,-0.64,-0.73
0.0,0.0,0.0,0.0,0.0,0.0,0.0,4952,10077.40,0,0,0,0.42,-3.57,1.54,-0.19,-0.64,-0.73
0.0,0.0,0.0,0.0,0.0,0.0,0.0,4967,10077.10,0,0,0,-0.21,-3.50,1.33,-0.20,-0.64,-0.73
0.0,0.0,0.0,0.0,0.0,0.0,0.0,4981,10077.40,0,0,0,-0.91,-2.73,1.33,-0.20,-0.64,-0.73
0.0,0.0,0.0,0.0,0.0,0.0,0.0,4997,10080.50,0,0,0,-0.98,-3.71,1.19,-0.21,-0.65,-0.73
0.0,0.0,0.0,0.0,0.0,0.0,0.0,5020,10078.80,0,0,0,-1.40,-3.08,1.33,-0.20,-0.65,-0.73
0.0,0.0,0.0,0.0,0.0,0.0,0.0,5035,10078.50,0,0,0,-1.12,-3.57,0.98,-0.20,-0.65,-0.72
0.0,0.0,0.0,0.0,0.0,0.0,0.0,5049,10077.40,0,0,0,0.07,-4.06,0.70,-0.20,-0.64,-0.73
0.0,0.0,0.0,0.0,0.0,0.0,0.0,5064,10076.40,0,0,0,0.49,-3.36,0.98,-0.20,-0.64,-0.73
0.0,0.0,0.0,0.0,0.0,0.0,0.0,5079,10077.40,0,0,0,-1.19,-3.64,0.91,-0.20,-0.63,-0.74
0.0,0.0,0.0,0.0,0.0,0.0,0.0,5095,10077.40,0,0,0,-2.24,-3.22,1.26,-0.20,-0.64,-0.73
0.0,0.0,0.0,0.0,0.0,0.0,0.0,5116,10077.40,0,0,0,-1.61,-2.24,0.98,-0.20,-0.64,-0.73
0.0,0.0,0.0,0.0,0.0,0.0,0.0,5131,10078.50,0,0,0,-1.40,-2.10,0.70,-0.20,-0.64,-0.72
0.0,0.0,0.0,0.0,0.0,0.0,0.0,5147,10077.80,0,0,0,-0.84,-2.10,0.14,-0.20,-0.63,-0.73
0.0,0.0,0.0,0.0,0.0,0.0,0.0,5161,10077.40,0,0,0,-1.26,-2.24,0.28,-0.20,-0.63,-0.72
0.0,0.0,0.0,0.0,0.0,0.0,0.0,5177,10078.80,0,0,0,-1.12,-3.01,0.49,-0.20,-0.63,-0.73
0.0,0.0,0.0,0.0,0.0,0.0,0.0,5192,10077.80,0,0,0,-0.77,-3.01,1.19,-0.20,-0.63,-0.73
0.0,0.0,0.0,0.0,0.0,0.0,0.0,5207,10077.10,0,0,0,-0.84,-2.87,1.26,-0.20,-0.64,-0.72
0.0,0.0,0.0,0.0,0.0,0.0,0.0,5229,10077.80,0,0,0,-1.05,-3.43,1.05,-0.20,-0.64,-0.73
0.0,0.0,0.0,0.0,0.0,0.0,0.0,5245,10078.80,0,0,0,-0.07,-3.08,0.70,-0.20,-0.64,-0.72
0.0,0.0,0.0,0.0,0.0,0.0,0.0,5259,10077.80,0,0,0,0.28,-3.64,0.35,-0.20,-0.64,-0.73
0.0,0.0,0.0,0.0,0.0,0.0,0.0,5274,10077.80,0,0,0,0.35,-3.57,0.28,-0.20,-0.64,-0.73
0.0,0.0,0.0,0.0,0.0,0.0,0.0,5289,10077.80,0,0,0,0.35,-2.80,0.21,-0.20,-0.63,-0.73
0.0,0.0,0.0,0.0,0.0,0.0,0.0,5312,10078.80,0,0,0,0.77,-3.08,0.21,-0.20,-0.64,-0.72
0.0,0.0,0.0,0.0,0.0,0.0,0.0,5327,10079.10,0,0,0,1.05,-3.36,0.21,-0.20,-0.64,-0.72
0.0,0.0,0.0,0.0,0.0,0.0,0.0,5342,10077.80,0,0,0,0.98,-3.50,0.07,-0.20,-0.64,-0.73
0.0,0.0,0.0,0.0,0.0,0.0,0.0,5357,10080.80,0,0,0,1.54,-3.22,0.07,-0.20,-0.64,-0.73
0.0,0.0,0.0,0.0,0.0,0.0,0.0,5372,10078.10,0,0,0,1.05,-3.01,0.35,-0.20,-0.63,-0.73
0.0,0.0,0.0,0.0,0.0,0.0,0.0,5387,10078.10,0,0,0,0.35,-2.45,0.77,-0.20,-0.64,-0.73
0.0,0.0,0.0,0.0,0.0,0.0,0.0,5409,10077.80,0,0,0,0.35,-2.52,0.84,-0.20,-0.64,-0.73
0.0,0.0,0.0,0.0,0.0,0.0,0.0,5424,10077.80,0,0,0,0.14,-2.59,0.77,-0.20,-0.64,-0.73
0.0,0.0,0.0,0.0,0.0,0.0,0.0,5439,10077.80,0,0,0,1.75,-2.59,0.42,-0.20,-0.64,-0.72
0.0,0.0,0.0,0.0,0.0,0.0,0.0,5455,10077.80,0,0,0,2.73,-3.01,0.35,-0.20,-0.64,-0.73
0.0,0.0,0.0,0.0,0.0,0.0,0.0,5470,10077.80,0,0,0,1.82,-2.66,0.84,-0.20,-0.63,-0.73
0.0,0.0,0.0,0.0,0.0,0.0,0.0,5484,10078.10,0,0,0,0.63,-3.29,1.19,-0.21,-0.64,-0.73
0.0,0.0,0.0,0.0,0.0,0.0,0.0,5499,10077.80,0,0,0,0.84,-3.36,1.05,-0.20,-0.65,-0.73
0.0,0.0,0.0,0.0,0.0,0.0,0.0,5522,10078.10,0,0,0,0.35,-2.38,0.98,-0.20,-0.65,-0.73
0.0,0.0,0.0,0.0,0.0,0.0,0.0,5537,10077.80,0,0,0,0.00,-2.73,0.49,-0.20,-0.65,-0.72
0.0,0.0,0.0,0.0,0.0,0.0,0.0,5553,10079.10,0,0,0,0.35,-2.80,0.49,-0.20,-0.64,-0.73
0.0,0.0,0.0,0.0,0.0,0.0,0.0,5567,10077.80,0,0,0,1.12,-2.66,0.56,-0.20,-0.64,-0.73
0.0,0.0,0.0,0.0,0.0,0.0,0.0,5582,10078.10,0,0,0,1.33,-3.36,0.42,-0.20,-0.64,-0.73
0.0,0.0,0.0,0.0,0.0,0.0,0.0,5597,10077.80,0,0,0,0.91,-2.52,1.19,-0.20,-0.64,-0.72
0.0,0.0,0.0,0.0,0.0,0.0,0.0,5613,10078.80,0,0,0,0.63,-3.43,0.84,-0.20,-0.64,-0.73
0.0,0.0,0.0,0.0,0.0,0.0,0.0,5635,10077.80,0,0,0,-0.70,-2.52,1.33,-0.20,-0.64,-0.73
0.0,0.0,0.0,0.0,0.0,0.0,0.0,5650,10078.10,0,0,0,-1.61,-2.10,1.26,-0.20,-0.64,-0.73
0.0,0.0,0.0,0.0,0.0,0.0,0.0,5665,10078.10,0,0,0,-0.70,-1.54,1.05,-0.20,-0.64,-0.73
0.0,0.0,0.0,0.0,0.0,0.0,0.0,5680,10077.40,0,0,0,-0.35,-1.68,0.91,-0.20,-0.65,-0.72
0.0,0.0,0.0,0.0,0.0,0.0,0.0,5695,10076.70,0,0,0,0.14,-2.03,0.70,-0.20,-0.65,-0.72
0.0,0.0,0.0,0.0,0.0,0.0,0.0,5709,10078.10,0,0,0,0.56,-2.80,0.49,-0.20,-0.64,-0.73
0.0,0.0,0.0,0.0,0.0,0.0,0.0,5732,10078.10,0,0,0,0.14,-3.36,0.77,-0.20,-0.65,-0.72
0.0,0.0,0.0,0.0,0.0,0.0,0.0,5748,10078.10,0,0,0,-0.28,-3.08,1.33,-0.20,-0.64,-0.73
0.0,0.0,0.0,0.0,0.0,0.0,0.0,5762,10078.10,0,0,0,-0.49,-3.22,1.26,-0.20,-0.64,-0.73
0.0,0.0,0.0,0.0,0.0,0.0,0.0,5776,10077.10,0,0,0,-0.28,-3.29,0.98,-0.20,-0.64,-0.73
0.0,0.0,0.0,0.0,0.0,0.0,0.0,5792,10078.40,0,0,0,-0.63,-2.87,1.05,-0.20,-0.64,-0.73
0.0,0.0,0.0,0.0,0.0,0.0,0.0,5806,10078.10,0,0,0,-0.21,-3.15,0.70,-0.20,-0.64,-0.73
0.0,0.0,0.0,0.0,0.0,0.0,0.0,5822,10078.40,0,0,0,0.70,-3.64,0.49,-0.20,-0.64,-0.73
0.0,0.0,0.0,0.0,0.0,0.0,0.0,5844,10078.40,0,0,0,1.33,-2.94,0.91,-0.20,-0.64,-0.72
0.0,0.0,0.0,0.0,0.0,0.0,0.0,5860,10078.10,0,0,0,0.70,-3.29,1.05,-0.21,-0.64,-0.73
0.0,0.0,0.0,0.0,0.0,0.0,0.0,5875,10077.40,0,0,0,-0.28,-2.52,1.47,-0.21,-0.64,-0.73
0.78027344,-0.001622413,-0.006701693,-0.009781039,-0.2,-0.58,-0.77,15902,10074.40,0,0,0,-0.35,-3.22,0.21,-0.20,-0.58,-0.77
1.7802734,-0.004622414,2.9830635E-4,0.0012189616,-0.2,-0.59,-0.77,15924,10075.40,0,0,0,-0.56,-2.73,0.98,-0.20,-0.59,-0.77
0.78027344,0.0073775873,0.019298308,0.008218961,-0.2,-0.6,-0.77,15939,10074.40,0,0,0,0.28,-1.40,1.47,-0.20,-0.60,-0.77
1.7802734,0.016377587,0.016298307,0.0012189616,-0.19,-0.6,-0.77,15962,10075.40,0,0,0,0.91,-1.61,0.98,-0.19,-0.60,-0.77
0.78027344,0.013377586,0.011298306,-0.007781039,-0.2,-0.6,-0.77,15977,10074.40,0,0,0,0.70,-1.96,0.35,-0.20,-0.60,-0.77
1.7802734,0.0083775865,-0.0017016903,-0.0047810385,-0.2,-0.59,-0.77,15999,10075.40,0,0,0,0.35,-2.87,0.56,-0.20,-0.59,-0.77
1.7802734,0.005377587,0.0012983046,0.0022189608,-0.2,-0.59,-0.77,16014,10075.40,0,0,0,0.14,-2.66,1.05,-0.20,-0.59,-0.77
1.7802734,0.0073775873,2.9830635E-4,0.0032189619,-0.2,-0.59,-0.76,16037,10075.40,0,0,0,0.28,-2.73,1.12,-0.20,-0.59,-0.76
2.4794922,0.002377587,0.0032983087,0.011218959,-0.19,-0.6,-0.77,16052,10076.10,0,0,0,-0.07,-2.52,1.68,-0.19,-0.60,-0.77
1.7802734,0.0013775867,0.011298306,0.0122189615,-0.19,-0.6,-0.77,16084,10075.40,0,0,0,-0.14,-1.96,1.75,-0.19,-0.60,-0.77
2.7802734,0.020377588,0.017298307,0.0052189603,-0.19,-0.59,-0.77,16089,10076.40,0,0,0,1.19,-1.54,1.26,-0.19,-0.59,-0.77
-0.3203125,0.016377587,0.012298306,0.004218962,-0.19,-0.59,-0.77,16116,10073.30,0,0,0,0.91,-1.89,1.19,-0.19,-0.59,-0.77
1.7802734,0.024377586,0.015298309,0.0032189619,-0.19,-0.59,-0.76,16126,10075.40,0,0,0,1.47,-1.68,1.12,-0.19,-0.59,-0.76
1.7802734,0.014377587,-0.0017016903,0.0022189608,-0.19,-0.59,-0.77,16149,10075.40,0,0,0,0.77,-2.87,1.05,-0.19,-0.59,-0.77
1.7802734,0.0063775866,-7.0169196E-4,0.008218961,-0.18,-0.6,-0.76,16164,10075.40,0,0,0,0.21,-2.80,1.47,-0.18,-0.60,-0.76
1.7802734,0.0043775868,0.010298308,0.0072189607,-0.18,-0.59,-0.78,16187,10075.40,0,0,0,0.07,-2.03,1.40,-0.18,-0.59,-0.78
1.7802734,0.0063775866,0.015298309,0.0032189619,-0.18,-0.59,-0.76,16201,10075.40,0,0,0,0.21,-1.68,1.12,-0.18,-0.59,-0.76
1.3798828,0.0083775865,0.009298308,-0.008781038,-0.18,-0.6,-0.75,16223,10075.00,0,0,0,0.35,-2.10,0.28,-0.18,-0.60,-0.75
1.3798828,0.0063775866,-0.009701695,-0.014781039,-0.19,-0.6,-0.76,16238,10075.00,0,0,0,0.21,-3.43,-0.14,-0.19,-0.60,-0.76
2.7802734,0.0083775865,-0.012701694,-0.014781039,-0.19,-0.6,-0.77,16261,10076.40,0,0,0,0.35,-3.64,-0.14,-0.19,-0.60,-0.77
1.7802734,0.012377586,0.0072983056,-0.008781038,-0.2,-0.6,-0.77,16277,10075.40,0,0,0,0.63,-2.24,0.28,-0.20,-0.60,-0.77
2.4794922,0.0083775865,0.0012983046,-7.810397E-4,-0.19,-0.59,-0.77,16299,10076.10,0,0,0,0.35,-2.66,0.84,-0.19,-0.59,-0.77
1.7802734,0.0033775868,0.0022983067,0.0022189608,-0.19,-0.59,-0.78,16315,10075.40,0,0,0,0.00,-2.59,1.05,-0.19,-0.59,-0.78
2.7802734,0.0063775866,0.0052983053,0.004218962,-0.19,-0.59,-0.77,16336,10076.40,0,0,0,0.21,-2.38,1.19,-0.19,-0.59,-0.77
1.7802734,0.010377587,0.004298307,0.008218961,-0.19,-0.6,-0.77,16351,10075.40,0,0,0,0.49,-2.45,1.47,-0.19,-0.60,-0.77
7.879883,0.019377587,0.004298307,0.010218961,-0.19,-0.59,-0.77,16374,10081.50,0,0,0,1.12,-2.45,1.61,-0.19,-0.59,-0.77
1.7802734,0.013377586,0.004298307,0.009218961,-0.19,-0.6,-0.77,16389,10075.40,0,0,0,0.70,-2.45,1.54,-0.19,-0.60,-0.77
2.7802734,0.005377587,0.0072983056,0.008218961,-0.18,-0.6,-0.77,16403,10076.40,0,0,0,0.14,-2.24,1.47,-0.18,-0.60,-0.77
2.7802734,-0.004622414,0.0022983067,0.0032189619,-0.19,-0.6,-0.77,16419,10076.40,0,0,0,-0.56,-2.59,1.12,-0.19,-0.60,-0.77
2.4794922,0.0073775873,0.008298306,-0.0017810389,-0.19,-0.6,-0.76,16441,10076.10,0,0,0,0.28,-2.17,0.77,-0.19,-0.60,-0.76
3.4794922,0.0073775873,0.009298308,-7.810397E-4,-0.19,-0.59,-0.76,16456,10077.10,0,0,0,0.28,-2.10,0.84,-0.19,-0.59,-0.76
2.7802734,3.7758704E-4,2.9830635E-4,0.0032189619,-0.19,-0.59,-0.77,16480,10076.40,0,0,0,-0.21,-2.73,1.12,-0.19,-0.59,-0.77
2.7802734,0.0083775865,-7.0169196E-4,2.1896139E-4,-0.19,-0.59,-0.77,16494,10076.40,0,0,0,0.35,-2.80,0.91,-0.19,-0.59,-0.77
2.7802734,-6.2241335E-4,-0.0037016943,0.0032189619,-0.19,-0.59,-0.77,16516,10076.40,0,0,0,-0.28,-3.01,1.12,-0.19,-0.59,-0.77
2.7802734,-6.2241335E-4,-7.0169196E-4,0.0052189603,-0.19,-0.6,-0.77,16532,10076.40,0,0,0,-0.28,-2.80,1.26,-0.19,-0.60,-0.77
2.4794922,0.0043775868,-0.00870169,0.0052189603,-0.19,-0.59,-0.76,16554,10076.10,0,0,0,0.07,-3.36,1.26,-0.19,-0.59,-0.76
2.7802734,0.005377587,-0.009701695,0.0022189608,-0.18,-0.59,-0.77,16569,10076.40,0,0,0,0.14,-3.43,1.05,-0.18,-0.59,-0.77
2.7802734,0.002377587,-0.0057016946,-0.0037810393,-0.18,-0.59,-0.77,16592,10076.40,0,0,0,-0.07,-3.15,0.63,-0.18,-0.59,-0.77
1.3798828,0.0073775873,-0.009701695,-0.007781039,-0.19,-0.6,-0.77,16607,10075.00,0,0,0,0.28,-3.43,0.35,-0.19,-0.60,-0.77
1.7802734,0.010377587,-0.011701692,-0.0047810385,-0.19,-0.59,-0.77,16629,10075.40,0,0,0,0.49,-3.57,0.56,-0.19,-0.59,-0.77
2.7802734,0.0073775873,-7.0169196E-4,-7.810397E-4,-0.19,-0.59,-0.77,16645,10076.40,0,0,0,0.28,-2.80,0.84,-0.19,-0.59,-0.77
2.7802734,-0.0026224128,-0.0037016943,-0.0017810389,-0.19,-0.59,-0.76,16667,10076.40,0,0,0,-0.42,-3.01,0.77,-0.19,-0.59,-0.76
1.7802734,-0.0036224134,-0.0077016912,2.1896139E-4,-0.19,-0.6,-0.77,16681,10075.40,0,0,0,-0.49,-3.29,0.91,-0.19,-0.60,-0.77
3.1796875,0.018377587,0.004298307,-0.007781039,-0.19,-0.6,-0.77,16704,10076.80,0,0,0,1.05,-2.45,0.35,-0.19,-0.60,-0.77
3.7802734,0.023377586,-0.011701692,-0.014781039,-0.19,-0.59,-0.77,16719,10077.40,0,0,0,1.40,-3.57,-0.14,-0.19,-0.59,-0.77
2.7802734,0.009377587,-0.021701694,-0.010781039,-0.2,-0.58,-0.77,16742,10076.40,0,0,0,0.42,-4.27,0.14,-0.20,-0.58,-0.77
2.4794922,-0.015622415,0.0052983053,0.0032189619,-0.2,-0.59,-0.77,16756,10076.10,0,0,0,-1.33,-2.38,1.12,-0.20,-0.59,-0.77
3.7802734,-0.013622414,0.0072983056,0.009218961,-0.19,-0.6,-0.76,16779,10077.40,0,0,0,-1.19,-2.24,1.54,-0.19,-0.60,-0.76
2.7802734,-0.001622413,0.0072983056,0.0062189624,-0.19,-0.59,-0.76,16795,10076.40,0,0,0,-0.35,-2.24,1.33,-0.19,-0.59,-0.76
2.7802734,0.016377587,0.004298307,0.0022189608,-0.19,-0.59,-0.77,16817,10076.40,0,0,0,0.91,-2.45,1.05,-0.19,-0.59,-0.77
2.7802734,0.011377587,0.0072983056,0.0032189619,-0.19,-0.59,-0.77,16832,10076.40,0,0,0,0.56,-2.24,1.12,-0.19,-0.59,-0.77
3.4794922,-0.004622414,-0.006701693,0.0022189608,-0.19,-0.6,-0.78,16854,10077.10,0,0,0,-0.56,-3.22,1.05,-0.19,-0.60,-0.78
2.4794922,0.0043775868,2.9830635E-4,0.0012189616,-0.19,-0.6,-0.77,16869,10076.10,0,0,0,0.07,-2.73,0.98,-0.19,-0.60,-0.77
2.7802734,0.0073775873,-0.010701694,-0.0037810393,-0.19,-0.59,-0.77,16892,10076.40,0,0,0,0.28,-3.50,0.63,-0.19,-0.59,-0.77
3.7802734,-0.0076224133,-0.0037016943,-7.810397E-4,-0.19,-0.59,-0.77,16907,10077.40,0,0,0,-0.77,-3.01,0.84,-0.19,-0.59,-0.77
2.4794922,0.0033775868,0.004298307,0.0012189616,-0.2,-0.6,-0.76,16921,10076.10,0,0,0,0.00,-2.45,0.98,-0.20,-0.60,-0.76
2.7802734,0.014377587,0.0072983056,0.0032189619,-0.2,-0.59,-0.77,16944,10076.40,0,0,0,0.77,-2.24,1.12,-0.20,-0.59,-0.77
3.7802734,0.0083775865,0.0062983073,0.004218962,-0.2,-0.59,-0.77,16959,10077.40,0,0,0,0.35,-2.31,1.19,-0.20,-0.59,-0.77
2.7802734,0.016377587,0.011298306,0.0052189603,-0.19,-0.6,-0.76,16981,10076.40,0,0,0,0.91,-1.96,1.26,-0.19,-0.60,-0.76
3.4794922,-6.2241335E-4,-0.0017016903,0.0062189624,-0.19,-0.59,-0.77,17003,10077.10,0,0,0,-0.28,-2.87,1.33,-0.19,-0.59,-0.77
3.7802734,-0.0076224133,-0.0047016926,0.008218961,-0.19,-0.59,-0.76,17019,10077.40,0,0,0,-0.77,-3.08,1.47,-0.19,-0.59,-0.76
2.7802734,-6.2241335E-4,2.9830635E-4,0.011218959,-0.19,-0.59,-0.77,17041,10076.40,0,0,0,-0.28,-2.73,1.68,-0.19,-0.59,-0.77
3.7802734,-0.0026224128,-0.0027016923,0.0072189607,-0.18,-0.59,-0.77,17056,10077.40,0,0,0,-0.42,-2.94,1.40,-0.18,-0.59,-0.77
2.7802734,0.002377587,0.0022983067,-0.0037810393,-0.19,-0.6,-0.77,17079,10076.40,0,0,0,-0.07,-2.59,0.63,-0.19,-0.60,-0.77
3.4794922,0.0083775865,0.0022983067,-0.010781039,-0.19,-0.59,-0.76,17094,10077.10,0,0,0,0.35,-2.59,0.14,-0.19,-0.59,-0.76
3.4794922,0.013377586,-0.0017016903,-0.008781038,-0.19,-0.59,-0.76,17109,10077.10,0,0,0,0.70,-2.87,0.28,-0.19,-0.59,-0.76
3.7802734,0.0083775865,0.0022983067,0.0022189608,-0.2,-0.59,-0.77,17132,10077.40,0,0,0,0.35,-2.59,1.05,-0.20,-0.59,-0.77
3.7802734,-0.001622413,-0.0017016903,0.0122189615,-0.2,-0.59,-0.77,17147,10077.40,0,0,0,-0.35,-2.87,1.75,-0.20,-0.59,-0.77
3.7802734,0.005377587,-0.00870169,0.01621896,-0.2,-0.59,-0.77,17169,10077.40,0,0,0,0.14,-3.36,2.03,-0.20,-0.59,-0.77
3.7802734,0.005377587,-0.011701692,0.014218962,-0.19,-0.59,-0.77,17192,10077.40,0,0,0,0.14,-3.57,1.89,-0.19,-0.59,-0.77
3.4794922,0.009377587,-0.009701695,0.014218962,-0.19,-0.6,-0.77,17207,10077.10,0,0,0,0.42,-3.43,1.89,-0.19,-0.60,-0.77
3.7802734,0.013377586,-0.018701691,0.0022189608,-0.19,-0.6,-0.77,17229,10077.40,0,0,0,0.70,-4.06,1.05,-0.19,-0.60,-0.77
3.7802734,0.018377587,-0.021701694,-0.008781038,-0.19,-0.59,-0.77,17245,10077.40,0,0,0,1.05,-4.27,0.28,-0.19,-0.59,-0.77
2.7802734,0.0033775868,-0.016701695,-7.810397E-4,-0.19,-0.59,-0.77,17267,10076.40,0,0,0,0.00,-3.92,0.84,-0.19,-0.59,-0.77
2.7802734,-6.2241335E-4,-0.011701692,0.0032189619,-0.2,-0.59,-0.76,17281,10076.40,0,0,0,-0.28,-3.57,1.12,-0.20,-0.59,-0.76
3.0800781,-6.2241335E-4,-0.013701692,0.0122189615,-0.19,-0.59,-0.77,17303,10076.70,0,0,0,-0.28,-3.71,1.75,-0.19,-0.59,-0.77
4.879883,0.002377587,-0.011701692,0.010218961,-0.19,-0.59,-0.77,17318,10078.50,0,0,0,-0.07,-3.57,1.61,-0.19,-0.59,-0.77
2.7802734,0.0083775865,-0.0057016946,0.0052189603,-0.19,-0.59,-0.77,17342,10076.40,0,0,0,0.35,-3.15,1.26,-0.19,-0.59,-0.77
2.4794922,-0.001622413,-0.0027016923,0.0012189616,-0.19,-0.59,-0.77,17356,10076.10,0,0,0,-0.35,-2.94,0.98,-0.19,-0.59,-0.77
2.7802734,-0.008622413,-0.0027016923,0.0032189619,-0.19,-0.59,-0.77,17379,10076.40,0,0,0,-0.84,-2.94,1.12,-0.19,-0.59,-0.77
3.7802734,-0.001622413,0.011298306,0.0052189603,-0.2,-0.59,-0.77,17394,10077.40,0,0,0,-0.35,-1.96,1.26,-0.20,-0.59,-0.77
1.7802734,0.0063775866,2.9830635E-4,0.0012189616,-0.19,-0.59,-0.76,17416,10075.40,0,0,0,0.21,-2.73,0.98,-0.19,-0.59,-0.76
2.7802734,0.013377586,-0.00870169,2.1896139E-4,-0.19,-0.59,-0.76,17431,10076.40,0,0,0,0.70,-3.36,0.91,-0.19,-0.59,-0.76
4.879883,0.0083775865,-0.009701695,0.0022189608,-0.2,-0.59,-0.77,17454,10078.50,0,0,0,0.35,-3.43,1.05,-0.20,-0.59,-0.77
1.7802734,0.014377587,-0.0047016926,0.0012189616,-0.19,-0.59,-0.77,17468,10075.40,0,0,0,0.77,-3.08,0.98,-0.19,-0.59,-0.77
1.3798828,-6.2241335E-4,0.0012983046,0.0062189624,-0.19,-0.59,-0.77,17484,10075.00,0,0,0,-0.28,-2.66,1.33,-0.19,-0.59,-0.77
2.7802734,0.0013775867,0.0062983073,0.0012189616,-0.19,-0.59,-0.77,17506,10076.40,0,0,0,-0.14,-2.31,0.98,-0.19,-0.59,-0.77
1.7802734,0.0033775868,-0.006701693,-0.0047810385,-0.19,-0.59,-0.77,17521,10075.40,0,0,0,0.00,-3.22,0.56,-0.19,-0.59,-0.77
2.7802734,0.0073775873,-0.0027016923,-0.007781039,-0.19,-0.6,-0.77,17543,10076.40,0,0,0,0.28,-2.94,0.35,-0.19,-0.60,-0.77
2.7802734,0.010377587,0.0032983087,-0.0067810393,-0.2,-0.59,-0.77,17559,10076.40,0,0,0,0.49,-2.52,0.42,-0.20,-0.59,-0.77
2.7802734,0.0043775868,-0.0057016946,-0.002781039,-0.2,-0.59,-0.76,17574,10076.40,0,0,0,0.07,-3.15,0.70,-0.20,-0.59,-0.76
2.7802734,0.011377587,-0.0047016926,-7.810397E-4,-0.2,-0.59,-0.77,17589,10076.40,0,0,0,0.56,-3.08,0.84,-0.20,-0.59,-0.77
1.7802734,-6.2241335E-4,-7.0169196E-4,0.0022189608,-0.19,-0.59,-0.77,17612,10075.40,0,0,0,-0.28,-2.80,1.05,-0.19,-0.59,-0.77
3.0800781,-0.005622413,-0.0027016923,-0.002781039,-0.19,-0.59,-0.77,17626,10076.70,0,0,0,-0.63,-2.94,0.70,-0.19,-0.59,-0.77
2.7802734,0.0043775868,-0.0017016903,-0.0067810393,-0.2,-0.6,-0.76,17642,10076.40,0,0,0,0.07,-2.87,0.42,-0.20,-0.60,-0.76
3.7802734,0.018377587,-0.021701694,-0.009781039,-0.2,-0.59,-0.77,17665,10077.40,0,0,0,1.05,-4.27,0.21,-0.20,-0.59,-0.77
2.7802734,-0.006622413,-0.012701694,-0.0017810389,-0.2,-0.59,-0.77,17687,10076.40,0,0,0,-0.70,-3.64,0.77,-0.20,-0.59,-0.77
3.7802734,-0.004622414,-0.0017016903,0.0032189619,-0.2,-0.59,-0.77,17702,10077.40,0,0,0,-0.56,-2.87,1.12,-0.20,-0.59,-0.77
3.7802734,0.0013775867,0.0062983073,0.0052189603,-0.19,-0.59,-0.78,17724,10077.40,0,0,0,-0.14,-2.31,1.26,-0.19,-0.59,-0.78
2.7802734,0.0013775867,0.019298308,0.0012189616,-0.19,-0.59,-0.76,17738,10076.40,0,0,0,-0.14,-1.40,0.98,-0.19,-0.59,-0.76
4.1796875,0.005377587,-7.0169196E-4,-0.0047810385,-0.2,-0.59,-0.77,17762,10077.80,0,0,0,0.14,-2.80,0.56,-0.20,-0.59,-0.77
4.1796875,-0.0026224128,0.0012983046,-7.810397E-4,-0.2,-0.59,-0.77,17784,10077.80,0,0,0,-0.42,-2.66,0.84,-0.20,-0.59,-0.77
4.879883,-0.009622414,2.9830635E-4,2.1896139E-4,-0.2,-0.59,-0.76,17799,10078.50,0,0,0,-0.91,-2.73,0.91,-0.20,-0.59,-0.76
3.7802734,0.0013775867,-0.011701692,-0.0047810385,-0.2,-0.59,-0.77,17821,10077.40,0,0,0,-0.14,-3.57,0.56,-0.20,-0.59,-0.77
3.7802734,0.014377587,-0.013701692,-0.0057810387,-0.2,-0.59,-0.77,17836,10077.40,0,0,0,0.77,-3.71,0.49,-0.20,-0.59,-0.77
3.7802734,0.0043775868,-0.0077016912,-0.0037810393,-0.2,-0.59,-0.77,17859,10077.40,0,0,0,0.07,-3.29,0.63,-0.20,-0.59,-0.77
4.879883,0.0073775873,0.0022983067,0.0012189616,-0.2,-0.59,-0.77,17882,10078.50,0,0,0,0.28,-2.59,0.98,-0.20,-0.59,-0.77
5.479492,0.0033775868,0.0022983067,0.0072189607,-0.2,-0.59,-0.77,17897,10079.10,0,0,0,0.00,-2.59,1.40,-0.20,-0.59,-0.77
5.1796875,3.7758704E-4,0.0052983053,0.0052189603,-0.19,-0.59,-0.77,17912,10078.80,0,0,0,-0.21,-2.38,1.26,-0.19,-0.59,-0.77
5.1796875,0.005377587,0.0012983046,0.0032189619,-0.19,-0.59,-0.77,17934,10078.80,0,0,0,0.14,-2.66,1.12,-0.19,-0.59,-0.77
4.879883,0.013377586,0.008298306,0.0032189619,-0.19,-0.59,-0.77,17950,10078.50,0,0,0,0.70,-2.17,1.12,-0.19,-0.59,-0.77
4.879883,0.026377587,0.0052983053,0.0022189608,-0.19,-0.59,-0.77,17971,10078.50,0,0,0,1.61,-2.38,1.05,-0.19,-0.59,-0.77
6.1796875,0.021377586,0.0072983056,0.004218962,-0.19,-0.59,-0.77,17986,10079.80,0,0,0,1.26,-2.24,1.19,-0.19,-0.59,-0.77
6.1796875,0.020377588,0.011298306,-0.008781038,-0.18,-0.6,-0.77,18001,10079.80,0,0,0,1.19,-1.96,0.28,-0.18,-0.60,-0.77
6.1796875,0.017377587,2.9830635E-4,-0.021781038,-0.19,-0.6,-0.76,18024,10079.80,0,0,0,0.98,-2.73,-0.63,-0.19,-0.60,-0.76
8.280273,0.026377587,0.0012983046,-0.02078104,-0.19,-0.59,-0.77,18038,10081.90,0,0,0,1.61,-2.66,-0.56,-0.19,-0.59,-0.77
6.1796875,0.029377587,2.9830635E-4,-0.019781038,-0.2,-0.59,-0.77,18053,10079.80,0,0,0,1.82,-2.73,-0.49,-0.20,-0.59,-0.77
7.1796875,0.019377587,-7.0169196E-4,-0.013781039,-0.19,-0.59,-0.77,18076,10080.80,0,0,0,1.12,-2.80,-0.07,-0.19,-0.59,-0.77
8.879883,0.019377587,0.0062983073,-0.010781039,-0.19,-0.6,-0.77,18091,10082.50,0,0,0,1.12,-2.31,0.14,-0.19,-0.60,-0.77
9.280273,0.026377587,0.008298306,-0.010781039,-0.19,-0.6,-0.77,18114,10082.90,0,0,0,1.61,-2.17,0.14,-0.19,-0.60,-0.77
9.979492,0.027377585,0.011298306,-0.010781039,-0.19,-0.59,-0.77,18129,10083.60,0,0,0,1.68,-1.96,0.14,-0.19,-0.59,-0.77
7.580078,0.022377588,0.010298308,-0.013781039,-0.19,-0.6,-0.77,18151,10081.20,0,0,0,1.33,-2.03,-0.07,-0.19,-0.60,-0.77
9.280273,0.017377587,0.004298307,-0.010781039,-0.19,-0.6,-0.77,18166,10082.90,0,0,0,0.98,-2.45,0.14,-0.19,-0.60,-0.77
10.280273,0.021377586,0.0032983087,-0.012781039,-0.19,-0.6,-0.77,18189,10083.90,0,0,0,1.26,-2.52,0.00,-0.19,-0.60,-0.77
10.280273,0.016377587,0.004298307,-0.0067810393,-0.19,-0.59,-0.77,18204,10083.90,0,0,0,0.91,-2.45,0.42,-0.19,-0.59,-0.77
11.379883,0.0063775866,-0.006701693,-7.810397E-4,-0.19,-0.59,-0.76,18227,10085.00,0,0,0,0.21,-3.22,0.84,-0.19,-0.59,-0.76
10.979492,0.0083775865,-0.014701694,0.0022189608,-0.19,-0.6,-0.77,18242,10084.60,0,0,0,0.35,-3.78,1.05,-0.19,-0.60,-0.77
12.379883,0.0063775866,-0.00870169,-0.002781039,-0.19,-0.59,-0.77,18264,10086.00,0,0,0,0.21,-3.36,0.70,-0.19,-0.59,-0.77
12.379883,0.019377587,2.9830635E-4,-0.007781039,-0.19,-0.6,-0.77,18279,10086.00,0,0,0,1.12,-2.73,0.35,-0.19,-0.60,-0.77
12.379883,0.012377586,-7.0169196E-4,-0.008781038,-0.19,-0.59,-0.77,18301,10086.00,0,0,0,0.63,-2.80,0.28,-0.19,-0.59,-0.77
12.379883,0.010377587,0.0062983073,-0.007781039,-0.19,-0.59,-0.77,18316,10086.00,0,0,0,0.49,-2.31,0.35,-0.19,-0.59,-0.77
12.379883,0.002377587,0.0052983053,0.0012189616,-0.19,-0.59,-0.76,18338,10086.00,0,0,0,-0.07,-2.38,0.98,-0.19,-0.59,-0.76
12.379883,0.0043775868,-7.0169196E-4,2.1896139E-4,-0.19,-0.6,-0.76,18354,10086.00,0,0,0,0.07,-2.80,0.91,-0.19,-0.60,-0.76
12.379883,0.010377587,-0.0057016946,-0.0047810385,-0.19,-0.6,-0.77,18377,10086.00,0,0,0,0.49,-3.15,0.56,-0.19,-0.60,-0.77
11.379883,0.011377587,0.0022983067,-0.0047810385,-0.19,-0.6,-0.77,18391,10085.00,0,0,0,0.56,-2.59,0.56,-0.19,-0.60,-0.77
11.6796875,0.0083775865,-0.0017016903,-0.009781039,-0.19,-0.6,-0.77,18414,10085.30,0,0,0,0.35,-2.87,0.21,-0.19,-0.60,-0.77
11.379883,0.015377586,-0.0017016903,-0.008781038,-0.19,-0.6,-0.77,18430,10085.00,0,0,0,0.84,-2.87,0.28,-0.19,-0.60,-0.77
11.979492,0.0043775868,0.012298306,-0.0017810389,-0.2,-0.59,-0.77,18451,10085.60,0,0,0,0.07,-1.89,0.77,-0.20,-0.59,-0.77
10.280273,-0.004622414,0.0052983053,0.0032189619,-0.19,-0.59,-0.76,18466,10083.90,0,0,0,-0.56,-2.38,1.12,-0.19,-0.59,-0.76
11.6796875,-0.001622413,0.0062983073,0.0032189619,-0.19,-0.6,-0.76,18481,10085.30,0,0,0,-0.35,-2.31,1.12,-0.19,-0.60,-0.76
10.280273,-0.006622413,0.0012983046,0.004218962,-0.19,-0.6,-0.77,18504,10083.90,0,0,0,-0.70,-2.66,1.19,-0.19,-0.60,-0.77
9.280273,-0.004622414,0.010298308,0.004218962,-0.19,-0.6,-0.77,18519,10082.90,0,0,0,-0.56,-2.03,1.19,-0.19,-0.60,-0.77
10.280273,-0.001622413,0.0052983053,0.008218961,-0.19,-0.6,-0.77,18542,10083.90,0,0,0,-0.35,-2.38,1.47,-0.19,-0.60,-0.77
9.280273,-0.005622413,0.009298308,0.01621896,-0.19,-0.6,-0.78,18557,10082.90,0,0,0,-0.63,-2.10,2.03,-0.19,-0.60,-0.78
8.580078,-0.0026224128,-0.0017016903,0.011218959,-0.19,-0.6,-0.76,18579,10082.20,0,0,0,-0.42,-2.87,1.68,-0.19,-0.60,-0.76
8.580078,-6.2241335E-4,-0.010701694,0.014218962,-0.19,-0.6,-0.76,18594,10082.20,0,0,0,-0.28,-3.50,1.89,-0.19,-0.60,-0.76
9.580078,-0.018622413,-0.009701695,0.021218963,-0.2,-0.6,-0.77,18617,10083.20,0,0,0,-1.54,-3.43,2.38,-0.20,-0.60,-0.77
8.580078,-0.023622414,-0.0057016946,0.026218962,-0.19,-0.6,-0.77,18632,10082.20,0,0,0,-1.89,-3.15,2.73,-0.19,-0.60,-0.77
6.580078,-0.020622412,-0.0027016923,0.02921896,-0.2,-0.6,-0.77,18654,10080.20,0,0,0,-1.68,-2.94,2.94,-0.20,-0.60,-0.77
7.879883,-0.0036224134,-0.0027016923,0.03421896,-0.2,-0.61,-0.77,18669,10081.50,0,0,0,-0.49,-2.94,3.29,-0.20,-0.61,-0.77
6.580078,0.0043775868,-0.019701693,0.03821896,-0.2,-0.61,-0.77,18692,10080.20,0,0,0,0.07,-4.13,3.57,-0.20,-0.61,-0.77
6.580078,0.0063775866,-0.041701693,0.04521896,-0.2,-0.6,-0.78,18707,10080.20,0,0,0,0.21,-5.67,4.06,-0.20,-0.60,-0.78
7.580078,-0.006622413,-0.041701693,0.058218956,-0.2,-0.61,-0.77,18729,10081.20,0,0,0,-0.70,-5.67,4.97,-0.20,-0.61,-0.77
5.479492,-0.012622414,-0.04070169,0.06721896,-0.2,-0.61,-0.77,18745,10079.10,0,0,0,-1.12,-5.60,5.60,-0.20,-0.61,-0.77
3.4794922,-0.010622414,-0.04470169,0.07021896,-0.2,-0.61,-0.78,18766,10077.10,0,0,0,-0.98,-5.88,5.81,-0.20,-0.61,-0.78
3.4794922,-0.029622413,-0.04470169,0.07221896,-0.2,-0.6,-0.78,18781,10077.10,0,0,0,-2.31,-5.88,5.95,-0.20,-0.60,-0.78
2.3798828,-0.034622416,-0.049701694,0.074218966,-0.2,-0.6,-0.78,18796,10076.00,0,0,0,-2.66,-6.23,6.09,-0.20,-0.60,-0.78
3.0800781,-0.031622414,-0.045701694,0.074218966,-0.2,-0.6,-0.78,18820,10076.70,0,0,0,-2.45,-5.95,6.09,-0.20,-0.60,-0.78
1.3798828,-0.03262241,-0.031701688,0.077218965,-0.2,-0.6,-0.76,18842,10075.00,0,0,0,-2.52,-4.97,6.30,-0.20,-0.60,-0.76
1.0800781,-0.052622415,-0.06370169,0.06421896,-0.21,-0.59,-0.76,18857,10074.70,0,0,0,-3.92,-7.21,5.39,-0.21,-0.59,-0.76
0.3798828,-0.06162242,-0.046701696,0.06521896,-0.21,-0.59,-0.76,18879,10074.00,0,0,0,-4.55,-6.02,5.46,-0.21,-0.59,-0.76
1.3798828,-0.040622413,-0.048701692,0.07021896,-0.23,-0.59,-0.76,18902,10075.00,0,0,0,-3.08,-6.16,5.81,-0.23,-0.59,-0.76
1.7802734,-0.024622414,-0.05170169,0.07921896,-0.24,-0.59,-0.75,18917,10075.40,0,0,0,-1.96,-6.37,6.44,-0.24,-0.59,-0.75
-0.6201172,-0.011622413,-0.07970169,0.10621896,-0.26,-0.6,-0.78,18938,10073.00,0,0,0,-1.05,-8.33,8.33,-0.26,-0.60,-0.78
-1.3203125,-0.004622414,-0.083701685,0.12821896,-0.26,-0.62,-0.79,18954,10072.30,0,0,0,-0.56,-8.61,9.87,-0.26,-0.62,-0.79
-3.4199219,0.0043775868,-0.09970169,0.14621896,-0.26,-0.62,-0.81,18977,10070.20,0,0,0,0.07,-9.73,11.13,-0.26,-0.62,-0.81
-2.4199219,-0.03262241,-0.098701686,0.16121897,-0.26,-0.65,-0.82,18992,10071.20,0,0,0,-2.52,-9.66,12.18,-0.26,-0.65,-0.82
-2.4199219,-0.06562241,-0.09570168,0.16121897,-0.27,-0.69,-0.83,19014,10071.20,0,0,0,-4.83,-9.45,12.18,-0.27,-0.69,-0.83
-4.7197266,-0.08362242,-0.105701685,0.15821896,-0.28,-0.7,-0.84,19036,10068.90,0,0,0,-6.09,-10.15,11.97,-0.28,-0.70,-0.84
-3.4199219,-0.08862241,-0.110701695,0.12721896,-0.28,-0.69,-0.83,19051,10070.20,0,0,0,-6.44,-10.50,9.80,-0.28,-0.69,-0.83
-4.419922,-0.12462242,-0.10170169,0.10721896,-0.27,-0.66,-0.84,19066,10069.20,0,0,0,-8.96,-9.87,8.40,-0.27,-0.66,-0.84
-5.419922,-0.1406224,-0.09270169,0.083218955,-0.24,-0.62,-0.83,19083,10068.20,0,0,0,-10.08,-9.24,6.72,-0.24,-0.62,-0.83
-5.8203125,-0.17162241,-0.0047016926,0.050218962,-0.2,-0.61,-0.83,19111,10067.80,0,0,0,-12.25,-3.08,4.41,-0.20,-0.61,-0.83
-5.419922,-0.20562242,0.025298307,0.0032189619,-0.2,-0.62,-0.85,19127,10068.20,0,0,0,-14.63,-0.98,1.12,-0.20,-0.62,-0.85
-6.520508,-0.22762242,0.069298305,-0.041781038,-0.23,-0.58,-0.81,19141,10067.10,0,0,0,-16.17,2.10,-2.03,-0.23,-0.58,-0.81
-6.8203125,-0.26362243,0.062298305,-0.077781044,-0.25,-0.54,-0.82,19164,10066.80,0,0,0,-18.69,1.61,-4.55,-0.25,-0.54,-0.82
-6.8203125,-0.2916224,0.027298309,-0.03578104,-0.26,-0.53,-0.79,19180,10066.80,0,0,0,-20.65,-0.84,-1.61,-0.26,-0.53,-0.79
-7.520508,-0.2546224,2.9830635E-4,-0.021781038,-0.26,-0.58,-0.75,19201,10066.10,0,0,0,-18.06,-2.73,-0.63,-0.26,-0.58,-0.75
-7.520508,-0.16862242,-0.015701693,-0.021781038,-0.24,-0.61,-0.8,19216,10066.10,0,0,0,-12.04,-3.85,-0.63,-0.24,-0.61,-0.80
-7.520508,-0.11762242,0.031298306,-0.03278104,-0.22,-0.62,-0.84,19231,10066.10,0,0,0,-8.47,-0.56,-1.40,-0.22,-0.62,-0.84
-8.520508,-0.10562242,0.11229831,-0.10378104,-0.19,-0.61,-0.87,19254,10065.10,0,0,0,-7.63,5.11,-6.37,-0.19,-0.61,-0.87
-8.919922,-0.13362242,0.21529831,-0.23378104,-0.17,-0.61,-0.83,19276,10064.70,0,0,0,-9.59,12.32,-15.47,-0.17,-0.61,-0.83
-11.620117,-0.13662241,0.2432983,-0.33078104,-0.15,-0.58,-0.82,19292,10062.00,0,0,0,-9.80,14.28,-22.26,-0.15,-0.58,-0.82
-7.8203125,-0.12462242,0.3222983,-0.41178107,-0.16,-0.52,-0.85,19314,10065.80,0,0,0,-8.96,19.81,-27.93,-0.16,-0.52,-0.85
-8.520508,-0.14262241,0.3732983,-0.41078103,-0.22,-0.51,-0.81,19336,10065.10,0,0,0,-10.22,23.38,-27.86,-0.22,-0.51,-0.81
-8.520508,-0.15262242,0.3122983,-0.37978107,-0.26,-0.5,-0.75,19351,10065.10,0,0,0,-10.92,19.11,-25.69,-0.26,-0.50,-0.75
-8.520508,-0.1756224,0.17829831,-0.28378105,-0.27,-0.49,-0.74,19373,10065.10,0,0,0,-12.53,9.73,-18.97,-0.27,-0.49,-0.74
-9.520508,-0.18162242,0.1162983,-0.19978105,-0.24,-0.49,-0.8,19389,10064.10,0,0,0,-12.95,5.39,-13.09,-0.24,-0.49,-0.80
-9.919922,-0.21562241,0.0862983,-0.10978104,-0.2,-0.52,-0.81,19411,10063.70,0,0,0,-15.33,3.29,-6.79,-0.20,-0.52,-0.81
-5.419922,-0.21262242,0.09629831,-0.05878104,-0.18,-0.55,-0.78,19426,10068.20,0,0,0,-15.12,3.99,-3.22,-0.18,-0.55,-0.78
-8.520508,-0.16462241,0.08129831,-0.048781037,-0.17,-0.56,-0.77,19441,10065.10,0,0,0,-11.76,2.94,-2.52,-0.17,-0.56,-0.77
-9.520508,-0.12862241,0.03629831,-0.02678104,-0.17,-0.53,-0.82,19464,10064.10,0,0,0,-9.24,-0.21,-0.98,-0.17,-0.53,-0.82
-9.919922,-0.114622414,0.019298308,-0.0057810387,-0.19,-0.53,-0.82,19479,10063.70,0,0,0,-8.26,-1.40,0.49,-0.19,-0.53,-0.82
-10.919922,-0.11062241,-0.023701694,0.036218964,-0.2,-0.51,-0.81,19502,10062.70,0,0,0,-7.98,-4.41,3.43,-0.20,-0.51,-0.81
-8.919922,-0.09162241,-0.035701696,0.07521896,-0.21,-0.5,-0.76,19516,10064.70,0,0,0,-6.65,-5.25,6.16,-0.21,-0.50,-0.76
-8.919922,0.002377587,-0.12770168,0.10421895,-0.2,-0.48,-0.78,19538,10064.70,0,0,0,-0.07,-11.69,8.19,-0.20,-0.48,-0.78
-9.520508,0.0033775868,-0.1347017,0.13421896,-0.17,-0.42,-0.88,19553,10064.10,0,0,0,0.00,-12.18,10.29,-0.17,-0.42,-0.88
-7.8203125,-0.09562241,-0.10170169,0.13021897,-0.16,-0.49,-0.85,19576,10065.80,0,0,0,-6.93,-9.87,10.01,-0.16,-0.49,-0.85
-6.8203125,-0.10962241,-0.088701695,0.09721896,-0.16,-0.51,-0.82,19591,10066.80,0,0,0,-7.91,-8.96,7.70,-0.16,-0.51,-0.82
-7.8203125,-0.04462241,-0.09970169,0.054218963,-0.16,-0.47,-0.81,19615,10065.80,0,0,0,-3.36,-9.73,4.69,-0.16,-0.47,-0.81
-7.8203125,-0.03262241,-0.0847017,0.050218962,-0.15,-0.42,-0.89,19629,10065.80,0,0,0,-2.52,-8.68,4.41,-0.15,-0.42,-0.89
-6.8203125,-0.15162241,2.9830635E-4,0.06521896,-0.16,-0.43,-0.89,19651,10066.80,0,0,0,-10.85,-2.73,5.46,-0.16,-0.43,-0.89
-8.219727,-0.22462241,0.023298306,0.04521896,-0.18,-0.47,-0.84,19666,10065.40,0,0,0,-15.96,-1.12,4.06,-0.18,-0.47,-0.84
-7.120117,-0.24062242,-0.0047016926,0.0022189608,-0.18,-0.48,-0.81,19689,10066.50,0,0,0,-17.08,-3.08,1.05,-0.18,-0.48,-0.81
-6.8203125,-0.20162241,-0.011701692,-0.008781038,-0.19,-0.48,-0.77,19711,10066.80,0,0,0,-14.35,-3.57,0.28,-0.19,-0.48,-0.77
-4.7197266,-0.118622415,-0.07870169,-0.019781038,-0.21,-0.45,-0.8,19734,10068.90,0,0,0,-8.54,-8.26,-0.49,-0.21,-0.45,-0.80
-7.120117,-0.09162241,-0.083701685,0.0012189616,-0.21,-0.45,-0.81,19749,10066.50,0,0,0,-6.65,-8.61,0.98,-0.21,-0.45,-0.81
-4.7197266,-0.058622416,-0.049701694,0.024218962,-0.21,-0.46,-0.82,19771,10068.90,0,0,0,-4.34,-6.23,2.59,-0.21,-0.46,-0.82
-6.8203125,-0.022622414,-0.035701696,0.036218964,-0.22,-0.48,-0.79,19787,10066.80,0,0,0,-1.82,-5.25,3.43,-0.22,-0.48,-0.79
-4.7197266,0.018377587,-0.026701692,0.06421896,-0.24,-0.45,-0.81,19801,10068.90,0,0,0,1.05,-4.62,5.39,-0.24,-0.45,-0.81
-5.120117,0.04137759,-0.027701695,0.11121897,-0.27,-0.46,-0.82,19824,10068.50,0,0,0,2.66,-4.69,8.68,-0.27,-0.46,-0.82
-5.120117,0.056377586,-0.031701688,0.16921896,-0.28,-0.46,-0.81,19839,10068.50,0,0,0,3.71,-4.97,12.74,-0.28,-0.46,-0.81
-5.120117,0.06537759,-0.07070169,0.24821897,-0.26,-0.45,-0.84,19862,10068.50,0,0,0,4.34,-7.70,18.27,-0.26,-0.45,-0.84
-3.0205078,0.06737759,-0.058701698,0.287219,-0.24,-0.48,-0.8,19876,10070.60,0,0,0,4.48,-6.86,21.00,-0.24,-0.48,-0.80
-4.120117,0.08437759,-0.047701698,0.29821897,-0.22,-0.48,-0.82,19899,10069.50,0,0,0,5.67,-6.09,21.77,-0.22,-0.48,-0.82
-4.120117,0.10737759,-0.027701695,0.31621897,-0.23,-0.49,-0.8,19914,10069.50,0,0,0,7.28,-4.69,23.03,-0.23,-0.49,-0.80
-3.0205078,0.1463776,-0.076701686,0.29021895,-0.23,-0.49,-0.82,19937,10070.60,0,0,0,10.01,-8.12,21.21,-0.23,-0.49,-0.82
-2.0205078,0.17337759,-0.05170169,0.29221898,-0.23,-0.5,-0.8,19952,10071.60,0,0,0,11.90,-6.37,21.35,-0.23,-0.50,-0.80
-3.4199219,0.16737758,-0.060701694,0.23421897,-0.24,-0.51,-0.81,19973,10070.20,0,0,0,11.48,-7.00,17.29,-0.24,-0.51,-0.81
-3.0205078,0.19437759,-0.035701696,0.19121896,-0.25,-0.5,-0.79,19989,10070.60,0,0,0,13.37,-5.25,14.28,-0.25,-0.50,-0.79
-3.0205078,0.2443776,-0.07270169,0.16421896,-0.25,-0.49,-0.79,20011,10070.60,0,0,0,16.87,-7.84,12.39,-0.25,-0.49,-0.79
-5.120117,0.31737757,-0.019701693,0.15821896,-0.23,-0.48,-0.8,20027,10068.50,0,0,0,21.98,-4.13,11.97,-0.23,-0.48,-0.80
-2.0205078,0.3143776,0.030298308,0.15321895,-0.23,-0.47,-0.83,20041,10071.60,0,0,0,21.77,-0.63,11.62,-0.23,-0.47,-0.83
-2.0205078,0.3033776,0.09129831,0.14721896,-0.23,-0.47,-0.79,20064,10071.60,0,0,0,21.00,3.64,11.20,-0.23,-0.47,-0.79
-2.0205078,0.29837757,0.1092983,0.16921896,-0.24,-0.48,-0.77,20079,10071.60,0,0,0,20.65,4.90,12.74,-0.24,-0.48,-0.77
-0.3203125,0.3453776,0.045298308,0.17121896,-0.25,-0.51,-0.78,20101,10073.30,0,0,0,23.94,0.42,12.88,-0.25,-0.51,-0.78
-1.0205078,0.36237758,0.08329831,0.20821896,-0.26,-0.47,-0.84,20116,10072.60,0,0,0,25.13,3.08,15.47,-0.26,-0.47,-0.84
-1.0205078,0.3133776,0.17229831,0.273219,-0.27,-0.47,-0.87,20131,10072.60,0,0,0,21.70,9.31,20.02,-0.27,-0.47,-0.87
-1.3203125,0.2773776,0.22929831,0.328219,-0.27,-0.48,-0.82,20146,10072.30,0,0,0,19.18,13.30,23.87,-0.27,-0.48,-0.82
-1.0205078,0.2633776,0.21029831,0.36921895,-0.24,-0.54,-0.76,20169,10072.60,0,0,0,18.20,11.97,26.74,-0.24,-0.54,-0.76
-0.6201172,0.3033776,0.20929831,0.35821897,-0.22,-0.56,-0.77,20192,10073.00,0,0,0,21.00,11.90,25.97,-0.22,-0.56,-0.77
0.78027344,0.3503776,0.20429832,0.32521898,-0.2,-0.53,-0.83,20214,10074.40,0,0,0,24.29,11.55,23.66,-0.20,-0.53,-0.83
-1.3203125,0.3383776,0.23029831,0.33221895,-0.2,-0.52,-0.83,20230,10072.30,0,0,0,23.45,13.37,24.15,-0.20,-0.52,-0.83
-0.3203125,0.3103776,0.2812983,0.342219,-0.2,-0.53,-0.77,20254,10073.30,0,0,0,21.49,16.94,24.85,-0.20,-0.53,-0.77
-0.3203125,0.30537757,0.29729828,0.34621894,-0.21,-0.56,-0.71,20269,10073.30,0,0,0,21.14,18.06,25.13,-0.21,-0.56,-0.71
0.78027344,0.3343776,0.20229831,0.30821896,-0.19,-0.58,-0.74,20285,10074.40,0,0,0,23.17,11.41,22.47,-0.19,-0.58,-0.74
0.78027344,0.34937757,0.17029831,0.26321894,-0.18,-0.56,-0.83,20303,10074.40,0,0,0,24.22,9.17,19.32,-0.18,-0.56,-0.83
0.78027344,0.31837758,0.18029831,0.22421896,-0.16,-0.55,-0.84,20318,10074.40,0,0,0,22.05,9.87,16.59,-0.16,-0.55,-0.84
1.7802734,0.23637758,0.2052983,0.18921897,-0.16,-0.54,-0.81,20341,10075.40,0,0,0,16.31,11.62,14.14,-0.16,-0.54,-0.81
1.7802734,0.20137759,0.24629831,0.18521896,-0.17,-0.55,-0.76,20357,10075.40,0,0,0,13.86,14.49,13.86,-0.17,-0.55,-0.76
1.7802734,0.2523776,0.22929831,0.18021896,-0.21,-0.57,-0.74,20378,10075.40,0,0,0,17.43,13.30,13.51,-0.21,-0.57,-0.74
2.7802734,0.3363776,0.21329832,0.19421896,-0.21,-0.54,-0.77,20393,10076.40,0,0,0,23.31,12.18,14.49,-0.21,-0.54,-0.77
0.3798828,0.33937758,0.2202983,0.22521895,-0.22,-0.51,-0.8,20416,10074.00,0,0,0,23.52,12.67,16.66,-0.22,-0.51,-0.80
3.7802734,0.32337758,0.2272983,0.25221896,-0.21,-0.51,-0.8,20431,10077.40,0,0,0,22.40,13.16,18.55,-0.21,-0.51,-0.80
3.7802734,0.2443776,0.2202983,0.26321894,-0.2,-0.53,-0.79,20454,10077.40,0,0,0,16.87,12.67,19.32,-0.20,-0.53,-0.79
3.7802734,0.17937759,0.24129832,0.26521897,-0.2,-0.56,-0.79,20469,10077.40,0,0,0,12.32,14.14,19.46,-0.20,-0.56,-0.79
4.879883,0.17437759,0.2312983,0.23621896,-0.2,-0.58,-0.76,20491,10078.50,0,0,0,11.97,13.44,17.43,-0.20,-0.58,-0.76
4.879883,0.16737758,0.19429831,0.20821896,-0.2,-0.58,-0.75,20506,10078.50,0,0,0,11.48,10.85,15.47,-0.20,-0.58,-0.75
5.879883,0.11537759,0.20129831,0.20421895,-0.21,-0.58,-0.78,20521,10079.50,0,0,0,7.84,11.34,15.19,-0.21,-0.58,-0.78
6.879883,0.098377585,0.2212983,0.17721896,-0.23,-0.59,-0.77,20543,10080.50,0,0,0,6.65,12.74,13.30,-0.23,-0.59,-0.77
4.479492,0.10037759,0.20929831,0.17121896,-0.23,-0.6,-0.74,20559,10078.10,0,0,0,6.79,11.90,12.88,-0.23,-0.60,-0.74
5.879883,0.10437759,0.17129831,0.14521897,-0.23,-0.58,-0.77,20573,10079.50,0,0,0,7.07,9.24,11.06,-0.23,-0.58,-0.77
6.879883,0.038377587,0.17929831,0.13421896,-0.22,-0.58,-0.82,20588,10080.50,0,0,0,2.45,9.80,10.29,-0.22,-0.58,-0.82
7.879883,-0.07962241,0.22329831,0.099218965,-0.23,-0.59,-0.83,20611,10081.50,0,0,0,-5.81,12.88,7.84,-0.23,-0.59,-0.83
7.879883,-0.14562242,0.22329831,0.08221896,-0.23,-0.59,-0.82,20633,10081.50,0,0,0,-10.43,12.88,6.65,-0.23,-0.59,-0.82
7.879883,-0.2346224,0.24629831,0.06721896,-0.22,-0.57,-0.83,20648,10081.50,0,0,0,-16.66,14.49,5.60,-0.22,-0.57,-0.83
8.979492,-0.2866224,0.29029828,0.054218963,-0.2,-0.55,-0.86,20671,10082.60,0,0,0,-20.30,17.57,4.69,-0.20,-0.55,-0.86
8.979492,-0.39662242,0.34129828,0.051218964,-0.21,-0.55,-0.85,20694,10082.60,0,0,0,-28.00,21.14,4.48,-0.21,-0.55,-0.85
11.979492,-0.43862242,0.3562983,0.062218964,-0.2,-0.54,-0.86,20716,10085.60,0,0,0,-30.94,22.19,5.25,-0.20,-0.54,-0.86
10.979492,-0.46462238,0.3682983,0.073218964,-0.2,-0.52,-0.84,20731,10084.60,0,0,0,-32.76,23.03,6.02,-0.20,-0.52,-0.84
12.6796875,-0.4946224,0.36729828,0.094218954,-0.18,-0.5,-0.85,20746,10086.30,0,0,0,-34.86,22.96,7.49,-0.18,-0.50,-0.85
14.080078,-0.5336224,0.3182983,0.114218965,-0.17,-0.49,-0.84,20762,10087.70,0,0,0,-37.59,19.53,8.89,-0.17,-0.49,-0.84
14.080078,-0.5406224,0.3082983,0.15021896,-0.15,-0.54,-0.8,20784,10087.70,0,0,0,-38.08,18.83,11.41,-0.15,-0.54,-0.80
14.080078,-0.49362242,0.2942983,0.15921897,-0.15,-0.55,-0.8,20799,10087.70,0,0,0,-34.79,17.85,12.04,-0.15,-0.55,-0.80
15.080078,-0.44062242,0.24629831,0.18321897,-0.18,-0.52,-0.81,20821,10088.70,0,0,0,-31.08,14.49,13.72,-0.18,-0.52,-0.81
15.080078,-0.4016224,0.1832983,0.21221896,-0.2,-0.48,-0.83,20836,10088.70,0,0,0,-28.35,10.08,15.75,-0.20,-0.48,-0.83
15.080078,-0.41762242,0.12029831,0.27121896,-0.21,-0.42,-0.88,20859,10088.70,0,0,0,-29.47,5.67,19.88,-0.21,-0.42,-0.88
15.080078,-0.4486224,0.1442983,0.35821897,-0.22,-0.42,-0.88,20873,10088.70,0,0,0,-31.64,7.35,25.97,-0.22,-0.42,-0.88
16.179688,-0.45662242,0.18729831,0.47421896,-0.24,-0.42,-0.85,20896,10089.80,0,0,0,-32.20,10.36,34.09,-0.24,-0.42,-0.85
16.179688,-0.45862243,0.21129832,0.59221894,-0.26,-0.41,-0.84,20911,10089.80,0,0,0,-32.34,12.04,42.35,-0.26,-0.41,-0.84
16.479492,-0.4486224,0.2402983,0.734219,-0.28,-0.36,-0.9,20934,10090.10,0,0,0,-31.64,14.07,52.29,-0.28,-0.36,-0.90
16.479492,-0.4296224,0.2912983,0.853219,-0.28,-0.37,-0.89,20950,10090.10,0,0,0,-30.31,17.64,60.62,-0.28,-0.37,-0.89
15.080078,-0.38862243,0.3392983,0.995219,-0.27,-0.35,-0.9,20971,10088.70,0,0,0,-27.44,21.00,70.56,-0.27,-0.35,-0.90
16.479492,-0.36362243,0.43429828,1.1112189,-0.28,-0.35,-0.87,20986,10090.10,0,0,0,-25.69,27.65,78.68,-0.28,-0.35,-0.87
15.479492,-0.2886224,0.4392983,1.212219,-0.26,-0.35,-0.85,21009,10089.10,0,0,0,-20.44,28.00,85.75,-0.26,-0.35,-0.85
16.479492,-0.28262243,0.4022983,1.235219,-0.22,-0.36,-0.87,21024,10090.10,0,0,0,-20.02,25.41,87.36,-0.22,-0.36,-0.87
15.479492,-0.27562243,0.3772983,1.1992189,-0.17,-0.4,-0.86,21039,10089.10,0,0,0,-19.53,23.66,84.84,-0.17,-0.40,-0.86
15.479492,-0.22762242,0.34229827,1.107219,-0.12,-0.41,-0.86,21054,10089.10,0,0,0,-16.17,21.21,78.40,-0.12,-0.41,-0.86
15.479492,-0.20562242,0.3752983,1.036219,-0.1,-0.41,-0.87,21068,10089.10,0,0,0,-14.63,23.52,73.43,-0.10,-0.41,-0.87
14.080078,-0.08662242,0.3822983,0.959219,-0.12,-0.39,-0.82,21091,10087.70,0,0,0,-6.30,24.01,68.04,-0.12,-0.39,-0.82
14.379883,-0.08062241,0.34129828,0.896219,-0.14,-0.38,-0.85,21113,10088.00,0,0,0,-5.88,21.14,63.63,-0.14,-0.38,-0.85
14.080078,-0.025622413,0.24829832,0.824219,-0.12,-0.37,-0.86,21128,10087.70,0,0,0,-2.03,14.63,58.59,-0.12,-0.37,-0.86
14.379883,0.0063775866,0.1982983,0.75421894,-0.09,-0.37,-0.9,21151,10088.00,0,0,0,0.21,11.13,53.69,-0.09,-0.37,-0.90
13.379883,0.033377588,0.20429832,0.64221895,-0.05,-0.38,-0.89,21174,10087.00,0,0,0,2.10,11.55,45.85,-0.05,-0.38,-0.89
13.080078,0.055377588,0.21029831,0.546219,-0.05,-0.39,-0.86,21189,10086.70,0,0,0,3.64,11.97,39.13,-0.05,-0.39,-0.86
13.6796875,0.08437759,0.13329831,0.398219,-0.05,-0.38,-0.86,21213,10087.30,0,0,0,5.67,6.58,28.77,-0.05,-0.38,-0.86
12.379883,0.13037759,0.0722983,0.31421894,-0.06,-0.37,-0.88,21226,10086.00,0,0,0,8.89,2.31,22.89,-0.06,-0.37,-0.88
12.379883,0.15637758,0.046298306,0.24521895,-0.06,-0.36,-0.91,21241,10086.00,0,0,0,10.71,0.49,18.06,-0.06,-0.36,-0.91
11.379883,0.16537759,0.024298307,0.16421896,-0.07,-0.37,-0.89,21264,10085.00,0,0,0,11.34,-1.05,12.39,-0.07,-0.37,-0.89
11.379883,0.17137758,-0.035701696,0.08921896,-0.07,-0.38,-0.91,21279,10085.00,0,0,0,11.76,-5.25,7.14,-0.07,-0.38,-0.91
11.379883,0.14237759,-0.0697017,-0.012781039,-0.06,-0.39,-0.95,21301,10085.00,0,0,0,9.73,-7.63,0.00,-0.06,-0.39,-0.95
11.6796875,0.076377586,-0.076701686,-0.11578104,-0.05,-0.41,-0.96,21316,10085.30,0,0,0,5.11,-8.12,-7.21,-0.05,-0.41,-0.96
10.6796875,0.011377587,-0.09270169,-0.23578103,-0.05,-0.41,-0.94,21338,10084.30,0,0,0,0.56,-9.24,-15.61,-0.05,-0.41,-0.94
8.280273,-0.025622413,-0.09970169,-0.32478106,-0.07,-0.42,-0.92,21353,10081.90,0,0,0,-2.03,-9.73,-21.84,-0.07,-0.42,-0.92
9.580078,-0.057622414,-0.09970169,-0.41478103,-0.1,-0.43,-0.86,21376,10083.20,0,0,0,-4.27,-9.73,-28.14,-0.10,-0.43,-0.86
8.580078,-0.070622414,-0.1697017,-0.503781,-0.11,-0.42,-0.85,21391,10082.20,0,0,0,-5.18,-14.63,-34.37,-0.11,-0.42,-0.85
7.580078,-0.059622414,-0.24770169,-0.614781,-0.12,-0.42,-0.86,21414,10081.20,0,0,0,-4.41,-20.09,-42.14,-0.12,-0.42,-0.86
6.580078,-0.047622412,-0.2847017,-0.697781,-0.11,-0.41,-0.87,21429,10080.20,0,0,0,-3.57,-22.68,-47.95,-0.11,-0.41,-0.87
6.879883,-0.03762241,-0.3367017,-0.80778104,-0.11,-0.43,-0.87,21451,10080.50,0,0,0,-2.87,-26.32,-55.65,-0.11,-0.43,-0.87
4.479492,-0.027622415,-0.34570172,-0.888781,-0.11,-0.43,-0.88,21466,10078.10,0,0,0,-2.17,-26.95,-61.32,-0.11,-0.43,-0.88
3.4794922,0.0013775867,-0.37170172,-0.997781,-0.14,-0.44,-0.86,21489,10077.10,0,0,0,-0.14,-28.77,-68.95,-0.14,-0.44,-0.86
2.3798828,0.038377587,-0.3667017,-1.0577811,-0.17,-0.43,-0.87,21504,10076.00,0,0,0,2.45,-28.42,-73.15,-0.17,-0.43,-0.87
1.3798828,0.07537758,-0.3657017,-1.090781,-0.19,-0.39,-0.89,21519,10075.00,0,0,0,5.04,-28.35,-75.46,-0.19,-0.39,-0.89
-0.6201172,0.09337759,-0.3467017,-1.081781,-0.22,-0.34,-0.94,21534,10073.00,0,0,0,6.30,-27.02,-74.83,-0.22,-0.34,-0.94
0.3798828,0.07337759,-0.30870172,-1.023781,-0.24,-0.33,-0.94,21549,10074.00,0,0,0,4.90,-24.36,-70.77,-0.24,-0.33,-0.94
-1.3203125,0.026377587,-0.28370172,-0.933781,-0.26,-0.33,-0.93,21571,10072.30,0,0,0,1.61,-22.61,-64.47,-0.26,-0.33,-0.93
-1.3203125,0.018377587,-0.24070169,-0.85778105,-0.28,-0.36,-0.89,21587,10072.30,0,0,0,1.05,-19.60,-59.15,-0.28,-0.36,-0.89
-3.7197266,0.031377587,-0.2397017,-0.77478105,-0.26,-0.35,-0.87,21602,10069.90,0,0,0,1.96,-19.53,-53.34,-0.26,-0.35,-0.87
-2.4199219,0.046377588,-0.22670169,-0.67378104,-0.25,-0.35,-0.89,21616,10071.20,0,0,0,3.01,-18.62,-46.27,-0.25,-0.35,-0.89
-4.419922,0.08537758,-0.1897017,-0.59778106,-0.24,-0.36,-0.9,21631,10069.20,0,0,0,5.74,-16.03,-40.95,-0.24,-0.36,-0.90
-4.7197266,0.09737758,-0.17070168,-0.530781,-0.23,-0.37,-0.89,21647,10068.90,0,0,0,6.58,-14.70,-36.26,-0.23,-0.37,-0.89
-6.120117,0.08437759,-0.16470169,-0.47778106,-0.24,-0.41,-0.85,21662,10067.50,0,0,0,5.67,-14.28,-32.55,-0.24,-0.41,-0.85
-6.520508,0.10837758,-0.17770168,-0.45478106,-0.25,-0.44,-0.82,21684,10067.10,0,0,0,7.35,-15.19,-30.94,-0.25,-0.44,-0.82
-7.520508,0.15037759,-0.2497017,-0.46378106,-0.25,-0.45,-0.83,21699,10066.10,0,0,0,10.29,-20.23,-31.57,-0.25,-0.45,-0.83
-8.520508,0.14937758,-0.32770172,-0.45478106,-0.23,-0.4,-0.9,21714,10065.10,0,0,0,10.22,-25.69,-30.94,-0.23,-0.40,-0.90
-8.520508,0.098377585,-0.3177017,-0.41578102,-0.23,-0.4,-0.94,21729,10065.10,0,0,0,6.65,-24.99,-28.21,-0.23,-0.40,-0.94
-7.520508,0.023377586,-0.2397017,-0.38778102,-0.23,-0.4,-0.95,21744,10066.10,0,0,0,1.40,-19.53,-26.25,-0.23,-0.40,-0.95
-8.520508,-0.011622413,-0.13870169,-0.34478104,-0.23,-0.42,-0.88,21758,10065.10,0,0,0,-1.05,-12.46,-23.24,-0.23,-0.42,-0.88
-8.520508,-0.051622413,-0.14470169,-0.31678104,-0.23,-0.44,-0.85,21781,10065.10,0,0,0,-3.85,-12.88,-21.28,-0.23,-0.44,-0.85
-8.520508,-0.04362241,-0.20670168,-0.31678104,-0.23,-0.44,-0.83,21796,10065.10,0,0,0,-3.29,-17.22,-21.28,-0.23,-0.44,-0.83
-9.520508,-0.018622413,-0.22270168,-0.30578107,-0.23,-0.44,-0.84,21811,10064.10,0,0,0,-1.54,-18.34,-20.51,-0.23,-0.44,-0.84
-9.520508,0.0013775867,-0.2697017,-0.31178105,-0.21,-0.44,-0.84,21827,10064.10,0,0,0,-0.14,-21.63,-20.93,-0.21,-0.44,-0.84
-9.520508,0.018377587,-0.2557017,-0.30978107,-0.19,-0.43,-0.88,21841,10064.10,0,0,0,1.05,-20.65,-20.79,-0.19,-0.43,-0.88
-9.520508,0.015377586,-0.2017017,-0.30278105,-0.18,-0.43,-0.9,21856,10064.10,0,0,0,0.84,-16.87,-20.30,-0.18,-0.43,-0.90
-8.520508,0.0043775868,-0.13070169,-0.28478104,-0.19,-0.43,-0.9,21871,10065.10,0,0,0,0.07,-11.90,-19.04,-0.19,-0.43,-0.90
-8.520508,-0.009622414,-0.098701686,-0.26578104,-0.19,-0.43,-0.87,21894,10065.10,0,0,0,-0.91,-9.66,-17.71,-0.19,-0.43,-0.87
-8.520508,-0.022622414,-0.10270168,-0.24778105,-0.19,-0.42,-0.88,21908,10065.10,0,0,0,-1.82,-9.94,-16.45,-0.19,-0.42,-0.88
-8.219727,-0.046622414,-0.083701685,-0.21178104,-0.19,-0.42,-0.87,21924,10065.40,0,0,0,-3.50,-8.61,-13.93,-0.19,-0.42,-0.87
-8.520508,-0.06262241,-0.056701686,-0.18078104,-0.18,-0.43,-0.84,21939,10065.10,0,0,0,-4.62,-6.72,-11.76,-0.18,-0.43,-0.84
-7.520508,-0.058622416,-0.08770169,-0.16978103,-0.17,-0.44,-0.84,21954,10066.10,0,0,0,-4.34,-8.89,-10.99,-0.17,-0.44,-0.84
-8.520508,-0.036622413,-0.09970169,-0.16078104,-0.17,-0.45,-0.84,21977,10065.10,0,0,0,-2.80,-9.73,-10.36,-0.17,-0.45,-0.84
-8.520508,-0.005622413,-0.07970169,-0.15678103,-0.17,-0.45,-0.85,21991,10065.10,0,0,0,-0.63,-8.33,-10.08,-0.17,-0.45,-0.85
-8.520508,0.03437759,-0.07070169,-0.14978105,-0.17,-0.46,-0.84,22006,10065.10,0,0,0,2.17,-7.70,-9.59,-0.17,-0.46,-0.84
-8.520508,0.06437759,-0.0757017,-0.14578104,-0.17,-0.45,-0.85,22021,10065.10,0,0,0,4.27,-8.05,-9.31,-0.17,-0.45,-0.85
-7.520508,0.07437758,-0.060701694,-0.12978104,-0.18,-0.43,-0.87,22036,10066.10,0,0,0,4.97,-7.00,-8.19,-0.18,-0.43,-0.87
-7.520508,0.069377586,-0.041701693,-0.10878103,-0.19,-0.43,-0.87,22051,10066.10,0,0,0,4.62,-5.67,-6.72,-0.19,-0.43,-0.87
-7.520508,0.050377585,-0.04370169,-0.08778104,-0.19,-0.44,-0.87,22066,10066.10,0,0,0,3.29,-5.81,-5.25,-0.19,-0.44,-0.87
-9.520508,0.042377587,-0.050701696,-0.06778104,-0.18,-0.45,-0.87,22088,10064.10,0,0,0,2.73,-6.30,-3.85,-0.18,-0.45,-0.87
-6.520508,0.058377586,-0.036701698,-0.04478104,-0.19,-0.45,-0.88,22103,10067.10,0,0,0,3.85,-5.32,-2.24,-0.19,-0.45,-0.88
-7.520508,0.06437759,-0.031701688,-0.03478104,-0.19,-0.45,-0.87,22119,10066.10,0,0,0,4.27,-4.97,-1.54,-0.19,-0.45,-0.87
-5.419922,0.06737759,-0.03270169,-0.022781039,-0.18,-0.45,-0.87,22133,10068.20,0,0,0,4.48,-5.04,-0.70,-0.18,-0.45,-0.87
-6.520508,0.05237759,-0.035701696,-7.810397E-4,-0.18,-0.44,-0.88,22149,10067.10,0,0,0,3.43,-5.25,0.84,-0.18,-0.44,-0.88
-6.520508,0.030377587,-0.013701692,0.013218962,-0.18,-0.45,-0.88,22163,10067.10,0,0,0,1.89,-3.71,1.82,-0.18,-0.45,-0.88
-6.520508,0.014377587,-0.009701695,0.0072189607,-0.17,-0.45,-0.88,22186,10067.10,0,0,0,0.77,-3.43,1.40,-0.17,-0.45,-0.88
-4.7197266,3.7758704E-4,0.0012983046,0.0072189607,-0.17,-0.45,-0.88,22201,10068.90,0,0,0,-0.21,-2.66,1.40,-0.17,-0.45,-0.88
-5.419922,-0.015622415,0.012298306,0.0072189607,-0.18,-0.45,-0.87,22216,10068.20,0,0,0,-1.33,-1.89,1.40,-0.18,-0.45,-0.87
-3.4199219,-0.023622414,2.9830635E-4,0.0072189607,-0.19,-0.45,-0.88,22235,10070.20,0,0,0,-1.89,-2.73,1.40,-0.19,-0.45,-0.88
-4.419922,-0.038622413,0.019298308,0.02921896,-0.19,-0.45,-0.87,22247,10069.20,0,0,0,-2.94,-1.40,2.94,-0.19,-0.45,-0.87
-3.4199219,-0.052622415,0.009298308,0.037218962,-0.2,-0.45,-0.87,22261,10070.20,0,0,0,-3.92,-2.10,3.50,-0.20,-0.45,-0.87
-3.4199219,-0.046622414,0.025298307,0.059218958,-0.2,-0.44,-0.89,22277,10070.20,0,0,0,-3.50,-0.98,5.04,-0.20,-0.44,-0.89
-3.7197266,-0.04462241,0.059298307,0.08121896,-0.2,-0.43,-0.88,22300,10069.90,0,0,0,-3.36,1.40,6.58,-0.20,-0.43,-0.88
-2.4199219,-0.049622413,0.07529831,0.11521897,-0.2,-0.44,-0.87,22314,10071.20,0,0,0,-3.71,2.52,8.96,-0.20,-0.44,-0.87
-2.4199219,-0.051622413,0.07829831,0.12721896,-0.2,-0.44,-0.86,22329,10071.20,0,0,0,-3.85,2.73,9.80,-0.20,-0.44,-0.86
-2.7197266,-0.063622415,0.06729831,0.14521897,-0.19,-0.44,-0.87,22344,10070.90,0,0,0,-4.69,1.96,11.06,-0.19,-0.44,-0.87
-1.7197266,-0.06162242,0.06329831,0.13521896,-0.18,-0.45,-0.86,22359,10071.90,0,0,0,-4.55,1.68,10.36,-0.18,-0.45,-0.86
-2.4199219,-0.057622414,0.037298307,0.12021896,-0.17,-0.45,-0.86,22374,10071.20,0,0,0,-4.27,-0.14,9.31,-0.17,-0.45,-0.86
-0.3203125,-0.055622414,0.0062983073,0.09821896,-0.17,-0.44,-0.87,22397,10073.30,0,0,0,-4.13,-2.31,7.77,-0.17,-0.44,-0.87
-0.3203125,-0.051622413,0.013298307,0.096218966,-0.17,-0.45,-0.86,22411,10073.30,0,0,0,-3.85,-1.82,7.63,-0.17,-0.45,-0.86
-1.0205078,-0.053622413,-0.0057016946,0.061218962,-0.17,-0.45,-0.86,22426,10072.60,0,0,0,-3.99,-3.15,5.18,-0.17,-0.45,-0.86
-0.3203125,-0.058622416,-0.023701694,0.03821896,-0.17,-0.44,-0.85,22441,10073.30,0,0,0,-4.34,-4.41,3.57,-0.17,-0.44,-0.85
-0.3203125,-0.06662241,-0.035701696,0.01621896,-0.17,-0.43,-0.86,22456,10073.30,0,0,0,-4.90,-5.25,2.03,-0.17,-0.43,-0.86
0.3798828,-0.06562241,-0.045701694,-0.0067810393,-0.18,-0.43,-0.86,22475,10074.00,0,0,0,-4.83,-5.95,0.42,-0.18,-0.43,-0.86
0.3798828,-0.059622414,-0.06470169,-0.023781039,-0.18,-0.42,-0.85,22486,10074.00,0,0,0,-4.41,-7.28,-0.77,-0.18,-0.42,-0.85
0.6796875,-0.048622414,-0.081701696,-0.036781035,-0.18,-0.42,-0.87,22509,10074.30,0,0,0,-3.64,-8.47,-1.68,-0.18,-0.42,-0.87
0.6796875,-0.03262241,-0.06570169,-0.04278104,-0.19,-0.42,-0.87,22524,10074.30,0,0,0,-2.52,-7.35,-2.10,-0.19,-0.42,-0.87
0.6796875,-0.019622413,-0.059701692,-0.04778104,-0.2,-0.42,-0.87,22538,10074.30,0,0,0,-1.61,-6.93,-2.45,-0.20,-0.42,-0.87
1.7802734,-0.012622414,-0.0697017,-0.04478104,-0.2,-0.41,-0.87,22554,10075.40,0,0,0,-1.12,-7.63,-2.24,-0.20,-0.41,-0.87
0.3798828,-0.012622414,-0.052701693,-0.033781037,-0.2,-0.4,-0.87,22570,10074.00,0,0,0,-1.12,-6.44,-1.47,-0.20,-0.40,-0.87
1.3798828,-0.011622413,-0.057701696,-0.02578104,-0.2,-0.41,-0.87,22585,10075.00,0,0,0,-1.05,-6.79,-0.91,-0.20,-0.41,-0.87
0.3798828,-0.009622414,-0.058701698,-0.03278104,-0.2,-0.41,-0.87,22606,10074.00,0,0,0,-0.91,-6.86,-1.40,-0.20,-0.41,-0.87
2.3798828,-0.0076224133,-0.061701696,-0.033781037,-0.2,-0.41,-0.88,22621,10076.00,0,0,0,-0.77,-7.07,-1.47,-0.20,-0.41,-0.88
1.7802734,0.009377587,-0.04470169,-0.03478104,-0.21,-0.41,-0.88,22636,10075.40,0,0,0,0.42,-5.88,-1.54,-0.21,-0.41,-0.88
2.3798828,0.011377587,-0.04470169,-0.036781035,-0.21,-0.41,-0.88,22651,10076.00,0,0,0,0.56,-5.88,-1.68,-0.21,-0.41,-0.88
3.4794922,0.0073775873,-0.047701698,-0.03578104,-0.21,-0.41,-0.88,22666,10077.10,0,0,0,0.28,-6.09,-1.61,-0.21,-0.41,-0.88
3.4794922,-6.2241335E-4,-0.037701692,-0.02078104,-0.21,-0.41,-0.88,22689,10077.10,0,0,0,-0.28,-5.39,-0.56,-0.21,-0.41,-0.88
3.4794922,-0.004622414,-0.015701693,-0.018781038,-0.21,-0.41,-0.87,22704,10077.10,0,0,0,-0.56,-3.85,-0.42,-0.21,-0.41,-0.87
4.479492,-0.0036224134,-0.018701691,-0.011781039,-0.21,-0.41,-0.88,22719,10078.10,0,0,0,-0.49,-4.06,0.07,-0.21,-0.41,-0.88
3.7802734,0.002377587,0.0032983087,-0.009781039,-0.21,-0.41,-0.87,22734,10077.40,0,0,0,-0.07,-2.52,0.21,-0.21,-0.41,-0.87
5.479492,0.010377587,-7.0169196E-4,-0.0047810385,-0.21,-0.41,-0.87,22749,10079.10,0,0,0,0.49,-2.80,0.56,-0.21,-0.41,-0.87
4.7802734,0.011377587,0.0062983073,0.0032189619,-0.21,-0.42,-0.87,22764,10078.40,0,0,0,0.56,-2.31,1.12,-0.21,-0.42,-0.87
4.479492,0.017377587,0.009298308,0.0022189608,-0.21,-0.41,-0.86,22778,10078.10,0,0,0,0.98,-2.10,1.05,-0.21,-0.41,-0.86
5.879883,0.021377586,-0.0027016923,0.0052189603,-0.21,-0.42,-0.87,22801,10079.50,0,0,0,1.26,-2.94,1.26,-0.21,-0.42,-0.87
5.479492,0.019377587,0.0062983073,0.0012189616,-0.2,-0.42,-0.87,22816,10079.10,0,0,0,1.12,-2.31,0.98,-0.20,-0.42,-0.87
6.879883,0.013377586,0.0062983073,0.004218962,-0.21,-0.41,-0.87,22832,10080.50,0,0,0,0.70,-2.31,1.19,-0.21,-0.41,-0.87
6.580078,0.017377587,0.015298309,0.0032189619,-0.21,-0.42,-0.88,22847,10080.20,0,0,0,0.98,-1.68,1.12,-0.21,-0.42,-0.88
6.879883,0.030377587,0.031298306,0.009218961,-0.21,-0.42,-0.87,22861,10080.50,0,0,0,1.89,-0.56,1.54,-0.21,-0.42,-0.87
7.580078,0.046377588,0.03829831,0.010218961,-0.21,-0.42,-0.86,22876,10081.20,0,0,0,3.01,-0.07,1.61,-0.21,-0.42,-0.86
8.580078,0.053377587,0.035298306,0.018218962,-0.21,-0.41,-0.86,22898,10082.20,0,0,0,3.50,-0.28,2.17,-0.21,-0.41,-0.86
8.580078,0.05237759,0.024298307,0.026218962,-0.21,-0.42,-0.88,22913,10082.20,0,0,0,3.43,-1.05,2.73,-0.21,-0.42,-0.88
9.979492,0.047377586,0.027298309,0.03121896,-0.2,-0.41,-0.88,22929,10083.60,0,0,0,3.08,-0.84,3.08,-0.20,-0.41,-0.88
11.280273,0.03437759,0.026298307,0.035218958,-0.2,-0.41,-0.9,22944,10084.90,0,0,0,2.17,-0.91,3.36,-0.20,-0.41,-0.90
9.979492,0.011377587,0.062298305,0.04821896,-0.19,-0.42,-0.9,22959,10083.60,0,0,0,0.56,1.61,4.27,-0.19,-0.42,-0.90
9.580078,0.012377586,0.08129831,0.043218963,-0.19,-0.43,-0.87,22974,10083.20,0,0,0,0.63,2.94,3.92,-0.19,-0.43,-0.87
9.979492,0.018377587,0.07429831,0.03821896,-0.19,-0.43,-0.86,22996,10083.60,0,0,0,1.05,2.45,3.57,-0.19,-0.43,-0.86
10.979492,0.015377586,0.044298306,0.030218963,-0.19,-0.42,-0.86,23011,10084.60,0,0,0,0.84,0.35,3.01,-0.19,-0.42,-0.86
10.979492,0.016377587,0.019298308,0.02721896,-0.19,-0.43,-0.87,23026,10084.60,0,0,0,0.91,-1.40,2.80,-0.19,-0.43,-0.87
10.6796875,0.011377587,0.031298306,0.020218961,-0.19,-0.42,-0.87,23041,10084.30,0,0,0,0.56,-0.56,2.31,-0.19,-0.42,-0.87
10.979492,0.015377586,0.014298307,0.015218962,-0.18,-0.43,-0.87,23056,10084.60,0,0,0,0.84,-1.75,1.96,-0.18,-0.43,-0.87
11.979492,0.018377587,0.019298308,0.013218962,-0.19,-0.43,-0.88,23071,10085.60,0,0,0,1.05,-1.40,1.82,-0.19,-0.43,-0.88
11.979492,0.010377587,0.024298307,0.004218962,-0.19,-0.42,-0.87,23099,10085.60,0,0,0,0.49,-1.05,1.19,-0.19,-0.42,-0.87
11.979492,0.0063775866,0.029298307,0.0012189616,-0.19,-0.43,-0.87,23108,10085.60,0,0,0,0.21,-0.70,0.98,-0.19,-0.43,-0.87
11.979492,-6.2241335E-4,0.027298309,-0.0047810385,-0.19,-0.42,-0.87,23124,10085.60,0,0,0,-0.28,-0.84,0.56,-0.19,-0.42,-0.87
11.979492,-0.0076224133,0.019298308,-0.0017810389,-0.2,-0.43,-0.88,23138,10085.60,0,0,0,-0.77,-1.40,0.77,-0.20,-0.43,-0.88
12.979492,-0.004622414,0.017298307,0.008218961,-0.2,-0.42,-0.87,23155,10086.60,0,0,0,-0.56,-1.54,1.47,-0.20,-0.42,-0.87
11.6796875,-0.008622413,0.020298306,0.0122189615,-0.2,-0.42,-0.89,23169,10085.30,0,0,0,-0.84,-1.33,1.75,-0.20,-0.42,-0.89
11.979492,-0.0076224133,0.027298309,0.035218958,-0.2,-0.41,-0.88,23183,10085.60,0,0,0,-0.77,-0.84,3.36,-0.20,-0.41,-0.88
11.979492,-0.004622414,0.035298306,0.04621896,-0.2,-0.41,-0.88,23206,10085.60,0,0,0,-0.56,-0.28,4.13,-0.20,-0.41,-0.88
12.6796875,-0.009622414,0.04929831,0.07121896,-0.2,-0.41,-0.88,23221,10086.30,0,0,0,-0.91,0.70,5.88,-0.20,-0.41,-0.88
11.979492,-0.028622415,0.054298308,0.09121896,-0.2,-0.41,-0.89,23236,10085.60,0,0,0,-2.24,1.05,7.28,-0.20,-0.41,-0.89
11.979492,-0.033622414,0.06029831,0.10021896,-0.19,-0.42,-0.88,23251,10085.60,0,0,0,-2.59,1.47,7.91,-0.19,-0.42,-0.88
10.979492,-0.039622415,0.054298308,0.10021896,-0.18,-0.41,-0.88,23266,10084.60,0,0,0,-3.01,1.05,7.91,-0.18,-0.41,-0.88
11.979492,-0.04462241,0.05829831,0.09221896,-0.18,-0.42,-0.88,23282,10085.60,0,0,0,-3.36,1.33,7.35,-0.18,-0.42,-0.88
9.979492,-0.042622413,0.051298305,0.085218966,-0.18,-0.42,-0.87,23304,10083.60,0,0,0,-3.22,0.84,6.86,-0.18,-0.42,-0.87
11.6796875,-0.042622413,0.045298308,0.07021896,-0.17,-0.42,-0.87,23319,10085.30,0,0,0,-3.22,0.42,5.81,-0.17,-0.42,-0.87
11.979492,-0.040622413,0.041298307,0.05321896,-0.17,-0.42,-0.87,23333,10085.60,0,0,0,-3.08,0.14,4.62,-0.17,-0.42,-0.87
10.979492,-0.042622413,0.033298306,0.039218962,-0.17,-0.42,-0.87,23348,10084.60,0,0,0,-3.22,-0.42,3.64,-0.17,-0.42,-0.87
10.979492,-0.042622413,0.029298307,0.02321896,-0.17,-0.42,-0.87,23364,10084.60,0,0,0,-3.22,-0.70,2.52,-0.17,-0.42,-0.87
11.280273,-0.040622413,0.019298308,0.008218961,-0.17,-0.41,-0.88,23379,10084.90,0,0,0,-3.08,-1.40,1.47,-0.17,-0.41,-0.88
10.280273,-0.042622413,0.021298308,-0.0037810393,-0.18,-0.41,-0.88,23402,10083.90,0,0,0,-3.22,-1.26,0.63,-0.18,-0.41,-0.88
9.979492,-0.042622413,0.020298306,-0.0067810393,-0.17,-0.4,-0.88,23416,10083.60,0,0,0,-3.22,-1.33,0.42,-0.17,-0.40,-0.88
10.280273,-0.041622415,0.014298307,-0.009781039,-0.18,-0.41,-0.87,23431,10083.90,0,0,0,-3.15,-1.75,0.21,-0.18,-0.41,-0.87
8.879883,-0.03262241,0.004298307,-0.011781039,-0.19,-0.4,-0.87,23446,10082.50,0,0,0,-2.52,-2.45,0.07,-0.19,-0.40,-0.87
9.280273,-0.023622414,0.0022983067,-0.0047810385,-0.19,-0.41,-0.87,23461,10082.90,0,0,0,-1.89,-2.59,0.56,-0.19,-0.41,-0.87
8.1796875,-0.014622413,2.9830635E-4,2.1896139E-4,-0.19,-0.4,-0.88,23485,10081.80,0,0,0,-1.26,-2.73,0.91,-0.19,-0.40,-0.88
8.1796875,-0.005622413,-0.0017016903,0.010218961,-0.19,-0.4,-0.88,23498,10081.80,0,0,0,-0.63,-2.87,1.61,-0.19,-0.40,-0.88
8.1796875,-0.008622413,-0.0027016923,0.013218962,-0.19,-0.39,-0.89,23513,10081.80,0,0,0,-0.84,-2.94,1.82,-0.19,-0.39,-0.89
8.1796875,-0.005622413,0.0012983046,0.02321896,-0.19,-0.4,-0.88,23530,10081.80,0,0,0,-0.63,-2.66,2.52,-0.19,-0.40,-0.88
8.1796875,-0.006622413,-0.020701692,0.01621896,-0.18,-0.4,-0.89,23545,10081.80,0,0,0,-0.70,-4.20,2.03,-0.18,-0.40,-0.89
7.1796875,-0.004622414,0.0062983073,0.020218961,-0.18,-0.41,-0.88,23559,10080.80,0,0,0,-0.56,-2.31,2.31,-0.18,-0.41,-0.88
7.1796875,-0.008622413,0.0072983056,0.01621896,-0.18,-0.41,-0.87,23581,10080.80,0,0,0,-0.84,-2.24,2.03,-0.18,-0.41,-0.87
7.1796875,-0.014622413,-0.00870169,0.008218961,-0.18,-0.4,-0.87,23596,10080.80,0,0,0,-1.26,-3.36,1.47,-0.18,-0.40,-0.87
6.1796875,-0.030622415,-0.023701694,2.1896139E-4,-0.18,-0.4,-0.89,23612,10079.80,0,0,0,-2.38,-4.41,0.91,-0.18,-0.40,-0.89
5.1796875,-0.029622413,-0.022701696,-0.0057810387,-0.18,-0.41,-0.89,23627,10078.80,0,0,0,-2.31,-4.34,0.49,-0.18,-0.41,-0.89
5.7802734,-0.021622414,2.9830635E-4,-0.011781039,-0.18,-0.4,-0.89,23641,10079.40,0,0,0,-1.75,-2.73,0.07,-0.18,-0.40,-0.89
4.479492,-0.006622413,-0.0047016926,-0.011781039,-0.18,-0.41,-0.88,23663,10078.10,0,0,0,-0.70,-3.08,0.07,-0.18,-0.41,-0.88
6.1796875,0.0063775866,-0.010701694,-0.023781039,-0.19,-0.41,-0.87,23679,10079.80,0,0,0,0.21,-3.50,-0.77,-0.19,-0.41,-0.87
4.080078,0.010377587,-0.026701692,-0.02878104,-0.19,-0.4,-0.87,23694,10077.70,0,0,0,0.49,-4.62,-1.12,-0.19,-0.40,-0.87
4.080078,0.016377587,-0.036701698,-0.02878104,-0.19,-0.4,-0.88,23709,10077.70,0,0,0,0.91,-5.32,-1.12,-0.19,-0.40,-0.88
4.080078,0.014377587,-0.026701692,-0.018781038,-0.19,-0.39,-0.88,23724,10077.70,0,0,0,0.77,-4.62,-0.42,-0.19,-0.39,-0.88
3.3798828,-0.006622413,-0.023701694,-0.0057810387,-0.19,-0.4,-0.89,23739,10077.00,0,0,0,-0.70,-4.41,0.49,-0.19,-0.40,-0.89
3.3798828,-0.0036224134,-0.018701691,-0.002781039,-0.19,-0.4,-0.88,23754,10077.00,0,0,0,-0.49,-4.06,0.70,-0.19,-0.40,-0.88
3.0800781,0.002377587,-0.022701696,-0.008781038,-0.19,-0.41,-0.88,23776,10076.70,0,0,0,-0.07,-4.34,0.28,-0.19,-0.41,-0.88
2.3798828,0.002377587,-0.027701695,-0.010781039,-0.19,-0.41,-0.88,23791,10076.00,0,0,0,-0.07,-4.69,0.14,-0.19,-0.41,-0.88
1.0800781,0.022377588,-0.026701692,-0.021781038,-0.19,-0.41,-0.87,23806,10074.70,0,0,0,1.33,-4.62,-0.63,-0.19,-0.41,-0.87
1.0800781,0.011377587,-0.0027016923,-0.0057810387,-0.19,-0.4,-0.89,23821,10074.70,0,0,0,0.56,-2.94,0.49,-0.19,-0.40,-0.89
0.6796875,-0.001622413,0.012298306,-0.008781038,-0.19,-0.4,-0.88,23836,10074.30,0,0,0,-0.35,-1.89,0.28,-0.19,-0.40,-0.88
-0.71972656,-0.0036224134,0.009298308,0.0062189624,-0.19,-0.4,-0.89,23851,10072.90,0,0,0,-0.49,-2.10,1.33,-0.19,-0.40,-0.89
-0.71972656,-0.018622413,0.026298307,0.009218961,-0.19,-0.4,-0.89,23873,10072.90,0,0,0,-1.54,-0.91,1.54,-0.19,-0.40,-0.89
-0.71972656,-0.014622413,0.04729831,0.01721896,-0.19,-0.41,-0.88,23889,10072.90,0,0,0,-1.26,0.56,2.10,-0.19,-0.41,-0.88
-1.7197266,3.7758704E-4,0.024298307,0.0062189624,-0.19,-0.41,-0.87,23903,10071.90,0,0,0,-0.21,-1.05,1.33,-0.19,-0.41,-0.87
-0.71972656,0.0073775873,-0.0017016903,0.0052189603,-0.19,-0.4,-0.87,23918,10072.90,0,0,0,0.28,-2.87,1.26,-0.19,-0.40,-0.87
-2.0205078,0.0083775865,-0.0057016946,0.0052189603,-0.19,-0.4,-0.89,23934,10071.60,0,0,0,0.35,-3.15,1.26,-0.19,-0.40,-0.89
-2.0205078,0.009377587,0.0012983046,0.0062189624,-0.19,-0.4,-0.89,23949,10071.60,0,0,0,0.42,-2.66,1.33,-0.19,-0.40,-0.89
-2.7197266,0.011377587,0.011298306,0.015218962,-0.19,-0.41,-0.88,23964,10070.90,0,0,0,0.56,-1.96,1.96,-0.19,-0.41,-0.88
-4.8203125,0.0013775867,0.015298309,0.020218961,-0.18,-0.4,-0.89,23986,10068.80,0,0,0,-0.14,-1.68,2.31,-0.18,-0.40,-0.89
-4.8203125,-0.004622414,0.0012983046,0.015218962,-0.18,-0.4,-0.88,24001,10068.80,0,0,0,-0.56,-2.66,1.96,-0.18,-0.40,-0.88
-3.7197266,-0.0026224128,0.008298306,0.01721896,-0.18,-0.41,-0.87,24017,10069.90,0,0,0,-0.42,-2.17,2.10,-0.18,-0.41,-0.87
-4.8203125,-6.2241335E-4,-0.010701694,0.0072189607,-0.18,-0.41,-0.88,24032,10068.80,0,0,0,-0.28,-3.50,1.40,-0.18,-0.41,-0.88
-4.8203125,0.009377587,-0.020701692,-0.0037810393,-0.18,-0.41,-0.88,24047,10068.80,0,0,0,0.42,-4.20,0.63,-0.18,-0.41,-0.88
-7.2197266,0.024377586,-0.03370169,-0.019781038,-0.18,-0.41,-0.88,24061,10066.40,0,0,0,1.47,-5.11,-0.49,-0.18,-0.41,-0.88
-6.8203125,0.025377586,-0.045701694,-0.02978104,-0.18,-0.41,-0.88,24083,10066.80,0,0,0,1.54,-5.95,-1.19,-0.18,-0.41,-0.88
-6.8203125,0.0073775873,-0.047701698,-0.02978104,-0.19,-0.4,-0.88,24098,10066.80,0,0,0,0.28,-6.09,-1.19,-0.19,-0.40,-0.88
-7.919922,-0.005622413,-0.047701698,-0.022781039,-0.19,-0.41,-0.88,24113,10065.70,0,0,0,-0.63,-6.09,-0.70,-0.19,-0.41,-0.88
-8.520508,3.7758704E-4,-0.05570169,-0.02578104,-0.19,-0.4,-0.88,24128,10065.10,0,0,0,-0.21,-6.65,-0.91,-0.19,-0.40,-0.88
-8.919922,0.0033775868,-0.05170169,-0.02578104,-0.19,-0.4,-0.88,24144,10064.70,0,0,0,0.00,-6.37,-0.91,-0.19,-0.40,-0.88
-8.919922,0.009377587,-0.041701693,-0.024781037,-0.19,-0.4,-0.88,24159,10064.70,0,0,0,0.42,-5.67,-0.84,-0.19,-0.40,-0.88
-10.919922,0.0063775866,-0.026701692,-0.01578104,-0.19,-0.4,-0.89,24174,10062.70,0,0,0,0.21,-4.62,-0.21,-0.19,-0.40,-0.89
-9.919922,0.002377587,-0.0017016903,2.1896139E-4,-0.19,-0.4,-0.89,24196,10063.70,0,0,0,-0.07,-2.87,0.91,-0.19,-0.40,-0.89
-9.919922,0.002377587,0.0012983046,0.0032189619,-0.19,-0.41,-0.89,24213,10063.70,0,0,0,-0.07,-2.66,1.12,-0.19,-0.41,-0.89
-9.919922,0.011377587,0.0012983046,0.0062189624,-0.19,-0.41,-0.88,24229,10063.70,0,0,0,0.56,-2.66,1.33,-0.19,-0.41,-0.88
-9.919922,-0.0076224133,-0.020701692,2.1896139E-4,-0.19,-0.4,-0.88,24241,10063.70,0,0,0,-0.77,-4.20,0.91,-0.19,-0.40,-0.88
-10.919922,-0.020622412,-0.0077016912,0.0052189603,-0.19,-0.4,-0.89,24256,10062.70,0,0,0,-1.68,-3.29,1.26,-0.19,-0.40,-0.89
-10.919922,-0.030622415,-7.0169196E-4,-0.002781039,-0.19,-0.4,-0.89,24271,10062.70,0,0,0,-2.38,-2.80,0.70,-0.19,-0.40,-0.89
-10.919922,-0.033622414,0.011298306,2.1896139E-4,-0.19,-0.4,-0.89,24296,10062.70,0,0,0,-2.59,-1.96,0.91,-0.19,-0.40,-0.89
-12.020508,-0.039622415,0.015298309,-0.0047810385,-0.19,-0.4,-0.89,24308,10061.60,0,0,0,-3.01,-1.68,0.56,-0.19,-0.40,-0.89
-12.3203125,-0.036622413,0.029298307,0.0012189616,-0.19,-0.4,-0.88,24323,10061.30,0,0,0,-2.80,-0.70,0.98,-0.19,-0.40,-0.88
-11.3203125,-0.033622414,0.022298306,0.0032189619,-0.2,-0.4,-0.87,24339,10062.30,0,0,0,-2.59,-1.19,1.12,-0.20,-0.40,-0.87
-10.919922,-0.021622414,-0.0077016912,0.010218961,-0.2,-0.4,-0.87,24353,10062.70,0,0,0,-1.75,-3.29,1.61,-0.20,-0.40,-0.87
-9.919922,-0.009622414,-0.00870169,0.0062189624,-0.2,-0.4,-0.88,24369,10063.70,0,0,0,-0.91,-3.36,1.33,-0.20,-0.40,-0.88
-10.919922,-0.017622413,-0.012701694,2.1896139E-4,-0.19,-0.39,-0.89,24383,10062.70,0,0,0,-1.47,-3.64,0.91,-0.19,-0.39,-0.89
-9.919922,-0.020622412,-0.011701692,0.0032189619,-0.19,-0.39,-0.88,24398,10063.70,0,0,0,-1.68,-3.57,1.12,-0.19,-0.39,-0.88
-11.3203125,-0.025622413,-7.0169196E-4,0.008218961,-0.19,-0.39,-0.88,24421,10062.30,0,0,0,-2.03,-2.80,1.47,-0.19,-0.39,-0.88
-9.919922,-0.022622414,-0.0077016912,0.009218961,-0.19,-0.4,-0.88,24436,10063.70,0,0,0,-1.82,-3.29,1.54,-0.19,-0.40,-0.88
-9.919922,-0.015622415,-0.0057016946,0.0032189619,-0.19,-0.4,-0.88,24451,10063.70,0,0,0,-1.33,-3.15,1.12,-0.19,-0.40,-0.88
-8.919922,-0.008622413,-0.0057016946,-0.0017810389,-0.2,-0.4,-0.88,24467,10064.70,0,0,0,-0.84,-3.15,0.77,-0.20,-0.40,-0.88
-9.219727,0.002377587,-0.017701693,-0.0067810393,-0.2,-0.39,-0.88,24481,10064.40,0,0,0,-0.07,-3.99,0.42,-0.20,-0.39,-0.88
-9.620117,0.0033775868,-0.038701694,-0.009781039,-0.19,-0.39,-0.89,24497,10064.00,0,0,0,0.00,-5.46,0.21,-0.19,-0.39,-0.89
-10.219727,-0.0076224133,-0.03370169,-0.009781039,-0.2,-0.38,-0.91,24518,10063.40,0,0,0,-0.77,-5.11,0.21,-0.20,-0.38,-0.91
-8.919922,-0.016622413,-0.0027016923,0.0052189603,-0.2,-0.39,-0.9,24534,10064.70,0,0,0,-1.40,-2.94,1.26,-0.20,-0.39,-0.90
-8.919922,-0.030622415,0.009298308,0.008218961,-0.2,-0.39,-0.89,24549,10064.70,0,0,0,-2.38,-2.10,1.47,-0.20,-0.39,-0.89
-10.219727,-0.041622415,0.028298307,0.025218964,-0.2,-0.39,-0.88,24564,10063.40,0,0,0,-3.15,-0.77,2.66,-0.20,-0.39,-0.88
-11.3203125,-0.048622414,0.008298306,0.020218961,-0.2,-0.39,-0.89,24579,10062.30,0,0,0,-3.64,-2.17,2.31,-0.20,-0.39,-0.89
-9.219727,-0.035622414,0.013298307,0.02721896,-0.2,-0.39,-0.88,24594,10064.40,0,0,0,-2.73,-1.82,2.80,-0.20,-0.39,-0.88
-8.520508,-0.019622413,0.0022983067,0.01721896,-0.2,-0.39,-0.89,24616,10065.10,0,0,0,-1.61,-2.59,2.10,-0.20,-0.39,-0.89
-8.219727,-0.013622414,-0.0057016946,0.02721896,-0.2,-0.39,-0.88,24639,10065.40,0,0,0,-1.19,-3.15,2.80,-0.20,-0.39,-0.88
-8.219727,-0.013622414,2.9830635E-4,0.025218964,-0.2,-0.38,-0.89,24646,10065.40,0,0,0,-1.19,-2.73,2.66,-0.20,-0.38,-0.89
-9.219727,-0.015622415,0.011298306,0.02721896,-0.2,-0.39,-0.88,24661,10064.40,0,0,0,-1.33,-1.96,2.80,-0.20,-0.39,-0.88
-8.219727,-0.016622413,0.012298306,0.019218963,-0.19,-0.38,-0.89,24677,10065.40,0,0,0,-1.40,-1.89,2.24,-0.19,-0.38,-0.89
-6.120117,-0.03762241,0.028298307,0.035218958,-0.2,-0.39,-0.88,24692,10067.50,0,0,0,-2.87,-0.77,3.36,-0.20,-0.39,-0.88
-6.120117,-0.025622413,0.025298307,0.030218963,-0.19,-0.39,-0.88,24706,10067.50,0,0,0,-2.03,-0.98,3.01,-0.19,-0.39,-0.88
-5.419922,-0.014622413,0.011298306,0.025218964,-0.19,-0.38,-0.88,24729,10068.20,0,0,0,-1.26,-1.96,2.66,-0.19,-0.38,-0.88
-6.120117,-0.011622413,0.020298306,0.028218959,-0.2,-0.38,-0.89,24744,10067.50,0,0,0,-1.05,-1.33,2.87,-0.20,-0.38,-0.89
-5.120117,-6.2241335E-4,0.021298308,0.035218958,-0.2,-0.38,-0.88,24758,10068.50,0,0,0,-0.28,-1.26,3.36,-0.20,-0.38,-0.88
-6.520508,0.0013775867,0.022298306,0.04521896,-0.2,-0.38,-0.9,24774,10067.10,0,0,0,-0.14,-1.19,4.06,-0.20,-0.38,-0.90
-5.120117,-0.0036224134,0.035298306,0.05321896,-0.2,-0.38,-0.89,24789,10068.50,0,0,0,-0.49,-0.28,4.62,-0.20,-0.38,-0.89
-5.120117,3.7758704E-4,0.025298307,0.051218964,-0.2,-0.39,-0.89,24803,10068.50,0,0,0,-0.21,-0.98,4.48,-0.20,-0.39,-0.89
-4.120117,0.0013775867,0.018298307,0.055218965,-0.19,-0.39,-0.89,24827,10069.50,0,0,0,-0.14,-1.47,4.76,-0.19,-0.39,-0.89
-4.120117,-0.0026224128,0.017298307,0.05321896,-0.19,-0.39,-0.88,24841,10069.50,0,0,0,-0.42,-1.54,4.62,-0.19,-0.39,-0.88
-3.1201172,-0.0026224128,0.014298307,0.04821896,-0.19,-0.39,-0.89,24856,10070.50,0,0,0,-0.42,-1.75,4.27,-0.19,-0.39,-0.89
-4.419922,0.0073775873,0.022298306,0.035218958,-0.18,-0.39,-0.89,24872,10069.20,0,0,0,0.28,-1.19,3.36,-0.18,-0.39,-0.89
-2.4199219,0.005377587,0.024298307,0.02921896,-0.18,-0.39,-0.89,24887,10071.20,0,0,0,0.14,-1.05,2.94,-0.18,-0.39,-0.89
-2.4199219,3.7758704E-4,0.026298307,0.020218961,-0.19,-0.39,-0.88,24925,10071.20,0,0,0,-0.21,-0.91,2.31,-0.19,-0.39,-0.88
-6.520508,0.0013775867,0.0062983073,0.01721896,-0.19,-0.39,-0.89,24927,10067.10,0,0,0,-0.14,-2.31,2.10,-0.19,-0.39,-0.89
-2.4199219,-0.005622413,0.0012983046,0.015218962,-0.19,-0.39,-0.89,24939,10071.20,0,0,0,-0.63,-2.66,1.96,-0.19,-0.39,-0.89
-3.4199219,-0.008622413,0.0032983087,0.010218961,-0.18,-0.38,-0.9,24954,10070.20,0,0,0,-0.84,-2.52,1.61,-0.18,-0.38,-0.90
-1.7197266,-0.016622413,0.022298306,0.014218962,-0.18,-0.38,-0.89,24969,10071.90,0,0,0,-1.40,-1.19,1.89,-0.18,-0.38,-0.89
-1.3203125,-0.008622413,0.017298307,0.0122189615,-0.18,-0.39,-0.88,24983,10072.30,0,0,0,-0.84,-1.54,1.75,-0.18,-0.39,-0.88
-1.3203125,0.0073775873,0.0012983046,0.0052189603,-0.19,-0.39,-0.87,24998,10072.30,0,0,0,0.28,-2.66,1.26,-0.19,-0.39,-0.87
-1.3203125,0.005377587,-0.0047016926,0.0012189616,-0.19,-0.38,-0.89,25022,10072.30,0,0,0,0.14,-3.08,0.98,-0.19,-0.38,-0.89
0.6796875,0.016377587,-0.0047016926,0.004218962,-0.19,-0.39,-0.88,25036,10074.30,0,0,0,0.91,-3.08,1.19,-0.19,-0.39,-0.88
-0.020507812,0.015377586,-0.012701694,0.0052189603,-0.19,-0.38,-0.89,25051,10073.60,0,0,0,0.84,-3.64,1.26,-0.19,-0.38,-0.89
-0.3203125,0.005377587,-0.012701694,0.0072189607,-0.19,-0.39,-0.89,25067,10073.30,0,0,0,0.14,-3.64,1.40,-0.19,-0.39,-0.89
-0.3203125,0.0073775873,-0.013701692,0.0032189619,-0.19,-0.39,-0.89,25082,10073.30,0,0,0,0.28,-3.71,1.12,-0.19,-0.39,-0.89
0.6796875,0.011377587,-0.012701694,-0.0017810389,-0.18,-0.39,-0.89,25097,10074.30,0,0,0,0.56,-3.64,0.77,-0.18,-0.39,-0.89
-0.3203125,0.022377588,-0.017701693,-0.002781039,-0.19,-0.39,-0.89,25111,10073.30,0,0,0,1.33,-3.99,0.70,-0.19,-0.39,-0.89
0.3798828,0.025377586,-0.012701694,-0.008781038,-0.19,-0.39,-0.88,25133,10074.00,0,0,0,1.54,-3.64,0.28,-0.19,-0.39,-0.88
1.7802734,0.014377587,-0.020701692,-0.013781039,-0.19,-0.39,-0.9,25149,10075.40,0,0,0,0.77,-4.20,-0.07,-0.19,-0.39,-0.90
1.3798828,0.0073775873,-0.018701691,-0.010781039,-0.19,-0.39,-0.89,25164,10075.00,0,0,0,0.28,-4.06,0.14,-0.19,-0.39,-0.89
1.7802734,-0.004622414,-0.015701693,-0.0067810393,-0.19,-0.38,-0.9,25179,10075.40,0,0,0,-0.56,-3.85,0.42,-0.19,-0.38,-0.90
1.7802734,-0.006622413,-0.0047016926,0.0022189608,-0.19,-0.39,-0.88,25194,10075.40,0,0,0,-0.70,-3.08,1.05,-0.19,-0.39,-0.88
2.3798828,0.0063775866,-0.0077016912,0.0012189616,-0.19,-0.39,-0.89,25209,10076.00,0,0,0,0.21,-3.29,0.98,-0.19,-0.39,-0.89
2.7802734,0.014377587,-0.0047016926,2.1896139E-4,-0.19,-0.39,-0.88,25231,10076.40,0,0,0,0.77,-3.08,0.91,-0.19,-0.39,-0.88
2.3798828,0.017377587,-0.0057016946,-7.810397E-4,-0.19,-0.39,-0.88,25253,10076.00,0,0,0,0.98,-3.15,0.84,-0.19,-0.39,-0.88
6.580078,0.016377587,-0.009701695,-0.0047810385,-0.19,-0.39,-0.89,25264,10080.20,0,0,0,0.91,-3.43,0.56,-0.19,-0.39,-0.89
4.7802734,0.0083775865,-0.0027016923,0.0022189608,-0.19,-0.39,-0.89,25276,10078.40,0,0,0,0.35,-2.94,1.05,-0.19,-0.39,-0.89
3.4794922,-0.006622413,-0.0077016912,-7.810397E-4,-0.19,-0.39,-0.9,25291,10077.10,0,0,0,-0.70,-3.29,0.84,-0.19,-0.39,-0.90
4.7802734,-0.006622413,-0.006701693,-0.008781038,-0.19,-0.4,-0.89,25313,10078.40,0,0,0,-0.70,-3.22,0.28,-0.19,-0.40,-0.89
4.7802734,-0.011622413,-0.0077016912,-0.010781039,-0.19,-0.39,-0.89,25329,10078.40,0,0,0,-1.05,-3.29,0.14,-0.19,-0.39,-0.89
4.1796875,-0.008622413,-0.006701693,-0.012781039,-0.19,-0.4,-0.89,25344,10077.80,0,0,0,-0.84,-3.22,0.00,-0.19,-0.40,-0.89
5.879883,-0.006622413,-0.014701694,-0.02078104,-0.19,-0.39,-0.88,25359,10079.50,0,0,0,-0.70,-3.78,-0.56,-0.19,-0.39,-0.88
5.479492,-0.0076224133,-0.013701692,-0.01578104,-0.2,-0.39,-0.88,25374,10079.10,0,0,0,-0.77,-3.71,-0.21,-0.20,-0.39,-0.88
5.879883,-0.008622413,-0.015701693,-0.011781039,-0.19,-0.38,-0.89,25388,10079.50,0,0,0,-0.84,-3.85,0.07,-0.19,-0.38,-0.89
6.879883,-0.011622413,2.9830635E-4,0.004218962,-0.2,-0.39,-0.89,25403,10080.50,0,0,0,-1.05,-2.73,1.19,-0.20,-0.39,-0.89
5.479492,-0.023622414,0.012298306,0.009218961,-0.2,-0.38,-0.89,25428,10079.10,0,0,0,-1.89,-1.89,1.54,-0.20,-0.38,-0.89
6.879883,-0.013622414,0.009298308,0.014218962,-0.2,-0.38,-0.89,25441,10080.50,0,0,0,-1.19,-2.10,1.89,-0.20,-0.38,-0.89
7.580078,-0.0076224133,0.017298307,0.028218959,-0.2,-0.37,-0.89,25456,10081.20,0,0,0,-0.77,-1.54,2.87,-0.20,-0.37,-0.89
7.879883,-0.001622413,0.024298307,0.04621896,-0.2,-0.38,-0.89,25472,10081.50,0,0,0,-0.35,-1.05,4.13,-0.20,-0.38,-0.89
6.580078,0.0083775865,0.027298309,0.06821896,-0.2,-0.38,-0.89,25495,10080.20,0,0,0,0.35,-0.84,5.67,-0.20,-0.38,-0.89
7.879883,0.019377587,0.031298306,0.07921896,-0.2,-0.37,-0.89,25508,10081.50,0,0,0,1.12,-0.56,6.44,-0.20,-0.37,-0.89
7.580078,0.015377586,0.040298305,0.10021896,-0.2,-0.37,-0.9,25531,10081.20,0,0,0,0.84,0.07,7.91,-0.20,-0.37,-0.90
9.979492,0.015377586,0.046298306,0.11121897,-0.2,-0.38,-0.89,25546,10083.60,0,0,0,0.84,0.49,8.68,-0.20,-0.38,-0.89
8.580078,0.020377588,0.050298307,0.12221895,-0.2,-0.37,-0.9,25568,10082.20,0,0,0,1.19,0.77,9.45,-0.20,-0.37,-0.90
8.879883,0.024377586,0.054298308,0.12621896,-0.2,-0.37,-0.89,25583,10082.50,0,0,0,1.47,1.05,9.73,-0.20,-0.37,-0.89
10.979492,0.017377587,0.041298307,0.12921895,-0.21,-0.37,-0.89,25606,10084.60,0,0,0,0.98,0.14,9.94,-0.21,-0.37,-0.89
9.979492,0.002377587,0.03429831,0.13821895,-0.2,-0.37,-0.9,25621,10083.60,0,0,0,-0.07,-0.35,10.57,-0.20,-0.37,-0.90
9.979492,-0.008622413,0.029298307,0.13521896,-0.2,-0.37,-0.89,25636,10083.60,0,0,0,-0.84,-0.70,10.36,-0.20,-0.37,-0.89
9.979492,-0.016622413,0.05329831,0.13221896,-0.19,-0.37,-0.9,25658,10083.60,0,0,0,-1.40,0.98,10.15,-0.19,-0.37,-0.90
9.979492,-0.012622414,0.05829831,0.11521897,-0.19,-0.38,-0.89,25674,10083.60,0,0,0,-1.12,1.33,8.96,-0.19,-0.38,-0.89
9.979492,-0.0036224134,0.055298306,0.10221896,-0.19,-0.38,-0.88,25697,10083.60,0,0,0,-0.49,1.12,8.05,-0.19,-0.38,-0.88
9.580078,0.0013775867,0.039298307,0.08721896,-0.19,-0.37,-0.88,25711,10083.20,0,0,0,-0.14,0.00,7.00,-0.19,-0.37,-0.88
11.280273,0.002377587,0.010298308,0.062218964,-0.19,-0.38,-0.89,25734,10084.90,0,0,0,-0.07,-2.03,5.25,-0.19,-0.38,-0.89
10.979492,0.0013775867,-0.0017016903,0.052218966,-0.19,-0.37,-0.89,25748,10084.60,0,0,0,-0.14,-2.87,4.55,-0.19,-0.37,-0.89
9.580078,-0.0036224134,-0.0057016946,0.04021896,-0.2,-0.37,-0.89,25771,10083.20,0,0,0,-0.49,-3.15,3.71,-0.20,-0.37,-0.89
9.979492,-0.006622413,-0.0057016946,0.04421896,-0.2,-0.36,-0.9,25786,10083.60,0,0,0,-0.70,-3.15,3.99,-0.20,-0.36,-0.90
10.6796875,-0.0036224134,-0.0017016903,0.04821896,-0.2,-0.36,-0.9,25802,10084.30,0,0,0,-0.49,-2.87,4.27,-0.20,-0.36,-0.90
10.280273,3.7758704E-4,0.0022983067,0.05321896,-0.21,-0.36,-0.9,25824,10083.90,0,0,0,-0.21,-2.59,4.62,-0.21,-0.36,-0.90
9.979492,0.002377587,2.9830635E-4,0.05321896,-0.21,-0.36,-0.89,25839,10083.60,0,0,0,-0.07,-2.73,4.62,-0.21,-0.36,-0.89
9.979492,0.0033775868,-0.014701694,0.05721896,-0.2,-0.36,-0.9,25863,10083.60,0,0,0,0.00,-3.78,4.90,-0.20,-0.36,-0.90
9.979492,0.005377587,0.020298306,0.069218956,-0.2,-0.36,-0.9,25879,10083.60,0,0,0,0.14,-1.33,5.74,-0.20,-0.36,-0.90
9.580078,0.029377587,0.030298308,0.07821896,-0.2,-0.36,-0.9,25898,10083.20,0,0,0,1.82,-0.63,6.37,-0.20,-0.36,-0.90
10.979492,0.033377588,0.045298308,0.08221896,-0.21,-0.35,-0.91,25913,10084.60,0,0,0,2.10,0.42,6.65,-0.21,-0.35,-0.91
8.879883,0.046377588,0.10429831,0.13021897,-0.22,-0.34,-0.92,25936,10082.50,0,0,0,3.01,4.55,10.01,-0.22,-0.34,-0.92
8.879883,0.046377588,0.17229831,0.17721896,-0.23,-0.33,-0.91,25951,10082.50,0,0,0,3.01,9.31,13.30,-0.23,-0.33,-0.91
8.879883,0.058377586,0.18029831,0.24421896,-0.24,-0.34,-0.9,25973,10082.50,0,0,0,3.85,9.87,17.99,-0.24,-0.34,-0.90
8.879883,0.072377585,0.1812983,0.28821898,-0.24,-0.35,-0.89,25988,10082.50,0,0,0,4.83,9.94,21.07,-0.24,-0.35,-0.89
7.879883,0.07937759,0.18229832,0.328219,-0.22,-0.35,-0.89,26033,10081.50,0,0,0,5.32,10.01,23.87,-0.22,-0.35,-0.89
7.879883,0.08437759,0.1772983,0.34621894,-0.21,-0.36,-0.89,26035,10081.50,0,0,0,5.67,9.66,25.13,-0.21,-0.36,-0.89
7.879883,0.09637759,0.17329831,0.35721898,-0.2,-0.37,-0.89,26048,10081.50,0,0,0,6.51,9.38,25.90,-0.20,-0.37,-0.89
7.879883,0.10137759,0.17329831,0.36221898,-0.2,-0.37,-0.89,26063,10081.50,0,0,0,6.86,9.38,26.25,-0.20,-0.37,-0.89
5.1796875,0.10437759,0.17829831,0.36221898,-0.19,-0.37,-0.88,26081,10078.80,0,0,0,7.07,9.73,26.25,-0.19,-0.37,-0.88
5.879883,0.12437759,0.1462983,0.34121895,-0.18,-0.38,-0.87,26094,10079.50,0,0,0,8.47,7.49,24.78,-0.18,-0.38,-0.87
5.479492,0.1403776,0.11229831,0.32021898,-0.18,-0.38,-0.88,26116,10079.10,0,0,0,9.59,5.11,23.31,-0.18,-0.38,-0.88
4.7802734,0.14137758,0.11829831,0.30821896,-0.18,-0.37,-0.9,26132,10078.40,0,0,0,9.66,5.53,22.47,-0.18,-0.37,-0.90
4.7802734,0.1393776,0.1252983,0.30221897,-0.18,-0.37,-0.9,26153,10078.40,0,0,0,9.52,6.02,22.05,-0.18,-0.37,-0.90
4.7802734,0.12237758,0.12829831,0.27621895,-0.17,-0.39,-0.89,26169,10078.40,0,0,0,8.33,6.23,20.23,-0.17,-0.39,-0.89
3.4794922,0.11537759,0.1162983,0.23221895,-0.16,-0.4,-0.88,26191,10077.10,0,0,0,7.84,5.39,17.15,-0.16,-0.40,-0.88
2.3798828,0.11837759,0.09029831,0.13821895,-0.15,-0.42,-0.87,26213,10076.00,0,0,0,8.05,3.57,10.57,-0.15,-0.42,-0.87
1.7802734,0.11437759,0.06329831,0.05621896,-0.14,-0.43,-0.88,26229,10075.40,0,0,0,7.77,1.68,4.83,-0.14,-0.43,-0.88
1.3798828,0.13237758,0.059298307,-0.037781037,-0.15,-0.42,-0.87,26243,10075.00,0,0,0,9.03,1.40,-1.75,-0.15,-0.42,-0.87
2.0800781,0.1553776,0.037298307,-0.09378104,-0.16,-0.41,-0.87,26266,10075.70,0,0,0,10.64,-0.14,-5.67,-0.16,-0.41,-0.87
0.6796875,0.15837759,0.010298308,-0.13378105,-0.17,-0.4,-0.87,26282,10074.30,0,0,0,10.85,-2.03,-8.47,-0.17,-0.40,-0.87
0.6796875,0.15937759,-0.0077016912,-0.15578105,-0.18,-0.39,-0.88,26304,10074.30,0,0,0,10.92,-3.29,-10.01,-0.18,-0.39,-0.88
-0.3203125,0.1463776,-0.028701697,-0.16478105,-0.18,-0.39,-0.88,26318,10073.30,0,0,0,10.01,-4.76,-10.64,-0.18,-0.39,-0.88
-0.3203125,0.13237758,-0.014701694,-0.14078104,-0.19,-0.38,-0.88,26341,10073.30,0,0,0,9.03,-3.78,-8.96,-0.19,-0.38,-0.88
-1.0205078,0.15237759,-0.025701698,-0.11578104,-0.2,-0.38,-0.88,26356,10072.60,0,0,0,10.43,-4.55,-7.21,-0.20,-0.38,-0.88
-2.4199219,0.16937758,-0.024701696,-0.06378104,-0.21,-0.39,-0.86,26386,10071.20,0,0,0,11.62,-4.48,-3.57,-0.21,-0.39,-0.86
-2.0205078,0.20037758,-0.050701696,-0.02678104,-0.21,-0.39,-0.87,26393,10071.60,0,0,0,13.79,-6.30,-0.98,-0.21,-0.39,-0.87
-2.4199219,0.21837759,-0.057701696,0.009218961,-0.2,-0.39,-0.88,26416,10071.20,0,0,0,15.05,-6.79,1.54,-0.20,-0.39,-0.88
-4.120117,0.20737758,-0.05170169,0.037218962,-0.19,-0.41,-0.89,26431,10069.50,0,0,0,14.28,-6.37,3.50,-0.19,-0.41,-0.89
-4.419922,0.21037759,-0.014701694,0.058218956,-0.18,-0.42,-0.88,26454,10069.20,0,0,0,14.49,-3.78,4.97,-0.18,-0.42,-0.88
-4.419922,0.20837758,-0.0077016912,0.063218966,-0.18,-0.43,-0.86,26469,10069.20,0,0,0,14.35,-3.29,5.32,-0.18,-0.43,-0.86
-5.419922,0.2053776,-7.0169196E-4,0.06721896,-0.18,-0.43,-0.86,26492,10068.20,0,0,0,14.14,-2.80,5.60,-0.18,-0.43,-0.86
-5.419922,0.19137758,-0.009701695,0.059218958,-0.18,-0.45,-0.87,26506,10068.20,0,0,0,13.16,-3.43,5.04,-0.18,-0.45,-0.87
-6.520508,0.18537758,-0.025701698,0.050218962,-0.17,-0.45,-0.86,26529,10067.10,0,0,0,12.74,-4.55,4.41,-0.17,-0.45,-0.86
-8.520508,0.1833776,-0.022701696,0.03421896,-0.16,-0.46,-0.87,26544,10065.10,0,0,0,12.60,-4.34,3.29,-0.16,-0.46,-0.87
-8.520508,0.16537759,-0.020701692,-0.007781039,-0.15,-0.48,-0.87,26567,10065.10,0,0,0,11.34,-4.20,0.35,-0.15,-0.48,-0.87
-8.520508,0.1393776,-0.036701698,-0.053781036,-0.15,-0.48,-0.86,26582,10065.10,0,0,0,9.52,-5.32,-2.87,-0.15,-0.48,-0.86
-9.520508,0.109377585,-0.06570169,-0.10878103,-0.15,-0.49,-0.85,26604,10064.10,0,0,0,7.42,-7.35,-6.72,-0.15,-0.49,-0.85
-9.219727,0.09037759,-0.0967017,-0.15178104,-0.16,-0.48,-0.86,26619,10064.40,0,0,0,6.09,-9.52,-9.73,-0.16,-0.48,-0.86
-9.520508,0.06737759,-0.11470169,-0.19078104,-0.16,-0.48,-0.86,26648,10064.10,0,0,0,4.48,-10.78,-12.46,-0.16,-0.48,-0.86
-9.219727,0.050377585,-0.12670168,-0.20578104,-0.17,-0.48,-0.86,26664,10064.40,0,0,0,3.29,-11.62,-13.51,-0.17,-0.48,-0.86
-9.520508,0.047377586,-0.12770168,-0.21478105,-0.18,-0.47,-0.85,26686,10064.10,0,0,0,3.08,-11.69,-14.14,-0.18,-0.47,-0.85
-10.620117,0.049377587,-0.12670168,-0.20578104,-0.18,-0.47,-0.86,26701,10063.00,0,0,0,3.22,-11.62,-13.51,-0.18,-0.47,-0.86
-10.620117,0.035377588,-0.1217017,-0.19478104,-0.19,-0.46,-0.85,26716,10063.00,0,0,0,2.24,-11.27,-12.74,-0.19,-0.46,-0.85
-10.620117,0.021377586,-0.11670169,-0.18578103,-0.19,-0.46,-0.86,26738,10063.00,0,0,0,1.26,-10.92,-12.11,-0.19,-0.46,-0.86
-10.620117,0.011377587,-0.10670169,-0.17078105,-0.19,-0.46,-0.85,26754,10063.00,0,0,0,0.56,-10.22,-11.06,-0.19,-0.46,-0.85
-10.620117,0.005377587,-0.09470169,-0.15178104,-0.2,-0.47,-0.85,26779,10063.00,0,0,0,0.14,-9.38,-9.73,-0.20,-0.47,-0.85
-10.219727,0.013377586,-0.09470169,-0.13878104,-0.2,-0.47,-0.85,26791,10063.40,0,0,0,0.70,-9.38,-8.82,-0.20,-0.47,-0.85
-10.620117,0.014377587,-0.09270169,-0.12078104,-0.2,-0.47,-0.85,26807,10063.00,0,0,0,0.77,-9.24,-7.56,-0.20,-0.47,-0.85
-10.219727,0.019377587,-0.0967017,-0.10578104,-0.2,-0.46,-0.85,26829,10063.40,0,0,0,1.12,-9.52,-6.51,-0.20,-0.46,-0.85
-10.919922,0.012377586,-0.0827017,-0.08578104,-0.2,-0.47,-0.85,26843,10062.70,0,0,0,0.63,-8.54,-5.11,-0.20,-0.47,-0.85
-11.620117,0.015377586,-0.06470169,-0.074781045,-0.2,-0.47,-0.84,26866,10062.00,0,0,0,0.84,-7.28,-4.34,-0.20,-0.47,-0.84
-11.620117,0.016377587,-0.0697017,-0.08078104,-0.19,-0.48,-0.84,26881,10062.00,0,0,0,0.91,-7.63,-4.76,-0.19,-0.48,-0.84
-10.620117,0.023377586,-0.06570169,-0.08578104,-0.19,-0.48,-0.85,26904,10063.00,0,0,0,1.40,-7.35,-5.11,-0.19,-0.48,-0.85
-10.620117,0.035377588,-0.059701692,-0.08978104,-0.19,-0.48,-0.84,26926,10063.00,0,0,0,2.24,-6.93,-5.39,-0.19,-0.48,-0.84
-10.620117,0.028377587,-0.057701696,-0.08978104,-0.19,-0.48,-0.85,26940,10063.00,0,0,0,1.75,-6.79,-5.39,-0.19,-0.48,-0.85
-10.919922,0.014377587,-0.052701693,-0.09078104,-0.2,-0.48,-0.85,26964,10062.70,0,0,0,0.77,-6.44,-5.46,-0.20,-0.48,-0.85
-9.919922,0.002377587,-0.05570169,-0.09378104,-0.19,-0.48,-0.85,26979,10063.70,0,0,0,-0.07,-6.65,-5.67,-0.19,-0.48,-0.85
-9.520508,0.0033775868,-0.060701694,-0.08678104,-0.19,-0.48,-0.85,26994,10064.10,0,0,0,0.00,-7.00,-5.18,-0.19,-0.48,-0.85
-10.620117,0.010377587,-0.050701696,-0.08678104,-0.2,-0.48,-0.84,27016,10063.00,0,0,0,0.49,-6.30,-5.18,-0.20,-0.48,-0.84
-10.919922,0.0063775866,-0.041701693,-0.08078104,-0.2,-0.48,-0.85,27031,10062.70,0,0,0,0.21,-5.67,-4.76,-0.20,-0.48,-0.85
-10.219727,0.0063775866,-0.039701696,-0.06378104,-0.2,-0.48,-0.85,27054,10063.40,0,0,0,0.21,-5.53,-3.57,-0.20,-0.48,-0.85
-9.919922,0.0013775867,-0.04070169,-0.06378104,-0.2,-0.49,-0.84,27076,10063.70,0,0,0,-0.14,-5.60,-3.57,-0.20,-0.49,-0.84
-9.919922,-0.0076224133,-0.035701696,-0.05778104,-0.2,-0.48,-0.84,27091,10063.70,0,0,0,-0.77,-5.25,-3.15,-0.20,-0.48,-0.84
-9.919922,-0.0076224133,-0.039701696,-0.059781037,-0.2,-0.49,-0.84,27114,10063.70,0,0,0,-0.77,-5.53,-3.29,-0.20,-0.49,-0.84
-8.919922,-6.2241335E-4,-0.037701692,-0.05678104,-0.19,-0.49,-0.84,27128,10064.70,0,0,0,-0.28,-5.39,-3.08,-0.19,-0.49,-0.84
-8.919922,-0.0026224128,-0.036701698,-0.04978104,-0.2,-0.48,-0.84,27143,10064.70,0,0,0,-0.42,-5.32,-2.59,-0.20,-0.48,-0.84
-7.8203125,-0.017622413,-0.052701693,-0.04978104,-0.2,-0.48,-0.84,27167,10065.80,0,0,0,-1.47,-6.44,-2.59,-0.20,-0.48,-0.84
-9.520508,-0.017622413,-0.06570169,-0.052781038,-0.19,-0.49,-0.85,27181,10064.10,0,0,0,-1.47,-7.35,-2.80,-0.19,-0.49,-0.85
-7.8203125,-0.028622415,-0.04470169,-0.05778104,-0.19,-0.49,-0.84,27204,10065.80,0,0,0,-2.24,-5.88,-3.15,-0.19,-0.49,-0.84
-7.120117,-0.022622414,-0.042701688,-0.060781036,-0.19,-0.49,-0.84,27219,10066.50,0,0,0,-1.82,-5.74,-3.36,-0.19,-0.49,-0.84
-6.8203125,-0.019622413,-0.04370169,-0.066781044,-0.19,-0.48,-0.83,27233,10066.80,0,0,0,-1.61,-5.81,-3.78,-0.19,-0.48,-0.83
-6.8203125,-0.021622414,-0.041701693,-0.06178104,-0.19,-0.48,-0.83,27256,10066.80,0,0,0,-1.75,-5.67,-3.43,-0.19,-0.48,-0.83
-6.8203125,-0.017622413,-0.0687017,-0.07878104,-0.19,-0.48,-0.83,27271,10066.80,0,0,0,-1.47,-7.56,-4.62,-0.19,-0.48,-0.83
-6.8203125,-0.012622414,-0.07770169,-0.08578104,-0.19,-0.48,-0.84,27294,10066.80,0,0,0,-1.12,-8.19,-5.11,-0.19,-0.48,-0.84
-4.7197266,-0.011622413,-0.07870169,-0.099781044,-0.19,-0.48,-0.83,27309,10068.90,0,0,0,-1.05,-8.26,-6.09,-0.19,-0.48,-0.83
-6.8203125,0.005377587,-0.10970169,-0.117781036,-0.18,-0.48,-0.83,27332,10066.80,0,0,0,0.14,-10.43,-7.35,-0.18,-0.48,-0.83
-5.120117,0.009377587,-0.110701695,-0.12178104,-0.19,-0.49,-0.83,27346,10068.50,0,0,0,0.42,-10.50,-7.63,-0.19,-0.49,-0.83
-4.7197266,0.016377587,-0.11970168,-0.14378104,-0.19,-0.48,-0.84,27368,10068.90,0,0,0,0.91,-11.13,-9.17,-0.19,-0.48,-0.84
-5.120117,0.017377587,-0.1187017,-0.15678103,-0.19,-0.48,-0.84,27383,10068.50,0,0,0,0.98,-11.06,-10.08,-0.19,-0.48,-0.84
-4.120117,0.014377587,-0.1187017,-0.16478105,-0.2,-0.48,-0.85,27407,10069.50,0,0,0,0.77,-11.06,-10.64,-0.20,-0.48,-0.85
-3.7197266,3.7758704E-4,-0.10770169,-0.16278104,-0.2,-0.48,-0.85,27422,10069.90,0,0,0,-0.21,-10.29,-10.50,-0.20,-0.48,-0.85
-6.120117,-6.2241335E-4,-0.10770169,-0.15978104,-0.21,-0.48,-0.85,27443,10067.50,0,0,0,-0.28,-10.29,-10.29,-0.21,-0.48,-0.85
-1.0205078,-0.009622414,-0.10670169,-0.15478103,-0.21,-0.48,-0.85,27458,10072.60,0,0,0,-0.91,-10.22,-9.94,-0.21,-0.48,-0.85
-4.120117,-0.008622413,-0.10070169,-0.14778103,-0.21,-0.48,-0.85,27473,10069.50,0,0,0,-0.84,-9.80,-9.45,-0.21,-0.48,-0.85
-3.0205078,-0.004622414,-0.08970168,-0.13778104,-0.21,-0.48,-0.84,27497,10070.60,0,0,0,-0.56,-9.03,-8.75,-0.21,-0.48,-0.84
-2.0205078,-0.004622414,-0.0847017,-0.13378105,-0.21,-0.47,-0.85,27519,10071.60,0,0,0,-0.56,-8.68,-8.47,-0.21,-0.47,-0.85
-3.0205078,-0.0076224133,-0.0757017,-0.10978104,-0.22,-0.47,-0.86,27533,10070.60,0,0,0,-0.77,-8.05,-6.79,-0.22,-0.47,-0.86
-2.3203125,-0.012622414,-0.05170169,-0.08078104,-0.22,-0.47,-0.85,27549,10071.30,0,0,0,-1.12,-6.37,-4.76,-0.22,-0.47,-0.85
-2.0205078,-0.017622413,-0.034701694,-0.060781036,-0.22,-0.47,-0.83,27571,10071.60,0,0,0,-1.47,-5.18,-3.36,-0.22,-0.47,-0.83
-1.0205078,-0.019622413,-0.04370169,-0.048781037,-0.22,-0.47,-0.84,27594,10072.60,0,0,0,-1.61,-5.81,-2.52,-0.22,-0.47,-0.84
-2.3203125,-0.019622413,-0.027701695,-0.03478104,-0.21,-0.48,-0.84,27616,10071.30,0,0,0,-1.61,-4.69,-1.54,-0.21,-0.48,-0.84
0.080078125,-0.017622413,-0.035701696,-0.02578104,-0.21,-0.47,-0.84,27631,10073.70,0,0,0,-1.47,-5.25,-0.91,-0.21,-0.47,-0.84
0.080078125,-0.014622413,-0.025701698,-0.007781039,-0.21,-0.48,-0.84,27654,10073.70,0,0,0,-1.26,-4.55,0.35,-0.21,-0.48,-0.84
-0.3203125,-0.005622413,-0.009701695,0.0012189616,-0.21,-0.48,-0.83,27669,10073.30,0,0,0,-0.63,-3.43,0.98,-0.21,-0.48,-0.83
0.78027344,3.7758704E-4,-0.0047016926,0.0032189619,-0.22,-0.48,-0.83,27691,10074.40,0,0,0,-0.21,-3.08,1.12,-0.22,-0.48,-0.83
0.78027344,0.0043775868,-0.017701693,2.1896139E-4,-0.21,-0.48,-0.83,27706,10074.40,0,0,0,0.07,-3.99,0.91,-0.21,-0.48,-0.83
0.3798828,0.0013775867,-0.018701691,-0.0047810385,-0.21,-0.48,-0.84,27729,10074.00,0,0,0,-0.14,-4.06,0.56,-0.21,-0.48,-0.84
1.0800781,-0.009622414,-0.017701693,-0.007781039,-0.21,-0.48,-0.85,27744,10074.70,0,0,0,-0.91,-3.99,0.35,-0.21,-0.48,-0.85
2.0800781,-0.015622415,-0.010701694,-0.0047810385,-0.21,-0.48,-0.84,27766,10075.70,0,0,0,-1.33,-3.50,0.56,-0.21,-0.48,-0.84
1.7802734,-0.011622413,2.9830635E-4,-7.810397E-4,-0.21,-0.49,-0.84,27781,10075.40,0,0,0,-1.05,-2.73,0.84,-0.21,-0.49,-0.84
2.7802734,-0.010622414,-0.011701692,0.0012189616,-0.21,-0.48,-0.84,27803,10076.40,0,0,0,-0.98,-3.57,0.98,-0.21,-0.48,-0.84
-0.3203125,-0.012622414,-0.0057016946,-0.0017810389,-0.22,-0.48,-0.84,27818,10073.30,0,0,0,-1.12,-3.15,0.77,-0.22,-0.48,-0.84
1.7802734,-0.011622413,-0.025701698,0.0052189603,-0.21,-0.48,-0.85,27833,10075.40,0,0,0,-1.05,-4.55,1.26,-0.21,-0.48,-0.85
3.0800781,-0.018622413,0.0032983087,0.01721896,-0.21,-0.47,-0.85,27856,10076.70,0,0,0,-1.54,-2.52,2.10,-0.21,-0.47,-0.85
2.7802734,-0.014622413,0.012298306,0.01721896,-0.21,-0.48,-0.84,27871,10076.40,0,0,0,-1.26,-1.89,2.10,-0.21,-0.48,-0.84
2.7802734,-0.015622415,0.0072983056,0.010218961,-0.21,-0.48,-0.84,27886,10076.40,0,0,0,-1.33,-2.24,1.61,-0.21,-0.48,-0.84
3.7802734,-0.015622415,0.013298307,0.010218961,-0.21,-0.48,-0.83,27901,10077.40,0,0,0,-1.33,-1.82,1.61,-0.21,-0.48,-0.83
2.7802734,-0.013622414,0.014298307,0.010218961,-0.21,-0.48,-0.84,27924,10076.40,0,0,0,-1.19,-1.75,1.61,-0.21,-0.48,-0.84
3.7802734,-0.004622414,0.017298307,0.0072189607,-0.2,-0.47,-0.83,27946,10077.40,0,0,0,-0.56,-1.54,1.40,-0.20,-0.47,-0.83
4.879883,-0.0076224133,0.011298306,0.010218961,-0.21,-0.48,-0.84,27962,10078.50,0,0,0,-0.77,-1.96,1.61,-0.21,-0.48,-0.84
3.4794922,-0.008622413,0.0032983087,0.004218962,-0.2,-0.47,-0.84,27983,10077.10,0,0,0,-0.84,-2.52,1.19,-0.20,-0.47,-0.84
4.879883,-0.010622414,0.013298307,0.008218961,-0.2,-0.47,-0.84,27999,10078.50,0,0,0,-0.98,-1.82,1.47,-0.20,-0.47,-0.84
4.879883,-0.008622413,0.014298307,0.0072189607,-0.21,-0.47,-0.84,28021,10078.50,0,0,0,-0.84,-1.75,1.40,-0.21,-0.47,-0.84
5.479492,-0.004622414,0.017298307,0.0072189607,-0.21,-0.47,-0.84,28036,10079.10,0,0,0,-0.56,-1.54,1.40,-0.21,-0.47,-0.84
4.879883,-0.004622414,0.009298308,0.0122189615,-0.2,-0.47,-0.85,28059,10078.50,0,0,0,-0.56,-2.10,1.75,-0.20,-0.47,-0.85
4.879883,0.0033775868,0.0032983087,0.01621896,-0.2,-0.48,-0.84,28074,10078.50,0,0,0,0.00,-2.52,2.03,-0.20,-0.48,-0.84
4.879883,0.0033775868,0.0032983087,0.0122189615,-0.2,-0.48,-0.84,28096,10078.50,0,0,0,0.00,-2.52,1.75,-0.20,-0.48,-0.84
5.879883,0.005377587,0.012298306,0.010218961,-0.2,-0.48,-0.83,28111,10079.50,0,0,0,0.14,-1.89,1.61,-0.20,-0.48,-0.83
4.879883,3.7758704E-4,0.0032983087,0.009218961,-0.2,-0.48,-0.84,28134,10078.50,0,0,0,-0.21,-2.52,1.54,-0.20,-0.48,-0.84
4.879883,-0.001622413,-0.0027016923,2.1896139E-4,-0.2,-0.47,-0.85,28149,10078.50,0,0,0,-0.35,-2.94,0.91,-0.20,-0.47,-0.85
5.879883,-0.005622413,-0.010701694,-0.009781039,-0.2,-0.48,-0.85,28171,10079.50,0,0,0,-0.63,-3.50,0.21,-0.20,-0.48,-0.85
4.879883,-0.010622414,-0.00870169,-0.008781038,-0.2,-0.47,-0.84,28187,10078.50,0,0,0,-0.98,-3.36,0.28,-0.20,-0.47,-0.84
6.1796875,0.0063775866,0.0012983046,-0.0057810387,-0.21,-0.47,-0.84,28209,10079.80,0,0,0,0.21,-2.66,0.49,-0.21,-0.47,-0.84
5.879883,0.012377586,-0.0037016943,-0.0067810393,-0.21,-0.47,-0.83,28224,10079.50,0,0,0,0.63,-3.01,0.42,-0.21,-0.47,-0.83
7.580078,0.011377587,-0.026701692,-0.0047810385,-0.21,-0.47,-0.84,28246,10081.20,0,0,0,0.56,-4.62,0.56,-0.21,-0.47,-0.84
6.879883,0.016377587,-0.030701693,-0.002781039,-0.21,-0.47,-0.85,28262,10080.50,0,0,0,0.91,-4.90,0.70,-0.21,-0.47,-0.85
7.879883,0.017377587,-0.014701694,-0.0057810387,-0.2,-0.47,-0.85,28283,10081.50,0,0,0,0.98,-3.78,0.49,-0.20,-0.47,-0.85
6.879883,0.010377587,-0.0027016923,-0.0037810393,-0.2,-0.47,-0.85,28298,10080.50,0,0,0,0.49,-2.94,0.63,-0.20,-0.47,-0.85
6.879883,0.0063775866,0.010298308,-0.0047810385,-0.2,-0.48,-0.84,28313,10080.50,0,0,0,0.21,-2.03,0.56,-0.20,-0.48,-0.84
7.879883,0.021377586,-0.0027016923,-0.007781039,-0.21,-0.48,-0.83,28336,10081.50,0,0,0,1.26,-2.94,0.35,-0.21,-0.48,-0.83
8.979492,0.033377588,-0.022701696,-0.007781039,-0.21,-0.47,-0.84,28358,10082.60,0,0,0,2.10,-4.34,0.35,-0.21,-0.47,-0.84
8.979492,0.029377587,-0.028701697,-0.002781039,-0.21,-0.47,-0.84,28373,10082.60,0,0,0,1.82,-4.76,0.70,-0.21,-0.47,-0.84
8.979492,0.014377587,-0.020701692,0.0052189603,-0.21,-0.47,-0.85,28397,10082.60,0,0,0,0.77,-4.20,1.26,-0.21,-0.47,-0.85
8.979492,0.015377586,-0.0057016946,0.009218961,-0.21,-0.48,-0.84,28411,10082.60,0,0,0,0.84,-3.15,1.54,-0.21,-0.48,-0.84
7.879883,0.016377587,-0.009701695,0.0062189624,-0.21,-0.48,-0.84,28426,10081.50,0,0,0,0.91,-3.43,1.33,-0.21,-0.48,-0.84
8.979492,0.013377586,0.0052983053,0.013218962,-0.21,-0.48,-0.83,28449,10082.60,0,0,0,0.70,-2.38,1.82,-0.21,-0.48,-0.83
7.879883,0.024377586,0.0052983053,0.010218961,-0.22,-0.48,-0.84,28464,10081.50,0,0,0,1.47,-2.38,1.61,-0.22,-0.48,-0.84
7.879883,0.010377587,-0.011701692,0.0052189603,-0.22,-0.47,-0.85,28486,10081.50,0,0,0,0.49,-3.57,1.26,-0.22,-0.47,-0.85
7.879883,0.013377586,-0.009701695,0.011218959,-0.21,-0.47,-0.85,28509,10081.50,0,0,0,0.70,-3.43,1.68,-0.21,-0.47,-0.85
7.879883,0.013377586,0.029298307,0.020218961,-0.21,-0.48,-0.84,28524,10081.50,0,0,0,0.70,-0.70,2.31,-0.21,-0.48,-0.84
9.280273,0.0043775868,0.009298308,0.011218959,-0.21,-0.48,-0.83,28546,10082.90,0,0,0,0.07,-2.10,1.68,-0.21,-0.48,-0.83
8.979492,3.7758704E-4,-0.00870169,0.015218962,-0.21,-0.48,-0.84,28561,10082.60,0,0,0,-0.21,-3.36,1.96,-0.21,-0.48,-0.84
9.580078,0.0063775866,-0.0017016903,0.0072189607,-0.21,-0.48,-0.84,28583,10083.20,0,0,0,0.21,-2.87,1.40,-0.21,-0.48,-0.84
7.879883,0.0013775867,0.0022983067,0.0062189624,-0.21,-0.47,-0.85,28599,10081.50,0,0,0,-0.14,-2.59,1.33,-0.21,-0.47,-0.85
7.1796875,3.7758704E-4,0.011298306,0.01721896,-0.21,-0.47,-0.84,28613,10080.80,0,0,0,-0.21,-1.96,2.10,-0.21,-0.47,-0.84
7.1796875,0.002377587,0.0062983073,0.0122189615,-0.21,-0.47,-0.84,28636,10080.80,0,0,0,-0.07,-2.31,1.75,-0.21,-0.47,-0.84
7.580078,0.0013775867,0.0072983056,0.011218959,-0.21,-0.48,-0.83,28658,10081.20,0,0,0,-0.14,-2.24,1.68,-0.21,-0.48,-0.83
6.879883,0.005377587,-7.0169196E-4,0.008218961,-0.21,-0.47,-0.84,28673,10080.50,0,0,0,0.14,-2.80,1.47,-0.21,-0.47,-0.84
6.1796875,0.012377586,0.004298307,0.0032189619,-0.21,-0.48,-0.83,28696,10079.80,0,0,0,0.63,-2.45,1.12,-0.21,-0.48,-0.83
7.1796875,0.010377587,-0.0017016903,0.0052189603,-0.21,-0.47,-0.84,28710,10080.80,0,0,0,0.49,-2.87,1.26,-0.21,-0.47,-0.84
7.1796875,0.0063775866,-0.00870169,-0.0057810387,-0.21,-0.48,-0.83,28733,10080.80,0,0,0,0.21,-3.36,0.49,-0.21,-0.48,-0.83
7.580078,0.021377586,-0.014701694,-0.0037810393,-0.21,-0.48,-0.84,28749,10081.20,0,0,0,1.26,-3.78,0.63,-0.21,-0.48,-0.84
7.580078,0.021377586,0.0022983067,-0.0037810393,-0.22,-0.48,-0.84,28771,10081.20,0,0,0,1.26,-2.59,0.63,-0.22,-0.48,-0.84
6.1796875,0.013377586,0.009298308,-0.007781039,-0.22,-0.48,-0.85,28786,10079.80,0,0,0,0.70,-2.10,0.35,-0.22,-0.48,-0.85
7.1796875,-6.2241335E-4,0.021298308,-0.0047810385,-0.22,-0.48,-0.84,28801,10080.80,0,0,0,-0.28,-1.26,0.56,-0.22,-0.48,-0.84
7.1796875,-0.009622414,0.013298307,-7.810397E-4,-0.21,-0.47,-0.85,28817,10080.80,0,0,0,-0.91,-1.82,0.84,-0.21,-0.47,-0.85
6.1796875,-0.035622414,0.028298307,0.0122189615,-0.21,-0.47,-0.86,28839,10079.80,0,0,0,-2.73,-0.77,1.75,-0.21,-0.47,-0.86
6.1796875,-0.010622414,0.028298307,0.015218962,-0.21,-0.47,-0.85,28854,10079.80,0,0,0,-0.98,-0.77,1.96,-0.21,-0.47,-0.85
6.1796875,-0.001622413,0.03629831,0.01621896,-0.21,-0.49,-0.83,28876,10079.80,0,0,0,-0.35,-0.21,2.03,-0.21,-0.49,-0.83
7.1796875,0.014377587,-0.018701691,0.004218962,-0.21,-0.47,-0.84,28891,10080.80,0,0,0,0.77,-4.06,1.19,-0.21,-0.47,-0.84
6.1796875,0.0083775865,-0.009701695,0.0022189608,-0.21,-0.47,-0.85,28914,10079.80,0,0,0,0.35,-3.43,1.05,-0.21,-0.47,-0.85
6.580078,3.7758704E-4,-0.011701692,0.011218959,-0.21,-0.47,-0.85,28929,10080.20,0,0,0,-0.21,-3.57,1.68,-0.21,-0.47,-0.85
6.1796875,-0.009622414,0.015298309,0.010218961,-0.2,-0.47,-0.85,28951,10079.80,0,0,0,-0.91,-1.68,1.61,-0.20,-0.47,-0.85
7.1796875,-0.0026224128,0.040298305,0.021218963,-0.21,-0.48,-0.83,28967,10080.80,0,0,0,-0.42,0.07,2.38,-0.21,-0.48,-0.83
7.580078,0.011377587,0.032298308,0.0062189624,-0.21,-0.48,-0.82,28988,10081.20,0,0,0,0.56,-0.49,1.33,-0.21,-0.48,-0.82
7.1796875,0.012377586,-0.0047016926,0.004218962,-0.21,-0.48,-0.83,29004,10080.80,0,0,0,0.63,-3.08,1.19,-0.21,-0.48,-0.83
8.580078,0.019377587,-0.010701694,0.0022189608,-0.2,-0.48,-0.84,29026,10082.20,0,0,0,1.12,-3.50,1.05,-0.20,-0.48,-0.84
8.580078,0.0083775865,-0.009701695,-0.002781039,-0.2,-0.48,-0.84,29041,10082.20,0,0,0,0.35,-3.43,0.70,-0.20,-0.48,-0.84
8.280273,0.015377586,-0.0017016903,-0.008781038,-0.2,-0.48,-0.84,29064,10081.90,0,0,0,0.84,-2.87,0.28,-0.20,-0.48,-0.84
7.1796875,0.022377588,-0.011701692,-0.009781039,-0.2,-0.48,-0.84,29080,10080.80,0,0,0,1.33,-3.57,0.21,-0.20,-0.48,-0.84
9.580078,0.028377587,-0.0077016912,-0.011781039,-0.21,-0.47,-0.84,29101,10083.20,0,0,0,1.75,-3.29,0.07,-0.21,-0.47,-0.84
9.580078,0.014377587,-0.011701692,-0.010781039,-0.21,-0.48,-0.84,29116,10083.20,0,0,0,0.77,-3.57,0.14,-0.21,-0.48,-0.84
9.280273,0.0083775865,-0.038701694,-0.017781038,-0.2,-0.48,-0.85,29139,10082.90,0,0,0,0.35,-5.46,-0.35,-0.20,-0.48,-0.85
8.580078,0.0043775868,-0.023701694,-0.02078104,-0.2,-0.48,-0.85,29153,10082.20,0,0,0,0.07,-4.41,-0.56,-0.20,-0.48,-0.85
8.280273,-0.0036224134,-0.013701692,-0.018781038,-0.2,-0.48,-0.85,29176,10081.90,0,0,0,-0.49,-3.71,-0.42,-0.20,-0.48,-0.85
8.580078,-0.013622414,-0.015701693,-0.02778104,-0.21,-0.48,-0.84,29191,10082.20,0,0,0,-1.19,-3.85,-1.05,-0.21,-0.48,-0.84
9.580078,-0.008622413,-0.034701694,-0.02678104,-0.21,-0.47,-0.85,29214,10083.20,0,0,0,-0.84,-5.18,-0.98,-0.21,-0.47,-0.85
9.580078,-0.015622415,-0.025701698,-0.030781038,-0.21,-0.48,-0.85,29229,10083.20,0,0,0,-1.33,-4.55,-1.26,-0.21,-0.48,-0.85
8.580078,-0.018622413,-0.019701693,-0.023781039,-0.21,-0.47,-0.85,29251,10082.20,0,0,0,-1.54,-4.13,-0.77,-0.21,-0.47,-0.85
8.580078,-0.024622414,-0.015701693,-0.02678104,-0.21,-0.47,-0.84,29267,10082.20,0,0,0,-1.96,-3.85,-0.98,-0.21,-0.47,-0.84
8.580078,-0.022622414,-0.018701691,-0.02578104,-0.21,-0.48,-0.84,29289,10082.20,0,0,0,-1.82,-4.06,-0.91,-0.21,-0.48,-0.84
8.580078,-0.016622413,-0.021701694,-0.02678104,-0.21,-0.47,-0.84,29303,10082.20,0,0,0,-1.40,-4.27,-0.98,-0.21,-0.47,-0.84
6.580078,-0.023622414,-0.027701695,-0.02078104,-0.21,-0.46,-0.85,29326,10080.20,0,0,0,-1.89,-4.69,-0.56,-0.21,-0.46,-0.85
6.580078,-0.024622414,-0.019701693,-0.011781039,-0.21,-0.48,-0.84,29341,10080.20,0,0,0,-1.96,-4.13,0.07,-0.21,-0.48,-0.84
7.879883,-0.0076224133,-0.030701693,-0.019781038,-0.21,-0.49,-0.84,29363,10081.50,0,0,0,-0.77,-4.90,-0.49,-0.21,-0.49,-0.84
6.580078,0.0043775868,-0.024701696,-0.02878104,-0.2,-0.48,-0.83,29378,10080.20,0,0,0,0.07,-4.48,-1.12,-0.20,-0.48,-0.83
4.479492,0.0073775873,-0.015701693,-0.02878104,-0.2,-0.48,-0.84,29401,10078.10,0,0,0,0.28,-3.85,-1.12,-0.20,-0.48,-0.84
5.479492,-0.009622414,-0.017701693,-0.03878104,-0.21,-0.47,-0.83,29416,10079.10,0,0,0,-0.91,-3.99,-1.82,-0.21,-0.47,-0.83
5.879883,-0.011622413,-0.024701696,-0.04278104,-0.2,-0.48,-0.83,29430,10079.50,0,0,0,-1.05,-4.48,-2.10,-0.20,-0.48,-0.83
4.479492,-0.015622415,-0.034701694,-0.05878104,-0.21,-0.47,-0.84,29454,10078.10,0,0,0,-1.33,-5.18,-3.22,-0.21,-0.47,-0.84
2.3798828,-0.005622413,-0.04070169,-0.062781036,-0.2,-0.48,-0.83,29469,10076.00,0,0,0,-0.63,-5.60,-3.50,-0.20,-0.48,-0.83
2.3798828,-0.0036224134,-0.04370169,-0.069781035,-0.21,-0.48,-0.83,29491,10076.00,0,0,0,-0.49,-5.81,-3.99,-0.21,-0.48,-0.83
2.3798828,0.002377587,-0.048701692,-0.077781044,-0.2,-0.49,-0.83,29506,10076.00,0,0,0,-0.07,-6.16,-4.55,-0.20,-0.49,-0.83
2.7802734,0.025377586,-0.020701692,-0.08678104,-0.21,-0.49,-0.83,29529,10076.40,0,0,0,1.54,-4.20,-5.18,-0.21,-0.49,-0.83
0.6796875,0.033377588,-0.020701692,-0.084781036,-0.21,-0.49,-0.83,29543,10074.30,0,0,0,2.10,-4.20,-5.04,-0.21,-0.49,-0.83
0.6796875,0.03437759,2.9830635E-4,-0.07278104,-0.22,-0.48,-0.84,29567,10074.30,0,0,0,2.17,-2.73,-4.20,-0.22,-0.48,-0.84
-1.3203125,0.03737759,-0.027701695,-0.048781037,-0.23,-0.47,-0.86,29581,10072.30,0,0,0,2.38,-4.69,-2.52,-0.23,-0.47,-0.86
-5.8203125,0.018377587,-0.04070169,-0.010781039,-0.24,-0.45,-0.87,29603,10067.80,0,0,0,1.05,-5.60,0.14,-0.24,-0.45,-0.87
-2.7197266,-0.005622413,-0.053701695,0.01721896,-0.24,-0.45,-0.86,29619,10070.90,0,0,0,-0.63,-6.51,2.10,-0.24,-0.45,-0.86
-3.4199219,-0.022622414,-0.0827017,0.035218958,-0.24,-0.46,-0.84,29633,10070.20,0,0,0,-1.82,-8.54,3.36,-0.24,-0.46,-0.84
-3.4199219,-0.059622414,-0.12770168,0.04221896,-0.22,-0.49,-0.83,29656,10070.20,0,0,0,-4.41,-11.69,3.85,-0.22,-0.49,-0.83
-6.120117,-0.048622414,-0.12770168,0.0012189616,-0.21,-0.51,-0.81,29671,10067.50,0,0,0,-3.64,-11.69,0.98,-0.21,-0.51,-0.81
-5.419922,-0.04362241,-0.14170168,-0.053781036,-0.21,-0.51,-0.83,29693,10068.20,0,0,0,-3.29,-12.67,-2.87,-0.21,-0.51,-0.83
-4.419922,-0.053622413,-0.12370169,-0.110781044,-0.21,-0.5,-0.83,29709,10069.20,0,0,0,-3.99,-11.41,-6.86,-0.21,-0.50,-0.83
-5.419922,-0.06662241,-0.105701685,-0.14278105,-0.23,-0.49,-0.82,29731,10068.20,0,0,0,-4.90,-10.15,-9.10,-0.23,-0.49,-0.82
-5.419922,-0.053622413,-0.08670169,-0.16078104,-0.25,-0.46,-0.83,29747,10068.20,0,0,0,-3.99,-8.82,-10.36,-0.25,-0.46,-0.83
-5.419922,-0.07562242,-0.09370169,-0.14278105,-0.25,-0.46,-0.84,29769,10068.20,0,0,0,-5.53,-9.31,-9.10,-0.25,-0.46,-0.84
-5.419922,-0.07662241,-0.10270168,-0.13878104,-0.22,-0.46,-0.84,29784,10068.20,0,0,0,-5.60,-9.94,-8.82,-0.22,-0.46,-0.84
-6.520508,-0.074622415,-0.09370169,-0.12078104,-0.21,-0.48,-0.85,29806,10067.10,0,0,0,-5.46,-9.31,-7.56,-0.21,-0.48,-0.85
-6.8203125,-0.050622415,-0.0687017,-0.12178104,-0.2,-0.49,-0.85,29822,10066.80,0,0,0,-3.78,-7.56,-7.63,-0.20,-0.49,-0.85
-6.520508,-0.009622414,-0.050701696,-0.15878104,-0.2,-0.49,-0.84,29844,10067.10,0,0,0,-0.91,-6.30,-10.22,-0.20,-0.49,-0.84
-6.520508,-0.021622414,-0.061701696,-0.16878104,-0.2,-0.47,-0.85,29866,10067.10,0,0,0,-1.75,-7.07,-10.92,-0.20,-0.47,-0.85
-6.520508,-0.027622415,-0.07770169,-0.19378103,-0.19,-0.47,-0.85,29881,10067.10,0,0,0,-2.17,-8.19,-12.67,-0.19,-0.47,-0.85
-7.520508,-0.029622413,-0.073701695,-0.21178104,-0.18,-0.48,-0.84,29903,10066.10,0,0,0,-2.31,-7.91,-13.93,-0.18,-0.48,-0.84
-6.520508,-0.035622414,-0.08970168,-0.25778103,-0.18,-0.49,-0.84,29926,10067.10,0,0,0,-2.73,-9.03,-17.15,-0.18,-0.49,-0.84
-6.520508,-0.029622413,-0.11670169,-0.30178106,-0.17,-0.49,-0.83,29942,10067.10,0,0,0,-2.31,-10.92,-20.23,-0.17,-0.49,-0.83
-6.520508,-0.012622414,-0.1347017,-0.33078104,-0.17,-0.48,-0.84,29963,10067.10,0,0,0,-1.12,-12.18,-22.26,-0.17,-0.48,-0.84
-6.520508,-0.014622413,-0.10470168,-0.33578104,-0.17,-0.46,-0.84,29978,10067.10,0,0,0,-1.26,-10.08,-22.61,-0.17,-0.46,-0.84
-6.520508,-0.0036224134,-0.103701696,-0.337781,-0.19,-0.46,-0.83,29993,10067.10,0,0,0,-0.49,-10.01,-22.75,-0.19,-0.46,-0.83
-6.120117,0.017377587,-0.08670169,-0.32978106,-0.19,-0.46,-0.83,30016,10067.50,0,0,0,0.98,-8.82,-22.19,-0.19,-0.46,-0.83
-6.520508,0.031377587,-0.0907017,-0.31678104,-0.19,-0.46,-0.83,30031,10067.10,0,0,0,1.96,-9.10,-21.28,-0.19,-0.46,-0.83
-6.520508,0.062377587,-0.0847017,-0.30178106,-0.19,-0.47,-0.83,30053,10067.10,0,0,0,4.13,-8.68,-20.23,-0.19,-0.47,-0.83
-6.520508,0.08937759,-0.09470169,-0.28478104,-0.2,-0.47,-0.83,30076,10067.10,0,0,0,6.02,-9.38,-19.04,-0.20,-0.47,-0.83
-6.520508,0.11237759,-0.0757017,-0.26278102,-0.21,-0.47,-0.83,30091,10067.10,0,0,0,7.63,-8.05,-17.50,-0.21,-0.47,-0.83
-6.520508,0.12237758,-0.07770169,-0.23778103,-0.21,-0.47,-0.82,30106,10067.10,0,0,0,8.33,-8.19,-15.75,-0.21,-0.47,-0.82
-5.8203125,0.10837758,-0.09570168,-0.20978104,-0.21,-0.48,-0.82,30121,10067.80,0,0,0,7.35,-9.45,-13.79,-0.21,-0.48,-0.82
-4.419922,0.11237759,-0.098701686,-0.18978104,-0.21,-0.48,-0.82,30143,10069.20,0,0,0,7.63,-9.66,-12.39,-0.21,-0.48,-0.82
-5.419922,0.12437759,-0.0967017,-0.15978104,-0.22,-0.49,-0.8,30158,10068.20,0,0,0,8.47,-9.52,-10.29,-0.22,-0.49,-0.80
-3.4199219,0.1463776,-0.15270168,-0.14378104,-0.23,-0.5,-0.8,30181,10070.20,0,0,0,10.01,-13.44,-9.17,-0.23,-0.50,-0.80
-5.419922,0.17037758,-0.17970169,-0.13478103,-0.23,-0.5,-0.81,30211,10068.20,0,0,0,11.69,-15.33,-8.54,-0.23,-0.50,-0.81
-5.419922,0.18937759,-0.18270169,-0.11978103,-0.23,-0.5,-0.82,30226,10068.20,0,0,0,13.02,-15.54,-7.49,-0.23,-0.50,-0.82
-4.419922,0.18537758,-0.15770169,-0.110781044,-0.23,-0.51,-0.82,30241,10069.20,0,0,0,12.74,-13.79,-6.86,-0.23,-0.51,-0.82
-4.419922,0.17537759,-0.13970168,-0.09678104,-0.24,-0.51,-0.82,30263,10069.20,0,0,0,12.04,-12.53,-5.88,-0.24,-0.51,-0.82
-4.419922,0.18137759,-0.113701686,-0.084781036,-0.25,-0.51,-0.82,30271,10069.20,0,0,0,12.46,-10.71,-5.04,-0.25,-0.51,-0.82
-3.7197266,0.16737758,-0.10970169,-0.05678104,-0.26,-0.51,-0.82,30297,10069.90,0,0,0,11.48,-10.43,-3.08,-0.26,-0.51,-0.82
-2.4199219,0.14937758,-0.11970168,-0.03278104,-0.26,-0.52,-0.83,30316,10071.20,0,0,0,10.22,-11.13,-1.40,-0.26,-0.52,-0.83
-2.4199219,0.1333776,-0.110701695,0.004218962,-0.25,-0.52,-0.84,30332,10071.20,0,0,0,9.10,-10.50,1.19,-0.25,-0.52,-0.84
-1.7197266,0.11737759,-0.076701686,0.02721896,-0.25,-0.53,-0.83,30354,10071.90,0,0,0,7.98,-8.12,2.80,-0.25,-0.53,-0.83
-1.3203125,0.10037759,-0.031701688,0.04521896,-0.24,-0.54,-0.82,30369,10072.30,0,0,0,6.79,-4.97,4.06,-0.24,-0.54,-0.82
-1.3203125,0.08237759,-0.021701694,0.049218964,-0.25,-0.54,-0.82,30391,10072.30,0,0,0,5.53,-4.27,4.34,-0.25,-0.54,-0.82
-1.7197266,0.05237759,-0.011701692,0.058218956,-0.25,-0.54,-0.82,30406,10071.90,0,0,0,3.43,-3.57,4.97,-0.25,-0.54,-0.82
-1.3203125,0.04137759,-0.016701695,0.059218958,-0.24,-0.53,-0.82,30429,10072.30,0,0,0,2.66,-3.92,5.04,-0.24,-0.53,-0.82
-0.6201172,0.0073775873,-0.012701694,0.061218962,-0.24,-0.53,-0.82,30451,10073.00,0,0,0,0.28,-3.64,5.18,-0.24,-0.53,-0.82
-0.3203125,3.7758704E-4,-7.0169196E-4,0.061218962,-0.24,-0.53,-0.8,30467,10073.30,0,0,0,-0.21,-2.80,5.18,-0.24,-0.53,-0.80
-0.6201172,0.002377587,-0.0057016946,0.049218964,-0.24,-0.53,-0.79,30489,10073.00,0,0,0,-0.07,-3.15,4.34,-0.24,-0.53,-0.79
0.3798828,0.002377587,-0.009701695,0.052218966,-0.24,-0.52,-0.8,30503,10074.00,0,0,0,-0.07,-3.43,4.55,-0.24,-0.52,-0.80
-0.020507812,-0.019622413,0.015298309,0.049218964,-0.24,-0.53,-0.8,30526,10073.60,0,0,0,-1.61,-1.68,4.34,-0.24,-0.53,-0.80
1.0800781,-0.018622413,0.027298309,0.04421896,-0.23,-0.53,-0.8,30541,10074.70,0,0,0,-1.54,-0.84,3.99,-0.23,-0.53,-0.80
0.3798828,0.005377587,0.03829831,0.03121896,-0.23,-0.53,-0.81,30563,10074.00,0,0,0,0.14,-0.07,3.08,-0.23,-0.53,-0.81
0.3798828,0.018377587,0.055298306,0.035218958,-0.23,-0.52,-0.81,30578,10074.00,0,0,0,1.05,1.12,3.36,-0.23,-0.52,-0.81
1.3798828,0.025377586,0.066298306,0.037218962,-0.23,-0.53,-0.8,30596,10075.00,0,0,0,1.54,1.89,3.50,-0.23,-0.53,-0.80
1.3798828,0.045377586,0.051298305,0.02321896,-0.23,-0.53,-0.8,30616,10075.00,0,0,0,2.94,0.84,2.52,-0.23,-0.53,-0.80
1.3798828,0.04837759,0.042298306,0.018218962,-0.23,-0.53,-0.81,30631,10075.00,0,0,0,3.15,0.21,2.17,-0.23,-0.53,-0.81
2.7802734,0.04837759,0.0722983,0.018218962,-0.22,-0.53,-0.81,30654,10076.40,0,0,0,3.15,2.31,2.17,-0.22,-0.53,-0.81
2.3798828,0.043377586,0.07529831,0.01721896,-0.23,-0.53,-0.8,30669,10076.00,0,0,0,2.80,2.52,2.10,-0.23,-0.53,-0.80
3.4794922,0.026377587,0.05329831,0.015218962,-0.22,-0.53,-0.82,30690,10077.10,0,0,0,1.61,0.98,1.96,-0.22,-0.53,-0.82
3.4794922,0.019377587,0.062298305,0.01621896,-0.22,-0.53,-0.81,30706,10077.10,0,0,0,1.12,1.61,2.03,-0.22,-0.53,-0.81
3.4794922,0.024377586,0.07429831,0.022218961,-0.22,-0.54,-0.8,30729,10077.10,0,0,0,1.47,2.45,2.45,-0.22,-0.54,-0.80
3.4794922,0.031377587,0.05829831,0.01721896,-0.22,-0.53,-0.8,30743,10077.10,0,0,0,1.96,1.33,2.10,-0.22,-0.53,-0.80
4.479492,0.036377586,0.03829831,0.026218962,-0.22,-0.53,-0.8,30766,10078.10,0,0,0,2.31,-0.07,2.73,-0.22,-0.53,-0.80
4.479492,0.023377586,0.039298307,0.03821896,-0.22,-0.53,-0.81,30780,10078.10,0,0,0,1.40,0.00,3.57,-0.22,-0.53,-0.81
6.580078,0.019377587,0.057298306,0.054218963,-0.22,-0.53,-0.8,30803,10080.20,0,0,0,1.12,1.26,4.69,-0.22,-0.53,-0.80
4.479492,0.0063775866,0.037298307,0.050218962,-0.22,-0.53,-0.8,30818,10078.10,0,0,0,0.21,-0.14,4.41,-0.22,-0.53,-0.80
5.479492,-0.0026224128,0.018298307,0.05721896,-0.21,-0.54,-0.79,30833,10079.10,0,0,0,-0.42,-1.47,4.90,-0.21,-0.54,-0.79
5.479492,-0.011622413,0.0022983067,0.049218964,-0.21,-0.55,-0.8,30856,10079.10,0,0,0,-1.05,-2.59,4.34,-0.21,-0.55,-0.80
5.479492,-0.010622414,-0.0037016943,0.03421896,-0.21,-0.55,-0.8,30871,10079.10,0,0,0,-0.98,-3.01,3.29,-0.21,-0.55,-0.80
6.580078,-0.0036224134,-0.0027016923,0.026218962,-0.21,-0.54,-0.8,30895,10080.20,0,0,0,-0.49,-2.94,2.73,-0.21,-0.54,-0.80
6.580078,-0.016622413,-0.012701694,0.01721896,-0.21,-0.55,-0.8,30908,10080.20,0,0,0,-1.40,-3.64,2.10,-0.21,-0.55,-0.80
8.580078,-0.018622413,-0.014701694,0.0012189616,-0.22,-0.55,-0.79,30931,10082.20,0,0,0,-1.54,-3.78,0.98,-0.22,-0.55,-0.79
7.580078,-0.023622414,-0.024701696,-0.009781039,-0.23,-0.55,-0.79,30945,10081.20,0,0,0,-1.89,-4.48,0.21,-0.23,-0.55,-0.79
8.580078,-0.027622415,-0.030701693,-0.013781039,-0.23,-0.55,-0.8,30969,10082.20,0,0,0,-2.17,-4.90,-0.07,-0.23,-0.55,-0.80
9.979492,-0.027622415,-0.030701693,-0.018781038,-0.23,-0.53,-0.81,30983,10083.60,0,0,0,-2.17,-4.90,-0.42,-0.23,-0.53,-0.81
10.6796875,-0.051622413,-0.042701688,-0.022781039,-0.23,-0.54,-0.82,31006,10084.30,0,0,0,-3.85,-5.74,-0.70,-0.23,-0.54,-0.82
10.6796875,-0.05462241,-0.031701688,-0.013781039,-0.23,-0.54,-0.81,31021,10084.30,0,0,0,-4.06,-4.97,-0.07,-0.23,-0.54,-0.81
12.979492,-0.06262241,-0.026701692,-0.019781038,-0.23,-0.53,-0.81,31043,10086.60,0,0,0,-4.62,-4.62,-0.49,-0.23,-0.53,-0.81
11.979492,-0.06562241,-0.024701696,-0.0047810385,-0.24,-0.53,-0.8,31058,10085.60,0,0,0,-4.83,-4.48,0.56,-0.24,-0.53,-0.80
11.979492,-0.07562242,-0.022701696,-0.002781039,-0.24,-0.53,-0.81,31081,10085.60,0,0,0,-5.53,-4.34,0.70,-0.24,-0.53,-0.81
12.6796875,-0.063622415,-0.017701693,0.014218962,-0.24,-0.52,-0.81,31088,10086.30,0,0,0,-4.69,-3.99,1.89,-0.24,-0.52,-0.81
13.6796875,-0.07162242,-0.0047016926,0.025218964,-0.24,-0.52,-0.82,31118,10087.30,0,0,0,-5.25,-3.08,2.66,-0.24,-0.52,-0.82
12.6796875,-0.070622414,0.020298306,0.036218964,-0.24,-0.52,-0.82,31128,10086.30,0,0,0,-5.18,-1.33,3.43,-0.24,-0.52,-0.82
13.6796875,-0.07162242,0.026298307,0.041218963,-0.24,-0.52,-0.81,31149,10087.30,0,0,0,-5.25,-0.91,3.78,-0.24,-0.52,-0.81
12.6796875,-0.06962241,0.019298308,0.04221896,-0.24,-0.52,-0.81,31164,10086.30,0,0,0,-5.11,-1.40,3.85,-0.24,-0.52,-0.81
12.6796875,-0.06762241,0.015298309,0.04421896,-0.23,-0.51,-0.81,31186,10086.30,0,0,0,-4.97,-1.68,3.99,-0.23,-0.51,-0.81
12.979492,-0.052622415,0.027298309,0.04721896,-0.23,-0.51,-0.82,31201,10086.60,0,0,0,-3.92,-0.84,4.20,-0.23,-0.51,-0.82
13.6796875,-0.06162242,0.056298308,0.062218964,-0.23,-0.51,-0.83,31224,10087.30,0,0,0,-4.55,1.19,5.25,-0.23,-0.51,-0.83
12.6796875,-0.060622416,0.073298305,0.063218966,-0.23,-0.51,-0.82,31238,10086.30,0,0,0,-4.48,2.38,5.32,-0.23,-0.51,-0.82
14.080078,-0.060622416,0.09229831,0.06521896,-0.23,-0.51,-0.81,31261,10087.70,0,0,0,-4.48,3.71,5.46,-0.23,-0.51,-0.81
13.6796875,-0.046622414,0.080298305,0.059218958,-0.23,-0.51,-0.8,31276,10087.30,0,0,0,-3.50,2.87,5.04,-0.23,-0.51,-0.80
12.6796875,-0.021622414,0.07629831,0.06421896,-0.23,-0.38,-0.81,31299,10086.30,0,0,0,-1.75,2.59,5.39,-0.23,-0.38,-0.81
12.979492,-0.006622413,0.08429831,0.06421896,-0.22,-0.5,-0.81,31314,10086.60,0,0,0,-0.70,3.15,5.39,-0.22,-0.50,-0.81
12.979492,0.002377587,0.066298306,0.063218966,-0.22,-0.5,-0.81,31336,10086.60,0,0,0,-0.07,1.89,5.32,-0.22,-0.50,-0.81
12.979492,-0.009622414,0.06029831,0.073218964,-0.22,-0.49,-0.83,31351,10086.60,0,0,0,-0.91,1.47,6.02,-0.22,-0.49,-0.83
11.979492,-0.0026224128,0.06429831,0.074218966,-0.22,-0.51,-0.82,31374,10085.60,0,0,0,-0.42,1.75,6.09,-0.22,-0.51,-0.82
11.979492,-0.0026224128,0.06429831,0.069218956,-0.22,-0.51,-0.82,31389,10085.60,0,0,0,-0.42,1.75,5.74,-0.22,-0.51,-0.82
11.6796875,-0.011622413,0.039298307,0.061218962,-0.22,-0.51,-0.82,31412,10085.30,0,0,0,-1.05,0.00,5.18,-0.22,-0.51,-0.82
10.979492,-0.010622414,0.022298306,0.054218963,-0.22,-0.51,-0.83,31425,10084.60,0,0,0,-0.98,-1.19,4.69,-0.22,-0.51,-0.83
10.979492,-0.010622414,0.020298306,0.04721896,-0.21,-0.51,-0.83,31448,10084.60,0,0,0,-0.98,-1.33,4.20,-0.21,-0.51,-0.83
10.979492,-0.015622415,0.016298307,0.04621896,-0.22,-0.51,-0.83,31464,10084.60,0,0,0,-1.33,-1.61,4.13,-0.22,-0.51,-0.83
10.979492,-0.023622414,0.020298306,0.041218963,-0.22,-0.51,-0.82,31486,10084.60,0,0,0,-1.89,-1.33,3.78,-0.22,-0.51,-0.82
9.979492,-0.03262241,0.010298308,0.036218964,-0.22,-0.5,-0.83,31501,10083.60,0,0,0,-2.52,-2.03,3.43,-0.22,-0.50,-0.83
10.280273,-0.04362241,0.011298306,0.02721896,-0.22,-0.5,-0.83,31523,10083.90,0,0,0,-3.29,-1.96,2.80,-0.22,-0.50,-0.83
9.280273,-0.040622413,0.0052983053,0.01721896,-0.22,-0.5,-0.82,31538,10082.90,0,0,0,-3.08,-2.38,2.10,-0.22,-0.50,-0.82
9.280273,-0.040622413,-0.0037016943,0.009218961,-0.22,-0.5,-0.83,31563,10082.90,0,0,0,-3.08,-3.01,1.54,-0.22,-0.50,-0.83
8.1796875,-0.031622414,-7.0169196E-4,0.004218962,-0.22,-0.5,-0.83,31576,10081.80,0,0,0,-2.45,-2.80,1.19,-0.22,-0.50,-0.83
8.580078,-0.029622413,-0.025701698,0.004218962,-0.23,-0.49,-0.83,31598,10082.20,0,0,0,-2.31,-4.55,1.19,-0.23,-0.49,-0.83
9.979492,-0.050622415,-0.019701693,0.01621896,-0.23,-0.48,-0.84,31613,10083.60,0,0,0,-3.78,-4.13,2.03,-0.23,-0.48,-0.84
7.879883,-0.055622414,-0.012701694,0.026218962,-0.23,-0.49,-0.84,31629,10081.50,0,0,0,-4.13,-3.64,2.73,-0.23,-0.49,-0.84
7.1796875,-0.04362241,0.0032983087,0.02721896,-0.22,-0.49,-0.84,31652,10080.80,0,0,0,-3.29,-2.52,2.80,-0.22,-0.49,-0.84
7.1796875,-0.03762241,0.010298308,0.024218962,-0.22,-0.49,-0.83,31666,10080.80,0,0,0,-2.87,-2.03,2.59,-0.22,-0.49,-0.83
7.1796875,-0.027622415,0.018298307,0.01621896,-0.23,-0.49,-0.83,31688,10080.80,0,0,0,-2.17,-1.47,2.03,-0.23,-0.49,-0.83
6.1796875,-0.023622414,0.020298306,0.014218962,-0.23,-0.49,-0.83,31703,10079.80,0,0,0,-1.89,-1.33,1.89,-0.23,-0.49,-0.83
6.1796875,-0.022622414,0.018298307,0.021218963,-0.23,-0.48,-0.82,31726,10079.80,0,0,0,-1.82,-1.47,2.38,-0.23,-0.48,-0.82
5.1796875,-0.026622413,0.013298307,0.026218962,-0.22,-0.48,-0.83,31741,10078.80,0,0,0,-2.10,-1.82,2.73,-0.22,-0.48,-0.83
4.080078,-0.030622415,0.018298307,0.026218962,-0.22,-0.48,-0.84,31763,10077.70,0,0,0,-2.38,-1.47,2.73,-0.22,-0.48,-0.84
3.0800781,-0.036622413,0.022298306,0.024218962,-0.22,-0.48,-0.84,31779,10076.70,0,0,0,-2.80,-1.19,2.59,-0.22,-0.48,-0.84
2.7802734,-0.019622413,0.016298307,0.013218962,-0.22,-0.49,-0.83,31801,10076.40,0,0,0,-1.61,-1.61,1.82,-0.22,-0.49,-0.83
4.080078,-0.001622413,0.023298306,0.0062189624,-0.22,-0.48,-0.84,31816,10077.70,0,0,0,-0.35,-1.12,1.33,-0.22,-0.48,-0.84
2.0800781,-0.004622414,0.026298307,0.008218961,-0.23,-0.48,-0.84,31831,10075.70,0,0,0,-0.56,-0.91,1.47,-0.23,-0.48,-0.84
2.0800781,-0.0036224134,0.024298307,0.0062189624,-0.22,-0.48,-0.83,31853,10075.70,0,0,0,-0.49,-1.05,1.33,-0.22,-0.48,-0.83
2.3798828,-0.0076224133,0.019298308,0.0052189603,-0.22,-0.48,-0.84,31868,10076.00,0,0,0,-0.77,-1.40,1.26,-0.22,-0.48,-0.84
1.0800781,-0.017622413,0.032298308,0.008218961,-0.22,-0.47,-0.84,31890,10074.70,0,0,0,-1.47,-0.49,1.47,-0.22,-0.47,-0.84
1.3798828,-0.016622413,0.026298307,0.0022189608,-0.22,-0.48,-0.84,31906,10075.00,0,0,0,-1.40,-0.91,1.05,-0.22,-0.48,-0.84
1.3798828,-0.009622414,0.019298308,0.0032189619,-0.22,-0.48,-0.82,31929,10075.00,0,0,0,-0.91,-1.40,1.12,-0.22,-0.48,-0.82
-0.020507812,0.0083775865,0.0052983053,-0.0067810393,-0.22,-0.48,-0.83,31944,10073.60,0,0,0,0.35,-2.38,0.42,-0.22,-0.48,-0.83
-1.0205078,0.005377587,-0.0057016946,-0.002781039,-0.22,-0.48,-0.83,31966,10072.60,0,0,0,0.14,-3.15,0.70,-0.22,-0.48,-0.83
-0.020507812,0.002377587,-7.0169196E-4,-0.002781039,-0.22,-0.48,-0.83,31981,10073.60,0,0,0,-0.07,-2.80,0.70,-0.22,-0.48,-0.83
-0.020507812,3.7758704E-4,-0.0017016903,-0.010781039,-0.22,-0.48,-0.84,32004,10073.60,0,0,0,-0.21,-2.87,0.14,-0.22,-0.48,-0.84
-2.0205078,0.0043775868,-0.0017016903,-0.008781038,-0.22,-0.48,-0.83,32019,10071.60,0,0,0,0.07,-2.87,0.28,-0.22,-0.48,-0.83
-2.0205078,0.005377587,-7.0169196E-4,-0.0047810385,-0.22,-0.48,-0.83,32041,10071.60,0,0,0,0.14,-2.80,0.56,-0.22,-0.48,-0.83
-3.1201172,0.0033775868,-0.009701695,-0.01578104,-0.22,-0.48,-0.84,32057,10070.50,0,0,0,0.00,-3.43,-0.21,-0.22,-0.48,-0.84
-4.120117,0.009377587,-0.025701698,-0.022781039,-0.22,-0.49,-0.83,32078,10069.50,0,0,0,0.42,-4.55,-0.70,-0.22,-0.49,-0.83
-2.7197266,0.011377587,-0.03270169,-0.021781038,-0.22,-0.48,-0.83,32093,10070.90,0,0,0,0.56,-5.04,-0.63,-0.22,-0.48,-0.83
-4.120117,0.002377587,-0.027701695,-0.017781038,-0.22,-0.48,-0.84,32109,10069.50,0,0,0,-0.07,-4.69,-0.35,-0.22,-0.48,-0.84
-5.120117,-0.001622413,-0.011701692,-0.01578104,-0.22,-0.48,-0.83,32131,10068.50,0,0,0,-0.35,-3.57,-0.21,-0.22,-0.48,-0.83
-5.120117,0.0043775868,-0.023701694,-0.010781039,-0.23,-0.48,-0.83,32146,10068.50,0,0,0,0.07,-4.41,0.14,-0.23,-0.48,-0.83
-5.120117,3.7758704E-4,-0.019701693,-0.008781038,-0.22,-0.48,-0.84,32168,10068.50,0,0,0,-0.21,-4.13,0.28,-0.22,-0.48,-0.84
-5.8203125,-0.001622413,-0.009701695,-0.007781039,-0.22,-0.49,-0.84,32183,10067.80,0,0,0,-0.35,-3.43,0.35,-0.22,-0.49,-0.84
-4.8203125,0.0043775868,-0.009701695,-0.007781039,-0.22,-0.48,-0.83,32206,10068.80,0,0,0,0.07,-3.43,0.35,-0.22,-0.48,-0.83
-6.8203125,0.009377587,-0.017701693,-0.0057810387,-0.22,-0.48,-0.83,32221,10066.80,0,0,0,0.42,-3.99,0.49,-0.22,-0.48,-0.83
-8.219727,0.0063775866,-0.014701694,-0.0047810385,-0.22,-0.48,-0.83,32244,10065.40,0,0,0,0.21,-3.78,0.56,-0.22,-0.48,-0.83
-7.2197266,-0.0026224128,-0.013701692,-7.810397E-4,-0.22,-0.47,-0.85,32258,10066.40,0,0,0,-0.42,-3.71,0.84,-0.22,-0.47,-0.85
-7.520508,-0.004622414,2.9830635E-4,0.014218962,-0.22,-0.48,-0.83,32289,10066.10,0,0,0,-0.56,-2.73,1.89,-0.22,-0.48,-0.83
-8.219727,-0.0076224133,-0.006701693,0.0122189615,-0.22,-0.49,-0.84,32296,10065.40,0,0,0,-0.77,-3.22,1.75,-0.22,-0.49,-0.84
-7.919922,0.0043775868,-0.0047016926,0.011218959,-0.23,-0.48,-0.83,32319,10065.70,0,0,0,0.07,-3.08,1.68,-0.23,-0.48,-0.83
-12.3203125,0.0063775866,-0.019701693,0.014218962,-0.23,-0.49,-0.83,32334,10061.30,0,0,0,0.21,-4.13,1.89,-0.23,-0.49,-0.83
-10.219727,0.011377587,-0.024701696,0.01621896,-0.23,-0.47,-0.84,32348,10063.40,0,0,0,0.56,-4.48,2.03,-0.23,-0.47,-0.84
-10.919922,-0.0036224134,-0.012701694,0.024218962,-0.23,-0.48,-0.85,32371,10062.70,0,0,0,-0.49,-3.64,2.59,-0.23,-0.48,-0.85
-11.620117,-0.008622413,0.0022983067,0.022218961,-0.23,-0.48,-0.85,32386,10062.00,0,0,0,-0.84,-2.59,2.45,-0.23,-0.48,-0.85
-11.3203125,-0.020622412,0.028298307,0.03121896,-0.23,-0.48,-0.83,32409,10062.30,0,0,0,-1.68,-0.77,3.08,-0.23,-0.48,-0.83
-13.3203125,-0.019622413,0.020298306,0.030218963,-0.23,-0.49,-0.83,32423,10060.30,0,0,0,-1.61,-1.33,3.01,-0.23,-0.49,-0.83
-13.3203125,-0.012622414,0.011298306,0.030218963,-0.23,-0.49,-0.83,32447,10060.30,0,0,0,-1.12,-1.96,3.01,-0.23,-0.49,-0.83
-12.3203125,-0.001622413,0.010298308,0.035218958,-0.23,-0.48,-0.83,32461,10061.30,0,0,0,-0.35,-2.03,3.36,-0.23,-0.48,-0.83
-13.3203125,-0.001622413,0.013298307,0.02921896,-0.23,-0.48,-0.83,32484,10060.30,0,0,0,-0.35,-1.82,2.94,-0.23,-0.48,-0.83
-14.419922,0.0043775868,0.0072983056,0.032218963,-0.22,-0.48,-0.83,32498,10059.20,0,0,0,0.07,-2.24,3.15,-0.22,-0.48,-0.83
-14.419922,-0.0076224133,0.004298307,0.032218963,-0.23,-0.48,-0.83,32520,10059.20,0,0,0,-0.77,-2.45,3.15,-0.23,-0.48,-0.83
-14.419922,-0.018622413,-0.0017016903,0.026218962,-0.22,-0.48,-0.83,32536,10059.20,0,0,0,-1.54,-2.87,2.73,-0.22,-0.48,-0.83
-14.419922,-0.011622413,-0.009701695,0.02321896,-0.22,-0.48,-0.83,32558,10059.20,0,0,0,-1.05,-3.43,2.52,-0.22,-0.48,-0.83
-13.719727,-0.011622413,-0.00870169,0.025218964,-0.23,-0.48,-0.82,32573,10059.90,0,0,0,-1.05,-3.36,2.66,-0.23,-0.48,-0.82
-14.719727,-6.2241335E-4,-0.031701688,0.0122189615,-0.23,-0.48,-0.82,32596,10058.90,0,0,0,-0.28,-4.97,1.75,-0.23,-0.48,-0.82
-12.3203125,-0.006622413,-0.041701693,0.014218962,-0.22,-0.48,-0.83,32611,10061.30,0,0,0,-0.70,-5.67,1.89,-0.22,-0.48,-0.83
-14.419922,-6.2241335E-4,-0.029701691,0.0052189603,-0.22,-0.48,-0.83,32633,10059.20,0,0,0,-0.28,-4.83,1.26,-0.22,-0.48,-0.83
-14.419922,0.0043775868,-0.031701688,-0.0067810393,-0.23,-0.49,-0.83,32649,10059.20,0,0,0,0.07,-4.97,0.42,-0.23,-0.49,-0.83
-13.3203125,-0.005622413,-0.034701694,-0.010781039,-0.23,-0.47,-0.84,32670,10060.30,0,0,0,-0.63,-5.18,0.14,-0.23,-0.47,-0.84
-13.719727,-0.010622414,-0.014701694,2.1896139E-4,-0.23,-0.47,-0.84,32686,10059.90,0,0,0,-0.98,-3.78,0.91,-0.23,-0.47,-0.84
