Pressure_Rel,GyroX_Rel,GyroY_Rel,GyroZ_Rel,AccX_Rel,AccY_Rel,AccZ_Rel,Timestamp,Pressure_abs,HeartRate,Oxygen,Status,GyroX,GyroY,GyroZ,AccX,AccY,AccZ
2.4326172,0.49599203,-0.024638005,-0.368456,0.99,-0.4,-0.39,15625,10052.20,0,0,0,32.20,-5.32,-23.17,0.99,-0.40,-0.39
4.432617,0.388992,-0.040638,0.134544,0.89,0.18,-0.39,15640,10054.20,0,0,0,24.71,-6.44,12.04,0.89,0.18,-0.39
2.7324219,-0.08100797,-0.047638,0.519544,0.92,-0.04,-0.49,15665,10052.50,0,0,0,-8.19,-6.93,38.99,0.92,-0.04,-0.49
2.7324219,-0.55700797,-0.040638,0.769544,0.87,-0.02,-0.47,15680,10052.50,0,0,0,-41.51,-6.44,56.49,0.87,-0.02,-0.47
2.7324219,-0.11900799,-0.054638,0.43854398,0.9,-0.05,-0.46,15707,10052.50,0,0,0,-10.85,-7.42,33.32,0.90,-0.05,-0.46
1.7324219,0.17399201,-0.028637998,0.348544,0.88,-0.03,-0.46,15715,10051.50,0,0,0,9.66,-5.60,27.02,0.88,-0.03,-0.46
1.7324219,-0.19100799,-0.058638,0.51554394,0.87,-0.03,-0.43,15738,10051.50,0,0,0,-15.89,-7.70,38.71,0.87,-0.03,-0.43
2.1328125,-0.33700797,-0.062638,0.58954394,0.87,-0.05,-0.43,15752,10051.90,0,0,0,-26.11,-7.98,43.89,0.87,-0.05,-0.43
4.1328125,-0.23000799,-0.08463801,0.436544,0.87,-0.06,-0.44,15774,10053.90,0,0,0,-18.62,-9.52,33.18,0.87,-0.06,-0.44
3.1328125,0.07899202,-0.023638003,0.249544,0.85,-0.06,-0.44,15790,10052.90,0,0,0,3.01,-5.25,20.09,0.85,-0.06,-0.44
6.432617,-0.411008,-0.091638006,0.31554398,0.89,-0.07,-0.45,15815,10056.20,0,0,0,-31.29,-10.01,24.71,0.89,-0.07,-0.45
3.1328125,-0.20200798,-0.029638,0.28354397,0.74,-0.1,-0.43,15831,10052.90,0,0,0,-16.66,-5.67,22.47,0.74,-0.10,-0.43
2.4326172,-0.20400798,-0.023638003,0.226544,0.95,-0.03,-0.46,15843,10052.20,0,0,0,-16.80,-5.25,18.48,0.95,-0.03,-0.46
3.4326172,-0.194008,0.062362,0.198544,0.85,-0.11,-0.41,15858,10053.20,0,0,0,-16.10,0.77,16.52,0.85,-0.11,-0.41
2.8320312,-0.301008,0.058362,0.22154397,0.87,-0.05,-0.43,15880,10052.60,0,0,0,-23.59,0.49,18.13,0.87,-0.05,-0.43
2.8320312,-0.43200794,0.126362,0.305544,0.92,-0.05,-0.46,15898,10052.60,0,0,0,-32.76,5.25,24.01,0.92,-0.05,-0.46
1.4326172,-0.509008,0.165362,0.354544,0.9,-0.07,-0.44,15910,10051.20,0,0,0,-38.15,7.98,27.44,0.90,-0.07,-0.44
-0.26757812,-0.44200796,0.16836199,0.411544,0.87,-0.09,-0.46,15925,10049.50,0,0,0,-33.46,8.19,31.43,0.87,-0.09,-0.46
2.8320312,-0.49600798,0.099362,0.522544,0.86,-0.11,-0.46,15940,10052.60,0,0,0,-37.24,3.36,39.20,0.86,-0.11,-0.46
2.8320312,-0.40800798,0.054362,0.49754402,0.82,-0.1,-0.45,15967,10052.60,0,0,0,-31.08,0.21,37.45,0.82,-0.10,-0.45
2.4326172,-0.38800797,0.083362,0.448544,0.84,-0.11,-0.44,15972,10052.20,0,0,0,-29.68,2.24,34.02,0.84,-0.11,-0.44
1.1328125,-0.43900797,0.112362,0.49254397,0.89,-0.09,-0.44,15993,10050.90,0,0,0,-33.25,4.27,37.10,0.89,-0.09,-0.44
2.8320312,-0.45700794,0.040362,0.524544,0.84,-0.07,-0.43,16008,10052.60,0,0,0,-34.51,-0.77,39.34,0.84,-0.07,-0.43
1.8320312,-0.458008,-0.043638,0.529544,0.85,-0.06,-0.44,16022,10051.60,0,0,0,-34.58,-6.65,39.69,0.85,-0.06,-0.44
3.1328125,-0.34000796,-0.061637998,0.360544,0.88,-0.1,-0.46,16038,10052.90,0,0,0,-26.32,-7.91,27.86,0.88,-0.10,-0.46
2.4326172,-0.024007984,0.055362,0.18754399,0.9,-0.12,-0.45,16052,10052.20,0,0,0,-4.20,0.28,15.75,0.90,-0.12,-0.45
2.1328125,0.12499201,0.083362,0.06854399,0.84,-0.14,-0.41,16068,10051.90,0,0,0,6.23,2.24,7.42,0.84,-0.14,-0.41
1.1328125,0.10299201,0.086362004,-0.056456007,0.87,-0.16,-0.44,16090,10050.90,0,0,0,4.69,2.45,-1.33,0.87,-0.16,-0.44
2.4326172,0.09999202,0.112362,-0.092456006,0.88,-0.17,-0.43,16105,10052.20,0,0,0,4.48,4.27,-3.85,0.88,-0.17,-0.43
4.5322266,0.033992015,0.16836199,-0.106456004,0.81,-0.09,-0.37,16120,10054.30,0,0,0,-0.14,8.19,-4.83,0.81,-0.09,-0.37
3.4326172,0.08299202,0.20336202,-0.24645601,0.88,-0.11,-0.44,16135,10053.20,0,0,0,3.29,10.64,-14.63,0.88,-0.11,-0.44
1.8320312,0.21999201,0.246362,-0.331456,0.88,-0.1,-0.42,16150,10051.60,0,0,0,12.88,13.65,-20.58,0.88,-0.10,-0.42
0.4326172,0.15699202,0.18536201,-0.298456,0.9,-0.15,-0.42,16165,10050.20,0,0,0,8.47,9.38,-18.27,0.90,-0.15,-0.42
1.4326172,0.16699201,0.221362,-0.19845602,0.85,-0.13,-0.4,16187,10051.20,0,0,0,9.17,11.90,-11.27,0.85,-0.13,-0.40
2.8320312,0.10999201,0.16236201,-0.119456,0.85,-0.1,-0.37,16202,10052.60,0,0,0,5.18,7.77,-5.74,0.85,-0.10,-0.37
1.8320312,0.06499201,0.095362,-0.11245601,0.83,-0.09,-0.38,16217,10051.60,0,0,0,2.03,3.08,-5.25,0.83,-0.09,-0.38
2.8320312,0.10599202,0.034362,-0.17145601,0.84,-0.12,-0.39,16232,10052.60,0,0,0,4.90,-1.19,-9.38,0.84,-0.12,-0.39
1.8320312,0.19799201,-0.046638004,-0.22245601,0.85,-0.12,-0.41,16247,10051.60,0,0,0,11.34,-6.86,-12.95,0.85,-0.12,-0.41
1.1328125,0.21599202,-0.042637996,-0.236456,0.89,-0.12,-0.41,16263,10050.90,0,0,0,12.60,-6.58,-13.93,0.89,-0.12,-0.41
1.8320312,0.12599202,-0.043638,-0.23945601,0.89,-0.12,-0.4,16285,10051.60,0,0,0,6.30,-6.65,-14.14,0.89,-0.12,-0.40
1.1328125,0.122992024,-0.018638,-0.259456,0.88,-0.09,-0.41,16300,10050.90,0,0,0,6.09,-4.90,-15.54,0.88,-0.09,-0.41
1.1328125,0.15999202,0.023362,-0.318456,0.88,-0.09,-0.43,16315,10050.90,0,0,0,8.68,-1.96,-19.67,0.88,-0.09,-0.43
1.1328125,0.21999201,0.078362,-0.290456,0.87,-0.07,-0.43,16330,10050.90,0,0,0,12.88,1.89,-17.71,0.87,-0.07,-0.43
1.1328125,0.16899201,0.147362,-0.227456,0.87,-0.04,-0.43,16345,10050.90,0,0,0,9.31,6.72,-13.30,0.87,-0.04,-0.43
1.4326172,0.11399202,0.164362,-0.197456,0.88,-0.08,-0.44,16368,10051.20,0,0,0,5.46,7.91,-11.20,0.88,-0.08,-0.44
1.4326172,0.19799201,0.173362,-0.170456,0.88,-0.11,-0.45,16382,10051.20,0,0,0,11.34,8.54,-9.31,0.88,-0.11,-0.45
1.1328125,0.18299201,0.13136199,-0.119456,0.9,-0.07,-0.41,16397,10050.90,0,0,0,10.29,5.60,-5.74,0.90,-0.07,-0.41
1.4326172,0.11399202,0.105362,-0.10245601,0.88,-0.06,-0.4,16414,10051.20,0,0,0,5.46,3.78,-4.55,0.88,-0.06,-0.40
1.4326172,0.10299201,0.089362,-0.11145601,0.9,-0.09,-0.41,16428,10051.20,0,0,0,4.69,2.66,-5.18,0.90,-0.09,-0.41
0.83203125,0.15499201,0.060362,-0.10245601,0.89,-0.1,-0.41,16443,10050.60,0,0,0,8.33,0.63,-4.55,0.89,-0.10,-0.41
0.4326172,0.22699201,0.046362,-0.077456005,0.9,-0.1,-0.4,16458,10050.20,0,0,0,13.37,-0.35,-2.80,0.90,-0.10,-0.40
0.4326172,0.26099202,0.033362,-0.025456008,0.88,-0.07,-0.4,16480,10050.20,0,0,0,15.75,-1.26,0.84,0.88,-0.07,-0.40
0.83203125,0.24699202,0.033362,-0.023456005,0.9,-0.08,-0.39,16495,10050.60,0,0,0,14.77,-1.26,0.98,0.90,-0.08,-0.39
0.83203125,0.19899201,0.021362001,-0.020456005,0.89,-0.06,-0.37,16510,10050.60,0,0,0,11.41,-2.10,1.19,0.89,-0.06,-0.37
2.8320312,0.12799202,3.6200136E-4,-0.033456005,0.88,-0.07,-0.38,16525,10052.60,0,0,0,6.44,-3.57,0.28,0.88,-0.07,-0.38
-0.16796875,0.095992014,0.013361998,-0.081456006,0.89,-0.09,-0.41,16540,10049.60,0,0,0,4.20,-2.66,-3.08,0.89,-0.09,-0.41
1.1328125,0.13399202,0.018362,-0.12345601,0.88,-0.11,-0.41,16562,10050.90,0,0,0,6.86,-2.31,-6.02,0.88,-0.11,-0.41
0.1328125,0.19799201,0.013361998,-0.142456,0.89,-0.11,-0.41,16577,10049.90,0,0,0,11.34,-2.66,-7.35,0.89,-0.11,-0.41
0.1328125,0.28999203,0.030362,-0.13845602,0.9,-0.09,-0.39,16593,10049.90,0,0,0,17.78,-1.47,-7.07,0.90,-0.09,-0.39
0.1328125,0.26499203,0.052362,-0.118456006,0.9,-0.04,-0.36,16608,10049.90,0,0,0,16.03,0.07,-5.67,0.90,-0.04,-0.36
-0.16796875,0.18299201,0.068362,-0.117456004,0.9,-0.06,-0.37,16623,10049.60,0,0,0,10.29,1.19,-5.60,0.90,-0.06,-0.37
0.1328125,0.08499202,0.038362,-0.126456,0.88,-0.08,-0.37,16638,10049.90,0,0,0,3.43,-0.91,-6.23,0.88,-0.08,-0.37
1.1328125,-0.023007985,0.008361999,-0.114456005,0.88,-0.08,-0.38,16653,10050.90,0,0,0,-4.13,-3.01,-5.39,0.88,-0.08,-0.38
0.1328125,-0.13500799,-0.018638,-0.107456006,0.89,-0.1,-0.4,16675,10049.90,0,0,0,-11.97,-4.90,-4.90,0.89,-0.10,-0.40
0.53222656,-0.150008,-0.049638003,-0.088456005,0.89,-0.12,-0.41,16690,10050.30,0,0,0,-13.02,-7.07,-3.57,0.89,-0.12,-0.41
0.53222656,-0.073007986,-0.070638,-0.095456004,0.89,-0.09,-0.39,16705,10050.30,0,0,0,-7.63,-8.54,-4.06,0.89,-0.09,-0.39
1.8320312,9.92015E-4,-0.057638004,-0.09745601,0.9,-0.07,-0.4,16720,10051.60,0,0,0,-2.45,-7.63,-4.20,0.90,-0.07,-0.40
-0.46777344,-0.0050079823,-0.047638,-0.09945601,0.9,-0.03,-0.39,16735,10049.30,0,0,0,-2.87,-6.93,-4.34,0.90,-0.03,-0.39
0.53222656,0.11699201,0.013361998,-0.168456,0.9,-0.17,-0.42,16750,10050.30,0,0,0,5.67,-2.66,-9.17,0.90,-0.17,-0.42
0.53222656,0.28199202,-0.031637996,-0.238456,0.88,-0.05,-0.39,16773,10050.30,0,0,0,17.22,-5.81,-14.07,0.88,-0.05,-0.39
0.53222656,0.23199202,-0.035638005,-0.283456,0.9,-0.08,-0.39,16788,10050.30,0,0,0,13.72,-6.09,-17.22,0.90,-0.08,-0.39
1.1328125,0.16799201,-0.014637999,-0.288456,0.9,-0.04,-0.39,16803,10050.90,0,0,0,9.24,-4.62,-17.57,0.90,-0.04,-0.39
-0.16796875,-0.0010079853,-0.031637996,-0.175456,0.89,-0.06,-0.4,16817,10049.60,0,0,0,-2.59,-5.81,-9.66,0.89,-0.06,-0.40
-0.16796875,-0.16700798,-0.035638005,-0.11245601,0.9,-0.03,-0.37,16833,10049.60,0,0,0,-14.21,-6.09,-5.25,0.90,-0.03,-0.37
-0.8671875,0.09999202,-0.049638003,-0.08945601,0.97,0.02,-0.27,16848,10048.90,0,0,0,4.48,-7.07,-3.64,0.97,0.02,-0.27
-0.16796875,-0.080007985,-0.07863801,-0.057456005,0.88,-0.06,-0.37,16870,10049.60,0,0,0,-8.12,-9.10,-1.40,0.88,-0.06,-0.37
-0.16796875,-0.06200799,-0.035638005,-0.049456004,0.93,-0.05,-0.38,16885,10049.60,0,0,0,-6.86,-6.09,-0.84,0.93,-0.05,-0.38
0.1328125,-0.14300798,-0.09263799,0.080543995,0.89,-0.04,-0.39,16900,10049.90,0,0,0,-12.53,-10.08,8.26,0.89,-0.04,-0.39
-0.16796875,-0.13300799,-0.09963799,0.117543995,0.89,-0.03,-0.38,16915,10049.60,0,0,0,-11.83,-10.57,10.85,0.89,-0.03,-0.38
0.1328125,-0.16500798,-0.10063801,0.161544,0.9,-0.03,-0.41,16931,10049.90,0,0,0,-14.07,-10.64,13.93,0.90,-0.03,-0.41
0.1328125,-0.13700798,-0.10063801,0.138544,0.88,-0.05,-0.42,16945,10049.90,0,0,0,-12.11,-10.64,12.32,0.88,-0.05,-0.42
-3.8671875,-0.041007984,-0.086637996,0.092544004,0.87,-0.05,-0.4,16960,10045.90,0,0,0,-5.39,-9.66,9.10,0.87,-0.05,-0.40
0.53222656,0.020992015,-0.079638,0.05654399,0.88,-0.05,-0.4,16982,10050.30,0,0,0,-1.05,-9.17,6.58,0.88,-0.05,-0.40
-0.8671875,-0.04300799,-0.031637996,0.038544,0.91,-0.06,-0.41,16997,10048.90,0,0,0,-5.53,-5.81,5.32,0.91,-0.06,-0.41
-0.46777344,-0.246008,0.036362,5.439967E-4,0.9,-0.03,-0.41,17014,10049.30,0,0,0,-19.74,-1.05,2.66,0.90,-0.03,-0.41
-0.46777344,0.034992017,0.091362,-0.06945601,0.89,-0.03,-0.4,17027,10049.30,0,0,0,-0.07,2.80,-2.24,0.89,-0.03,-0.40
-2.4677734,-0.087007985,0.083362,-0.065456,0.87,-0.05,-0.42,17042,10047.30,0,0,0,-8.61,2.24,-1.96,0.87,-0.05,-0.42
-0.46777344,-0.0010079853,0.114362,-0.10445601,0.92,-0.02,-0.38,17060,10049.30,0,0,0,-2.59,4.41,-4.69,0.92,-0.02,-0.38
-1.8671875,0.066992015,0.143362,-0.14145601,0.87,-0.08,-0.4,17072,10047.90,0,0,0,2.17,6.44,-7.28,0.87,-0.08,-0.40
-1.4677734,0.09999202,0.123362,-0.13645601,0.91,-0.11,-0.41,17096,10048.30,0,0,0,4.48,5.04,-6.93,0.91,-0.11,-0.41
-0.16796875,0.041992016,0.065362,0.035543993,0.88,-0.07,-0.42,17110,10049.60,0,0,0,0.42,0.98,5.11,0.88,-0.07,-0.42
-1.4677734,-0.07000798,0.029362,0.24354398,0.91,-0.05,-0.42,17125,10048.30,0,0,0,-7.42,-1.54,19.67,0.91,-0.05,-0.42
-1.1679688,-0.06200799,0.036362,0.32454398,0.9,-0.06,-0.43,17140,10048.60,0,0,0,-6.86,-1.05,25.34,0.90,-0.06,-0.43
-1.1679688,-0.013007987,0.015362002,0.319544,0.88,-0.08,-0.41,17155,10048.60,0,0,0,-3.43,-2.52,24.99,0.88,-0.08,-0.41
0.1328125,-0.117007986,-0.063638,0.326544,0.87,-0.05,-0.42,17170,10049.90,0,0,0,-10.71,-8.05,25.48,0.87,-0.05,-0.42
-3.1679688,-0.122007996,-0.087638,0.38954398,0.91,-0.08,-0.42,17192,10046.60,0,0,0,-11.06,-9.73,29.89,0.91,-0.08,-0.42
-2.4677734,-0.19700798,-0.064637996,0.439544,0.9,-0.05,-0.41,17208,10047.30,0,0,0,-16.31,-8.12,33.39,0.90,-0.05,-0.41
0.1328125,-0.264008,-0.012638003,0.356544,0.89,-0.08,-0.39,17223,10049.90,0,0,0,-21.00,-4.48,27.58,0.89,-0.08,-0.39
-2.1679688,-0.257008,0.0063619986,0.27654397,0.87,-0.1,-0.42,17239,10047.60,0,0,0,-20.51,-3.15,21.98,0.87,-0.10,-0.42
-2.1679688,-0.22800799,0.010362003,0.225544,0.87,-0.09,-0.41,17253,10047.60,0,0,0,-18.48,-2.87,18.41,0.87,-0.09,-0.41
-2.8671875,-0.13700798,-0.007638,0.16654399,0.85,-0.07,-0.39,17268,10046.90,0,0,0,-12.11,-4.13,14.28,0.85,-0.07,-0.39
-2.4677734,-0.025007986,0.026362,0.079543985,0.89,-0.09,-0.4,17283,10047.30,0,0,0,-4.27,-1.75,8.19,0.89,-0.09,-0.40
-2.8671875,-0.116008,-0.024638005,-0.284456,0.9,-0.3,-0.54,17306,10046.90,0,0,0,-10.64,-5.32,-17.29,0.90,-0.30,-0.54
-2.8671875,0.19699202,-0.006637998,-0.302456,0.91,-0.06,-0.4,17320,10046.90,0,0,0,11.27,-4.06,-18.55,0.91,-0.06,-0.40
-2.4677734,0.0029920153,-0.011638001,-0.08645601,0.93,-0.12,-0.43,17335,10047.30,0,0,0,-2.31,-4.41,-3.43,0.93,-0.12,-0.43
-1.8671875,-0.16300799,0.014362,0.062543996,0.91,-0.08,-0.37,17350,10047.90,0,0,0,-13.93,-2.59,7.00,0.91,-0.08,-0.37
-3.8671875,-0.422008,-0.022638,0.255544,0.89,-0.09,-0.43,17366,10045.90,0,0,0,-32.06,-5.18,20.51,0.89,-0.09,-0.43
-2.4677734,-0.301008,-0.032638,0.270544,0.87,-0.1,-0.43,17382,10047.30,0,0,0,-23.59,-5.88,21.56,0.87,-0.10,-0.43
-2.4677734,-0.06900798,-0.017637998,0.21754399,0.89,-0.06,-0.42,17395,10047.30,0,0,0,-7.35,-4.83,17.85,0.89,-0.06,-0.42
-2.4677734,-0.038007986,0.013361998,0.21154399,0.91,-0.08,-0.43,17417,10047.30,0,0,0,-5.18,-2.66,17.43,0.91,-0.08,-0.43
-3.4677734,-0.016007986,0.013361998,0.274544,0.93,-0.1,-0.43,17433,10046.30,0,0,0,-3.64,-2.66,21.84,0.93,-0.10,-0.43
-2.4677734,-0.12800798,0.002361998,0.351544,0.89,-0.08,-0.39,17447,10047.30,0,0,0,-11.48,-3.43,27.23,0.89,-0.08,-0.39
-2.4677734,-0.21900798,0.055362,0.300544,0.84,-0.13,-0.33,17463,10047.30,0,0,0,-17.85,0.28,23.66,0.84,-0.13,-0.33
-3.1679688,-0.212008,0.083362,0.153544,0.87,-0.13,-0.39,17478,10046.60,0,0,0,-17.36,2.24,13.37,0.87,-0.13,-0.39
-2.1679688,-0.08600798,0.103362,0.07254399,0.88,-0.13,-0.41,17500,10047.60,0,0,0,-8.54,3.64,7.70,0.88,-0.13,-0.41
-3.1679688,-0.04700798,0.055362,0.070544,0.88,-0.12,-0.4,17515,10046.60,0,0,0,-5.81,0.28,7.56,0.88,-0.12,-0.40
-3.1679688,-0.07000798,0.034362,0.06954399,0.88,-0.13,-0.4,17530,10046.60,0,0,0,-7.42,-1.19,7.49,0.88,-0.13,-0.40
-2.8671875,-0.016007986,0.036362,0.031543992,0.88,-0.12,-0.38,17546,10046.90,0,0,0,-3.64,-1.05,4.83,0.88,-0.12,-0.38
-3.1679688,-0.0020079874,0.033362,-0.003456004,0.88,-0.11,-0.39,17560,10046.60,0,0,0,-2.66,-1.26,2.38,0.88,-0.11,-0.39
-3.1679688,0.005992016,0.013361998,-0.042456005,0.89,-0.1,-0.39,17575,10046.60,0,0,0,-2.10,-2.66,-0.35,0.89,-0.10,-0.39
-2.4677734,0.077992015,0.012362,-0.045456007,0.88,-0.12,-0.4,17589,10047.30,0,0,0,2.94,-2.73,-0.56,0.88,-0.12,-0.40
-2.4677734,0.14399202,0.018362,-0.044456005,0.88,-0.13,-0.42,17612,10047.30,0,0,0,7.56,-2.31,-0.49,0.88,-0.13,-0.42
-2.8671875,0.13899201,0.022362001,-0.031456005,0.89,-0.12,-0.41,17627,10046.90,0,0,0,7.21,-2.03,0.42,0.89,-0.12,-0.41
0.23242188,0.10999201,-0.015638001,0.015543994,0.89,-0.0,-0.39,17643,10050.00,0,0,0,5.18,-4.69,3.71,0.89,-0.00,-0.39
-2.8671875,0.027992014,-0.016638003,0.049544,0.88,-0.14,-0.4,17657,10046.90,0,0,0,-0.56,-4.76,6.09,0.88,-0.14,-0.40
-2.4677734,0.08099201,-0.016638003,0.016543996,0.87,-0.12,-0.37,17673,10047.30,0,0,0,3.15,-4.76,3.78,0.87,-0.12,-0.37
-3.1679688,0.21999201,-0.006637998,-0.040456004,0.89,-0.08,-0.38,17688,10046.60,0,0,0,12.88,-4.06,-0.21,0.89,-0.08,-0.38
-2.4677734,0.046992015,-0.035638005,-0.0054560043,0.87,-0.15,-0.41,17710,10047.30,0,0,0,0.77,-6.09,2.24,0.87,-0.15,-0.41
3.5322266,0.07299201,-0.038638003,-0.024456006,0.88,-0.13,-0.4,17725,10053.30,0,0,0,2.59,-6.30,0.91,0.88,-0.13,-0.40
-3.4677734,0.09199202,-0.031637996,-0.06345601,0.89,-0.12,-0.39,17740,10046.30,0,0,0,3.92,-5.81,-1.82,0.89,-0.12,-0.39
-2.4677734,0.11299202,-0.037638,-0.088456005,0.89,-0.14,-0.39,17755,10047.30,0,0,0,5.39,-6.23,-3.57,0.89,-0.14,-0.39
-2.1679688,0.08399201,-0.047638,-0.046456005,0.89,-0.13,-0.39,17770,10047.60,0,0,0,3.36,-6.93,-0.63,0.89,-0.13,-0.39
-2.4677734,0.021992015,-0.042637996,-0.0014560074,0.89,-0.11,-0.4,17785,10047.30,0,0,0,-0.98,-6.58,2.52,0.89,-0.11,-0.40
-4.1679688,-0.016007986,-0.033638,0.007543996,0.88,-0.11,-0.42,17800,10045.60,0,0,0,-3.64,-5.95,3.15,0.88,-0.11,-0.42
-4.1679688,-0.025007986,-0.041638,0.010543991,0.88,-0.14,-0.41,17822,10045.60,0,0,0,-4.27,-6.51,3.36,0.88,-0.14,-0.41
-2.4677734,-0.026007988,-0.042637996,0.024543997,0.88,-0.12,-0.4,17837,10047.30,0,0,0,-4.34,-6.58,4.34,0.88,-0.12,-0.40
-2.1679688,-0.073007986,-0.027638003,0.035543993,0.88,-0.11,-0.41,17852,10047.60,0,0,0,-7.63,-5.53,5.11,0.88,-0.11,-0.41
-2.1679688,-0.08300798,-0.002638001,0.028543994,0.88,-0.12,-0.42,17868,10047.60,0,0,0,-8.33,-3.78,4.62,0.88,-0.12,-0.42
-1.4677734,-0.061007988,-0.019637994,0.03454399,0.87,-0.12,-0.42,17884,10048.30,0,0,0,-6.79,-4.97,5.04,0.87,-0.12,-0.42
-2.7675781,-0.008007985,-0.020637996,0.009543993,0.88,-0.12,-0.42,17900,10047.00,0,0,0,-3.08,-5.04,3.29,0.88,-0.12,-0.42
-2.7675781,0.017992016,-0.0046380013,-0.037456006,0.87,-0.12,-0.41,17920,10047.00,0,0,0,-1.26,-3.92,0.00,0.87,-0.12,-0.41
-3.1679688,0.016992014,-0.009638,-0.08245601,0.87,-0.13,-0.42,17935,10046.60,0,0,0,-1.33,-4.27,-3.15,0.87,-0.13,-0.42
-2.7675781,0.055992015,-0.009638,-0.11245601,0.87,-0.12,-0.42,17950,10047.00,0,0,0,1.40,-4.27,-5.25,0.87,-0.12,-0.42
-2.7675781,0.043992016,-0.024638005,-0.09145601,0.87,-0.13,-0.43,17965,10047.00,0,0,0,0.56,-5.32,-3.78,0.87,-0.13,-0.43
-2.7675781,0.045992017,-0.046638004,-0.07545601,0.88,-0.12,-0.43,17980,10047.00,0,0,0,0.70,-6.86,-2.66,0.88,-0.12,-0.43
-2.7675781,0.049992017,-0.033638,-0.07545601,0.88,-0.13,-0.43,17995,10047.00,0,0,0,0.98,-5.95,-2.66,0.88,-0.13,-0.43
-2.7675781,0.038992014,-0.002638001,-0.049456004,0.88,-0.12,-0.43,18010,10047.00,0,0,0,0.21,-3.78,-0.84,0.88,-0.12,-0.43
-1.4677734,0.0019920133,0.028362,-0.0064560045,0.88,-0.12,-0.43,18033,10048.30,0,0,0,-2.38,-1.61,2.17,0.88,-0.12,-0.43
-1.7675781,-0.048007984,0.043362,0.041543998,0.87,-0.11,-0.44,18047,10048.00,0,0,0,-5.88,-0.56,5.53,0.87,-0.11,-0.44
-2.4677734,-0.06400798,0.052362,0.059543997,0.87,-0.11,-0.44,18062,10047.30,0,0,0,-7.00,0.07,6.79,0.87,-0.11,-0.44
-1.7675781,-0.023007985,0.065362,0.038544,0.86,-0.12,-0.44,18078,10048.00,0,0,0,-4.13,0.98,5.32,0.86,-0.12,-0.44
-1.4677734,9.92015E-4,0.064362004,0.017543994,0.86,-0.11,-0.44,18092,10048.30,0,0,0,-2.45,0.91,3.85,0.86,-0.11,-0.44
-1.4677734,0.030992016,0.061362,-0.003456004,0.87,-0.11,-0.43,18107,10048.30,0,0,0,-0.35,0.70,2.38,0.87,-0.11,-0.43
-1.4677734,0.015992016,0.061362,-0.0014560074,0.87,-0.12,-0.43,18130,10048.30,0,0,0,-1.40,0.70,2.52,0.87,-0.12,-0.43
-1.4677734,-0.008007985,0.061362,0.018543996,0.86,-0.12,-0.43,18145,10048.30,0,0,0,-3.08,0.70,3.92,0.86,-0.12,-0.43
-1.4677734,-0.021007985,0.064362004,0.017543994,0.86,-0.12,-0.42,18160,10048.30,0,0,0,-3.99,0.91,3.85,0.86,-0.12,-0.42
-1.1679688,0.017992016,0.074362,-0.017456006,0.86,-0.12,-0.43,18175,10048.60,0,0,0,-1.26,1.61,1.40,0.86,-0.12,-0.43
-1.1679688,0.038992014,0.072362,-0.011456005,0.87,-0.12,-0.43,18190,10048.60,0,0,0,0.21,1.47,1.82,0.87,-0.12,-0.43
-0.16796875,0.027992014,0.055362,0.010543991,0.86,-0.12,-0.42,18205,10049.60,0,0,0,-0.56,0.28,3.36,0.86,-0.12,-0.42
-1.1679688,-0.03200799,0.039362002,0.022543993,0.86,-0.12,-0.42,18220,10048.60,0,0,0,-4.76,-0.84,4.20,0.86,-0.12,-0.42
-1.1679688,-0.04300799,0.038362,-0.009456005,1.0,-0.12,-0.43,18235,10048.60,0,0,0,-5.53,-0.91,1.96,1.00,-0.12,-0.43
0.9326172,0.032992017,0.067362,-0.041456006,0.88,-0.12,-0.44,18258,10050.70,0,0,0,-0.21,1.12,-0.28,0.88,-0.12,-0.44
0.23242188,0.06599201,0.074362,-0.038456004,0.87,-0.11,-0.42,18273,10050.00,0,0,0,2.10,1.61,-0.07,0.87,-0.11,-0.42
1.2324219,0.074992016,0.105362,-0.044456005,0.87,-0.12,-0.43,18288,10051.00,0,0,0,2.73,3.78,-0.49,0.87,-0.12,-0.43
2.2324219,0.08399201,0.108362004,-0.048456006,0.87,-0.12,-0.42,18302,10052.00,0,0,0,3.36,3.99,-0.77,0.87,-0.12,-0.42
0.9326172,0.07899202,0.097362,-0.039456006,0.87,-0.12,-0.42,18317,10050.70,0,0,0,3.01,3.22,-0.14,0.87,-0.12,-0.42
0.23242188,0.041992016,0.088362,-0.028456006,0.89,-0.12,-0.42,18333,10050.00,0,0,0,0.42,2.59,0.63,0.89,-0.12,-0.42
1.2324219,0.040992014,0.080362,0.0055439956,0.88,-0.12,-0.42,18357,10051.00,0,0,0,0.35,2.03,3.01,0.88,-0.12,-0.42
1.2324219,0.061992016,0.082362,-0.018456005,0.88,-0.13,-0.41,18371,10051.00,0,0,0,1.82,2.17,1.33,0.88,-0.13,-0.41
2.2324219,0.09099202,0.083362,-0.048456006,0.88,-0.13,-0.4,18386,10052.00,0,0,0,3.85,2.24,-0.77,0.88,-0.13,-0.40
2.2324219,0.06599201,0.072362,-0.039456006,0.88,-0.12,-0.41,18401,10052.00,0,0,0,2.10,1.47,-0.14,0.88,-0.12,-0.41
2.5322266,0.017992016,0.042362,-0.019456007,0.88,-0.11,-0.4,18422,10052.30,0,0,0,-1.26,-0.63,1.26,0.88,-0.11,-0.40
1.2324219,0.029992016,0.033362,-0.020456005,0.88,-0.11,-0.4,18438,10051.00,0,0,0,-0.42,-1.26,1.19,0.88,-0.11,-0.40
0.53222656,0.061992016,0.039362002,-0.045456007,0.88,-0.11,-0.39,18452,10050.30,0,0,0,1.82,-0.84,-0.56,0.88,-0.11,-0.39
0.53222656,0.07699201,0.033362,-0.06445601,0.89,-0.12,-0.41,18467,10050.30,0,0,0,2.87,-1.26,-1.89,0.89,-0.12,-0.41
0.9326172,0.11799201,0.023362,-0.066456005,0.88,-0.13,-0.4,18483,10050.70,0,0,0,5.74,-1.96,-2.03,0.88,-0.13,-0.40
0.53222656,0.103992015,0.016362,-0.059456006,0.89,-0.12,-0.4,18498,10050.30,0,0,0,4.76,-2.45,-1.54,0.89,-0.12,-0.40
0.53222656,0.09099202,0.0063619986,-0.049456004,0.89,-0.12,-0.39,18513,10050.30,0,0,0,3.85,-3.15,-0.84,0.89,-0.12,-0.39
0.9326172,0.055992015,0.0073620006,-0.030456007,0.89,-0.12,-0.39,18535,10050.70,0,0,0,1.40,-3.08,0.49,0.89,-0.12,-0.39
0.53222656,0.047992013,-0.001637999,-0.019456007,0.88,-0.12,-0.38,18550,10050.30,0,0,0,0.84,-3.71,1.26,0.88,-0.12,-0.38
1.9326172,0.051992014,0.009362001,-0.035456005,0.89,-0.12,-0.38,18565,10051.70,0,0,0,1.12,-2.94,0.14,0.89,-0.12,-0.38
2.2324219,0.06999202,0.029362,-0.065456,0.88,-0.12,-0.39,18582,10052.00,0,0,0,2.38,-1.54,-1.96,0.88,-0.12,-0.39
0.9326172,0.100992024,0.027362002,-0.08645601,0.88,-0.12,-0.39,18595,10050.70,0,0,0,4.55,-1.68,-3.43,0.88,-0.12,-0.39
1.9326172,0.11599201,0.011362001,-0.103456005,0.89,-0.12,-0.39,18611,10051.70,0,0,0,5.60,-2.80,-4.62,0.89,-0.12,-0.39
-0.06738281,0.058992013,0.0073620006,-0.081456006,0.89,-0.13,-0.38,18625,10049.70,0,0,0,1.61,-3.08,-3.08,0.89,-0.13,-0.38
-0.06738281,0.060992017,0.024362,-0.08345601,0.89,-0.13,-0.39,18649,10049.70,0,0,0,1.75,-1.89,-3.22,0.89,-0.13,-0.39
0.9326172,0.053992014,0.018362,-0.073456004,0.89,-0.12,-0.39,18663,10050.70,0,0,0,1.26,-2.31,-2.52,0.89,-0.12,-0.39
1.2324219,0.100992024,0.017361999,-0.09045601,0.9,-0.11,-0.39,18678,10051.00,0,0,0,4.55,-2.38,-3.71,0.90,-0.11,-0.39
1.2324219,0.142992,0.015362002,-0.087456,0.9,-0.12,-0.39,18693,10051.00,0,0,0,7.49,-2.52,-3.50,0.90,-0.12,-0.39
0.23242188,0.11599201,0.020361999,-0.077456005,0.9,-0.13,-0.4,18708,10050.00,0,0,0,5.60,-2.17,-2.80,0.90,-0.13,-0.40
1.2324219,0.09399201,0.027362002,-0.077456005,0.9,-0.12,-0.39,18723,10051.00,0,0,0,4.06,-1.68,-2.80,0.90,-0.12,-0.39
0.53222656,0.06499201,0.008361999,-0.054456007,0.89,-0.12,-0.39,18745,10050.30,0,0,0,2.03,-3.01,-1.19,0.89,-0.12,-0.39
1.2324219,0.051992014,3.6200136E-4,-0.044456005,0.89,-0.12,-0.38,18760,10051.00,0,0,0,1.12,-3.57,-0.49,0.89,-0.12,-0.38
-0.7675781,0.063992016,0.0063619986,-0.062456004,0.9,-0.12,-0.39,18776,10049.00,0,0,0,1.96,-3.15,-1.75,0.90,-0.12,-0.39
0.53222656,0.09399201,0.010362003,-0.06945601,0.89,-0.12,-0.39,18790,10050.30,0,0,0,4.06,-2.87,-2.24,0.89,-0.12,-0.39
1.5322266,0.10199201,0.020361999,-0.070456006,0.89,-0.12,-0.38,18805,10051.30,0,0,0,4.62,-2.17,-2.31,0.89,-0.12,-0.38
1.5322266,0.08999202,0.009362001,-0.054456007,0.89,-0.12,-0.37,18820,10051.30,0,0,0,3.78,-2.94,-1.19,0.89,-0.12,-0.37
1.5322266,0.050992016,0.004362002,-0.056456007,0.89,-0.11,-0.37,18843,10051.30,0,0,0,1.05,-3.29,-1.33,0.89,-0.11,-0.37
1.5322266,0.052992016,0.009362001,-0.065456,0.89,-0.12,-0.38,18857,10051.30,0,0,0,1.19,-2.94,-1.96,0.89,-0.12,-0.38
0.53222656,0.056992017,0.0063619986,-0.077456005,0.89,-0.12,-0.38,18872,10050.30,0,0,0,1.47,-3.15,-2.80,0.89,-0.12,-0.38
1.5322266,0.07699201,-0.0036379993,-0.077456005,0.89,-0.12,-0.39,18888,10051.30,0,0,0,2.87,-3.85,-2.80,0.89,-0.12,-0.39
1.9326172,0.06999202,-0.0046380013,-0.062456004,0.9,-0.12,-0.39,18902,10051.70,0,0,0,2.38,-3.92,-1.75,0.90,-0.12,-0.39
-2.0673828,0.074992016,0.0063619986,-0.066456005,0.9,-0.11,-0.38,18917,10047.70,0,0,0,2.73,-3.15,-2.03,0.90,-0.11,-0.38
0.53222656,0.06599201,0.024362,-0.066456005,0.9,-0.11,-0.38,18940,10050.30,0,0,0,2.10,-1.89,-2.03,0.90,-0.11,-0.38
0.9326172,0.06499201,0.032362,-0.073456004,0.9,-0.11,-0.38,18955,10050.70,0,0,0,2.03,-1.33,-2.52,0.90,-0.11,-0.38
0.9326172,0.049992017,0.027362002,-0.062456004,0.89,-0.11,-0.39,18970,10050.70,0,0,0,0.98,-1.68,-1.75,0.89,-0.11,-0.39
0.9326172,0.017992016,0.011362001,-0.036456008,0.89,-0.11,-0.39,18985,10050.70,0,0,0,-1.26,-2.80,0.07,0.89,-0.11,-0.39
0.9326172,0.034992017,3.6200136E-4,-0.039456006,0.89,-0.12,-0.38,19000,10050.70,0,0,0,-0.07,-3.57,-0.14,0.89,-0.12,-0.38
0.23242188,0.044992015,-0.0056379996,-0.047456004,0.89,-0.12,-0.37,19015,10050.00,0,0,0,0.63,-3.99,-0.70,0.89,-0.12,-0.37
1.2324219,0.057992015,-0.002638001,-0.059456006,0.9,-0.12,-0.38,19030,10051.00,0,0,0,1.54,-3.78,-1.54,0.90,-0.12,-0.38
0.9326172,0.048992015,0.011362001,-0.06745601,0.9,-0.13,-0.39,19053,10050.70,0,0,0,0.91,-2.80,-2.10,0.90,-0.13,-0.39
0.9326172,0.042992014,0.015362002,-0.046456005,0.89,-0.12,-0.38,19067,10050.70,0,0,0,0.49,-2.52,-0.63,0.89,-0.12,-0.38
1.2324219,-7.983297E-6,0.024362,-0.046456005,0.89,-0.11,-0.38,19083,10051.00,0,0,0,-2.52,-1.89,-0.63,0.89,-0.11,-0.38
1.2324219,0.006992016,0.015362002,-0.035456005,0.89,-0.1,-0.39,19098,10051.00,0,0,0,-2.03,-2.52,0.14,0.89,-0.10,-0.39
1.2324219,0.039992016,0.0033620037,-0.031456005,0.89,-0.11,-0.38,19114,10051.00,0,0,0,0.28,-3.36,0.42,0.89,-0.11,-0.38
1.2324219,0.032992017,-0.007638,-0.043456007,0.89,-0.11,-0.39,19128,10051.00,0,0,0,-0.21,-4.13,-0.42,0.89,-0.11,-0.39
2.2324219,0.018992014,-0.015638001,-0.026456006,0.9,-0.12,-0.39,19150,10052.00,0,0,0,-1.19,-4.69,0.77,0.90,-0.12,-0.39
1.2324219,-0.0070079863,-0.015638001,0.0025439933,0.9,-0.11,-0.38,19165,10051.00,0,0,0,-3.01,-4.69,2.80,0.90,-0.11,-0.38
1.2324219,-0.04000799,-0.0036379993,0.019543994,0.9,-0.1,-0.37,19180,10051.00,0,0,0,-5.32,-3.85,3.99,0.90,-0.10,-0.37
3.6328125,-0.04000799,0.009362001,0.006543994,0.88,-0.1,-0.38,19195,10053.40,0,0,0,-5.32,-2.94,3.08,0.88,-0.10,-0.38
1.6328125,-0.016007986,-0.002638001,-0.019456007,0.88,-0.1,-0.38,19210,10051.40,0,0,0,-3.64,-3.78,1.26,0.88,-0.10,-0.38
0.6328125,0.029992016,-0.0036379993,-0.040456004,0.89,-0.11,-0.38,19225,10050.40,0,0,0,-0.42,-3.85,-0.21,0.89,-0.11,-0.38
0.23242188,0.015992016,-0.018638,-0.031456005,0.89,-0.11,-0.38,19240,10050.00,0,0,0,-1.40,-4.90,0.42,0.89,-0.11,-0.38
1.6328125,0.015992016,-0.015638001,-0.031456005,0.9,-0.11,-0.38,19263,10051.40,0,0,0,-1.40,-4.69,0.42,0.90,-0.11,-0.38
-0.46777344,0.024992015,-0.001637999,-0.050456006,0.9,-0.1,-0.38,19278,10049.30,0,0,0,-0.77,-3.71,-0.91,0.90,-0.10,-0.38
0.9326172,0.023992017,0.009362001,-0.057456005,0.89,-0.11,-0.38,19293,10050.70,0,0,0,-0.84,-2.94,-1.40,0.89,-0.11,-0.38
0.6328125,0.007992014,0.013361998,-0.055456005,0.88,-0.11,-0.38,19308,10050.40,0,0,0,-1.96,-2.66,-1.26,0.88,-0.11,-0.38
-0.06738281,-0.013007987,0.004362002,-0.044456005,0.88,-0.1,-0.38,19323,10049.70,0,0,0,-3.43,-3.29,-0.49,0.88,-0.10,-0.38
0.9326172,-0.019007985,-0.0056379996,-0.041456006,0.89,-0.11,-0.38,19338,10050.70,0,0,0,-3.85,-3.99,-0.28,0.89,-0.11,-0.38
0.9326172,-0.021007985,-0.016638003,-0.039456006,0.89,-0.11,-0.38,19360,10050.70,0,0,0,-3.99,-4.76,-0.14,0.89,-0.11,-0.38
0.9326172,-0.044007983,-0.010638002,-0.031456005,0.9,-0.11,-0.38,19375,10050.70,0,0,0,-5.60,-4.34,0.42,0.90,-0.11,-0.38
-0.06738281,-0.073007986,0.008361999,-0.028456006,0.9,-0.1,-0.39,19390,10049.70,0,0,0,-7.63,-3.01,0.63,0.90,-0.10,-0.39
-0.06738281,-0.107007995,0.014362,-0.017456006,0.89,-0.1,-0.38,19405,10049.70,0,0,0,-10.01,-2.59,1.40,0.89,-0.10,-0.38
0.9326172,-0.14200799,0.012362,-0.003456004,0.88,-0.09,-0.38,19420,10050.70,0,0,0,-12.46,-2.73,2.38,0.88,-0.09,-0.38
-0.06738281,-0.15700799,0.014362,5.439967E-4,0.88,-0.1,-0.38,19435,10049.70,0,0,0,-13.51,-2.59,2.66,0.88,-0.10,-0.38
-0.06738281,-0.16300799,0.011362001,0.0035439916,0.88,-0.1,-0.38,19450,10049.70,0,0,0,-13.93,-2.80,2.87,0.88,-0.10,-0.38
0.23242188,-0.15500799,0.0013619997,-0.0074560065,0.88,-0.1,-0.37,19473,10050.00,0,0,0,-13.37,-3.50,2.10,0.88,-0.10,-0.37
0.23242188,-0.173008,0.009362001,-0.021456005,0.88,-0.11,-0.37,19487,10050.00,0,0,0,-14.63,-2.94,1.12,0.88,-0.11,-0.37
-0.7675781,-0.19100799,0.015362002,-0.042456005,0.88,-0.12,-0.37,19502,10049.00,0,0,0,-15.89,-2.52,-0.35,0.88,-0.12,-0.37
0.23242188,-0.195008,-0.006637998,-0.050456006,0.89,-0.1,-0.39,19517,10050.00,0,0,0,-16.17,-4.06,-0.91,0.89,-0.10,-0.39
0.23242188,-0.20000799,-0.008637998,-0.051456004,0.91,-0.09,-0.41,19532,10050.00,0,0,0,-16.52,-4.20,-0.98,0.91,-0.09,-0.41
-0.7675781,-0.14200799,0.0063619986,-0.057456005,0.91,-0.08,-0.41,19547,10049.00,0,0,0,-12.46,-3.15,-1.40,0.91,-0.08,-0.41
0.6328125,-0.11900799,0.020361999,-0.079456,0.9,-0.08,-0.42,19563,10050.40,0,0,0,-10.85,-2.17,-2.94,0.90,-0.08,-0.42
-1.4677734,-0.07600799,0.032362,-0.092456006,0.9,-0.07,-0.42,19585,10048.30,0,0,0,-7.84,-1.33,-3.85,0.90,-0.07,-0.42
0.6328125,-0.025007986,0.026362,-0.09045601,0.91,-0.07,-0.43,19600,10050.40,0,0,0,-4.27,-1.75,-3.71,0.91,-0.07,-0.43
-2.4677734,-0.0010079853,0.009362001,-0.060456008,0.91,-0.07,-0.42,19615,10047.30,0,0,0,-2.59,-2.94,-1.61,0.91,-0.07,-0.42
-1.7675781,0.010992015,-0.001637999,-0.043456007,0.9,-0.07,-0.42,19630,10048.00,0,0,0,-1.75,-3.71,-0.42,0.90,-0.07,-0.42
-2.4677734,0.027992014,-0.008637998,-0.031456005,0.9,-0.08,-0.41,19645,10047.30,0,0,0,-0.56,-4.20,0.42,0.90,-0.08,-0.41
-1.4677734,0.043992016,-0.011638001,-0.022456005,0.9,-0.07,-0.41,19660,10048.30,0,0,0,0.56,-4.41,1.05,0.90,-0.07,-0.41
-3.4677734,0.053992014,-0.009638,-0.010456005,0.89,-0.07,-0.39,19682,10046.30,0,0,0,1.26,-4.27,1.89,0.89,-0.07,-0.39
-2.4677734,0.056992017,-0.014637999,-0.014456006,0.89,-0.08,-0.39,19698,10047.30,0,0,0,1.47,-4.62,1.61,0.89,-0.08,-0.39
-0.06738281,0.043992016,-0.013638005,-0.040456004,0.89,-0.08,-0.38,19713,10049.70,0,0,0,0.56,-4.55,-0.21,0.89,-0.08,-0.38
-3.0673828,0.031992014,-0.0036379993,-0.060456008,0.89,-0.09,-0.4,19728,10046.70,0,0,0,-0.28,-3.85,-1.61,0.89,-0.09,-0.40
-3.0673828,0.027992014,-0.008637998,-0.048456006,0.89,-0.08,-0.39,19743,10046.70,0,0,0,-0.56,-4.20,-0.77,0.89,-0.08,-0.39
-3.0673828,0.026992016,-0.012638003,-0.038456004,0.89,-0.07,-0.39,19766,10046.70,0,0,0,-0.63,-4.48,-0.07,0.89,-0.07,-0.39
-2.7675781,0.045992017,-0.012638003,-0.050456006,0.89,-0.07,-0.39,19780,10047.00,0,0,0,0.70,-4.48,-0.91,0.89,-0.07,-0.39
-3.0673828,0.074992016,-0.0036379993,-0.066456005,0.89,-0.07,-0.38,19803,10046.70,0,0,0,2.73,-3.85,-2.03,0.89,-0.07,-0.38
-7.4677734,0.057992015,0.0053620003,-0.06845601,0.89,-0.07,-0.39,19817,10042.30,0,0,0,1.54,-3.22,-2.17,0.89,-0.07,-0.39
-3.7675781,0.041992016,0.010362003,-0.056456007,0.9,-0.07,-0.4,19833,10046.00,0,0,0,0.42,-2.87,-1.33,0.90,-0.07,-0.40
-3.7675781,0.013992015,0.010362003,-0.032456007,0.89,-0.08,-0.4,19855,10046.00,0,0,0,-1.54,-2.87,0.35,0.89,-0.08,-0.40
-2.7675781,0.0029920153,0.004362002,-0.024456006,0.89,-0.07,-0.4,19870,10047.00,0,0,0,-2.31,-3.29,0.91,0.89,-0.07,-0.40
-1.7675781,0.025992015,-0.0036379993,-0.035456005,0.9,-0.06,-0.41,19892,10048.00,0,0,0,-0.70,-3.85,0.14,0.90,-0.06,-0.41
-3.4677734,0.046992015,-0.002638001,-0.046456005,0.91,-0.06,-0.41,19907,10046.30,0,0,0,0.77,-3.78,-0.63,0.91,-0.06,-0.41
-2.7675781,0.11399202,0.002361998,-0.047456004,0.9,-0.07,-0.4,19930,10047.00,0,0,0,5.46,-3.43,-0.70,0.90,-0.07,-0.40
-3.7675781,0.07299201,0.010362003,-0.037456006,0.89,-0.08,-0.4,19945,10046.00,0,0,0,2.59,-2.87,0.00,0.89,-0.08,-0.40
-2.7675781,0.07699201,0.012362,-0.043456007,0.89,-0.08,-0.4,19967,10047.00,0,0,0,2.87,-2.73,-0.42,0.89,-0.08,-0.40
-3.7675781,0.09399201,3.6200136E-4,-0.042456005,0.89,-0.07,-0.4,19982,10046.00,0,0,0,4.06,-3.57,-0.35,0.89,-0.07,-0.40
-3.4677734,0.09799202,-0.022638,-0.025456008,0.89,-0.07,-0.4,20004,10046.30,0,0,0,4.34,-5.18,0.84,0.89,-0.07,-0.40
-3.4677734,0.07299201,-0.030637994,-0.009456005,0.9,-0.07,-0.4,20020,10046.30,0,0,0,2.59,-5.74,1.96,0.90,-0.07,-0.40
-3.4677734,0.077992015,-0.017637998,-0.017456006,0.9,-0.07,-0.4,20035,10046.30,0,0,0,2.94,-4.83,1.40,0.90,-0.07,-0.40
-4.4677734,0.10299201,-6.3800067E-4,-0.040456004,0.89,-0.08,-0.4,20058,10045.30,0,0,0,4.69,-3.64,-0.21,0.89,-0.08,-0.40
-4.4677734,0.12599202,-0.0036379993,-0.042456005,0.88,-0.08,-0.4,20073,10045.30,0,0,0,6.30,-3.85,-0.35,0.88,-0.08,-0.40
-4.4677734,0.11199202,-0.015638001,-0.036456008,0.88,-0.08,-0.39,20095,10045.30,0,0,0,5.32,-4.69,0.07,0.88,-0.08,-0.39
-4.067383,0.09199202,-0.020637996,-0.026456006,0.89,-0.07,-0.39,20110,10045.70,0,0,0,3.92,-5.04,0.77,0.89,-0.07,-0.39
-5.067383,0.073992014,-0.013638005,-0.015456006,0.89,-0.08,-0.39,20133,10044.70,0,0,0,2.66,-4.55,1.54,0.89,-0.08,-0.39
-5.067383,0.063992016,0.0063619986,-0.022456005,0.89,-0.08,-0.39,20147,10044.70,0,0,0,1.96,-3.15,1.05,0.89,-0.08,-0.39
-4.067383,0.08099201,0.025362,-0.037456006,0.89,-0.08,-0.4,20169,10045.70,0,0,0,3.15,-1.82,0.00,0.89,-0.08,-0.40
-3.0673828,0.096992016,0.024362,-0.050456006,0.88,-0.09,-0.4,20185,10046.70,0,0,0,4.27,-1.89,-0.91,0.88,-0.09,-0.40
-5.067383,0.100992024,0.015362002,-0.05345601,0.89,-0.09,-0.4,20207,10044.70,0,0,0,4.55,-2.52,-1.12,0.89,-0.09,-0.40
-4.067383,0.09199202,0.010362003,-0.034456007,0.89,-0.08,-0.39,20222,10045.70,0,0,0,3.92,-2.87,0.21,0.89,-0.08,-0.39
-4.067383,0.06899202,0.011362001,-0.022456005,0.89,-0.08,-0.39,20245,10045.70,0,0,0,2.31,-2.80,1.05,0.89,-0.08,-0.39
-5.767578,0.057992015,0.016362,-0.031456005,0.89,-0.09,-0.4,20259,10044.00,0,0,0,1.54,-2.45,0.42,0.89,-0.09,-0.40
-5.067383,0.07199201,0.014362,-0.038456004,0.88,-0.09,-0.4,20275,10044.70,0,0,0,2.52,-2.59,-0.07,0.88,-0.09,-0.40
-4.767578,0.07599202,0.002361998,-0.027456006,0.89,-0.08,-0.4,20298,10045.00,0,0,0,2.80,-3.43,0.70,0.89,-0.08,-0.40
-4.767578,0.074992016,-6.3800067E-4,-0.030456007,0.89,-0.09,-0.4,20314,10045.00,0,0,0,2.73,-3.64,0.49,0.89,-0.09,-0.40
-5.767578,0.09399201,-6.3800067E-4,-0.05345601,0.89,-0.09,-0.39,20335,10044.00,0,0,0,4.06,-3.64,-1.12,0.89,-0.09,-0.39
-5.767578,0.122992024,0.0053620003,-0.07445601,0.89,-0.09,-0.39,20350,10044.00,0,0,0,6.09,-3.22,-2.59,0.89,-0.09,-0.39
-4.767578,0.06599201,0.015362002,-0.044456005,0.89,-0.08,-0.39,20372,10045.00,0,0,0,2.10,-2.52,-0.49,0.89,-0.08,-0.39
-5.767578,0.005992016,0.010362003,-0.018456005,0.89,-0.08,-0.4,20388,10044.00,0,0,0,-2.10,-2.87,1.33,0.89,-0.08,-0.40
-5.767578,0.017992016,-0.0036379993,-0.019456007,0.89,-0.07,-0.39,20410,10044.00,0,0,0,-1.26,-3.85,1.26,0.89,-0.07,-0.39
-4.3671875,0.07599202,-0.011638001,-0.050456006,0.89,-0.08,-0.39,20425,10045.40,0,0,0,2.80,-4.41,-0.91,0.89,-0.08,-0.39
-5.4677734,0.09999202,-0.011638001,-0.07445601,0.9,-0.09,-0.4,20449,10044.30,0,0,0,4.48,-4.41,-2.59,0.90,-0.09,-0.40
-6.4677734,0.088992015,-0.007638,-0.047456004,0.9,-0.09,-0.4,20463,10043.30,0,0,0,3.71,-4.13,-0.70,0.90,-0.09,-0.40
-6.4677734,0.045992017,-0.006637998,-0.008456007,0.9,-0.08,-0.4,20485,10043.30,0,0,0,0.70,-4.06,2.03,0.90,-0.08,-0.40
-7.4677734,0.033992015,-6.3800067E-4,0.001543995,0.89,-0.08,-0.39,20500,10042.30,0,0,0,-0.14,-3.64,2.73,0.89,-0.08,-0.39
-7.067383,0.032992017,0.0033620037,-4.5600533E-4,0.9,-0.08,-0.39,20515,10042.70,0,0,0,-0.21,-3.36,2.59,0.90,-0.08,-0.39
-6.067383,0.024992015,0.0013619997,-0.012456005,0.89,-0.08,-0.39,20537,10043.70,0,0,0,-0.77,-3.50,1.75,0.89,-0.08,-0.39
-7.767578,0.022992015,-0.0036379993,-0.014456006,0.89,-0.08,-0.4,20552,10042.00,0,0,0,-0.91,-3.85,1.61,0.89,-0.08,-0.40
-7.067383,0.09899202,-0.006637998,-0.062456004,0.89,-0.08,-0.4,20575,10042.70,0,0,0,4.41,-4.06,-1.75,0.89,-0.08,-0.40
-6.067383,0.10899201,0.0053620003,-0.072456,0.9,-0.09,-0.41,20590,10043.70,0,0,0,5.11,-3.22,-2.45,0.90,-0.09,-0.41
-7.067383,0.08499202,0.002361998,-0.041456006,0.89,-0.09,-0.4,20614,10042.70,0,0,0,3.43,-3.43,-0.28,0.89,-0.09,-0.40
-8.067383,0.056992017,-0.008637998,-0.024456006,0.89,-0.08,-0.39,20628,10041.70,0,0,0,1.47,-4.20,0.91,0.89,-0.08,-0.39
-7.067383,0.085992016,-0.009638,-0.050456006,0.89,-0.09,-0.39,20650,10042.70,0,0,0,3.50,-4.27,-0.91,0.89,-0.09,-0.39
-6.767578,0.09199202,-0.0036379993,-0.057456005,0.89,-0.09,-0.39,20665,10043.00,0,0,0,3.92,-3.85,-1.40,0.89,-0.09,-0.39
-6.767578,0.06599201,-0.0046380013,-0.035456005,0.89,-0.09,-0.4,20687,10043.00,0,0,0,2.10,-3.92,0.14,0.89,-0.09,-0.40
-6.767578,0.056992017,0.0013619997,-0.031456005,0.89,-0.09,-0.4,20703,10043.00,0,0,0,1.47,-3.50,0.42,0.89,-0.09,-0.40
-9.767578,0.06599201,0.0033620037,-0.029456005,0.88,-0.09,-0.4,20726,10040.00,0,0,0,2.10,-3.36,0.56,0.88,-0.09,-0.40
-6.767578,0.060992017,0.0073620006,-0.035456005,0.89,-0.09,-0.39,20740,10043.00,0,0,0,1.75,-3.08,0.14,0.89,-0.09,-0.39
-5.767578,0.059992015,0.013361998,-0.043456007,0.89,-0.09,-0.4,20756,10044.00,0,0,0,1.68,-2.66,-0.42,0.89,-0.09,-0.40
-5.767578,0.07999201,0.016362,-0.052456006,0.89,-0.09,-0.39,20778,10044.00,0,0,0,3.08,-2.45,-1.05,0.89,-0.09,-0.39
-5.3671875,0.07599202,0.015362002,-0.058456004,0.89,-0.09,-0.39,20793,10044.40,0,0,0,2.80,-2.52,-1.47,0.89,-0.09,-0.39
-6.4677734,0.041992016,0.009362001,-0.046456005,0.89,-0.09,-0.39,20816,10043.30,0,0,0,0.42,-2.94,-0.63,0.89,-0.09,-0.39
-4.3671875,0.050992016,0.008361999,-0.039456006,0.89,-0.08,-0.39,20831,10045.40,0,0,0,1.05,-3.01,-0.14,0.89,-0.08,-0.39
-4.067383,0.031992014,0.0053620003,-0.028456006,0.89,-0.09,-0.39,20852,10045.70,0,0,0,-0.28,-3.22,0.63,0.89,-0.09,-0.39
-4.3671875,0.007992014,-6.3800067E-4,-0.024456006,0.89,-0.09,-0.39,20867,10045.40,0,0,0,-1.96,-3.64,0.91,0.89,-0.09,-0.39
-3.3671875,0.015992016,0.002361998,-0.037456006,0.89,-0.09,-0.39,20890,10046.40,0,0,0,-1.40,-3.43,0.00,0.89,-0.09,-0.39
-3.3671875,0.047992013,0.002361998,-0.049456004,0.89,-0.09,-0.4,20905,10046.40,0,0,0,0.84,-3.43,-0.84,0.89,-0.09,-0.40
-3.0673828,0.054992016,3.6200136E-4,-0.055456005,0.89,-0.08,-0.39,20928,10046.70,0,0,0,1.33,-3.57,-1.26,0.89,-0.08,-0.39
-2.3671875,0.056992017,0.0063619986,-0.061456002,0.89,-0.08,-0.39,20942,10047.40,0,0,0,1.47,-3.15,-1.68,0.89,-0.08,-0.39
-2.0673828,0.059992015,-0.0036379993,-0.077456005,0.89,-0.1,-0.39,20965,10047.70,0,0,0,1.68,-3.85,-2.80,0.89,-0.10,-0.39
-1.0673828,0.08499202,-0.006637998,-0.09345601,0.89,-0.09,-0.4,20980,10048.70,0,0,0,3.43,-4.06,-3.92,0.89,-0.09,-0.40
-1.0673828,0.07699201,0.009362001,-0.09945601,0.9,-0.08,-0.4,20997,10048.70,0,0,0,2.87,-2.94,-4.34,0.90,-0.08,-0.40
-1.0673828,0.023992017,0.008361999,-0.049456004,0.89,-0.08,-0.4,21018,10048.70,0,0,0,-0.84,-3.01,-0.84,0.89,-0.08,-0.40
-0.3671875,-0.010007985,-0.012638003,-0.022456005,0.89,-0.07,-0.39,21033,10049.40,0,0,0,-3.22,-4.48,1.05,0.89,-0.07,-0.39
0.33203125,0.013992015,-0.024638005,-0.024456006,0.9,-0.07,-0.4,21055,10050.10,0,0,0,-1.54,-5.32,0.91,0.90,-0.07,-0.40
3.0322266,0.033992015,-0.024638005,-0.032456007,0.9,-0.08,-0.4,21070,10052.80,0,0,0,-0.14,-5.32,0.35,0.90,-0.08,-0.40
2.3320312,0.046992015,-0.001637999,-0.044456005,0.89,-0.07,-0.4,21093,10052.10,0,0,0,0.77,-3.71,-0.49,0.89,-0.07,-0.40
1.9326172,0.038992014,0.0053620003,-0.038456004,0.89,-0.07,-0.41,21107,10051.70,0,0,0,0.21,-3.22,-0.07,0.89,-0.07,-0.41
2.3320312,0.053992014,0.008361999,-0.037456006,0.89,-0.07,-0.4,21130,10052.10,0,0,0,1.26,-3.01,0.00,0.89,-0.07,-0.40
3.3320312,0.048992015,0.0053620003,-0.041456006,0.88,-0.08,-0.39,21145,10053.10,0,0,0,0.91,-3.22,-0.28,0.88,-0.08,-0.39
3.3320312,0.006992016,0.0063619986,-0.030456007,0.89,-0.07,-0.39,21167,10053.10,0,0,0,-2.03,-3.15,0.49,0.89,-0.07,-0.39
3.6328125,-0.0050079823,0.009362001,-0.027456006,0.89,-0.07,-0.39,21183,10053.40,0,0,0,-2.87,-2.94,0.70,0.89,-0.07,-0.39
3.3320312,0.046992015,0.013361998,-0.06445601,0.89,-0.07,-0.39,21205,10053.10,0,0,0,0.77,-2.66,-1.89,0.89,-0.07,-0.39
4.0322266,0.096992016,0.014362,-0.088456005,0.89,-0.08,-0.4,21220,10053.80,0,0,0,4.27,-2.59,-3.57,0.89,-0.08,-0.40
2.3320312,0.08399201,0.0073620006,-0.08245601,0.89,-0.07,-0.41,21243,10052.10,0,0,0,3.36,-3.08,-3.15,0.89,-0.07,-0.41
0.33203125,0.074992016,0.004362002,-0.059456006,0.89,-0.07,-0.4,21258,10050.10,0,0,0,2.73,-3.29,-1.54,0.89,-0.07,-0.40
2.6328125,0.029992016,-0.0056379996,-0.034456007,0.89,-0.07,-0.4,21273,10052.40,0,0,0,-0.42,-3.99,0.21,0.89,-0.07,-0.40
3.6328125,0.039992016,-0.001637999,-0.039456006,0.89,-0.08,-0.4,21295,10053.40,0,0,0,0.28,-3.71,-0.14,0.89,-0.08,-0.40
1.6328125,0.057992015,3.6200136E-4,-0.047456004,0.89,-0.08,-0.4,21310,10051.40,0,0,0,1.54,-3.57,-0.70,0.89,-0.08,-0.40
2.6328125,0.06499201,0.0013619997,-0.05345601,0.89,-0.07,-0.4,21332,10052.40,0,0,0,2.03,-3.50,-1.12,0.89,-0.07,-0.40
1.6328125,0.056992017,0.004362002,-0.042456005,0.89,-0.07,-0.4,21348,10051.40,0,0,0,1.47,-3.29,-0.35,0.89,-0.07,-0.40
1.6328125,0.022992015,-0.008637998,-0.029456005,0.89,-0.07,-0.4,21369,10051.40,0,0,0,-0.91,-4.20,0.56,0.89,-0.07,-0.40
2.0322266,0.008992014,-0.0046380013,-0.023456005,0.89,-0.07,-0.4,21385,10051.80,0,0,0,-1.89,-3.92,0.98,0.89,-0.07,-0.40
1.6328125,0.044992015,0.0053620003,-0.041456006,0.89,-0.07,-0.4,21407,10051.40,0,0,0,0.63,-3.22,-0.28,0.89,-0.07,-0.40
1.6328125,0.06799202,0.011362001,-0.06445601,0.89,-0.07,-0.4,21422,10051.40,0,0,0,2.24,-2.80,-1.89,0.89,-0.07,-0.40
2.0322266,0.073992014,0.0033620037,-0.065456,0.89,-0.07,-0.4,21445,10051.80,0,0,0,2.66,-3.36,-1.96,0.89,-0.07,-0.40
2.0322266,0.06799202,0.002361998,-0.059456006,0.89,-0.07,-0.4,21459,10051.80,0,0,0,2.24,-3.43,-1.54,0.89,-0.07,-0.40
-3.0673828,0.060992017,0.018362,-0.06345601,0.89,-0.07,-0.41,21483,10046.70,0,0,0,1.75,-2.31,-1.82,0.89,-0.07,-0.41
0.9326172,0.063992016,0.020361999,-0.061456002,0.89,-0.07,-0.4,21498,10050.70,0,0,0,1.96,-2.17,-1.68,0.89,-0.07,-0.40
2.0322266,0.056992017,0.022362001,-0.06845601,0.89,-0.06,-0.4,21513,10051.80,0,0,0,1.47,-2.03,-2.17,0.89,-0.06,-0.40
2.6328125,0.07899202,0.012362,-0.073456004,0.88,-0.07,-0.4,21534,10052.40,0,0,0,3.01,-2.73,-2.52,0.88,-0.07,-0.40
3.0322266,0.06599201,0.0033620037,-0.06445601,0.89,-0.07,-0.39,21549,10052.80,0,0,0,2.10,-3.36,-1.89,0.89,-0.07,-0.39
2.0322266,0.046992015,0.0053620003,-0.051456004,0.9,-0.07,-0.4,21572,10051.80,0,0,0,0.77,-3.22,-0.98,0.90,-0.07,-0.40
2.0322266,0.038992014,0.014362,-0.044456005,0.89,-0.07,-0.4,21587,10051.80,0,0,0,0.21,-2.59,-0.49,0.89,-0.07,-0.40
2.0322266,0.048992015,0.011362001,-0.060456008,0.88,-0.06,-0.4,21610,10051.80,0,0,0,0.91,-2.80,-1.61,0.88,-0.06,-0.40
2.3320312,0.07899202,0.013361998,-0.088456005,0.88,-0.06,-0.41,21625,10052.10,0,0,0,3.01,-2.66,-3.57,0.88,-0.06,-0.41
2.3320312,0.085992016,0.022362001,-0.107456006,0.88,-0.07,-0.41,21647,10052.10,0,0,0,3.50,-2.03,-4.90,0.88,-0.07,-0.41
2.3320312,0.09499201,0.031362,-0.109456,0.89,-0.06,-0.39,21662,10052.10,0,0,0,4.13,-1.40,-5.04,0.89,-0.06,-0.39
2.3320312,0.010992015,0.012362,-0.044456005,0.9,-0.06,-0.4,21685,10052.10,0,0,0,-1.75,-2.73,-0.49,0.90,-0.06,-0.40
2.3320312,0.035992015,0.011362001,-0.050456006,0.89,-0.06,-0.4,21700,10052.10,0,0,0,0.00,-2.80,-0.91,0.89,-0.06,-0.40
2.3320312,0.070992015,0.013361998,-0.06445601,0.89,-0.06,-0.41,21722,10052.10,0,0,0,2.45,-2.66,-1.89,0.89,-0.06,-0.41
2.3320312,0.10499202,0.009362001,-0.078456,0.89,-0.06,-0.4,21737,10052.10,0,0,0,4.83,-2.94,-2.87,0.89,-0.06,-0.40
2.3320312,0.09799202,0.009362001,-0.06845601,0.89,-0.06,-0.4,21752,10052.10,0,0,0,4.34,-2.94,-2.17,0.89,-0.06,-0.40
2.6328125,0.056992017,0.013361998,-0.040456004,0.9,-0.06,-0.39,21774,10052.40,0,0,0,1.47,-2.66,-0.21,0.90,-0.06,-0.39
1.6328125,0.015992016,0.012362,-0.027456006,0.89,-0.06,-0.39,21790,10051.40,0,0,0,-1.40,-2.73,0.70,0.89,-0.06,-0.39
1.6328125,0.020992015,0.018362,-0.036456008,0.89,-0.04,-0.39,21812,10051.40,0,0,0,-1.05,-2.31,0.07,0.89,-0.04,-0.39
2.6328125,0.061992016,0.025362,-0.06845601,0.89,-0.05,-0.4,21827,10052.40,0,0,0,1.82,-1.82,-2.17,0.89,-0.05,-0.40
1.6328125,0.10299201,0.013361998,-0.088456005,0.89,-0.06,-0.4,21850,10051.40,0,0,0,4.69,-2.66,-3.57,0.89,-0.06,-0.40
1.6328125,0.095992014,0.0013619997,-0.073456004,0.9,-0.07,-0.4,21865,10051.40,0,0,0,4.20,-3.50,-2.52,0.90,-0.07,-0.40
2.6328125,0.057992015,-6.3800067E-4,-0.041456006,0.89,-0.06,-0.39,21883,10052.40,0,0,0,1.54,-3.64,-0.28,0.89,-0.06,-0.39
1.6328125,0.050992016,0.011362001,-0.043456007,0.9,-0.05,-0.39,21903,10051.40,0,0,0,1.05,-2.80,-0.42,0.90,-0.05,-0.39
1.6328125,0.058992013,0.022362001,-0.05345601,0.89,-0.05,-0.4,21925,10051.40,0,0,0,1.61,-2.03,-1.12,0.89,-0.05,-0.40
2.0322266,0.074992016,0.018362,-0.056456007,0.89,-0.06,-0.39,21940,10051.80,0,0,0,2.73,-2.31,-1.33,0.89,-0.06,-0.39
1.6328125,0.060992017,0.026362,-0.052456006,0.9,-0.05,-0.39,21966,10051.40,0,0,0,1.75,-1.75,-1.05,0.90,-0.05,-0.39
2.0322266,0.047992013,0.029362,-0.044456005,0.9,-0.06,-0.4,21978,10051.80,0,0,0,0.84,-1.54,-0.49,0.90,-0.06,-0.40
2.0322266,0.022992015,0.023362,-0.026456006,0.9,-0.06,-0.39,21992,10051.80,0,0,0,-0.91,-1.96,0.77,0.90,-0.06,-0.39
2.0322266,0.007992014,0.019361999,-0.019456007,0.9,-0.06,-0.4,22015,10051.80,0,0,0,-1.96,-2.24,1.26,0.90,-0.06,-0.40
2.0322266,0.059992015,0.014362,-0.038456004,0.88,-0.06,-0.39,22030,10051.80,0,0,0,1.68,-2.59,-0.07,0.88,-0.06,-0.39
-1.0673828,0.07899202,0.011362001,-0.066456005,0.89,-0.05,-0.39,22051,10048.70,0,0,0,3.01,-2.80,-2.03,0.89,-0.05,-0.39
1.0322266,0.08299202,0.011362001,-0.07445601,0.9,-0.06,-0.39,22067,10050.80,0,0,0,3.29,-2.80,-2.59,0.90,-0.06,-0.39
1.3320312,0.054992016,0.011362001,-0.050456006,0.9,-0.06,-0.39,22090,10051.10,0,0,0,1.33,-2.80,-0.91,0.90,-0.06,-0.39
1.3320312,0.024992015,0.013361998,-0.034456007,0.9,-0.05,-0.39,22105,10051.10,0,0,0,-0.77,-2.66,0.21,0.90,-0.05,-0.39
0.33203125,0.008992014,0.013361998,-0.031456005,0.89,-0.05,-0.39,22128,10050.10,0,0,0,-1.89,-2.66,0.42,0.89,-0.05,-0.39
1.3320312,0.038992014,0.009362001,-0.043456007,0.89,-0.05,-0.4,22143,10051.10,0,0,0,0.21,-2.94,-0.42,0.89,-0.05,-0.40
1.3320312,0.07599202,0.004362002,-0.062456004,0.89,-0.05,-0.39,22165,10051.10,0,0,0,2.80,-3.29,-1.75,0.89,-0.05,-0.39
0.33203125,0.027992014,-0.002638001,-0.041456006,0.9,-0.04,-0.38,22180,10050.10,0,0,0,-0.56,-3.78,-0.28,0.90,-0.04,-0.38
3.3320312,-0.042007986,-0.010638002,0.007543996,0.91,-0.05,-0.38,22202,10053.10,0,0,0,-5.46,-4.34,3.15,0.91,-0.05,-0.38
-0.66796875,-0.07100798,-0.002638001,0.015543994,0.91,-0.04,-0.4,22219,10049.10,0,0,0,-7.49,-3.78,3.71,0.91,-0.04,-0.40
-1.3671875,-0.033007983,3.6200136E-4,-0.010456005,0.9,-0.04,-0.41,22232,10048.40,0,0,0,-4.83,-3.57,1.89,0.90,-0.04,-0.41
-0.66796875,0.059992015,3.6200136E-4,-0.045456007,0.88,-0.05,-0.39,22254,10049.10,0,0,0,1.68,-3.57,-0.56,0.88,-0.05,-0.39
-1.3671875,0.09199202,-0.012638003,-0.065456,0.89,-0.06,-0.39,22270,10048.40,0,0,0,3.92,-4.48,-1.96,0.89,-0.06,-0.39
-1.3671875,0.047992013,-0.024638005,-0.031456005,0.89,-0.06,-0.38,22292,10048.40,0,0,0,0.84,-5.32,0.42,0.89,-0.06,-0.38
-2.3671875,-0.008007985,-0.022638,-0.014456006,0.89,-0.05,-0.38,22308,10047.40,0,0,0,-3.08,-5.18,1.61,0.89,-0.05,-0.38
-2.6679688,-0.0030079857,0.012362,-0.046456005,0.9,-0.04,-0.4,22330,10047.10,0,0,0,-2.73,-2.73,-0.63,0.90,-0.04,-0.40
-2.6679688,0.030992016,0.020361999,-0.06345601,0.89,-0.04,-0.41,22344,10047.10,0,0,0,-0.35,-2.17,-1.82,0.89,-0.04,-0.41
-0.96777344,0.06599201,-0.0046380013,-0.058456004,0.89,-0.04,-0.4,22367,10048.80,0,0,0,2.10,-3.92,-1.47,0.89,-0.04,-0.40
-0.96777344,0.063992016,-0.027638003,-0.041456006,0.9,-0.04,-0.39,22382,10048.80,0,0,0,1.96,-5.53,-0.28,0.90,-0.04,-0.39
-2.0673828,0.06799202,-0.034638003,-0.038456004,0.91,-0.05,-0.39,22405,10047.70,0,0,0,2.24,-6.02,-0.07,0.91,-0.05,-0.39
-2.0673828,0.060992017,-0.019637994,-0.037456006,0.91,-0.05,-0.4,22420,10047.70,0,0,0,1.75,-4.97,0.00,0.91,-0.05,-0.40
-2.0673828,0.043992016,-0.002638001,-0.025456008,0.9,-0.05,-0.4,22442,10047.70,0,0,0,0.56,-3.78,0.84,0.90,-0.05,-0.40
-3.0673828,0.062992014,-0.017637998,-0.015456006,0.89,-0.05,-0.4,22457,10046.70,0,0,0,1.89,-4.83,1.54,0.89,-0.05,-0.40
-2.0673828,0.09399201,-0.023638003,-0.037456006,0.89,-0.05,-0.4,22481,10047.70,0,0,0,4.06,-5.25,0.00,0.89,-0.05,-0.40
-4.067383,0.073992014,-0.014637999,-0.044456005,0.9,-0.05,-0.4,22495,10045.70,0,0,0,2.66,-4.62,-0.49,0.90,-0.05,-0.40
-2.6679688,0.048992015,-0.009638,-0.028456006,0.9,-0.05,-0.39,22510,10047.10,0,0,0,0.91,-4.27,0.63,0.90,-0.05,-0.39
-3.0673828,0.037992015,-0.006637998,-0.019456007,0.9,-0.05,-0.39,22533,10046.70,0,0,0,0.14,-4.06,1.26,0.90,-0.05,-0.39
-2.6679688,0.09399201,0.009362001,-0.061456002,0.89,-0.05,-0.4,22548,10047.10,0,0,0,4.06,-2.94,-1.68,0.89,-0.05,-0.40
-2.6679688,0.14899202,0.008361999,-0.096456006,0.89,-0.05,-0.4,22570,10047.10,0,0,0,7.91,-3.01,-4.13,0.89,-0.05,-0.40
-2.6679688,0.12699202,-0.006637998,-0.08345601,0.89,-0.05,-0.4,22585,10047.10,0,0,0,6.37,-4.06,-3.22,0.89,-0.05,-0.40
-3.6679688,0.039992016,-0.029638,-0.024456006,0.9,-0.06,-0.39,22607,10046.10,0,0,0,0.28,-5.67,0.91,0.90,-0.06,-0.39
-2.6679688,0.011992017,-0.027638003,-0.0074560065,0.9,-0.06,-0.4,22622,10047.10,0,0,0,-1.68,-5.53,2.10,0.90,-0.06,-0.40
-3.3671875,0.052992016,-0.009638,-0.030456007,0.89,-0.06,-0.41,22645,10046.40,0,0,0,1.19,-4.27,0.49,0.89,-0.06,-0.41
-3.3671875,0.08299202,-0.010638002,-0.045456007,0.89,-0.04,-0.4,22660,10046.40,0,0,0,3.29,-4.34,-0.56,0.89,-0.04,-0.40
-4.6679688,0.085992016,-0.022638,-0.042456005,0.89,-0.05,-0.4,22682,10045.10,0,0,0,3.50,-5.18,-0.35,0.89,-0.05,-0.40
-3.6679688,0.056992017,-0.027638003,-0.022456005,0.89,-0.06,-0.4,22698,10046.10,0,0,0,1.47,-5.53,1.05,0.89,-0.06,-0.40
-3.6679688,0.038992014,-0.015638001,-0.023456005,0.89,-0.05,-0.4,22720,10046.10,0,0,0,0.21,-4.69,0.98,0.89,-0.05,-0.40
-3.3671875,0.031992014,0.002361998,-0.033456005,0.89,-0.05,-0.4,22734,10046.40,0,0,0,-0.28,-3.43,0.28,0.89,-0.05,-0.40
-4.3671875,0.051992014,0.0013619997,-0.038456004,0.89,-0.05,-0.4,22750,10045.40,0,0,0,1.12,-3.50,-0.07,0.89,-0.05,-0.40
-3.3671875,0.08399201,-0.001637999,-0.050456006,0.89,-0.05,-0.4,22772,10046.40,0,0,0,3.36,-3.71,-0.91,0.89,-0.05,-0.40
-4.3671875,0.06999202,-0.0036379993,-0.056456007,0.89,-0.05,-0.4,22787,10045.40,0,0,0,2.38,-3.85,-1.33,0.89,-0.05,-0.40
-4.067383,0.037992015,-0.001637999,-0.039456006,0.89,-0.06,-0.4,22810,10045.70,0,0,0,0.14,-3.71,-0.14,0.89,-0.06,-0.40
-4.067383,0.024992015,0.0013619997,-0.035456005,0.88,-0.06,-0.4,22825,10045.70,0,0,0,-0.77,-3.50,0.14,0.88,-0.06,-0.40
-4.3671875,0.026992016,-0.0056379996,-0.027456006,0.89,-0.05,-0.41,22847,10045.40,0,0,0,-0.63,-3.99,0.70,0.89,-0.05,-0.41
-4.6679688,0.039992016,-0.012638003,-0.028456006,0.89,-0.05,-0.4,22863,10045.10,0,0,0,0.28,-4.48,0.63,0.89,-0.05,-0.40
-4.067383,0.017992016,-0.016638003,-0.023456005,0.89,-0.05,-0.41,22884,10045.70,0,0,0,-1.26,-4.76,0.98,0.89,-0.05,-0.41
-4.067383,0.008992014,-0.007638,-0.0134560075,0.89,-0.06,-0.41,22900,10045.70,0,0,0,-1.89,-4.13,1.68,0.89,-0.06,-0.41
-4.067383,0.012992015,-0.001637999,-0.022456005,0.89,-0.05,-0.41,22922,10045.70,0,0,0,-1.61,-3.71,1.05,0.89,-0.05,-0.41
-3.6679688,0.036992013,-0.009638,-0.034456007,0.88,-0.05,-0.41,22937,10046.10,0,0,0,0.07,-4.27,0.21,0.88,-0.05,-0.41
-7.067383,0.07999201,-0.023638003,-0.046456005,0.89,-0.05,-0.4,22959,10042.70,0,0,0,3.08,-5.25,-0.63,0.89,-0.05,-0.40
-6.067383,0.056992017,-0.021637999,-0.038456004,0.89,-0.05,-0.4,22975,10043.70,0,0,0,1.47,-5.11,-0.07,0.89,-0.05,-0.40
-4.6679688,0.021992015,-6.3800067E-4,-0.029456005,0.9,-0.05,-0.4,22989,10045.10,0,0,0,-0.98,-3.64,0.56,0.90,-0.05,-0.40
-4.6679688,-0.020007987,0.018362,-0.011456005,0.89,-0.05,-0.41,23013,10045.10,0,0,0,-3.92,-2.31,1.82,0.89,-0.05,-0.41
-4.6679688,-0.0020079874,0.020361999,-0.018456005,0.88,-0.05,-0.42,23028,10045.10,0,0,0,-2.66,-2.17,1.33,0.88,-0.05,-0.42
-5.6679688,0.057992015,0.0063619986,-0.044456005,0.88,-0.05,-0.42,23050,10044.10,0,0,0,1.54,-3.15,-0.49,0.88,-0.05,-0.42
-5.3671875,0.08799201,-0.001637999,-0.055456005,0.89,-0.05,-0.41,23065,10044.40,0,0,0,3.64,-3.71,-1.26,0.89,-0.05,-0.41
-4.6679688,0.046992015,0.008361999,-0.035456005,0.88,-0.06,-0.39,23088,10045.10,0,0,0,0.77,-3.01,0.14,0.88,-0.06,-0.39
-5.3671875,0.029992016,0.019361999,-0.039456006,0.89,-0.06,-0.41,23103,10044.40,0,0,0,-0.42,-2.24,-0.14,0.89,-0.06,-0.41
-4.3671875,0.0019920133,0.037362,-0.040456004,0.89,-0.05,-0.41,23125,10045.40,0,0,0,-2.38,-0.98,-0.21,0.89,-0.05,-0.41
-4.3671875,-0.008007985,0.032362,-0.025456008,0.88,-0.05,-0.41,23140,10045.40,0,0,0,-3.08,-1.33,0.84,0.88,-0.05,-0.41
-4.3671875,-0.0020079874,0.012362,-0.020456005,0.89,-0.04,-0.42,23162,10045.40,0,0,0,-2.66,-2.73,1.19,0.89,-0.04,-0.42
-5.067383,0.06999202,0.0073620006,-0.051456004,0.89,-0.05,-0.41,23178,10044.70,0,0,0,2.38,-3.08,-0.98,0.89,-0.05,-0.41
-4.3671875,0.08299202,0.024362,-0.065456,0.89,-0.05,-0.4,23200,10045.40,0,0,0,3.29,-1.89,-1.96,0.89,-0.05,-0.40
-4.067383,0.030992016,0.031362,-0.042456005,0.89,-0.05,-0.4,23215,10045.70,0,0,0,-0.35,-1.40,-0.35,0.89,-0.05,-0.40
-3.3671875,-0.010007985,0.026362,-0.009456005,0.89,-0.05,-0.41,23230,10046.40,0,0,0,-3.22,-1.75,1.96,0.89,-0.05,-0.41
-2.9677734,0.0019920133,0.013361998,-0.003456004,0.88,-0.05,-0.41,23253,10046.80,0,0,0,-2.38,-2.66,2.38,0.88,-0.05,-0.41
-2.9677734,0.034992017,0.014362,-0.028456006,0.89,-0.05,-0.4,23267,10046.80,0,0,0,-0.07,-2.59,0.63,0.89,-0.05,-0.40
-1.9677734,0.022992015,0.016362,-0.033456005,0.9,-0.05,-0.39,23290,10047.80,0,0,0,-0.91,-2.45,0.28,0.90,-0.05,-0.39
-4.067383,-0.016007986,0.025362,-0.020456005,0.9,-0.04,-0.4,23304,10045.70,0,0,0,-3.64,-1.82,1.19,0.90,-0.04,-0.40
-1.9677734,9.92015E-4,0.043362,-0.034456007,0.89,-0.05,-0.4,23328,10047.80,0,0,0,-2.45,-0.56,0.21,0.89,-0.05,-0.40
-2.3671875,0.054992016,0.048362,-0.06945601,0.88,-0.05,-0.41,23342,10047.40,0,0,0,1.33,-0.21,-2.24,0.88,-0.05,-0.41
-1.9677734,0.059992015,0.027362002,-0.06745601,0.88,-0.06,-0.41,23365,10047.80,0,0,0,1.68,-1.68,-2.10,0.88,-0.06,-0.41
-1.9677734,0.051992014,0.015362002,-0.054456007,0.89,-0.05,-0.4,23380,10047.80,0,0,0,1.12,-2.52,-1.19,0.89,-0.05,-0.40
0.33203125,0.010992015,0.014362,-0.023456005,0.9,-0.05,-0.39,23402,10050.10,0,0,0,-1.75,-2.59,0.98,0.90,-0.05,-0.39
-1.6679688,-0.009007987,0.026362,-0.018456005,0.9,-0.04,-0.4,23417,10048.10,0,0,0,-3.15,-1.75,1.33,0.90,-0.04,-0.40
-0.66796875,-0.0070079863,0.042362,-0.023456005,0.89,-0.04,-0.4,23440,10049.10,0,0,0,-3.01,-0.63,0.98,0.89,-0.04,-0.40
-0.66796875,0.011992017,0.034362,-0.029456005,0.89,-0.06,-0.41,23455,10049.10,0,0,0,-1.68,-1.19,0.56,0.89,-0.06,-0.41
-0.66796875,0.06999202,0.017361999,-0.044456005,0.89,-0.06,-0.39,23470,10049.10,0,0,0,2.38,-2.38,-0.49,0.89,-0.06,-0.39
0.7324219,0.052992016,0.013361998,0.21554399,0.89,-0.06,-0.39,23492,10050.50,0,0,0,1.19,-2.66,17.71,0.89,-0.06,-0.39
-0.66796875,-0.008007985,0.011362001,-0.016456006,0.9,-0.05,-0.39,23508,10049.10,0,0,0,-3.08,-2.80,1.47,0.90,-0.05,-0.39
0.032226562,-0.0060079843,0.036362,-0.024456006,0.9,-0.04,-0.41,23530,10049.80,0,0,0,-2.94,-1.05,0.91,0.90,-0.04,-0.41
1.7324219,0.026992016,0.045362,-0.042456005,0.9,-0.03,-0.4,23545,10051.50,0,0,0,-0.63,-0.42,-0.35,0.90,-0.03,-0.40
1.7324219,0.066992015,0.034362,-0.050456006,0.89,-0.05,-0.41,23567,10051.50,0,0,0,2.17,-1.19,-0.91,0.89,-0.05,-0.41
1.7324219,0.06599201,0.016362,-0.049456004,0.89,-0.05,-0.4,23583,10051.50,0,0,0,2.10,-2.45,-0.84,0.89,-0.05,-0.40
2.7324219,0.047992013,0.018362,-0.035456005,0.9,-0.04,-0.39,23605,10052.50,0,0,0,0.84,-2.31,0.14,0.90,-0.04,-0.39
3.7324219,0.017992016,0.028362,-0.029456005,0.9,-0.04,-0.39,23620,10053.50,0,0,0,-1.26,-1.61,0.56,0.90,-0.04,-0.39
3.0322266,0.017992016,0.039362002,-0.028456006,0.9,-0.03,-0.39,23643,10052.80,0,0,0,-1.26,-0.84,0.63,0.90,-0.03,-0.39
2.7324219,0.028992016,0.027362002,-0.034456007,0.89,-0.04,-0.4,23657,10052.50,0,0,0,-0.49,-1.68,0.21,0.89,-0.04,-0.40
2.0322266,0.055992015,0.012362,-0.045456007,0.89,-0.04,-0.4,23680,10051.80,0,0,0,1.40,-2.73,-0.56,0.89,-0.04,-0.40
3.0322266,0.08499202,-0.002638001,-0.055456005,0.89,-0.04,-0.39,23694,10052.80,0,0,0,3.43,-3.78,-1.26,0.89,-0.04,-0.39
3.0322266,0.06499201,-0.001637999,-0.050456006,0.9,-0.04,-0.39,23709,10052.80,0,0,0,2.03,-3.71,-0.91,0.90,-0.04,-0.39
3.0322266,0.040992014,3.6200136E-4,-0.031456005,0.9,-0.04,-0.39,23732,10052.80,0,0,0,0.35,-3.57,0.42,0.90,-0.04,-0.39
2.0322266,0.042992014,0.009362001,-0.030456007,0.89,-0.03,-0.39,23747,10051.80,0,0,0,0.49,-2.94,0.49,0.89,-0.03,-0.39
3.0322266,0.06499201,0.0073620006,-0.052456006,0.89,-0.03,-0.4,23769,10052.80,0,0,0,2.03,-3.08,-1.05,0.89,-0.03,-0.40
3.3320312,0.10199201,0.002361998,-0.072456,0.89,-0.04,-0.4,23784,10053.10,0,0,0,4.62,-3.43,-2.45,0.89,-0.04,-0.40
2.0322266,0.08799201,0.0063619986,-0.058456004,0.91,-0.04,-0.39,23807,10051.80,0,0,0,3.64,-3.15,-1.47,0.91,-0.04,-0.39
1.3320312,0.048992015,0.0053620003,-0.035456005,0.9,-0.04,-0.39,23822,10051.10,0,0,0,0.91,-3.22,0.14,0.90,-0.04,-0.39
2.3320312,0.055992015,0.0063619986,-0.047456004,0.89,-0.04,-0.4,23846,10052.10,0,0,0,1.40,-3.15,-0.70,0.89,-0.04,-0.40
1.3320312,0.09999202,0.018362,-0.080456,0.89,-0.03,-0.4,23859,10051.10,0,0,0,4.48,-2.31,-3.01,0.89,-0.03,-0.40
1.3320312,0.09899202,0.017361999,-0.08245601,0.89,-0.04,-0.4,23883,10051.10,0,0,0,4.41,-2.38,-3.15,0.89,-0.04,-0.40
2.3320312,0.09199202,0.002361998,-0.062456004,0.89,-0.04,-0.39,23897,10052.10,0,0,0,3.92,-3.43,-1.75,0.89,-0.04,-0.39
1.3320312,0.059992015,-0.011638001,-0.023456005,0.9,-0.04,-0.38,23920,10051.10,0,0,0,1.68,-4.41,0.98,0.90,-0.04,-0.38
4.732422,0.037992015,-6.3800067E-4,-0.029456005,0.9,-0.03,-0.38,23935,10054.50,0,0,0,0.14,-3.64,0.56,0.90,-0.03,-0.38
0.7324219,0.049992017,0.019361999,-0.040456004,0.9,-0.05,-0.4,23957,10050.50,0,0,0,0.98,-2.24,-0.21,0.90,-0.05,-0.40
1.7324219,0.07699201,0.014362,-0.048456006,0.89,-0.04,-0.39,23972,10051.50,0,0,0,2.87,-2.59,-0.77,0.89,-0.04,-0.39
2.7324219,0.08799201,0.0073620006,-0.046456005,0.89,-0.04,-0.39,23987,10052.50,0,0,0,3.64,-3.08,-0.63,0.89,-0.04,-0.39
1.7324219,0.060992017,-0.009638,-0.018456005,0.9,-0.04,-0.38,24010,10051.50,0,0,0,1.75,-4.27,1.33,0.90,-0.04,-0.38
1.7324219,0.021992015,-0.008637998,5.439967E-4,0.9,-0.04,-0.38,24025,10051.50,0,0,0,-0.98,-4.20,2.66,0.90,-0.04,-0.38
1.7324219,0.012992015,0.011362001,-0.016456006,0.9,-0.03,-0.39,24048,10051.50,0,0,0,-1.61,-2.80,1.47,0.90,-0.03,-0.39
0.7324219,0.055992015,0.013361998,-0.046456005,0.89,-0.04,-0.4,24063,10050.50,0,0,0,1.40,-2.66,-0.63,0.89,-0.04,-0.40
2.0322266,0.10699201,0.0053620003,-0.077456005,0.9,-0.04,-0.39,24085,10051.80,0,0,0,4.97,-3.22,-2.80,0.90,-0.04,-0.39
1.0322266,0.088992015,-6.3800067E-4,-0.056456007,0.9,-0.04,-0.4,24100,10050.80,0,0,0,3.71,-3.64,-1.33,0.90,-0.04,-0.40
2.0322266,0.035992015,0.004362002,-0.027456006,0.9,-0.04,-0.39,24122,10051.80,0,0,0,0.00,-3.29,0.70,0.90,-0.04,-0.39
2.0322266,0.017992016,0.0033620037,-0.010456005,0.9,-0.04,-0.39,24137,10051.80,0,0,0,-1.26,-3.36,1.89,0.90,-0.04,-0.39
2.0322266,0.034992017,-0.0036379993,-0.012456005,0.89,-0.03,-0.4,24160,10051.80,0,0,0,-0.07,-3.85,1.75,0.89,-0.03,-0.40
2.0322266,0.053992014,-0.0046380013,-0.022456005,0.89,-0.04,-0.4,24174,10051.80,0,0,0,1.26,-3.92,1.05,0.89,-0.04,-0.40
1.3320312,0.056992017,-0.002638001,-0.019456007,0.9,-0.04,-0.39,24200,10051.10,0,0,0,1.47,-3.78,1.26,0.90,-0.04,-0.39
3.0322266,0.063992016,0.0033620037,-0.023456005,0.9,-0.05,-0.4,24213,10052.80,0,0,0,1.96,-3.36,0.98,0.90,-0.05,-0.40
1.3320312,0.054992016,0.004362002,-0.011456005,0.9,-0.04,-0.39,24229,10051.10,0,0,0,1.33,-3.29,1.82,0.90,-0.04,-0.39
1.3320312,0.039992016,0.019361999,-0.0054560043,0.9,-0.04,-0.38,24249,10051.10,0,0,0,0.28,-2.24,2.24,0.90,-0.04,-0.38
2.3320312,0.027992014,0.028362,-0.010456005,0.89,-0.04,-0.38,24265,10052.10,0,0,0,-0.56,-1.61,1.89,0.89,-0.04,-0.38
1.3320312,0.029992016,0.023362,-0.018456005,0.89,-0.04,-0.39,24288,10051.10,0,0,0,-0.42,-1.96,1.33,0.89,-0.04,-0.39
2.3320312,0.056992017,0.021362001,-0.029456005,0.89,-0.04,-0.4,24302,10052.10,0,0,0,1.47,-2.10,0.56,0.89,-0.04,-0.40
1.3320312,0.055992015,0.0053620003,-0.017456006,0.9,-0.04,-0.38,24324,10051.10,0,0,0,1.40,-3.22,1.40,0.90,-0.04,-0.38
2.3320312,0.036992013,0.0073620006,-0.010456005,0.9,-0.04,-0.38,24340,10052.10,0,0,0,0.07,-3.08,1.89,0.90,-0.04,-0.38
1.7324219,0.011992017,0.002361998,-4.5600533E-4,0.9,-0.04,-0.39,24363,10051.50,0,0,0,-1.68,-3.43,2.59,0.90,-0.04,-0.39
1.7324219,0.039992016,0.010362003,-0.017456006,0.9,-0.03,-0.39,24377,10051.50,0,0,0,0.28,-2.87,1.40,0.90,-0.03,-0.39
1.7324219,0.07999201,0.034362,-0.045456007,0.89,-0.04,-0.39,24400,10051.50,0,0,0,3.08,-1.19,-0.56,0.89,-0.04,-0.39
0.7324219,0.035992015,0.042362,-0.032456007,0.9,-0.04,-0.4,24415,10050.50,0,0,0,0.00,-0.63,0.35,0.90,-0.04,-0.40
1.3320312,0.06599201,0.023362,-0.026456006,0.9,-0.04,-0.39,24437,10051.10,0,0,0,2.10,-1.96,0.77,0.90,-0.04,-0.39
1.7324219,0.033992015,0.013361998,-0.003456004,0.9,-0.05,-0.39,24452,10051.50,0,0,0,-0.14,-2.66,2.38,0.90,-0.05,-0.39
0.7324219,0.025992015,-0.002638001,0.011543997,0.89,-0.05,-0.38,24474,10050.50,0,0,0,-0.70,-3.78,3.43,0.89,-0.05,-0.38
3.0322266,0.017992016,-0.011638001,0.016543996,0.89,-0.05,-0.38,24489,10052.80,0,0,0,-1.26,-4.41,3.78,0.89,-0.05,-0.38
0.7324219,0.009992015,-0.016638003,0.012543995,0.89,-0.04,-0.39,24512,10050.50,0,0,0,-1.82,-4.76,3.50,0.89,-0.04,-0.39
1.0322266,0.011992017,-0.0046380013,-0.004456006,0.9,-0.05,-0.39,24527,10050.80,0,0,0,-1.68,-3.92,2.31,0.90,-0.05,-0.39
1.0322266,0.021992015,0.0053620003,-0.020456005,0.9,-0.05,-0.39,24542,10050.80,0,0,0,-0.98,-3.22,1.19,0.90,-0.05,-0.39
1.7324219,0.047992013,0.011362001,-0.047456004,0.89,-0.05,-0.39,24565,10051.50,0,0,0,0.84,-2.80,-0.70,0.89,-0.05,-0.39
1.0322266,0.06599201,0.012362,-0.059456006,0.89,-0.04,-0.39,24580,10050.80,0,0,0,2.10,-2.73,-1.54,0.89,-0.04,-0.39
-0.26757812,0.052992016,0.0063619986,-0.052456006,0.89,-0.06,-0.39,24603,10049.50,0,0,0,1.19,-3.15,-1.05,0.89,-0.06,-0.39
0.032226562,0.053992014,0.0053620003,-0.040456004,0.9,-0.06,-0.39,24624,10049.80,0,0,0,1.26,-3.22,-0.21,0.90,-0.06,-0.39
0.032226562,-0.014007986,0.018362,-0.020456005,0.9,-0.04,-0.38,24640,10049.80,0,0,0,-3.50,-2.31,1.19,0.90,-0.04,-0.38
0.33203125,-0.05100799,0.027362002,-0.0074560065,0.9,-0.04,-0.39,24663,10050.10,0,0,0,-6.09,-1.68,2.10,0.90,-0.04,-0.39
-0.96777344,-0.030007984,-0.002638001,-4.5600533E-4,0.89,-0.03,-0.39,24678,10048.80,0,0,0,-4.62,-3.78,2.59,0.89,-0.03,-0.39
-0.66796875,0.005992016,-0.027638003,-0.0074560065,0.89,-0.04,-0.39,24700,10049.10,0,0,0,-2.10,-5.53,2.10,0.89,-0.04,-0.39
-0.66796875,0.024992015,-0.035638005,-0.021456005,0.91,-0.05,-0.39,24715,10049.10,0,0,0,-0.77,-6.09,1.12,0.91,-0.05,-0.39
-0.66796875,0.004992014,-0.023638003,-0.0074560065,0.91,-0.06,-0.39,24730,10049.10,0,0,0,-2.17,-5.25,2.10,0.91,-0.06,-0.39
-0.66796875,-0.013007987,-0.008637998,0.010543991,0.89,-0.05,-0.39,24752,10049.10,0,0,0,-3.43,-4.20,3.36,0.89,-0.05,-0.39
0.33203125,-0.017007984,-0.010638002,0.0045439936,0.89,-0.04,-0.39,24767,10050.10,0,0,0,-3.71,-4.34,2.94,0.89,-0.04,-0.39
-2.6679688,-7.983297E-6,-0.009638,-0.009456005,0.89,-0.04,-0.4,24790,10047.10,0,0,0,-2.52,-4.27,1.96,0.89,-0.04,-0.40
-2.6679688,0.0029920153,-0.016638003,-0.010456005,0.9,-0.05,-0.39,24812,10047.10,0,0,0,-2.31,-4.76,1.89,0.90,-0.05,-0.39
-2.6679688,-0.021007985,-0.012638003,-0.0014560074,0.89,-0.04,-0.39,24827,10047.10,0,0,0,-3.99,-4.48,2.52,0.89,-0.04,-0.39
-3.3671875,-0.004007984,-0.002638001,-0.015456006,0.89,-0.04,-0.4,24849,10046.40,0,0,0,-2.80,-3.78,1.54,0.89,-0.04,-0.40
-2.3671875,0.034992017,-0.0036379993,-0.043456007,0.88,-0.04,-0.4,24864,10047.40,0,0,0,-0.07,-3.85,-0.42,0.88,-0.04,-0.40
-3.3671875,0.059992015,-0.002638001,-0.060456008,0.89,-0.05,-0.41,24887,10046.40,0,0,0,1.68,-3.78,-1.61,0.89,-0.05,-0.41
-2.3671875,0.037992015,-0.014637999,-0.033456005,0.89,-0.05,-0.4,24902,10047.40,0,0,0,0.14,-4.62,0.28,0.89,-0.05,-0.40
-3.3671875,-0.015007984,-0.016638003,-0.0054560043,0.89,-0.04,-0.39,24925,10046.40,0,0,0,-3.57,-4.76,2.24,0.89,-0.04,-0.39
-3.3671875,-0.025007986,-0.010638002,-0.0024560057,0.89,-0.04,-0.4,24940,10046.40,0,0,0,-4.27,-4.34,2.45,0.89,-0.04,-0.40
-3.3671875,-7.983297E-6,-0.0056379996,-0.017456006,0.89,-0.04,-0.4,24962,10046.40,0,0,0,-2.52,-3.99,1.40,0.89,-0.04,-0.40
-3.9677734,0.017992016,-0.013638005,-0.025456008,0.88,-0.04,-0.41,24977,10045.80,0,0,0,-1.26,-4.55,0.84,0.88,-0.04,-0.41
-4.3671875,0.060992017,-0.021637999,-0.029456005,0.89,-0.04,-0.4,25000,10045.40,0,0,0,1.75,-5.11,0.56,0.89,-0.04,-0.40
-2.6679688,0.039992016,-0.017637998,-0.022456005,0.89,-0.04,-0.4,25015,10047.10,0,0,0,0.28,-4.83,1.05,0.89,-0.04,-0.40
-3.9677734,0.007992014,0.0033620037,-0.012456005,0.89,-0.04,-0.4,25037,10045.80,0,0,0,-1.96,-3.36,1.75,0.89,-0.04,-0.40
-3.9677734,-0.0010079853,0.0063619986,-0.010456005,0.89,-0.04,-0.41,25052,10045.80,0,0,0,-2.59,-3.15,1.89,0.89,-0.04,-0.41
-2.9677734,0.033992015,-0.0046380013,-0.025456008,0.89,-0.04,-0.41,25067,10046.80,0,0,0,-0.14,-3.92,0.84,0.89,-0.04,-0.41
-2.6679688,0.06899202,-0.011638001,-0.037456006,0.9,-0.05,-0.41,25090,10047.10,0,0,0,2.31,-4.41,0.00,0.90,-0.05,-0.41
-3.6679688,0.07899202,-0.010638002,-0.033456005,0.9,-0.05,-0.4,25105,10046.10,0,0,0,3.01,-4.34,0.28,0.90,-0.05,-0.40
-4.6679688,0.031992014,3.6200136E-4,-0.009456005,0.9,-0.05,-0.4,25127,10045.10,0,0,0,-0.28,-3.57,1.96,0.90,-0.05,-0.40
-3.6679688,0.027992014,0.009362001,-0.0024560057,0.89,-0.05,-0.4,25142,10046.10,0,0,0,-0.56,-2.94,2.45,0.89,-0.05,-0.40
-4.6679688,0.033992015,0.014362,-0.008456007,0.88,-0.04,-0.41,25164,10045.10,0,0,0,-0.14,-2.59,2.03,0.88,-0.04,-0.41
-4.6679688,0.060992017,0.004362002,-0.016456006,0.88,-0.04,-0.41,25179,10045.10,0,0,0,1.75,-3.29,1.47,0.88,-0.04,-0.41
-4.6679688,0.066992015,0.002361998,-0.008456007,0.89,-0.05,-0.4,25202,10045.10,0,0,0,2.17,-3.43,2.03,0.89,-0.05,-0.40
-5.3671875,0.033992015,0.0053620003,0.0035439916,0.89,-0.05,-0.39,25217,10044.40,0,0,0,-0.14,-3.22,2.87,0.89,-0.05,-0.39
-3.6679688,0.010992015,0.022362001,0.0055439956,0.89,-0.05,-0.4,25240,10046.10,0,0,0,-1.75,-2.03,3.01,0.89,-0.05,-0.40
-3.6679688,0.026992016,0.026362,-0.0074560065,0.89,-0.05,-0.41,25255,10046.10,0,0,0,-0.63,-1.75,2.10,0.89,-0.05,-0.41
-2.2675781,0.074992016,0.017361999,-0.037456006,0.88,-0.05,-0.41,25278,10047.50,0,0,0,2.73,-2.38,0.00,0.88,-0.05,-0.41
-5.3671875,0.09499201,0.0063619986,-0.046456005,0.89,-0.05,-0.4,25292,10044.40,0,0,0,4.13,-3.15,-0.63,0.89,-0.05,-0.40
-5.3671875,0.09199202,0.004362002,-0.043456007,0.89,-0.06,-0.4,25307,10044.40,0,0,0,3.92,-3.29,-0.42,0.89,-0.06,-0.40
-6.3671875,0.044992015,0.014362,-0.020456005,0.9,-0.06,-0.4,25330,10043.40,0,0,0,0.63,-2.59,1.19,0.90,-0.06,-0.40
-6.3671875,0.028992016,0.019361999,-0.010456005,0.89,-0.06,-0.39,25345,10043.40,0,0,0,-0.49,-2.24,1.89,0.89,-0.06,-0.39
-6.3671875,0.043992016,0.0073620006,-0.024456006,0.89,-0.06,-0.4,25367,10043.40,0,0,0,0.56,-3.08,0.91,0.89,-0.06,-0.40
-5.3671875,0.073992014,0.008361999,-0.044456005,0.89,-0.05,-0.41,25383,10044.40,0,0,0,2.66,-3.01,-0.49,0.89,-0.05,-0.41
-4.9677734,0.059992015,0.012362,-0.030456007,0.89,-0.06,-0.4,25405,10044.80,0,0,0,1.68,-2.73,0.49,0.89,-0.06,-0.40
-6.3671875,0.024992015,0.0033620037,0.0025439933,0.9,-0.05,-0.4,25420,10043.40,0,0,0,-0.77,-3.36,2.80,0.90,-0.05,-0.40
-5.9677734,9.92015E-4,-0.0046380013,0.022543993,0.9,-0.05,-0.39,25442,10043.80,0,0,0,-2.45,-3.92,4.20,0.90,-0.05,-0.39
-5.9677734,0.023992017,0.004362002,5.439967E-4,0.91,-0.04,-0.38,25457,10043.80,0,0,0,-0.84,-3.29,2.66,0.91,-0.04,-0.38
-5.9677734,0.0019920133,-0.036638,0.016543996,0.88,-0.07,-0.41,25480,10043.80,0,0,0,-2.38,-6.16,3.78,0.88,-0.07,-0.41
-6.9677734,0.09899202,-0.031637996,-0.042456005,0.88,-0.07,-0.4,25494,10042.80,0,0,0,4.41,-5.81,-0.35,0.88,-0.07,-0.40
-6.9677734,0.08999202,0.022362001,-0.066456005,0.88,-0.06,-0.39,25517,10042.80,0,0,0,3.78,-2.03,-2.03,0.88,-0.06,-0.39
-6.6679688,0.045992017,0.037362,-0.050456006,0.89,-0.06,-0.39,25532,10043.10,0,0,0,0.70,-0.98,-0.91,0.89,-0.06,-0.39
-5.9677734,0.017992016,0.026362,-0.032456007,0.9,-0.06,-0.39,25555,10043.80,0,0,0,-1.26,-1.75,0.35,0.90,-0.06,-0.39
-6.6679688,0.014992015,0.024362,-0.029456005,0.9,-0.03,-0.4,25570,10043.10,0,0,0,-1.47,-1.89,0.56,0.90,-0.03,-0.40
-5.6679688,0.021992015,0.008361999,-0.017456006,0.89,-0.05,-0.4,25585,10044.10,0,0,0,-0.98,-3.01,1.40,0.89,-0.05,-0.40
-4.6679688,0.074992016,-0.021637999,-0.027456006,0.89,-0.06,-0.4,25607,10045.10,0,0,0,2.73,-5.11,0.70,0.89,-0.06,-0.40
-5.6679688,0.056992017,-0.017637998,-0.026456006,0.89,-0.07,-0.4,25622,10044.10,0,0,0,1.47,-4.83,0.77,0.89,-0.07,-0.40
-4.6679688,0.006992016,0.004362002,-0.012456005,0.89,-0.06,-0.4,25645,10045.10,0,0,0,-2.03,-3.29,1.75,0.89,-0.06,-0.40
-4.6679688,-0.016007986,0.008361999,-0.0024560057,0.89,-0.05,-0.4,25659,10045.10,0,0,0,-3.64,-3.01,2.45,0.89,-0.05,-0.40
-4.3671875,0.28399202,0.020361999,-0.041456006,0.89,-0.05,-0.4,25682,10045.40,0,0,0,17.36,-2.17,-0.28,0.89,-0.05,-0.40
-4.6679688,0.073992014,0.023362,-0.06745601,0.89,-0.05,-0.4,25698,10045.10,0,0,0,2.66,-1.96,-2.10,0.89,-0.05,-0.40
-4.3671875,0.07999201,0.014362,-0.058456004,0.89,-0.06,-0.4,25721,10045.40,0,0,0,3.08,-2.59,-1.47,0.89,-0.06,-0.40
-3.2675781,0.06499201,0.012362,-0.042456005,0.89,-0.06,-0.39,25735,10046.50,0,0,0,2.03,-2.73,-0.35,0.89,-0.06,-0.39
-5.3671875,0.0029920153,0.012362,-0.014456006,0.89,-0.06,-0.39,25758,10044.40,0,0,0,-2.31,-2.73,1.61,0.89,-0.06,-0.39
-3.2675781,-0.02900799,0.009362001,-0.003456004,0.89,-0.05,-0.4,25773,10046.50,0,0,0,-4.55,-2.94,2.38,0.89,-0.05,-0.40
-2.9677734,-0.0050079823,3.6200136E-4,-0.012456005,0.89,-0.04,-0.41,25787,10046.80,0,0,0,-2.87,-3.57,1.75,0.89,-0.04,-0.41
-2.9677734,0.055992015,-0.006637998,-0.045456007,0.89,-0.05,-0.4,25809,10046.80,0,0,0,1.40,-4.06,-0.56,0.89,-0.05,-0.40
-2.9677734,0.07599202,-0.0046380013,-0.054456007,0.89,-0.06,-0.41,25824,10046.80,0,0,0,2.80,-3.92,-1.19,0.89,-0.06,-0.41
-2.2675781,0.036992013,0.015362002,-0.036456008,0.9,-0.05,-0.39,25847,10047.50,0,0,0,0.07,-2.52,0.07,0.90,-0.05,-0.39
0.032226562,-0.0070079863,0.026362,-0.014456006,0.9,-0.05,-0.39,25863,10049.80,0,0,0,-3.01,-1.75,1.61,0.90,-0.05,-0.39
-1.2675781,-0.0070079863,0.032362,-0.012456005,0.89,-0.05,-0.4,25885,10048.50,0,0,0,-3.01,-1.33,1.75,0.89,-0.05,-0.40
-0.96777344,0.008992014,0.023362,-0.024456006,0.89,-0.05,-0.41,25899,10048.80,0,0,0,-1.89,-1.96,0.91,0.89,-0.05,-0.41
-0.96777344,0.07599202,0.0053620003,-0.044456005,0.89,-0.06,-0.4,25922,10048.80,0,0,0,2.80,-3.22,-0.49,0.89,-0.06,-0.40
0.4326172,0.074992016,0.0033620037,-0.041456006,0.89,-0.05,-0.39,25937,10050.20,0,0,0,2.73,-3.36,-0.28,0.89,-0.05,-0.39
1.4326172,0.035992015,0.013361998,-0.040456004,0.9,-0.05,-0.39,25960,10051.20,0,0,0,0.00,-2.66,-0.21,0.90,-0.05,-0.39
1.4326172,0.022992015,0.022362001,-0.027456006,0.9,-0.05,-0.39,25974,10051.20,0,0,0,-0.91,-2.03,0.70,0.90,-0.05,-0.39
1.4326172,0.0029920153,0.025362,-0.019456007,0.9,-0.05,-0.4,25998,10051.20,0,0,0,-2.31,-1.82,1.26,0.90,-0.05,-0.40
2.0322266,0.020992015,0.015362002,-0.020456005,0.89,-0.04,-0.4,26013,10051.80,0,0,0,-1.05,-2.52,1.19,0.89,-0.04,-0.40
3.4326172,0.050992016,-0.0056379996,-0.038456004,0.89,-0.05,-0.4,26035,10053.20,0,0,0,1.05,-3.99,-0.07,0.89,-0.05,-0.40
3.4326172,0.066992015,0.0013619997,-0.05345601,0.89,-0.05,-0.41,26050,10053.20,0,0,0,2.17,-3.50,-1.12,0.89,-0.05,-0.41
4.432617,0.044992015,0.020361999,-0.043456007,0.9,-0.06,-0.4,26065,10054.20,0,0,0,0.63,-2.17,-0.42,0.90,-0.06,-0.40
2.7324219,-0.0010079853,0.024362,-0.019456007,0.89,-0.05,-0.39,26088,10052.50,0,0,0,-2.59,-1.89,1.26,0.89,-0.05,-0.39
3.4326172,-0.008007985,0.017361999,-0.019456007,0.89,-0.04,-0.39,26103,10053.20,0,0,0,-3.08,-2.38,1.26,0.89,-0.04,-0.39
4.432617,0.044992015,0.008361999,-0.045456007,0.89,-0.05,-0.4,26124,10054.20,0,0,0,0.63,-3.01,-0.56,0.89,-0.05,-0.40
3.7324219,0.08299202,0.0073620006,-0.060456008,0.9,-0.05,-0.4,26140,10053.50,0,0,0,3.29,-3.08,-1.61,0.90,-0.05,-0.40
3.7324219,0.060992017,0.0033620037,-0.038456004,0.9,-0.05,-0.39,26163,10053.50,0,0,0,1.75,-3.36,-0.07,0.90,-0.05,-0.39
2.7324219,0.005992016,0.011362001,-0.0064560045,0.9,-0.05,-0.38,26177,10052.50,0,0,0,-2.10,-2.80,2.17,0.90,-0.05,-0.38
2.7324219,-0.04300799,0.016362,0.017543994,0.89,-0.04,-0.39,26200,10052.50,0,0,0,-5.53,-2.45,3.85,0.89,-0.04,-0.39
3.7324219,-0.018007986,0.018362,-0.0074560065,0.89,-0.05,-0.4,26214,10053.50,0,0,0,-3.78,-2.31,2.10,0.89,-0.05,-0.40
1.7324219,0.045992017,0.0013619997,-0.035456005,0.89,-0.04,-0.41,26237,10051.50,0,0,0,0.70,-3.50,0.14,0.89,-0.04,-0.41
3.7324219,0.077992015,-0.007638,-0.052456006,0.89,-0.05,-0.39,26253,10053.50,0,0,0,2.94,-4.13,-1.05,0.89,-0.05,-0.39
5.1328125,0.07899202,0.0013619997,-0.062456004,0.9,-0.05,-0.39,26275,10054.90,0,0,0,3.01,-3.50,-1.75,0.90,-0.05,-0.39
2.0322266,0.036992013,0.014362,-0.047456004,0.9,-0.05,-0.39,26290,10051.80,0,0,0,0.07,-2.59,-0.70,0.90,-0.05,-0.39
3.0322266,0.023992017,0.027362002,-0.041456006,0.89,-0.04,-0.4,26304,10052.80,0,0,0,-0.84,-1.68,-0.28,0.89,-0.04,-0.40
2.0322266,0.028992016,0.018362,-0.039456006,0.89,-0.05,-0.4,26328,10051.80,0,0,0,-0.49,-2.31,-0.14,0.89,-0.05,-0.40
1.7324219,0.055992015,-0.0036379993,-0.043456007,0.89,-0.04,-0.4,26342,10051.50,0,0,0,1.40,-3.85,-0.42,0.89,-0.04,-0.40
1.4326172,0.081992015,-0.006637998,-0.052456006,0.9,-0.04,-0.4,26365,10051.20,0,0,0,3.22,-4.06,-1.05,0.90,-0.04,-0.40
2.7324219,0.066992015,-0.002638001,-0.041456006,0.9,-0.04,-0.39,26380,10052.50,0,0,0,2.17,-3.78,-0.28,0.90,-0.04,-0.39
2.0322266,0.022992015,0.0073620006,-0.017456006,0.9,-0.05,-0.39,26402,10051.80,0,0,0,-0.91,-3.08,1.40,0.90,-0.05,-0.39
2.4326172,0.007992014,0.009362001,-0.010456005,0.89,-0.05,-0.39,26418,10052.20,0,0,0,-1.96,-2.94,1.89,0.89,-0.05,-0.39
0.4326172,0.006992016,0.012362,-0.018456005,0.89,-0.04,-0.4,26439,10050.20,0,0,0,-2.03,-2.73,1.33,0.89,-0.04,-0.40
1.4326172,0.043992016,0.010362003,-0.292456,0.89,-0.04,-0.4,26455,10051.20,0,0,0,0.56,-2.87,-17.85,0.89,-0.04,-0.40
1.4326172,0.066992015,0.0073620006,-0.052456006,0.9,-0.05,-0.4,26478,10051.20,0,0,0,2.17,-3.08,-1.05,0.90,-0.05,-0.40
2.4326172,0.06499201,0.015362002,-0.051456004,0.9,-0.05,-0.39,26492,10052.20,0,0,0,2.03,-2.52,-0.98,0.90,-0.05,-0.39
2.4326172,0.029992016,0.027362002,-0.033456005,0.9,-0.05,-0.39,26515,10052.20,0,0,0,-0.42,-1.68,0.28,0.90,-0.05,-0.39
1.4326172,0.007992014,0.029362,-0.020456005,0.89,-0.05,-0.39,26530,10051.20,0,0,0,-1.96,-1.54,1.19,0.89,-0.05,-0.39
0.7324219,0.011992017,0.019361999,-0.019456007,0.89,-0.05,-0.4,26545,10050.50,0,0,0,-1.68,-2.24,1.26,0.89,-0.05,-0.40
1.7324219,0.041992016,0.0013619997,-0.029456005,0.89,-0.04,-0.39,26567,10051.50,0,0,0,0.42,-3.50,0.56,0.89,-0.04,-0.39
1.0322266,0.062992014,0.0033620037,-0.048456006,0.9,-0.04,-0.4,26582,10050.80,0,0,0,1.89,-3.36,-0.77,0.90,-0.04,-0.40
2.7324219,0.07299201,0.009362001,-0.056456007,0.9,-0.05,-0.39,26605,10052.50,0,0,0,2.59,-2.94,-1.33,0.90,-0.05,-0.39
3.1328125,0.055992015,0.020361999,-0.051456004,0.9,-0.05,-0.39,26620,10052.90,0,0,0,1.40,-2.17,-0.98,0.90,-0.05,-0.39
0.7324219,0.034992017,0.011362001,-0.034456007,0.89,-0.05,-0.4,26643,10050.50,0,0,0,-0.07,-2.80,0.21,0.89,-0.05,-0.40
1.7324219,0.043992016,0.018362,-0.037456006,0.89,-0.04,-0.39,26657,10051.50,0,0,0,0.56,-2.31,0.00,0.89,-0.04,-0.39
1.7324219,0.039992016,-0.002638001,-0.028456006,0.89,-0.05,-0.39,26679,10051.50,0,0,0,0.28,-3.78,0.63,0.89,-0.05,-0.39
0.7324219,0.06899202,-0.002638001,-0.051456004,0.9,-0.05,-0.39,26695,10050.50,0,0,0,2.31,-3.78,-0.98,0.90,-0.05,-0.39
-0.26757812,0.025992015,0.016362,-0.036456008,0.9,-0.05,-0.39,26717,10049.50,0,0,0,-0.70,-2.45,0.07,0.90,-0.05,-0.39
2.0322266,-0.008007985,0.019361999,-0.021456005,0.89,-0.04,-0.39,26732,10051.80,0,0,0,-3.08,-2.24,1.12,0.89,-0.04,-0.39
0.032226562,-0.020007987,0.012362,-0.008456007,0.89,-0.04,-0.39,26755,10049.80,0,0,0,-3.92,-2.73,2.03,0.89,-0.04,-0.39
1.0322266,0.035992015,0.014362,-0.034456007,0.89,-0.03,-0.4,26770,10050.80,0,0,0,0.00,-2.59,0.21,0.89,-0.03,-0.40
1.0322266,0.058992013,0.020361999,-0.052456006,0.9,-0.05,-0.39,26785,10050.80,0,0,0,1.61,-2.17,-1.05,0.90,-0.05,-0.39
0.032226562,0.051992014,0.014362,-0.037456006,0.9,-0.05,-0.39,26807,10049.80,0,0,0,1.12,-2.59,0.00,0.90,-0.05,-0.39
0.032226562,-0.0010079853,0.012362,-0.0064560045,0.9,-0.05,-0.39,26822,10049.80,0,0,0,-2.59,-2.73,2.17,0.90,-0.05,-0.39
1.0322266,-0.0050079823,0.021362001,-0.0064560045,0.89,-0.04,-0.39,26845,10050.80,0,0,0,-2.87,-2.10,2.17,0.89,-0.04,-0.39
1.0322266,-0.0020079874,0.014362,-0.008456007,0.89,-0.04,-0.39,26860,10050.80,0,0,0,-2.66,-2.59,2.03,0.89,-0.04,-0.39
-0.5673828,0.014992015,0.0013619997,-0.017456006,0.9,-0.04,-0.39,26883,10049.20,0,0,0,-1.47,-3.50,1.40,0.90,-0.04,-0.39
0.4326172,-0.016007986,-6.3800067E-4,-0.009456005,0.9,-0.04,-0.39,26897,10050.20,0,0,0,-3.64,-3.64,1.96,0.90,-0.04,-0.39
-0.5673828,0.018992014,-0.0036379993,-0.030456007,0.89,-0.05,-0.39,26920,10049.20,0,0,0,-1.19,-3.85,0.49,0.89,-0.05,-0.39
-0.5673828,0.011992017,-0.010638002,-0.025456008,0.9,-0.03,-0.39,26935,10049.20,0,0,0,-1.68,-4.34,0.84,0.90,-0.03,-0.39
-0.26757812,-0.004007984,-0.019637994,-0.010456005,0.9,-0.04,-0.41,26957,10049.50,0,0,0,-2.80,-4.97,1.89,0.90,-0.04,-0.41
-1.2675781,0.011992017,-0.027638003,-0.008456007,0.9,-0.05,-0.4,26972,10048.50,0,0,0,-1.68,-5.53,2.03,0.90,-0.05,-0.40
-2.6679688,0.017992016,-0.020637996,-0.011456005,0.9,-0.04,-0.39,26995,10047.10,0,0,0,-1.26,-5.04,1.82,0.90,-0.04,-0.39
-2.6679688,0.0039920136,-0.014637999,-0.014456006,0.89,-0.04,-0.38,27009,10047.10,0,0,0,-2.24,-4.62,1.61,0.89,-0.04,-0.38
-3.6679688,-0.0060079843,0.0013619997,-0.0134560075,0.89,-0.04,-0.4,27024,10046.10,0,0,0,-2.94,-3.50,1.68,0.89,-0.04,-0.40
-3.2675781,0.020992015,0.002361998,-0.028456006,0.89,-0.04,-0.41,27047,10046.50,0,0,0,-1.05,-3.43,0.63,0.89,-0.04,-0.41
-3.2675781,0.057992015,3.6200136E-4,-0.035456005,0.89,-0.05,-0.41,27062,10046.50,0,0,0,1.54,-3.57,0.14,0.89,-0.05,-0.41
-3.2675781,0.057992015,-0.013638005,-0.023456005,0.89,-0.04,-0.4,27085,10046.50,0,0,0,1.54,-4.55,0.98,0.89,-0.04,-0.40
-2.2675781,0.026992016,-0.008637998,-0.014456006,0.89,-0.04,-0.39,27099,10047.50,0,0,0,-0.63,-4.20,1.61,0.89,-0.04,-0.39
-3.2675781,0.006992016,0.010362003,-0.026456006,0.9,-0.04,-0.39,27122,10046.50,0,0,0,-2.03,-2.87,0.77,0.90,-0.04,-0.39
-3.2675781,0.018992014,0.022362001,-0.041456006,0.89,-0.04,-0.39,27137,10046.50,0,0,0,-1.19,-2.03,-0.28,0.89,-0.04,-0.39
-3.9677734,0.043992016,0.010362003,-0.048456006,0.89,-0.04,-0.4,27160,10045.80,0,0,0,0.56,-2.87,-0.77,0.89,-0.04,-0.40
-3.2675781,0.056992017,-0.0046380013,-0.041456006,0.89,-0.04,-0.4,27174,10046.50,0,0,0,1.47,-3.92,-0.28,0.89,-0.04,-0.40
-4.267578,0.047992013,-0.022638,-0.022456005,0.9,-0.04,-0.39,27197,10045.50,0,0,0,0.84,-5.18,1.05,0.90,-0.04,-0.39
-4.9677734,0.044992015,-0.027638003,-0.014456006,0.9,-0.04,-0.39,27212,10044.80,0,0,0,0.63,-5.53,1.61,0.90,-0.04,-0.39
-3.9677734,0.008992014,-0.0036379993,-0.017456006,0.9,-0.03,-0.4,27234,10045.80,0,0,0,-1.89,-3.85,1.40,0.90,-0.03,-0.40
-5.6679688,0.027992014,0.0053620003,-0.030456007,0.89,-0.04,-0.4,27249,10044.10,0,0,0,-0.56,-3.22,0.49,0.89,-0.04,-0.40
-4.9677734,0.070992015,-0.010638002,-0.039456006,0.89,-0.04,-0.4,27272,10044.80,0,0,0,2.45,-4.34,-0.14,0.89,-0.04,-0.40
-1.9677734,0.074992016,-0.012638003,-0.040456004,0.9,-0.04,-0.4,27287,10047.80,0,0,0,2.73,-4.48,-0.21,0.90,-0.04,-0.40
-4.9677734,0.052992016,-0.012638003,-0.029456005,0.9,-0.05,-0.39,27302,10044.80,0,0,0,1.19,-4.48,0.56,0.90,-0.05,-0.39
-4.267578,0.045992017,-0.012638003,-0.029456005,0.9,-0.05,-0.4,27324,10045.50,0,0,0,0.70,-4.48,0.56,0.90,-0.05,-0.40
-3.9677734,0.057992015,0.0063619986,-0.045456007,0.9,-0.04,-0.4,27340,10045.80,0,0,0,1.54,-3.15,-0.56,0.90,-0.04,-0.40
-4.9677734,0.046992015,0.002361998,-0.033456005,0.89,-0.04,-0.41,27362,10044.80,0,0,0,0.77,-3.43,0.28,0.89,-0.04,-0.41
-4.6679688,0.050992016,-0.017637998,-0.017456006,0.89,-0.03,-0.4,27377,10045.10,0,0,0,1.05,-4.83,1.40,0.89,-0.03,-0.40
-5.6679688,0.074992016,-0.030637994,-0.026456006,0.9,-0.04,-0.4,27400,10044.10,0,0,0,2.73,-5.74,0.77,0.90,-0.04,-0.40
-5.6679688,0.077992015,-0.024638005,-0.034456007,0.9,-0.05,-0.4,27415,10044.10,0,0,0,2.94,-5.32,0.21,0.90,-0.05,-0.40
-5.6679688,0.055992015,3.6200136E-4,-0.026456006,0.9,-0.05,-0.4,27437,10044.10,0,0,0,1.40,-3.57,0.77,0.90,-0.05,-0.40
-5.6679688,0.031992014,0.010362003,-0.014456006,0.89,-0.04,-0.4,27452,10044.10,0,0,0,-0.28,-2.87,1.61,0.89,-0.04,-0.40
-6.3671875,0.027992014,-0.006637998,-0.0024560057,0.88,-0.04,-0.4,27475,10043.40,0,0,0,-0.56,-4.06,2.45,0.88,-0.04,-0.40
-5.6679688,0.057992015,-0.022638,-0.021456005,0.89,-0.04,-0.4,27489,10044.10,0,0,0,1.54,-5.18,1.12,0.89,-0.04,-0.40
-5.267578,0.08399201,-0.016638003,-0.046456005,0.9,-0.04,-0.4,27512,10044.50,0,0,0,3.36,-4.76,-0.63,0.90,-0.04,-0.40
-5.267578,0.06899202,-0.006637998,-0.042456005,0.9,-0.05,-0.39,27527,10044.50,0,0,0,2.31,-4.06,-0.35,0.90,-0.05,-0.39
-6.3671875,0.050992016,-0.002638001,-0.039456006,0.89,-0.05,-0.4,27542,10043.40,0,0,0,1.05,-3.78,-0.14,0.89,-0.05,-0.40
-7.3671875,0.032992017,3.6200136E-4,-0.038456004,0.89,-0.04,-0.41,27564,10042.40,0,0,0,-0.21,-3.57,-0.07,0.89,-0.04,-0.41
-6.3671875,0.042992014,-0.008637998,-0.036456008,0.89,-0.04,-0.41,27579,10043.40,0,0,0,0.49,-4.20,0.07,0.89,-0.04,-0.41
-5.267578,0.06999202,-0.032638,-0.034456007,0.88,-0.04,-0.4,27602,10044.50,0,0,0,2.38,-5.88,0.21,0.88,-0.04,-0.40
-6.9677734,0.08799201,-0.027638003,-0.049456004,0.89,-0.05,-0.4,27617,10042.80,0,0,0,3.64,-5.53,-0.84,0.89,-0.05,-0.40
-7.3671875,0.061992016,-0.014637999,-0.047456004,0.9,-0.05,-0.4,27639,10042.40,0,0,0,1.82,-4.62,-0.70,0.90,-0.05,-0.40
-5.9677734,0.036992013,-0.0036379993,-0.025456008,0.89,-0.05,-0.4,27654,10043.80,0,0,0,0.07,-3.85,0.84,0.89,-0.05,-0.40
-6.9677734,-0.0030079857,-0.002638001,-0.017456006,0.88,-0.04,-0.4,27677,10042.80,0,0,0,-2.73,-3.78,1.40,0.88,-0.04,-0.40
-5.9677734,0.027992014,0.0013619997,-0.042456005,0.88,-0.04,-0.41,27692,10043.80,0,0,0,-0.56,-3.50,-0.35,0.88,-0.04,-0.41
-6.9677734,0.08699201,-0.011638001,-0.07145601,0.88,-0.05,-0.41,27715,10042.80,0,0,0,3.57,-4.41,-2.38,0.88,-0.05,-0.41
-5.9677734,0.096992016,-0.015638001,-0.070456006,0.89,-0.05,-0.4,27730,10043.80,0,0,0,4.27,-4.69,-2.31,0.89,-0.05,-0.40
-6.6679688,0.052992016,-0.008637998,-0.047456004,0.89,-0.05,-0.4,27752,10043.10,0,0,0,1.19,-4.20,-0.70,0.89,-0.05,-0.40
-5.9677734,0.004992014,0.0053620003,-0.035456005,0.89,-0.04,-0.4,27767,10043.80,0,0,0,-2.17,-3.22,0.14,0.89,-0.04,-0.40
-5.9677734,0.0039920136,0.016362,-0.038456004,0.88,-0.04,-0.4,27781,10043.80,0,0,0,-2.24,-2.45,-0.07,0.88,-0.04,-0.40
-4.9677734,0.016992014,0.012362,-0.048456006,0.88,-0.04,-0.42,27805,10044.80,0,0,0,-1.33,-2.73,-0.77,0.88,-0.04,-0.42
-4.6679688,0.046992015,0.0033620037,-0.048456006,0.89,-0.04,-0.41,27819,10045.10,0,0,0,0.77,-3.36,-0.77,0.89,-0.04,-0.41
-4.6679688,0.040992014,0.002361998,-0.044456005,0.89,-0.04,-0.4,27842,10045.10,0,0,0,0.35,-3.43,-0.49,0.89,-0.04,-0.40
-4.6679688,0.020992015,0.008361999,-0.041456006,0.89,-0.03,-0.4,27857,10045.10,0,0,0,-1.05,-3.01,-0.28,0.89,-0.03,-0.40
-3.6679688,0.025992015,0.019361999,-0.048456006,0.89,-0.03,-0.41,27880,10046.10,0,0,0,-0.70,-2.24,-0.77,0.89,-0.03,-0.41
-4.6679688,0.042992014,0.022362001,-0.051456004,0.88,-0.03,-0.41,27894,10045.10,0,0,0,0.49,-2.03,-0.98,0.88,-0.03,-0.41
-3.2675781,0.042992014,0.010362003,-0.042456005,0.88,-0.04,-0.4,27917,10046.50,0,0,0,0.49,-2.87,-0.35,0.88,-0.04,-0.40
-3.6679688,0.025992015,-6.3800067E-4,-0.039456006,0.89,-0.04,-0.4,27934,10046.10,0,0,0,-0.70,-3.64,-0.14,0.89,-0.04,-0.40
-3.6679688,0.038992014,0.012362,-0.054456007,0.9,-0.03,-0.41,27954,10046.10,0,0,0,0.21,-2.73,-1.19,0.90,-0.03,-0.41
-3.2675781,0.024992015,0.037362,-0.047456004,0.9,-0.03,-0.41,27970,10046.50,0,0,0,-0.77,-0.98,-0.70,0.90,-0.03,-0.41
-1.5673828,0.0039920136,0.022362001,-0.019456007,0.89,-0.02,-0.41,27992,10048.20,0,0,0,-2.24,-2.03,1.26,0.89,-0.02,-0.41
-2.2675781,0.047992013,-0.0046380013,-0.022456005,0.89,-0.02,-0.41,28007,10047.50,0,0,0,0.84,-3.92,1.05,0.89,-0.02,-0.41
-1.2675781,0.11699201,-0.006637998,-0.046456005,0.9,-0.04,-0.41,28022,10048.50,0,0,0,5.67,-4.06,-0.63,0.90,-0.04,-0.41
-1.2675781,0.07299201,0.010362003,-0.034456007,0.9,-0.04,-0.4,28044,10048.50,0,0,0,2.59,-2.87,0.21,0.90,-0.04,-0.40
-2.2675781,9.92015E-4,0.019361999,0.007543996,0.9,-0.03,-0.4,28059,10047.50,0,0,0,-2.45,-2.24,3.15,0.90,-0.03,-0.40
0.032226562,-0.026007988,0.026362,0.018543996,0.89,-0.03,-0.41,28082,10049.80,0,0,0,-4.34,-1.75,3.92,0.89,-0.03,-0.41
0.032226562,0.020992015,0.023362,-0.008456007,0.88,-0.03,-0.41,28097,10049.80,0,0,0,-1.05,-1.96,2.03,0.88,-0.03,-0.41
-0.26757812,0.09199202,0.011362001,-0.044456005,0.89,-0.03,-0.41,28120,10049.50,0,0,0,3.92,-2.80,-0.49,0.89,-0.03,-0.41
0.7324219,0.085992016,0.0073620006,-0.035456005,0.9,-0.04,-0.4,28134,10050.50,0,0,0,3.50,-3.08,0.14,0.90,-0.04,-0.40
1.1328125,0.047992013,0.019361999,-0.011456005,0.9,-0.03,-0.4,28157,10050.90,0,0,0,0.84,-2.24,1.82,0.90,-0.03,-0.40
1.1328125,0.022992015,0.035361998,-0.010456005,0.89,-0.04,-0.4,28172,10050.90,0,0,0,-0.91,-1.12,1.89,0.89,-0.04,-0.40
3.7324219,0.033992015,0.030362,-0.015456006,0.89,-0.04,-0.41,28194,10053.50,0,0,0,-0.14,-1.47,1.54,0.89,-0.04,-0.41
2.1328125,0.07199201,0.016362,-0.033456005,0.88,-0.04,-0.41,28210,10051.90,0,0,0,2.52,-2.45,0.28,0.88,-0.04,-0.41
2.1328125,0.11999202,0.0013619997,-0.049456004,0.89,-0.04,-0.4,28232,10051.90,0,0,0,5.88,-3.50,-0.84,0.89,-0.04,-0.40
2.1328125,0.10499202,0.0073620006,-0.042456005,0.9,-0.04,-0.4,28247,10051.90,0,0,0,4.83,-3.08,-0.35,0.90,-0.04,-0.40
4.432617,0.053992014,0.020361999,-0.014456006,0.9,-0.04,-0.39,28262,10054.20,0,0,0,1.26,-2.17,1.61,0.90,-0.04,-0.39
1.4326172,0.005992016,0.026362,0.008543994,0.89,-0.05,-0.4,28277,10051.20,0,0,0,-2.10,-1.75,3.22,0.89,-0.05,-0.40
3.4326172,0.018992014,0.022362001,0.001543995,0.89,-0.04,-0.4,28292,10053.20,0,0,0,-1.19,-2.03,2.73,0.89,-0.04,-0.40
2.4326172,0.057992015,0.015362002,-0.025456008,0.89,-0.04,-0.4,28314,10052.20,0,0,0,1.54,-2.52,0.84,0.89,-0.04,-0.40
2.4326172,0.07899202,0.015362002,-0.046456005,0.89,-0.04,-0.4,28330,10052.20,0,0,0,3.01,-2.52,-0.63,0.89,-0.04,-0.40
2.4326172,0.08499202,0.011362001,-0.042456005,0.9,-0.05,-0.4,28345,10052.20,0,0,0,3.43,-2.80,-0.35,0.90,-0.05,-0.40
2.4326172,0.057992015,0.017361999,-0.018456005,0.9,-0.05,-0.4,28360,10052.20,0,0,0,1.54,-2.38,1.33,0.90,-0.05,-0.40
2.7324219,0.017992016,0.034362,-0.0134560075,0.9,-0.05,-0.4,28375,10052.50,0,0,0,-1.26,-1.19,1.68,0.90,-0.05,-0.40
1.4326172,0.020992015,0.047362,-0.018456005,0.89,-0.04,-0.4,28390,10051.20,0,0,0,-1.05,-0.28,1.33,0.89,-0.04,-0.40
1.7324219,0.052992016,0.038362,-0.035456005,0.88,-0.04,-0.4,28412,10051.50,0,0,0,1.19,-0.91,0.14,0.88,-0.04,-0.40
1.7324219,0.06899202,0.024362,-0.039456006,0.89,-0.05,-0.4,28427,10051.50,0,0,0,2.31,-1.89,-0.14,0.89,-0.05,-0.40
1.7324219,0.06599201,0.017361999,-0.030456007,0.9,-0.05,-0.4,28442,10051.50,0,0,0,2.10,-2.38,0.49,0.90,-0.05,-0.40
1.4326172,0.042992014,0.028362,-0.018456005,0.9,-0.05,-0.39,28457,10051.20,0,0,0,0.49,-1.61,1.33,0.90,-0.05,-0.39
0.7324219,0.017992016,0.043362,-0.0074560065,0.89,-0.05,-0.39,28472,10050.50,0,0,0,-1.26,-0.56,2.10,0.89,-0.05,-0.39
4.8320312,0.019992014,0.046362,-0.009456005,0.89,-0.04,-0.4,28487,10054.60,0,0,0,-1.12,-0.35,1.96,0.89,-0.04,-0.40
0.7324219,0.034992017,0.041362002,-0.035456005,0.89,-0.04,-0.4,28502,10050.50,0,0,0,-0.07,-0.70,0.14,0.89,-0.04,-0.40
1.7324219,0.07899202,0.045362,-0.054456007,0.89,-0.04,-0.4,28525,10051.50,0,0,0,3.01,-0.42,-1.19,0.89,-0.04,-0.40
0.7324219,0.077992015,0.052362,-0.044456005,0.9,-0.05,-0.4,28540,10050.50,0,0,0,2.94,0.07,-0.49,0.90,-0.05,-0.40
2.1328125,0.036992013,0.053362,-0.003456004,0.9,-0.05,-0.39,28555,10051.90,0,0,0,0.07,0.14,2.38,0.90,-0.05,-0.39
1.1328125,-0.019007985,0.056362,0.047543995,0.88,-0.05,-0.39,28570,10050.90,0,0,0,-3.85,0.35,5.95,0.88,-0.05,-0.39
1.7324219,-0.038007986,0.079362005,0.048543997,0.9,-0.05,-0.41,28585,10051.50,0,0,0,-5.18,1.96,6.02,0.90,-0.05,-0.41
1.1328125,0.011992017,0.087362,0.059543997,0.89,-0.03,-0.4,28600,10050.90,0,0,0,-1.68,2.52,6.79,0.89,-0.03,-0.40
1.1328125,0.016992014,0.147362,0.0035439916,0.88,-0.03,-0.4,28622,10050.90,0,0,0,-1.33,6.72,2.87,0.88,-0.03,-0.40
1.1328125,0.06599201,0.19436201,-0.035456005,0.89,-0.04,-0.39,28637,10050.90,0,0,0,2.10,10.01,0.14,0.89,-0.04,-0.39
2.1328125,0.036992013,0.21036199,0.009543993,0.89,-0.05,-0.38,28652,10051.90,0,0,0,0.07,11.13,3.29,0.89,-0.05,-0.38
1.1328125,-0.0030079857,0.228362,0.047543995,0.89,-0.03,-0.38,28667,10050.90,0,0,0,-2.73,12.39,5.95,0.89,-0.03,-0.38
2.4326172,0.038992014,0.255362,0.018543996,0.9,-0.04,-0.41,28682,10052.20,0,0,0,0.21,14.28,3.92,0.90,-0.04,-0.41
1.1328125,0.13699202,0.284362,-0.023456005,0.91,-0.05,-0.4,28697,10050.90,0,0,0,7.07,16.31,0.98,0.91,-0.05,-0.40
1.1328125,0.17299202,0.28936198,-0.029456005,0.91,-0.04,-0.39,28720,10050.90,0,0,0,9.59,16.66,0.56,0.91,-0.04,-0.39
1.4326172,0.14899202,0.291362,-0.0074560065,0.9,-0.04,-0.36,28734,10051.20,0,0,0,7.91,16.80,2.10,0.90,-0.04,-0.36
1.4326172,0.11999202,0.276362,5.439967E-4,0.9,-0.05,-0.36,28750,10051.20,0,0,0,5.88,15.75,2.66,0.90,-0.05,-0.36
1.1328125,0.10899201,0.267362,-0.0054560043,0.9,-0.04,-0.36,28764,10050.90,0,0,0,5.11,15.12,2.24,0.90,-0.04,-0.36
0.4326172,0.10799201,0.254362,-0.011456005,0.91,-0.06,-0.36,28779,10050.20,0,0,0,5.04,14.21,1.82,0.91,-0.06,-0.36
0.4326172,0.15399201,0.24936199,-0.027456006,0.91,-0.06,-0.35,28802,10050.20,0,0,0,8.26,13.86,0.70,0.91,-0.06,-0.35
-0.5673828,0.16699201,0.237362,-0.030456007,0.9,-0.06,-0.34,28817,10049.20,0,0,0,9.17,13.02,0.49,0.90,-0.06,-0.34
0.4326172,0.14499202,0.241362,-0.018456005,0.92,-0.05,-0.34,28832,10050.20,0,0,0,7.63,13.30,1.33,0.92,-0.05,-0.34
0.4326172,0.12399201,0.24536201,-0.009456005,0.92,-0.06,-0.33,28847,10050.20,0,0,0,6.16,13.58,1.96,0.92,-0.06,-0.33
0.4326172,0.11699201,0.266362,-0.009456005,0.93,-0.05,-0.34,28862,10050.20,0,0,0,5.67,15.05,1.96,0.93,-0.05,-0.34
-0.26757812,0.170992,0.295362,-0.019456007,0.92,-0.05,-0.33,28877,10049.50,0,0,0,9.45,17.08,1.26,0.92,-0.05,-0.33
-0.26757812,0.17699201,0.341362,-0.035456005,0.92,-0.05,-0.32,28899,10049.50,0,0,0,9.87,20.30,0.14,0.92,-0.05,-0.32
-0.26757812,0.23599201,0.368362,-0.06445601,0.92,-0.06,-0.3,28915,10049.50,0,0,0,14.00,22.19,-1.89,0.92,-0.06,-0.30
-0.26757812,0.21799201,0.365362,-0.06745601,0.91,-0.05,-0.28,28929,10049.50,0,0,0,12.74,21.98,-2.10,0.91,-0.05,-0.28
-1.5673828,0.17499201,0.360362,-0.061456002,0.92,-0.07,-0.29,28945,10048.20,0,0,0,9.73,21.63,-1.68,0.92,-0.07,-0.29
-0.26757812,0.15799202,0.36736202,-0.057456005,0.94,-0.08,-0.29,28959,10049.50,0,0,0,8.54,22.12,-1.40,0.94,-0.08,-0.29
-0.26757812,0.20699202,0.377362,-0.041456006,0.92,-0.07,-0.27,28983,10049.50,0,0,0,11.97,22.82,-0.28,0.92,-0.07,-0.27
-1.2675781,0.13599202,0.39536202,-0.08345601,0.92,-0.04,-0.28,28998,10048.50,0,0,0,7.00,24.08,-3.22,0.92,-0.04,-0.28
-1.2675781,0.19199201,0.385362,-0.106456004,0.92,-0.07,-0.27,29012,10048.50,0,0,0,10.92,23.38,-4.83,0.92,-0.07,-0.27
-2.2675781,0.15799202,0.387362,-0.11145601,0.94,-0.04,-0.27,29027,10047.50,0,0,0,8.54,23.52,-5.18,0.94,-0.04,-0.27
-2.2675781,0.21799201,0.400362,-0.11645601,0.95,-0.04,-0.24,29041,10047.50,0,0,0,12.74,24.43,-5.53,0.95,-0.04,-0.24
-1.2675781,0.180992,0.426362,-0.109456,0.95,-0.05,-0.24,29057,10048.50,0,0,0,10.15,26.25,-5.04,0.95,-0.05,-0.24
-1.2675781,0.25899202,0.41736203,-0.103456005,0.95,-0.07,-0.23,29072,10048.50,0,0,0,15.61,25.62,-4.62,0.95,-0.07,-0.23
-1.9677734,0.23499201,0.40636203,-0.06845601,0.95,-0.06,-0.22,29095,10047.80,0,0,0,13.93,24.85,-2.17,0.95,-0.06,-0.22
-1.9677734,0.26499203,0.403362,-0.050456006,0.94,-0.05,-0.21,29110,10047.80,0,0,0,16.03,24.64,-0.91,0.94,-0.05,-0.21
-0.5673828,0.275992,0.407362,-0.049456004,0.94,-0.08,-0.18,29125,10049.20,0,0,0,16.80,24.92,-0.84,0.94,-0.08,-0.18
-2.9677734,0.30799204,0.396362,-0.046456005,0.95,-0.08,-0.19,29139,10046.80,0,0,0,19.04,24.15,-0.63,0.95,-0.08,-0.19
-2.5673828,0.27799204,0.368362,0.001543995,0.95,-0.06,-0.19,29155,10047.20,0,0,0,16.94,22.19,2.73,0.95,-0.06,-0.19
-3.9677734,0.21599202,0.357362,0.054543994,0.96,-0.05,-0.19,29169,10045.80,0,0,0,12.60,21.42,6.44,0.96,-0.05,-0.19
-1.9677734,0.18899201,0.412362,0.047543995,0.97,-0.04,-0.18,29192,10047.80,0,0,0,10.71,25.27,5.95,0.97,-0.04,-0.18
-2.5673828,0.17299202,0.464362,0.050543994,0.96,-0.06,-0.16,29207,10047.20,0,0,0,9.59,28.91,6.16,0.96,-0.06,-0.16
-1.9677734,0.12999201,0.53836197,0.046543993,0.95,-0.06,-0.15,29222,10047.80,0,0,0,6.58,34.09,5.88,0.95,-0.06,-0.15
-2.9677734,0.18999201,0.59036195,-0.011456005,0.94,-0.07,-0.14,29237,10046.80,0,0,0,10.78,37.73,1.82,0.94,-0.07,-0.14
-3.5673828,0.216992,0.56136197,-0.0134560075,0.95,-0.09,-0.14,29252,10046.20,0,0,0,12.67,35.70,1.68,0.95,-0.09,-0.14
-3.5673828,0.238992,0.48036203,0.018543996,0.96,-0.08,-0.13,29267,10046.20,0,0,0,14.21,30.03,3.92,0.96,-0.08,-0.13
-4.6679688,0.236992,0.40636203,0.086544,0.97,-0.07,-0.14,29282,10045.10,0,0,0,14.07,24.85,8.68,0.97,-0.07,-0.14
-2.5673828,0.23499201,0.36736202,0.105544,0.97,-0.05,-0.12,29304,10047.20,0,0,0,13.93,22.12,10.01,0.97,-0.05,-0.12
-2.5673828,0.22299202,0.363362,0.111544,0.97,-0.06,-0.11,29319,10047.20,0,0,0,13.09,21.84,10.43,0.97,-0.06,-0.11
-2.5673828,0.224992,0.38836202,0.053543992,0.97,-0.06,-0.09,29334,10047.20,0,0,0,13.23,23.59,6.37,0.97,-0.06,-0.09
-2.2675781,0.22599201,0.43536198,-0.012456005,0.97,-0.08,-0.09,29349,10047.50,0,0,0,13.30,26.88,1.75,0.97,-0.08,-0.09
-2.2675781,0.216992,0.458362,-0.056456007,0.97,-0.09,-0.07,29364,10047.50,0,0,0,12.67,28.49,-1.33,0.97,-0.09,-0.07
-6.267578,0.208992,0.465362,-0.078456,0.97,-0.09,-0.05,29379,10043.50,0,0,0,12.11,28.98,-2.87,0.97,-0.09,-0.05
-4.267578,0.272992,0.438362,-0.058456004,0.97,-0.1,-0.05,29402,10045.50,0,0,0,16.59,27.09,-1.47,0.97,-0.10,-0.05
-3.2675781,0.30899203,0.389362,-0.017456006,0.97,-0.09,-0.04,29417,10046.50,0,0,0,19.11,23.66,1.40,0.97,-0.09,-0.04
-2.2675781,0.30399203,0.336362,-0.0014560074,0.97,-0.07,-0.03,29432,10047.50,0,0,0,18.76,19.95,2.52,0.97,-0.07,-0.03
-3.2675781,0.28599203,0.327362,0.006543994,1.0,-0.05,-0.03,29447,10046.50,0,0,0,17.50,19.32,3.08,1.00,-0.05,-0.03
-0.26757812,0.21999201,0.33736202,0.0055439956,0.99,-0.07,-0.02,29462,10049.50,0,0,0,12.88,20.02,3.01,0.99,-0.07,-0.02
-4.267578,0.22899202,0.36736202,-0.024456006,0.99,-0.07,-0.02,29477,10045.50,0,0,0,13.51,22.12,0.91,0.99,-0.07,-0.02
-4.267578,0.28399202,0.390362,-0.066456005,0.98,-0.09,-0.01,29492,10045.50,0,0,0,17.36,23.73,-2.03,0.98,-0.09,-0.01
-4.267578,0.32599202,0.371362,-0.088456005,0.97,-0.08,0.02,29515,10045.50,0,0,0,20.30,22.40,-3.57,0.97,-0.08,0.02
-4.267578,0.293992,0.338362,-0.09745601,0.98,-0.08,0.02,29529,10045.50,0,0,0,18.06,20.09,-4.20,0.98,-0.08,0.02
-3.9677734,0.28599203,0.320362,-0.094456,1.0,-0.09,0.02,29544,10045.80,0,0,0,17.50,18.83,-3.99,1.00,-0.09,0.02
-3.9677734,0.286992,0.29636198,-0.06945601,0.99,-0.08,0.04,29559,10045.80,0,0,0,17.57,17.15,-2.24,0.99,-0.08,0.04
-3.9677734,0.26699203,0.270362,-0.052456006,0.99,-0.09,0.06,29574,10045.80,0,0,0,16.17,15.33,-1.05,0.99,-0.09,0.06
-1.9677734,0.25999203,0.241362,-0.055456005,0.99,-0.08,0.06,29589,10047.80,0,0,0,15.68,13.30,-1.26,0.99,-0.08,0.06
-4.9677734,0.26499203,0.244362,-0.059456006,1.0,-0.08,0.07,29612,10044.80,0,0,0,16.03,13.51,-1.54,1.00,-0.08,0.07
-3.9677734,0.273992,0.24736202,-0.070456006,1.0,-0.09,0.07,29627,10045.80,0,0,0,16.66,13.72,-2.31,1.00,-0.09,0.07
-4.9677734,0.27099204,0.204362,-0.057456005,0.99,-0.09,0.1,29642,10044.80,0,0,0,16.45,10.71,-1.40,0.99,-0.09,0.10
-4.9677734,0.23499201,0.16236201,-0.051456004,1.0,-0.08,0.1,29657,10044.80,0,0,0,13.93,7.77,-0.98,1.00,-0.08,0.10
-5.267578,0.21799201,0.123362,-0.059456006,1.0,-0.09,0.1,29672,10044.50,0,0,0,12.74,5.04,-1.54,1.00,-0.09,0.10
-3.5673828,0.23299201,0.102362,-0.080456,1.01,-0.1,0.09,29687,10046.20,0,0,0,13.79,3.57,-3.01,1.01,-0.10,0.09
-5.9677734,0.24699202,0.087362,-0.08345601,1.0,-0.08,0.11,29702,10043.80,0,0,0,14.77,2.52,-3.22,1.00,-0.08,0.11
-4.6679688,0.23399201,0.057362,-0.081456006,1.01,-0.07,0.12,29717,10045.10,0,0,0,13.86,0.42,-3.08,1.01,-0.07,0.12
-4.6679688,0.252992,0.057362,-0.079456,1.02,-0.08,0.1,29740,10045.10,0,0,0,15.19,0.42,-2.94,1.02,-0.08,0.10
-4.6679688,0.24199201,0.054362,-0.06445601,1.01,-0.08,0.12,29755,10045.10,0,0,0,14.42,0.21,-1.89,1.01,-0.08,0.12
-5.6679688,0.177992,0.053362,-0.054456007,1.0,-0.08,0.12,29769,10044.10,0,0,0,9.94,0.14,-1.19,1.00,-0.08,0.12
-4.267578,0.10799201,0.042362,-0.045456007,0.99,-0.07,0.13,29784,10045.50,0,0,0,5.04,-0.63,-0.56,0.99,-0.07,0.13
-3.5673828,0.07899202,0.0063619986,-0.019456007,1.0,-0.08,0.13,29799,10046.20,0,0,0,3.01,-3.15,1.26,1.00,-0.08,0.13
-3.5673828,0.08799201,-0.038638003,0.014543995,1.01,-0.08,0.12,29814,10046.20,0,0,0,3.64,-6.30,3.64,1.01,-0.08,0.12
-3.5673828,0.056992017,-0.059638,0.014543995,1.01,-0.08,0.12,29837,10046.20,0,0,0,1.47,-7.77,3.64,1.01,-0.08,0.12
-3.5673828,0.07699201,-0.055637993,-0.011456005,1.02,-0.09,0.11,29852,10046.20,0,0,0,2.87,-7.49,1.82,1.02,-0.09,0.11
-4.267578,0.13599202,-0.063638,-0.017456006,1.01,-0.09,0.12,29867,10045.50,0,0,0,7.00,-8.05,1.40,1.01,-0.09,0.12
-3.2675781,0.100992024,-0.07863801,-0.014456006,1.01,-0.09,0.14,29882,10046.50,0,0,0,4.55,-9.10,1.61,1.01,-0.09,0.14
-3.2675781,0.037992015,-0.089638,-0.011456005,1.01,-0.08,0.12,29904,10046.50,0,0,0,0.14,-9.87,1.82,1.01,-0.08,0.12
-1.9677734,0.012992015,-0.101638,-0.0074560065,1.0,-0.08,0.12,29919,10047.80,0,0,0,-1.61,-10.71,2.10,1.00,-0.08,0.12
-1.2675781,-0.016007986,-0.12963799,-0.021456005,1.01,-0.1,0.11,29936,10048.50,0,0,0,-3.64,-12.67,1.12,1.01,-0.10,0.11
-2.2675781,-0.022007983,-0.190638,-0.0014560074,1.01,-0.11,0.1,29950,10047.50,0,0,0,-4.06,-16.94,2.52,1.01,-0.11,0.10
-0.26757812,-0.010007985,-0.26663798,0.038544,1.02,-0.1,0.09,29964,10049.50,0,0,0,-3.22,-22.26,5.32,1.02,-0.10,0.09
-1.9677734,-7.983297E-6,-0.307638,0.077543996,1.02,-0.09,0.08,29979,10047.80,0,0,0,-2.52,-25.13,8.05,1.02,-0.09,0.08
-0.96777344,-0.024007984,-0.33263797,0.07854399,1.0,-0.1,0.08,30004,10048.80,0,0,0,-4.20,-26.88,8.12,1.00,-0.10,0.08
-0.96777344,-0.049007986,-0.359638,0.060544,0.99,-0.1,0.08,30018,10048.80,0,0,0,-5.95,-28.77,6.86,0.99,-0.10,0.08
-0.96777344,-0.08600798,-0.40063798,0.07854399,0.99,-0.11,0.07,30033,10048.80,0,0,0,-8.54,-31.64,8.12,0.99,-0.11,0.07
0.1328125,-0.09300798,-0.43863797,0.073543996,1.0,-0.1,0.06,30047,10049.90,0,0,0,-9.03,-34.30,7.77,1.00,-0.10,0.06
-0.96777344,-0.175008,-0.47263798,0.088543996,1.0,-0.09,0.03,30063,10048.80,0,0,0,-14.77,-36.68,8.82,1.00,-0.09,0.03
-0.96777344,-0.175008,-0.498638,0.061543994,1.01,-0.09,0.04,30078,10048.80,0,0,0,-14.77,-38.50,6.93,1.01,-0.09,0.04
0.1328125,-0.15900798,-0.53463805,0.041543998,1.0,-0.09,-0.0,30092,10049.90,0,0,0,-13.65,-41.02,5.53,1.00,-0.09,-0.00
0.1328125,-0.101008,-0.550638,0.040543996,1.0,-0.11,-0.01,30115,10049.90,0,0,0,-9.59,-42.14,5.46,1.00,-0.11,-0.01
1.1328125,-0.038007986,-0.561638,0.009543993,1.0,-0.1,-0.03,30130,10050.90,0,0,0,-5.18,-42.91,3.29,1.00,-0.10,-0.03
0.1328125,-0.09800799,-0.552638,0.010543991,0.99,-0.1,-0.04,30145,10049.90,0,0,0,-9.38,-42.28,3.36,0.99,-0.10,-0.04
0.4326172,-0.13200799,-0.54263806,-0.0064560045,0.99,-0.11,-0.04,30160,10050.20,0,0,0,-11.76,-41.58,2.17,0.99,-0.11,-0.04
0.4326172,-0.20000799,-0.56263804,0.015543994,0.97,-0.1,-0.06,30175,10050.20,0,0,0,-16.52,-42.98,3.71,0.97,-0.10,-0.06
1.4326172,-0.188008,-0.575638,5.439967E-4,0.97,-0.1,-0.06,30190,10051.20,0,0,0,-15.68,-43.89,2.66,0.97,-0.10,-0.06
0.1328125,-0.13000798,-0.575638,-0.045456007,0.97,-0.1,-0.08,30212,10049.90,0,0,0,-11.62,-43.89,-0.56,0.97,-0.10,-0.08
0.7324219,-0.07800798,-0.57263803,-0.06745601,0.97,-0.09,-0.09,30227,10050.50,0,0,0,-7.98,-43.68,-2.10,0.97,-0.09,-0.09
0.4326172,-0.07500799,-0.561638,-0.044456005,0.99,-0.11,-0.09,30242,10050.20,0,0,0,-7.77,-42.91,-0.49,0.99,-0.11,-0.09
1.1328125,-0.087007985,-0.602638,0.018543996,0.98,-0.12,-0.1,30257,10050.90,0,0,0,-8.61,-45.78,3.92,0.98,-0.12,-0.10
0.7324219,0.06999202,-0.500638,-0.117456004,0.96,-0.06,-0.07,30272,10050.50,0,0,0,2.38,-38.64,-5.60,0.96,-0.06,-0.07
-0.26757812,-0.35400796,-0.529638,0.028543994,0.94,-0.11,-0.14,30287,10049.50,0,0,0,-27.30,-40.67,4.62,0.94,-0.11,-0.14
-0.26757812,-0.23000799,-0.565638,0.017543994,0.95,-0.11,-0.14,30309,10049.50,0,0,0,-18.62,-43.19,3.85,0.95,-0.11,-0.14
-0.26757812,-0.239008,-0.57263803,0.052543998,0.94,-0.13,-0.15,30325,10049.50,0,0,0,-19.25,-43.68,6.30,0.94,-0.13,-0.15
0.7324219,-0.19000798,-0.56363803,0.03454399,0.95,-0.1,-0.15,30339,10050.50,0,0,0,-15.82,-43.05,5.04,0.95,-0.10,-0.15
-0.5673828,-0.29200795,-0.55463797,0.05654399,0.95,-0.1,-0.16,30354,10049.20,0,0,0,-22.96,-42.42,6.58,0.95,-0.10,-0.16
0.7324219,-0.32200795,-0.51963806,0.024543997,0.94,-0.1,-0.18,30369,10050.50,0,0,0,-25.06,-39.97,4.34,0.94,-0.10,-0.18
0.7324219,-0.33400798,-0.52163804,-4.5600533E-4,0.93,-0.11,-0.23,30385,10050.50,0,0,0,-25.90,-40.11,2.59,0.93,-0.11,-0.23
-1.9677734,-0.125008,-0.51263803,-0.087456,0.93,-0.11,-0.2,30399,10047.80,0,0,0,-11.27,-39.48,-3.50,0.93,-0.11,-0.20
-0.26757812,-0.12100798,-0.504638,-0.12445601,0.91,-0.07,-0.2,30422,10049.50,0,0,0,-10.99,-38.92,-6.09,0.91,-0.07,-0.20
-0.26757812,-0.246008,-0.525638,-0.095456004,0.91,-0.11,-0.22,30437,10049.50,0,0,0,-19.74,-40.39,-4.06,0.91,-0.11,-0.22
0.7324219,-0.21900798,-0.531638,-0.13345599,0.93,-0.1,-0.26,30452,10050.50,0,0,0,-17.85,-40.81,-6.72,0.93,-0.10,-0.26
0.1328125,-0.28200796,-0.517638,-0.10545601,0.91,-0.08,-0.27,30467,10049.90,0,0,0,-22.26,-39.83,-4.76,0.91,-0.08,-0.27
-0.26757812,-0.23000799,-0.498638,-0.10245601,0.93,-0.06,-0.28,30482,10049.50,0,0,0,-18.62,-38.50,-4.55,0.93,-0.06,-0.28
-1.2675781,-0.26700795,-0.46463796,-0.078456,0.91,-0.07,-0.29,30504,10048.50,0,0,0,-21.21,-36.12,-2.87,0.91,-0.07,-0.29
-1.9677734,-0.27200797,-0.43763798,-0.072456,0.92,-0.05,-0.31,30519,10047.80,0,0,0,-21.56,-34.23,-2.45,0.92,-0.05,-0.31
-0.26757812,-0.27900797,-0.403638,-0.072456,0.91,-0.05,-0.32,30534,10049.50,0,0,0,-22.05,-31.85,-2.45,0.91,-0.05,-0.32
0.1328125,-0.225008,-0.383638,-0.07645601,0.91,-0.05,-0.34,30549,10049.90,0,0,0,-18.27,-30.45,-2.73,0.91,-0.05,-0.34
-0.8671875,-0.232008,-0.358638,-0.06345601,0.91,-0.05,-0.35,30564,10048.90,0,0,0,-18.76,-28.70,-1.82,0.91,-0.05,-0.35
-0.8671875,-0.22800799,-0.31763798,-0.046456005,0.92,-0.05,-0.36,30580,10048.90,0,0,0,-18.48,-25.83,-0.63,0.92,-0.05,-0.36
0.1328125,-0.20800799,-0.284638,-0.054456007,0.92,-0.04,-0.37,30595,10049.90,0,0,0,-17.08,-23.52,-1.19,0.92,-0.04,-0.37
0.4326172,-0.19000798,-0.25163797,-0.06845601,0.9,-0.04,-0.37,30617,10050.20,0,0,0,-15.82,-21.21,-2.17,0.90,-0.04,-0.37
0.1328125,-0.18600799,-0.234638,-0.07445601,0.9,-0.05,-0.37,30632,10049.90,0,0,0,-15.54,-20.02,-2.59,0.90,-0.05,-0.37
0.4326172,-0.15700799,-0.24063799,-0.057456005,0.91,-0.04,-0.38,30647,10050.20,0,0,0,-13.51,-20.44,-1.40,0.91,-0.04,-0.38
0.4326172,-0.15200798,-0.24363798,-0.031456005,0.91,-0.04,-0.38,30662,10050.20,0,0,0,-13.16,-20.65,0.42,0.91,-0.04,-0.38
-0.8671875,-0.13400799,-0.23863798,-0.016456006,0.91,-0.03,-0.38,30677,10048.90,0,0,0,-11.90,-20.30,1.47,0.91,-0.03,-0.38
0.4326172,-0.12800798,-0.223638,-0.0054560043,0.9,-0.03,-0.38,30692,10050.20,0,0,0,-11.48,-19.25,2.24,0.90,-0.03,-0.38
-0.5673828,-0.124007985,-0.20763797,-0.0024560057,0.9,-0.03,-0.39,30714,10049.20,0,0,0,-11.20,-18.13,2.45,0.90,-0.03,-0.39
-0.5673828,-0.138008,-0.19663802,0.009543993,0.89,-0.03,-0.38,30730,10049.20,0,0,0,-12.18,-17.36,3.29,0.89,-0.03,-0.38
-0.5673828,-0.160008,-0.190638,0.014543995,0.89,-0.03,-0.38,30745,10049.20,0,0,0,-13.72,-16.94,3.64,0.89,-0.03,-0.38
0.7324219,-0.100007996,-0.19963798,-0.009456005,0.89,-0.04,-0.4,30760,10050.50,0,0,0,-9.52,-17.57,1.96,0.89,-0.04,-0.40
-1.5673828,-0.10800798,-0.19663802,-0.022456005,0.89,-0.03,-0.42,30774,10048.20,0,0,0,-10.08,-17.36,1.05,0.89,-0.03,-0.42
-0.26757812,-0.057007987,-0.18063799,-0.045456007,0.89,-0.02,-0.42,30789,10049.50,0,0,0,-6.51,-16.24,-0.56,0.89,-0.02,-0.42
-0.26757812,-0.0070079863,-0.14563799,-0.07145601,0.89,-0.04,-0.4,30804,10049.50,0,0,0,-3.01,-13.79,-2.38,0.89,-0.04,-0.40
-1.9677734,-0.13200799,-0.14363798,0.0055439956,0.88,-0.04,-0.43,30827,10047.80,0,0,0,-11.76,-13.65,3.01,0.88,-0.04,-0.43
2.8320312,-0.08200799,-0.144638,0.017543994,0.88,-0.02,-0.42,30842,10052.60,0,0,0,-8.26,-13.72,3.85,0.88,-0.02,-0.42
-1.2675781,-0.080007985,-0.14563799,0.041543998,0.88,-0.02,-0.42,30857,10048.50,0,0,0,-8.12,-13.79,5.53,0.88,-0.02,-0.42
-1.2675781,-0.07500799,-0.13463801,0.03454399,0.89,-0.02,-0.42,30872,10048.50,0,0,0,-7.77,-13.02,5.04,0.89,-0.02,-0.42
-1.5673828,-0.10500799,-0.135638,0.047543995,0.89,-0.03,-0.44,30887,10048.20,0,0,0,-9.87,-13.09,5.95,0.89,-0.03,-0.44
-1.2675781,-0.095007986,-0.13163802,0.061543994,0.88,-0.04,-0.44,30902,10048.50,0,0,0,-9.17,-12.81,6.93,0.88,-0.04,-0.44
4.432617,-0.07900798,-0.12263801,0.061543994,0.87,-0.02,-0.43,30925,10054.20,0,0,0,-8.05,-12.18,6.93,0.87,-0.02,-0.43
-0.8671875,-0.048007984,-0.11463799,0.046543993,0.87,-0.02,-0.44,30940,10048.90,0,0,0,-5.88,-11.62,5.88,0.87,-0.02,-0.44
-0.26757812,-0.028007988,-0.10963801,0.029543996,0.86,-0.03,-0.45,30954,10049.50,0,0,0,-4.48,-11.27,4.69,0.86,-0.03,-0.45
-0.8671875,9.92015E-4,-0.103638,0.024543997,0.86,-0.03,-0.44,30970,10048.90,0,0,0,-2.45,-10.85,4.34,0.86,-0.03,-0.44
-1.9677734,-0.021007985,-0.097638,0.027544,0.87,-0.03,-0.45,30984,10047.80,0,0,0,-3.99,-10.43,4.55,0.87,-0.03,-0.45
-1.9677734,-0.030007984,-0.07863801,0.048543997,0.87,-0.02,-0.45,30999,10047.80,0,0,0,-4.62,-9.10,6.02,0.87,-0.02,-0.45
-2.9677734,-0.015007984,-0.060638003,0.042543992,0.87,-0.03,-0.46,31015,10046.80,0,0,0,-3.57,-7.84,5.60,0.87,-0.03,-0.46
-1.9677734,0.008992014,-0.047638,0.039543994,0.87,-0.03,-0.45,31037,10047.80,0,0,0,-1.89,-6.93,5.39,0.87,-0.03,-0.45
-2.9677734,0.005992016,-0.038638003,0.055543996,0.87,-0.03,-0.45,31053,10046.80,0,0,0,-2.10,-6.30,6.51,0.87,-0.03,-0.45
-0.8671875,0.006992016,-0.017637998,0.070544,0.87,-0.03,-0.45,31067,10048.90,0,0,0,-2.03,-4.83,7.56,0.87,-0.03,-0.45
-3.9677734,-0.014007986,-0.0046380013,0.086544,0.87,-0.04,-0.45,31082,10045.80,0,0,0,-3.50,-3.92,8.68,0.87,-0.04,-0.45
-2.9677734,-0.024007984,0.017361999,0.097543985,0.86,-0.05,-0.45,31097,10046.80,0,0,0,-4.20,-2.38,9.45,0.86,-0.05,-0.45
-1.5673828,-0.02900799,0.020361999,0.104543984,0.86,-0.04,-0.46,31111,10048.20,0,0,0,-4.55,-2.17,9.94,0.86,-0.04,-0.46
-3.9677734,0.025992015,0.021362001,0.06754399,0.86,-0.04,-0.45,31127,10045.80,0,0,0,-0.70,-2.10,7.35,0.86,-0.04,-0.45
-2.5673828,0.033992015,0.033362,0.048543997,0.87,-0.05,-0.46,31149,10047.20,0,0,0,-0.14,-1.26,6.02,0.87,-0.05,-0.46
-3.2675781,0.055992015,0.031362,0.04454399,0.87,-0.05,-0.46,31164,10046.50,0,0,0,1.40,-1.40,5.74,0.87,-0.05,-0.46
-3.5673828,0.085992016,0.030362,0.059543997,0.87,-0.04,-0.45,31179,10046.20,0,0,0,3.50,-1.47,6.79,0.87,-0.04,-0.45
-4.567383,0.054992016,0.042362,0.061543994,0.86,-0.05,-0.44,31195,10045.20,0,0,0,1.33,-0.63,6.93,0.86,-0.05,-0.44
-4.567383,0.042992014,0.059362,0.06454399,0.86,-0.06,-0.45,31210,10045.20,0,0,0,0.49,0.56,7.14,0.86,-0.06,-0.45
-4.567383,0.037992015,0.061362,0.06754399,0.85,-0.06,-0.44,31225,10045.20,0,0,0,0.14,0.70,7.35,0.85,-0.06,-0.44
-4.567383,0.036992013,0.044362,0.06454399,0.85,-0.06,-0.45,31247,10045.20,0,0,0,0.07,-0.49,7.14,0.85,-0.06,-0.45
-4.567383,0.08099201,0.041362002,0.048543997,0.86,-0.06,-0.45,31263,10045.20,0,0,0,3.15,-0.70,6.02,0.86,-0.06,-0.45
-4.567383,0.095992014,0.049362,0.023543995,0.87,-0.07,-0.45,31278,10045.20,0,0,0,4.20,-0.14,4.27,0.87,-0.07,-0.45
-5.6679688,0.09099202,0.062362,0.028543994,0.88,-0.08,-0.46,31292,10044.10,0,0,0,3.85,0.77,4.62,0.88,-0.08,-0.46
-3.2675781,0.085992016,0.071362,0.051543996,0.87,-0.07,-0.45,31307,10046.50,0,0,0,3.50,1.40,6.23,0.87,-0.07,-0.45
-4.267578,0.07899202,0.077362,0.055543996,0.86,-0.07,-0.44,31322,10045.50,0,0,0,3.01,1.82,6.51,0.86,-0.07,-0.44
-4.267578,0.09499201,0.066362,0.048543997,0.86,-0.07,-0.44,31337,10045.50,0,0,0,4.13,1.05,6.02,0.86,-0.07,-0.44
-5.267578,0.12499201,0.050362002,0.042543992,0.87,-0.07,-0.43,31360,10044.50,0,0,0,6.23,-0.07,5.60,0.87,-0.07,-0.43
-4.267578,0.12199202,0.050362002,0.030543998,0.87,-0.08,-0.43,31375,10045.50,0,0,0,6.02,-0.07,4.76,0.87,-0.08,-0.43
-4.267578,0.100992024,0.063362,0.022543993,0.87,-0.09,-0.42,31389,10045.50,0,0,0,4.55,0.84,4.20,0.87,-0.09,-0.42
-4.567383,0.074992016,0.066362,0.019543994,0.88,-0.09,-0.43,31405,10045.20,0,0,0,2.73,1.05,3.99,0.88,-0.09,-0.43
-4.267578,0.09499201,0.066362,0.022543993,0.87,-0.09,-0.42,31420,10045.50,0,0,0,4.13,1.05,4.20,0.87,-0.09,-0.42
-4.267578,0.122992024,0.065362,0.011543997,0.87,-0.08,-0.43,31442,10045.50,0,0,0,6.09,0.98,3.43,0.87,-0.08,-0.43
-4.267578,0.13199201,0.065362,-4.5600533E-4,0.87,-0.08,-0.43,31457,10045.50,0,0,0,6.72,0.98,2.59,0.87,-0.08,-0.43
-4.9677734,0.14599201,0.068362,-0.010456005,0.88,-0.09,-0.43,31472,10044.80,0,0,0,7.70,1.19,1.89,0.88,-0.09,-0.43
-4.9677734,0.14199202,0.070362,0.0025439933,0.88,-0.09,-0.43,31487,10044.80,0,0,0,7.42,1.33,2.80,0.88,-0.09,-0.43
-3.9677734,0.13399202,0.077362,0.006543994,0.88,-0.09,-0.42,31502,10045.80,0,0,0,6.86,1.82,3.08,0.88,-0.09,-0.42
-5.267578,0.12399201,0.089362,0.0055439956,0.88,-0.08,-0.42,31517,10044.50,0,0,0,6.16,2.66,3.01,0.88,-0.08,-0.42
-4.9677734,0.13599202,0.087362,0.018543996,0.89,-0.09,-0.42,31532,10044.80,0,0,0,7.00,2.52,3.92,0.89,-0.09,-0.42
-3.9677734,0.14099202,0.073362,0.014543995,0.88,-0.1,-0.41,31555,10045.80,0,0,0,7.35,1.54,3.64,0.88,-0.10,-0.41
-4.9677734,0.15099202,0.078362,-0.015456006,0.88,-0.1,-0.41,31570,10044.80,0,0,0,8.05,1.89,1.54,0.88,-0.10,-0.41
-3.9677734,0.14699201,0.088362,-0.034456007,0.89,-0.09,-0.41,31585,10045.80,0,0,0,7.77,2.59,0.21,0.89,-0.09,-0.41
-4.9677734,0.13699202,0.090362,-0.031456005,0.89,-0.09,-0.41,31599,10044.80,0,0,0,7.07,2.73,0.42,0.89,-0.09,-0.41
-3.9677734,0.11999202,0.066362,5.439967E-4,0.9,-0.08,-0.41,31614,10045.80,0,0,0,5.88,1.05,2.66,0.90,-0.08,-0.41
-4.567383,0.14599201,0.033362,0.014543995,0.89,-0.08,-0.4,31629,10045.20,0,0,0,7.70,-1.26,3.64,0.89,-0.08,-0.40
-3.5673828,0.16299202,0.026362,-4.5600533E-4,0.89,-0.1,-0.4,31652,10046.20,0,0,0,8.89,-1.75,2.59,0.89,-0.10,-0.40
-4.9677734,0.17299202,0.023362,-0.017456006,0.9,-0.11,-0.39,31667,10044.80,0,0,0,9.59,-1.96,1.40,0.90,-0.11,-0.39
-4.9677734,0.16399202,0.011362001,0.016543996,0.88,-0.11,-0.39,31682,10044.80,0,0,0,8.96,-2.80,3.78,0.88,-0.11,-0.39
-4.567383,0.15099202,-0.010638002,0.009543993,0.9,-0.11,-0.41,31698,10045.20,0,0,0,8.05,-4.34,3.29,0.90,-0.11,-0.41
-5.6679688,0.13299201,0.017361999,0.0025439933,0.9,-0.11,-0.37,31712,10044.10,0,0,0,6.79,-2.38,2.80,0.90,-0.11,-0.37
-4.567383,0.11799201,0.030362,-0.0134560075,0.9,-0.1,-0.4,31727,10045.20,0,0,0,5.74,-1.47,1.68,0.90,-0.10,-0.40
-5.6679688,0.14699201,0.036362,-0.024456006,0.89,-0.1,-0.39,31742,10044.10,0,0,0,7.77,-1.05,0.91,0.89,-0.10,-0.39
-5.6679688,0.17199202,0.031362,-0.047456004,0.88,-0.09,-0.38,31765,10044.10,0,0,0,9.52,-1.40,-0.70,0.88,-0.09,-0.38
-4.567383,0.18799202,0.013361998,-0.062456004,0.9,-0.11,-0.37,31780,10045.20,0,0,0,10.64,-2.66,-1.75,0.90,-0.11,-0.37
-5.267578,0.18399201,-0.0046380013,-0.060456008,0.9,-0.12,-0.36,31794,10044.50,0,0,0,10.36,-3.92,-1.61,0.90,-0.12,-0.36
-6.6679688,0.12199202,-0.013638005,-0.025456008,0.91,-0.12,-0.36,31809,10043.10,0,0,0,6.02,-4.55,0.84,0.91,-0.12,-0.36
-6.267578,0.038992014,-0.016638003,0.021543995,0.91,-0.11,-0.38,31824,10043.50,0,0,0,0.21,-4.76,4.13,0.91,-0.11,-0.38
-6.6679688,0.025992015,-0.039637998,0.037543997,0.89,-0.11,-0.39,31839,10043.10,0,0,0,-0.70,-6.37,5.25,0.89,-0.11,-0.39
-6.267578,0.073992014,-0.050637998,0.011543997,0.89,-0.1,-0.38,31862,10043.50,0,0,0,2.66,-7.14,3.43,0.89,-0.10,-0.38
-6.267578,0.050992016,-0.051638,0.0025439933,0.9,-0.13,-0.39,31877,10043.50,0,0,0,1.05,-7.21,2.80,0.90,-0.13,-0.39
-7.6679688,0.052992016,-0.037638,-0.0064560045,0.89,-0.13,-0.36,31892,10042.10,0,0,0,1.19,-6.23,2.17,0.89,-0.13,-0.36
-5.267578,0.0029920153,-0.021637999,-0.0014560074,0.89,-0.12,-0.36,31907,10044.50,0,0,0,-2.31,-5.11,2.52,0.89,-0.12,-0.36
-4.267578,-0.009007987,-0.002638001,-0.011456005,0.89,-0.12,-0.38,31922,10045.50,0,0,0,-3.15,-3.78,1.82,0.89,-0.12,-0.38
-5.267578,-0.020007987,0.0063619986,-0.028456006,0.89,-0.12,-0.38,31937,10044.50,0,0,0,-3.92,-3.15,0.63,0.89,-0.12,-0.38
-5.267578,-0.03500798,-0.015638001,-0.0134560075,0.89,-0.12,-0.39,31952,10044.50,0,0,0,-4.97,-4.69,1.68,0.89,-0.12,-0.39
-5.267578,-0.023007985,-0.043638,0.0045439936,0.89,-0.12,-0.38,31974,10044.50,0,0,0,-4.13,-6.65,2.94,0.89,-0.12,-0.38
-4.9677734,-0.04300799,-0.061637998,0.016543996,0.9,-0.12,-0.37,31989,10044.80,0,0,0,-5.53,-7.91,3.78,0.90,-0.12,-0.37
-4.267578,-0.059007984,-0.067637995,0.032543994,0.9,-0.12,-0.37,32004,10045.50,0,0,0,-6.65,-8.33,4.90,0.90,-0.12,-0.37
-2.9677734,-0.09900798,-0.070638,0.049544,0.9,-0.13,-0.36,32020,10046.80,0,0,0,-9.45,-8.54,6.09,0.90,-0.13,-0.36
-2.9677734,-0.13900799,-0.068638,0.040543996,0.88,-0.12,-0.37,32035,10046.80,0,0,0,-12.25,-8.40,5.46,0.88,-0.12,-0.37
-2.9677734,-0.175008,-0.071637996,0.066544,0.88,-0.12,-0.38,32050,10046.80,0,0,0,-14.77,-8.61,7.28,0.88,-0.12,-0.38
-1.8671875,-0.14200799,-0.086637996,0.063544,0.87,-0.12,-0.38,32072,10047.90,0,0,0,-12.46,-9.66,7.07,0.87,-0.12,-0.38
-2.9677734,-0.14200799,-0.087638,0.05654399,0.88,-0.11,-0.38,32087,10046.80,0,0,0,-12.46,-9.73,6.58,0.88,-0.11,-0.38
-2.2675781,-0.14100799,-0.064637996,0.043543994,0.9,-0.11,-0.4,32102,10047.50,0,0,0,-12.39,-8.12,5.67,0.90,-0.11,-0.40
-0.8671875,-0.15500799,-0.024638005,0.049544,0.9,-0.1,-0.4,32117,10048.90,0,0,0,-13.37,-5.32,6.09,0.90,-0.10,-0.40
-2.9677734,-0.18900798,0.012362,0.043543994,0.88,-0.11,-0.42,32132,10046.80,0,0,0,-15.75,-2.73,5.67,0.88,-0.11,-0.42
-0.5673828,-0.16800798,0.028362,0.027544,0.88,-0.1,-0.44,32154,10049.20,0,0,0,-14.28,-1.61,4.55,0.88,-0.10,-0.44
-0.8671875,-0.10600798,0.029362,0.0025439933,0.87,-0.11,-0.45,32170,10048.90,0,0,0,-9.94,-1.54,2.80,0.87,-0.11,-0.45
-0.5673828,-0.049007986,0.024362,-0.021456005,0.86,-0.12,-0.44,32185,10049.20,0,0,0,-5.95,-1.89,1.12,0.86,-0.12,-0.44
-0.8671875,-0.024007984,0.016362,-0.014456006,0.87,-0.1,-0.44,32199,10048.90,0,0,0,-4.20,-2.45,1.61,0.87,-0.10,-0.44
0.4326172,-0.026007988,0.016362,-0.010456005,0.87,-0.1,-0.44,32214,10050.20,0,0,0,-4.34,-2.45,1.89,0.87,-0.10,-0.44
0.4326172,-0.034007985,0.023362,0.009543993,0.87,-0.09,-0.45,32229,10050.20,0,0,0,-4.90,-1.96,3.29,0.87,-0.09,-0.45
0.4326172,-0.039007988,0.014362,0.026543997,0.87,-0.1,-0.44,32244,10050.20,0,0,0,-5.25,-2.59,4.48,0.87,-0.10,-0.44
0.4326172,0.024992015,-0.013638005,-0.015456006,0.85,-0.12,-0.43,32267,10050.20,0,0,0,-0.77,-4.55,1.54,0.85,-0.12,-0.43
0.4326172,0.12599202,-0.017637998,-0.07145601,0.86,-0.09,-0.44,32282,10050.20,0,0,0,6.30,-4.83,-2.38,0.86,-0.09,-0.44
1.4326172,0.17899202,-0.002638001,-0.096456006,0.87,-0.1,-0.47,32305,10051.20,0,0,0,10.01,-3.78,-4.13,0.87,-0.10,-0.47
-0.26757812,0.07999201,0.029362,-0.07545601,0.87,-0.11,-0.46,32319,10049.50,0,0,0,3.08,-1.54,-2.66,0.87,-0.11,-0.46
1.8320312,-0.15600798,-0.11463799,-0.034456007,0.9,-0.05,-0.66,32342,10051.60,0,0,0,-13.44,-11.62,0.21,0.90,-0.05,-0.66
-0.26757812,0.36899203,-0.027638003,-0.048456006,0.9,-0.05,-0.35,32356,10049.50,0,0,0,23.31,-5.53,-0.77,0.90,-0.05,-0.35
0.7324219,0.22299202,-0.017637998,-0.06745601,0.83,-0.12,-0.36,32379,10050.50,0,0,0,13.09,-4.83,-2.10,0.83,-0.12,-0.36
-0.26757812,0.23999201,0.099362,-0.08945601,0.89,-0.19,-0.41,32395,10049.50,0,0,0,14.28,3.36,-3.64,0.89,-0.19,-0.41
1.8320312,0.269992,0.011362001,-0.132456,0.86,-0.14,-0.98,32409,10051.60,0,0,0,16.38,-2.80,-6.65,0.86,-0.14,-0.98
-0.26757812,0.192992,-0.010638002,-0.06745601,0.85,-0.08,-0.48,32432,10049.50,0,0,0,10.99,-4.34,-2.10,0.85,-0.08,-0.48
-0.26757812,0.077992015,0.037362,-0.06845601,0.91,-0.09,-0.4,32447,10049.50,0,0,0,2.94,-0.98,-2.17,0.91,-0.09,-0.40
-0.26757812,0.284992,0.013361998,-0.07645601,0.88,-0.1,-0.52,32471,10049.50,0,0,0,17.43,-2.66,-2.73,0.88,-0.10,-0.52
1.8320312,0.14399202,0.039362002,-0.030456007,0.89,-0.07,-0.36,32485,10051.60,0,0,0,7.56,-0.84,0.49,0.89,-0.07,-0.36
1.8320312,-0.06200799,0.042362,0.006543994,0.91,-0.12,-0.43,32507,10051.60,0,0,0,-6.86,-0.63,3.08,0.91,-0.12,-0.43
1.1328125,-0.017007984,0.049362,0.052543998,0.9,-0.1,-0.4,32530,10050.90,0,0,0,-3.71,-0.14,6.30,0.90,-0.10,-0.40
0.1328125,0.034992017,-0.036638,0.0045439936,0.85,-0.11,-0.36,32544,10049.90,0,0,0,-0.07,-6.16,2.94,0.85,-0.11,-0.36
-0.26757812,-0.07100798,-0.07863801,-0.014456006,0.88,-0.1,-0.36,32566,10049.50,0,0,0,-7.49,-9.10,1.61,0.88,-0.10,-0.36
0.1328125,-0.07500799,-0.087638,-0.025456008,0.88,-0.14,-0.34,32582,10049.90,0,0,0,-7.77,-9.73,0.84,0.88,-0.14,-0.34
2.8320312,0.10299201,-0.053637996,-0.11645601,0.85,-0.11,-0.43,32604,10052.60,0,0,0,4.69,-7.35,-5.53,0.85,-0.11,-0.43
1.4326172,0.23999201,-0.056638002,-0.156456,0.89,-0.1,-0.43,32619,10051.20,0,0,0,14.28,-7.56,-8.33,0.89,-0.10,-0.43
0.4326172,0.08799201,-0.044637993,-0.07445601,0.89,-0.1,-0.43,32635,10050.20,0,0,0,3.64,-6.72,-2.59,0.89,-0.10,-0.43
0.1328125,0.47799203,0.021362001,-0.047456004,0.86,-0.04,-0.46,32649,10049.90,0,0,0,30.94,-2.10,-0.70,0.86,-0.04,-0.46
0.4326172,-0.018007986,-0.023638003,-0.08345601,0.85,-0.14,-0.41,32671,10050.20,0,0,0,-3.78,-5.25,-3.22,0.85,-0.14,-0.41
0.4326172,0.15199201,-0.026638001,-0.06945601,0.88,-0.13,-0.39,32695,10050.20,0,0,0,8.12,-5.46,-2.24,0.88,-0.13,-0.39
0.4326172,-0.038007986,-0.014637999,-0.0024560057,0.88,-0.14,-0.41,32709,10050.20,0,0,0,-5.18,-4.62,2.45,0.88,-0.14,-0.41
-0.8671875,-0.09900798,0.033362,0.001543995,0.88,-0.14,-0.41,32732,10048.90,0,0,0,-9.45,-1.26,2.73,0.88,-0.14,-0.41
-0.5673828,-0.11200799,-0.0046380013,0.020543993,0.89,-0.11,-0.41,32747,10049.20,0,0,0,-10.36,-3.92,4.06,0.89,-0.11,-0.41
0.7324219,-0.03600798,0.0053620003,-0.004456006,0.89,-0.11,-0.47,32769,10050.50,0,0,0,-5.04,-3.22,2.31,0.89,-0.11,-0.47
-2.5673828,-0.07900798,0.023362,0.051543996,0.89,-0.14,-0.46,32785,10047.20,0,0,0,-8.05,-1.96,6.23,0.89,-0.14,-0.46
0.7324219,0.08699201,-0.042637996,0.06954399,0.9,-0.08,-0.37,32822,10050.50,0,0,0,3.57,-6.58,7.49,0.90,-0.08,-0.37
0.4326172,0.16399202,-0.006637998,-0.080456,0.86,-0.14,-0.4,32823,10050.20,0,0,0,8.96,-4.06,-3.01,0.86,-0.14,-0.40
0.7324219,0.10799201,0.018362,-0.061456002,0.87,-0.12,-0.41,32867,10050.50,0,0,0,5.04,-2.31,-1.68,0.87,-0.12,-0.41
-0.5673828,-0.20000799,0.043362,0.03354399,0.87,-0.1,-0.42,32869,10049.20,0,0,0,-16.52,-0.56,4.97,0.87,-0.10,-0.42
0.7324219,-0.12800798,0.002361998,0.020543993,0.88,-0.11,-0.4,32882,10050.50,0,0,0,-11.48,-3.43,4.06,0.88,-0.11,-0.40
-0.26757812,0.13999201,-0.037638,-0.010456005,0.88,-0.09,-0.38,32905,10049.50,0,0,0,7.28,-6.23,1.89,0.88,-0.09,-0.38
1.8320312,0.073992014,-0.030637994,0.009543993,0.89,-0.1,-0.4,32919,10051.60,0,0,0,2.66,-5.74,3.29,0.89,-0.10,-0.40
0.7324219,0.043992016,0.0053620003,0.012543995,0.89,-0.12,-0.43,32934,10050.50,0,0,0,0.56,-3.22,3.50,0.89,-0.12,-0.43
1.1328125,0.10999201,0.022362001,-0.018456005,0.88,-0.11,-0.35,32956,10050.90,0,0,0,5.18,-2.03,1.33,0.88,-0.11,-0.35
-0.5673828,0.12799202,-0.009638,0.028543994,0.88,-0.0,-0.34,32972,10049.20,0,0,0,6.44,-4.27,4.62,0.88,-0.00,-0.34
0.1328125,0.08699201,-0.031637996,0.009543993,0.87,-0.13,-0.43,32995,10049.90,0,0,0,3.57,-5.81,3.29,0.87,-0.13,-0.43
-0.26757812,0.28599203,0.034362,-0.021456005,0.9,-0.08,-0.43,33016,10049.50,0,0,0,17.50,-1.19,1.12,0.90,-0.08,-0.43
0.1328125,0.066992015,0.046362,-0.0074560065,0.89,-0.06,-0.47,33031,10049.90,0,0,0,2.17,-0.35,2.10,0.89,-0.06,-0.47
0.1328125,-0.06600799,0.033362,-0.011456005,0.86,-0.12,-0.42,33047,10049.90,0,0,0,-7.14,-1.26,1.82,0.86,-0.12,-0.42
0.1328125,-0.19600798,0.037362,0.025543995,0.85,-0.2,-0.34,33069,10049.90,0,0,0,-16.24,-0.98,4.41,0.85,-0.20,-0.34
0.1328125,-0.43900797,0.062362,0.132544,0.86,-0.21,-0.35,33085,10049.90,0,0,0,-33.25,0.77,11.90,0.86,-0.21,-0.35
-0.8671875,0.12599202,-0.017637998,0.035543993,0.9,-0.01,-0.34,33107,10048.90,0,0,0,6.30,-4.83,5.11,0.90,-0.01,-0.34
0.1328125,-0.092007995,0.016362,-0.070456006,0.85,-0.28,-0.32,33122,10049.90,0,0,0,-8.96,-2.45,-2.31,0.85,-0.28,-0.32
0.1328125,0.050992016,0.068362,-0.080456,0.89,-0.1,-0.38,33145,10049.90,0,0,0,1.05,1.19,-3.01,0.89,-0.10,-0.38
-0.5673828,-0.463008,0.052362,0.10654399,0.88,-0.07,-0.49,33160,10049.20,0,0,0,-34.93,0.07,10.08,0.88,-0.07,-0.49
-0.5673828,-0.40900797,0.032362,0.13754399,0.85,-0.15,-0.32,33175,10049.20,0,0,0,-31.15,-1.33,12.25,0.85,-0.15,-0.32
-0.5673828,-0.059007984,-0.08463801,0.018543996,0.89,-0.17,-0.51,33197,10049.20,0,0,0,-6.65,-9.52,3.92,0.89,-0.17,-0.51
0.7324219,-0.14300798,0.086362004,-0.072456,0.88,-0.15,-0.3,33212,10050.50,0,0,0,-12.53,2.45,-2.45,0.88,-0.15,-0.30
-1.5673828,0.11999202,0.039362002,-0.12945601,0.83,-0.13,-0.38,33234,10048.20,0,0,0,5.88,-0.84,-6.44,0.83,-0.13,-0.38
-1.5673828,-0.536008,0.035361998,-0.019456007,0.86,-0.12,-0.39,33249,10048.20,0,0,0,-40.04,-1.12,1.26,0.86,-0.12,-0.39
-1.2675781,-0.42100796,-0.064637996,0.04554399,0.86,-0.17,-0.39,33272,10048.50,0,0,0,-31.99,-8.12,5.81,0.86,-0.17,-0.39
-0.5673828,-0.305008,-6.3800067E-4,0.03454399,0.9,-0.09,-0.42,33287,10049.20,0,0,0,-23.87,-3.64,5.04,0.90,-0.09,-0.42
-0.5673828,-0.15500799,-0.052638,0.013543993,0.87,-0.08,-0.4,33309,10049.20,0,0,0,-13.37,-7.28,3.57,0.87,-0.08,-0.40
-1.5673828,-0.107007995,-0.049638003,-0.0014560074,0.88,-0.07,-0.43,33324,10048.20,0,0,0,-10.01,-7.07,2.52,0.88,-0.07,-0.43
