Pressure_Rel,GyroX_Rel,GyroY_Rel,GyroZ_Rel,AccX_Rel,AccY_Rel,AccZ_Rel,Timestamp,Pressure_abs,HeartRate,Oxygen,Status,GyroX,GyroY,GyroZ,AccX,AccY,AccZ
0.0,0.0,0.0,0.0,0.0,0.0,0.0,3063,10144.90,0,0,0,25.55,24.22,-32.06,0.44,0.22,0.86
0.0,0.0,0.0,0.0,0.0,0.0,0.0,3078,10144.90,0,0,0,19.39,42.00,-29.33,0.43,0.15,0.87
0.0,0.0,0.0,0.0,0.0,0.0,0.0,3094,10142.90,0,0,0,27.51,45.01,-32.27,0.42,0.14,0.97
0.0,0.0,0.0,0.0,0.0,0.0,0.0,3107,10143.90,0,0,0,42.49,37.45,-36.89,0.42,0.18,1.00
0.0,0.0,0.0,0.0,0.0,0.0,0.0,3123,10143.90,0,0,0,57.26,39.06,-36.47,0.41,0.24,1.08
0.0,0.0,0.0,0.0,0.0,0.0,0.0,3146,10143.90,0,0,0,59.22,36.68,-34.16,0.40,0.28,1.13
0.0,0.0,0.0,0.0,0.0,0.0,0.0,3168,10143.90,0,0,0,52.85,25.41,-24.29,0.43,0.28,1.18
0.0,0.0,0.0,0.0,0.0,0.0,0.0,3175,10142.90,0,0,0,29.19,5.88,-19.04,0.42,0.24,1.21
0.0,0.0,0.0,0.0,0.0,0.0,0.0,3198,10142.20,0,0,0,-18.06,-22.05,-23.94,0.41,0.25,1.13
0.0,0.0,0.0,0.0,0.0,0.0,0.0,3205,10143.50,0,0,0,-31.15,-35.70,-16.59,0.39,0.32,0.88
0.0,0.0,0.0,0.0,0.0,0.0,0.0,3221,10143.50,0,0,0,-10.99,-15.40,-12.81,0.37,0.28,0.80
0.0,0.0,0.0,0.0,0.0,0.0,0.0,3243,10142.50,0,0,0,18.27,9.80,-13.58,0.36,0.29,0.88
0.0,0.0,0.0,0.0,0.0,0.0,0.0,3258,10142.90,0,0,0,44.94,12.04,-13.16,0.36,0.29,0.92
0.0,0.0,0.0,0.0,0.0,0.0,0.0,3273,10142.20,0,0,0,51.24,8.96,-15.96,0.35,0.28,0.96
0.0,0.0,0.0,0.0,0.0,0.0,0.0,3295,10141.50,0,0,0,36.33,0.14,-17.22,0.34,0.35,0.97
0.0,0.0,0.0,0.0,0.0,0.0,0.0,3303,10142.50,0,0,0,20.51,-14.63,-7.35,0.33,0.39,0.96
0.0,0.0,0.0,0.0,0.0,0.0,0.0,3318,10142.50,0,0,0,0.35,-22.40,-1.68,0.32,0.38,0.90
0.0,0.0,0.0,0.0,0.0,0.0,0.0,3340,10142.50,0,0,0,-9.38,-22.96,5.39,0.31,0.37,0.86
0.0,0.0,0.0,0.0,0.0,0.0,0.0,3356,10140.20,0,0,0,-8.68,-21.49,5.53,0.31,0.34,0.81
0.0,0.0,0.0,0.0,0.0,0.0,0.0,3370,10142.20,0,0,0,8.61,-12.18,5.04,0.32,0.33,0.78
0.0,0.0,0.0,0.0,0.0,0.0,0.0,3385,10142.20,0,0,0,17.92,-2.87,0.91,0.33,0.32,0.82
0.0,0.0,0.0,0.0,0.0,0.0,0.0,3401,10141.20,0,0,0,18.20,-0.98,-2.24,0.33,0.36,0.88
0.0,0.0,0.0,0.0,0.0,0.0,0.0,3423,10140.20,0,0,0,10.29,-7.98,0.70,0.36,0.39,0.91
0.0,0.0,0.0,0.0,0.0,0.0,0.0,3445,10140.80,0,0,0,-2.38,-13.30,5.46,0.35,0.38,0.91
0.0,0.0,0.0,0.0,0.0,0.0,0.0,3453,10141.20,0,0,0,-9.24,-17.99,8.19,0.35,0.40,0.90
0.0,0.0,0.0,0.0,0.0,0.0,0.0,3468,10142.20,0,0,0,-8.33,-18.62,7.42,0.33,0.35,0.88
0.0,0.0,0.0,0.0,0.0,0.0,0.0,3483,10141.20,0,0,0,-7.98,-16.17,3.78,0.36,0.42,0.83
0.0,0.0,0.0,0.0,0.0,0.0,0.0,3498,10141.50,0,0,0,5.53,-8.40,7.21,0.36,0.39,0.83
0.0,0.0,0.0,0.0,0.0,0.0,0.0,3520,10141.20,0,0,0,2.10,-2.45,2.52,0.38,0.41,0.85
0.0,0.0,0.0,0.0,0.0,0.0,0.0,3535,10140.80,0,0,0,4.34,-2.10,5.95,0.39,0.43,0.86
0.0,0.0,0.0,0.0,0.0,0.0,0.0,3551,10141.20,0,0,0,6.58,0.21,7.07,0.39,0.41,0.87
0.0,0.0,0.0,0.0,0.0,0.0,0.0,3572,10140.80,0,0,0,7.14,-0.70,5.81,0.39,0.42,0.87
0.0,0.0,0.0,0.0,0.0,0.0,0.0,3580,10140.80,0,0,0,9.94,-3.85,7.35,0.41,0.43,0.86
0.0,0.0,0.0,0.0,0.0,0.0,0.0,3596,10140.80,0,0,0,7.42,-2.59,6.30,0.40,0.38,0.87
0.0,0.0,0.0,0.0,0.0,0.0,0.0,3610,10139.80,0,0,0,-3.57,-6.58,1.54,0.41,0.43,0.87
0.0,0.0,0.0,0.0,0.0,0.0,0.0,3633,10140.80,0,0,0,-4.62,-11.55,6.58,0.41,0.43,0.82
0.0,0.0,0.0,0.0,0.0,0.0,0.0,3648,10139.80,0,0,0,-3.01,-5.39,7.35,0.39,0.42,0.81
0.0,0.0,0.0,0.0,0.0,0.0,0.0,3663,10139.80,0,0,0,-0.49,-1.40,8.19,0.40,0.41,0.78
0.0,0.0,0.0,0.0,0.0,0.0,0.0,3678,10140.80,0,0,0,4.06,5.60,9.52,0.42,0.37,0.78
0.0,0.0,0.0,0.0,0.0,0.0,0.0,3693,10139.50,0,0,0,6.37,13.93,6.09,0.42,0.37,0.84
0.0,0.0,0.0,0.0,0.0,0.0,0.0,3707,10140.50,0,0,0,7.63,10.29,5.39,0.44,0.37,0.93
0.0,0.0,0.0,0.0,0.0,0.0,0.0,3730,10140.50,0,0,0,-0.42,-1.19,1.75,0.43,0.37,0.92
0.0,0.0,0.0,0.0,0.0,0.0,0.0,3746,10140.50,0,0,0,-2.45,-8.47,3.92,0.43,0.39,0.87
0.0,0.0,0.0,0.0,0.0,0.0,0.0,3760,10139.50,0,0,0,-4.34,-6.09,6.44,0.43,0.38,0.84
0.0,0.0,0.0,0.0,0.0,0.0,0.0,3776,10141.80,0,0,0,-2.45,-1.12,8.68,0.43,0.37,0.88
0.0,0.0,0.0,0.0,0.0,0.0,0.0,3790,10138.80,0,0,0,-1.40,-0.56,7.07,0.44,0.37,0.91
0.0,0.0,0.0,0.0,0.0,0.0,0.0,3805,10139.50,0,0,0,5.88,-0.84,6.65,0.44,0.35,0.89
0.0,0.0,0.0,0.0,0.0,0.0,0.0,3820,10139.50,0,0,0,7.28,-0.63,3.36,0.45,0.33,0.88
0.0,0.0,0.0,0.0,0.0,0.0,0.0,3836,10140.50,0,0,0,6.79,-1.26,1.61,0.44,0.36,0.89
0.0,0.0,0.0,0.0,0.0,0.0,0.0,3858,10139.50,0,0,0,7.98,-3.99,1.54,0.42,0.38,0.88
0.0,0.0,0.0,0.0,0.0,0.0,0.0,3880,10139.50,0,0,0,2.59,-6.02,1.68,0.43,0.38,0.85
0.0,0.0,0.0,0.0,0.0,0.0,0.0,3888,10138.80,0,0,0,-0.91,-2.73,3.64,0.43,0.37,0.85
0.0,0.0,0.0,0.0,0.0,0.0,0.0,3902,10138.10,0,0,0,-0.14,-1.75,1.40,0.42,0.37,0.87
0.0,0.0,0.0,0.0,0.0,0.0,0.0,3918,10138.80,0,0,0,3.92,-5.95,0.49,0.42,0.38,0.84
0.0,0.0,0.0,0.0,0.0,0.0,0.0,3933,10139.20,0,0,0,4.34,-2.94,-1.26,0.42,0.38,0.85
0.0,0.0,0.0,0.0,0.0,0.0,0.0,3956,10138.10,0,0,0,1.61,-3.64,-1.26,0.42,0.43,0.88
0.0,0.0,0.0,0.0,0.0,0.0,0.0,3970,10139.20,0,0,0,1.33,-9.31,2.80,0.41,0.39,0.85
0.0,0.0,0.0,0.0,0.0,0.0,0.0,3986,10138.10,0,0,0,-4.76,-7.91,-0.07,0.41,0.41,0.79
0.0,0.0,0.0,0.0,0.0,0.0,0.0,4000,10139.20,0,0,0,-0.70,-0.91,2.73,0.42,0.39,0.81
0.0,0.0,0.0,0.0,0.0,0.0,0.0,4015,10136.80,0,0,0,-5.53,2.17,0.28,0.42,0.38,0.83
0.0,0.0,0.0,0.0,0.0,0.0,0.0,4031,10137.50,0,0,0,-3.71,3.43,1.89,0.42,0.40,0.86
0.0,0.0,0.0,0.0,0.0,0.0,0.0,4052,10137.80,0,0,0,-2.52,3.36,0.49,0.43,0.37,0.89
0.0,0.0,0.0,0.0,0.0,0.0,0.0,4067,10137.80,0,0,0,-0.84,1.82,0.07,0.43,0.37,0.92
0.0,0.0,0.0,0.0,0.0,0.0,0.0,4082,10137.80,0,0,0,1.89,-1.68,-0.77,0.42,0.38,0.90
0.0,0.0,0.0,0.0,0.0,0.0,0.0,4098,10137.80,0,0,0,3.71,-4.13,-0.77,0.42,0.39,0.86
0.0,0.0,0.0,0.0,0.0,0.0,0.0,4113,10138.80,0,0,0,3.01,-2.94,0.98,0.42,0.39,0.82
0.0,0.0,0.0,0.0,0.0,0.0,0.0,4128,10138.80,0,0,0,-1.33,1.61,-0.21,0.42,0.39,0.84
0.0,0.0,0.0,0.0,0.0,0.0,0.0,4143,10138.80,0,0,0,1.54,2.10,3.57,0.43,0.40,0.87
0.0,0.0,0.0,0.0,0.0,0.0,0.0,4165,10138.80,0,0,0,0.70,-1.61,4.13,0.44,0.37,0.88
0.0,0.0,0.0,0.0,0.0,0.0,0.0,4180,10137.50,0,0,0,0.14,-2.80,3.22,0.44,0.36,0.87
0.0,0.0,0.0,0.0,0.0,0.0,0.0,4196,10137.80,0,0,0,1.26,-3.71,1.61,0.45,0.37,0.86
0.0,0.0,0.0,0.0,0.0,0.0,0.0,4210,10138.80,0,0,0,2.94,-3.36,0.56,0.43,0.35,0.88
0.0,0.0,0.0,0.0,0.0,0.0,0.0,4225,10137.50,0,0,0,1.12,-5.25,-0.70,0.43,0.39,0.85
0.0,0.0,0.0,0.0,0.0,0.0,0.0,4248,10138.80,0,0,0,2.80,-4.20,3.50,0.44,0.36,0.84
0.0,0.0,0.0,0.0,0.0,0.0,0.0,4263,10138.50,0,0,0,-1.89,0.42,-1.26,0.42,0.37,0.85
0.0,0.0,0.0,0.0,0.0,0.0,0.0,4285,10138.80,0,0,0,2.94,-0.28,0.63,0.43,0.39,0.87
0.0,0.0,0.0,0.0,0.0,0.0,0.0,4293,10138.50,0,0,0,4.97,-0.84,-0.14,0.42,0.37,0.88
0.0,0.0,0.0,0.0,0.0,0.0,0.0,4307,10137.80,0,0,0,3.43,-3.01,-0.98,0.42,0.40,0.88
0.0,0.0,0.0,0.0,0.0,0.0,0.0,4322,10138.50,0,0,0,3.71,-4.83,-1.05,0.40,0.40,0.86
0.0,0.0,0.0,0.0,0.0,0.0,0.0,4337,10138.50,0,0,0,2.38,-4.76,-0.63,0.39,0.42,0.84
0.0,0.0,0.0,0.0,0.0,0.0,0.0,4360,10139.50,0,0,0,2.10,-0.91,2.03,0.40,0.41,0.85
0.0,0.0,0.0,0.0,0.0,0.0,0.0,4375,10138.50,0,0,0,0.49,0.49,4.13,0.41,0.40,0.87
0.0,0.0,0.0,0.0,0.0,0.0,0.0,4391,10138.20,0,0,0,2.73,0.00,4.27,0.40,0.39,0.87
0.0,0.0,0.0,0.0,0.0,0.0,0.0,4405,10138.20,0,0,0,5.32,-0.84,3.78,0.41,0.40,0.87
0.0,0.0,0.0,0.0,0.0,0.0,0.0,4420,10139.20,0,0,0,6.09,0.00,3.85,0.41,0.39,0.87
0.0,0.0,0.0,0.0,0.0,0.0,0.0,4443,10139.20,0,0,0,4.48,0.49,4.20,0.41,0.42,0.88
0.0,0.0,0.0,0.0,0.0,0.0,0.0,4457,10139.20,0,0,0,6.37,1.05,5.60,0.41,0.39,0.88
0.0,0.0,0.0,0.0,0.0,0.0,0.0,4472,10137.80,0,0,0,4.27,1.61,5.18,0.41,0.40,0.88
0.0,0.0,0.0,0.0,0.0,0.0,0.0,4488,10138.80,0,0,0,3.78,0.28,5.88,0.40,0.39,0.87
0.0,0.0,0.0,0.0,0.0,0.0,0.0,4503,10139.20,0,0,0,3.92,0.35,7.14,0.41,0.38,0.84
0.0,0.0,0.0,0.0,0.0,0.0,0.0,4518,10138.20,0,0,0,1.33,0.35,6.58,0.41,0.37,0.81
0.0,0.0,0.0,0.0,0.0,0.0,0.0,4541,10139.90,0,0,0,1.82,1.33,5.74,0.41,0.38,0.78
0.0,0.0,0.0,0.0,0.0,0.0,0.0,4570,10135.80,0,0,0,3.99,2.87,7.28,0.43,0.38,0.78
0.0,0.0,0.0,0.0,0.0,0.0,0.0,4578,10138.80,0,0,0,-0.56,3.78,6.65,0.45,0.37,0.78
0.0,0.0,0.0,0.0,0.0,0.0,0.0,4585,10138.80,0,0,0,-3.22,4.20,5.88,0.46,0.37,0.78
0.0,0.0,0.0,0.0,0.0,0.0,0.0,4600,10138.80,0,0,0,-1.12,7.28,3.15,0.47,0.36,0.81
0.0,0.0,0.0,0.0,0.0,0.0,0.0,4615,10138.80,0,0,0,2.94,8.40,1.75,0.47,0.38,0.87
0.0,0.0,0.0,0.0,0.0,0.0,0.0,4638,10138.50,0,0,0,4.13,4.62,0.98,0.45,0.38,0.90
0.0,0.0,0.0,0.0,0.0,0.0,0.0,4653,10138.80,0,0,0,4.83,2.31,1.75,0.44,0.39,0.91
0.0,0.0,0.0,0.0,0.0,0.0,0.0,4668,10138.50,0,0,0,6.09,1.89,1.68,0.42,0.39,0.92
0.0,0.0,0.0,0.0,0.0,0.0,0.0,4683,10137.50,0,0,0,12.39,-1.12,5.04,0.41,0.41,0.92
0.0,0.0,0.0,0.0,0.0,0.0,0.0,4698,10138.50,0,0,0,15.75,-3.01,4.55,0.40,0.41,0.90
0.0,0.0,0.0,0.0,0.0,0.0,0.0,4713,10138.20,0,0,0,13.86,-4.48,2.66,0.39,0.42,0.85
0.0,0.0,0.0,0.0,0.0,0.0,0.0,4735,10138.50,0,0,0,9.10,0.63,3.08,0.37,0.45,0.74
0.0,0.0,0.0,0.0,0.0,0.0,0.0,4750,10137.80,0,0,0,12.25,16.38,6.58,0.39,0.43,0.73
0.0,0.0,0.0,0.0,0.0,0.0,0.0,4765,10138.50,0,0,0,18.62,38.78,5.60,0.41,0.39,0.83
0.0,0.0,0.0,0.0,0.0,0.0,0.0,4780,10138.20,0,0,0,26.11,42.70,2.45,0.42,0.37,0.94
0.0,0.0,0.0,0.0,0.0,0.0,0.0,4795,10137.20,0,0,0,29.89,33.32,-3.64,0.42,0.41,1.00
0.0,0.0,0.0,0.0,0.0,0.0,0.0,4818,10137.50,0,0,0,33.46,18.69,-2.87,0.42,0.43,0.96
0.0,0.0,0.0,0.0,0.0,0.0,0.0,4832,10138.50,0,0,0,25.41,10.92,-1.47,0.41,0.41,0.89
0.0,0.0,0.0,0.0,0.0,0.0,0.0,4847,10138.20,0,0,0,13.58,12.32,-3.43,0.38,0.42,0.85
0.0,0.0,0.0,0.0,0.0,0.0,0.0,4863,10137.20,0,0,0,13.09,12.53,-4.34,0.36,0.45,0.84
0.0,0.0,0.0,0.0,0.0,0.0,0.0,4878,10137.20,0,0,0,21.42,12.04,-3.92,0.34,0.48,0.83
0.0,0.0,0.0,0.0,0.0,0.0,0.0,4893,10136.50,0,0,0,26.60,13.09,-2.24,0.34,0.49,0.83
0.0,0.0,0.0,0.0,0.0,0.0,0.0,4907,10136.20,0,0,0,18.97,10.99,-2.31,0.32,0.48,0.84
0.0,0.0,0.0,0.0,0.0,0.0,0.0,4930,10136.10,0,0,0,9.94,8.54,-0.42,0.34,0.50,0.85
0.0,0.0,0.0,0.0,0.0,0.0,0.0,4946,10137.20,0,0,0,1.96,5.88,1.33,0.33,0.48,0.87
0.0,0.0,0.0,0.0,0.0,0.0,0.0,4960,10136.80,0,0,0,-2.94,1.12,1.89,0.33,0.50,0.84
0.0,0.0,0.0,0.0,0.0,0.0,0.0,4975,10135.80,0,0,0,0.98,1.54,6.86,0.35,0.47,0.83
0.0,0.0,0.0,0.0,0.0,0.0,0.0,4989,10137.20,0,0,0,2.10,5.32,6.44,0.35,0.46,0.83
0.0,0.0,0.0,0.0,0.0,0.0,0.0,5005,10136.80,0,0,0,6.58,4.83,6.16,0.35,0.45,0.85
0.0,0.0,0.0,0.0,0.0,0.0,0.0,5034,10136.80,0,0,0,9.73,3.43,3.78,0.35,0.47,0.84
0.0,0.0,0.0,0.0,0.0,0.0,0.0,5042,10136.80,0,0,0,14.14,4.83,3.22,0.35,0.48,0.83
0.0,0.0,0.0,0.0,0.0,0.0,0.0,5057,10136.80,0,0,0,17.43,4.34,5.11,0.35,0.50,0.82
0.0,0.0,0.0,0.0,0.0,0.0,0.0,5072,10135.80,0,0,0,13.72,3.36,4.83,0.36,0.47,0.80
0.0,0.0,0.0,0.0,0.0,0.0,0.0,5087,10135.80,0,0,0,8.12,7.21,5.11,0.35,0.48,0.75
0.0,0.0,0.0,0.0,0.0,0.0,0.0,5102,10135.80,0,0,0,7.28,13.72,4.97,0.38,0.46,0.77
0.0,0.0,0.0,0.0,0.0,0.0,0.0,5125,10136.50,0,0,0,8.75,19.32,6.37,0.41,0.46,0.85
0.0,0.0,0.0,0.0,0.0,0.0,0.0,5140,10136.80,0,0,0,11.20,17.92,3.29,0.42,0.45,0.90
0.0,0.0,0.0,0.0,0.0,0.0,0.0,5162,10132.80,0,0,0,16.66,10.99,2.87,0.44,0.43,0.93
0.0,0.0,0.0,0.0,0.0,0.0,0.0,5169,10135.50,0,0,0,12.88,3.64,-3.57,0.43,0.43,0.93
0.0,0.0,0.0,0.0,0.0,0.0,0.0,5185,10135.80,0,0,0,11.20,-4.34,-2.52,0.45,0.42,0.94
0.0,0.0,0.0,0.0,0.0,0.0,0.0,5200,10135.50,0,0,0,-0.70,-12.11,-6.72,0.43,0.41,0.89
0.0,0.0,0.0,0.0,0.0,0.0,0.0,5222,10135.50,0,0,0,-4.69,-13.58,-11.97,0.39,0.46,0.82
0.0,0.0,0.0,0.0,0.0,0.0,0.0,5237,10135.50,0,0,0,1.68,-9.17,-13.02,0.39,0.48,0.81
12.838867,0.0047230814,0.037265394,0.062411554,0.31,0.83,0.49,15257,10168.60,0,0,3,0.07,-1.96,1.05,0.31,0.83,0.49
12.139648,0.00972308,0.040265396,0.06541155,0.31,0.83,0.49,15280,10167.90,0,0,3,0.42,-1.75,1.26,0.31,0.83,0.49
10.838867,0.0077230814,0.045265395,0.061411552,0.31,0.83,0.5,15302,10166.60,0,0,3,0.28,-1.40,0.98,0.31,0.83,0.50
11.838867,-2.76919E-4,0.048265394,0.055411555,0.31,0.83,0.5,15325,10167.60,0,0,3,-0.28,-1.19,0.56,0.31,0.83,0.50
9.838867,-2.76919E-4,0.054265395,0.058411554,0.31,0.83,0.5,15348,10165.60,0,0,3,-0.28,-0.77,0.77,0.31,0.83,0.50
9.838867,-0.0012769187,0.048265394,0.05741155,0.31,0.83,0.5,15369,10165.60,0,0,3,-0.35,-1.19,0.70,0.31,0.83,0.50
2.7392578,7.230814E-4,0.049265392,0.06541155,0.31,0.83,0.49,15385,10158.50,0,0,3,-0.21,-1.12,1.26,0.31,0.83,0.49
10.139648,0.0037230812,0.049265392,0.06841155,0.31,0.83,0.5,15399,10165.90,0,0,3,0.00,-1.12,1.47,0.31,0.83,0.50
9.838867,0.0047230814,0.048265394,0.07541156,0.31,0.83,0.5,15415,10165.60,0,0,3,0.07,-1.19,1.96,0.31,0.83,0.50
9.838867,0.0037230812,0.045265395,0.06841155,0.31,0.83,0.5,15438,10165.60,0,0,3,0.00,-1.40,1.47,0.31,0.83,0.50
10.139648,0.0077230814,0.052265394,0.07141155,0.3,0.84,0.5,15463,10165.90,0,0,3,0.28,-0.91,1.68,0.30,0.84,0.50
11.838867,0.016723081,0.062265396,0.06941155,0.31,0.83,0.49,15482,10167.60,0,0,3,0.91,-0.21,1.54,0.31,0.83,0.49
9.838867,0.016723081,0.06726539,0.066411555,0.31,0.83,0.49,15512,10165.60,0,0,3,0.91,0.14,1.33,0.31,0.83,0.49
9.439453,0.010723081,0.0662654,0.06441155,0.31,0.82,0.49,15520,10165.20,0,0,3,0.49,0.07,1.19,0.31,0.82,0.49
8.439453,0.0017230811,0.059265394,0.070411555,0.31,0.83,0.49,15544,10164.20,0,0,3,-0.14,-0.42,1.61,0.31,0.83,0.49
9.139648,0.0077230814,0.056265395,0.077411555,0.31,0.83,0.49,15570,10164.90,0,0,3,0.28,-0.63,2.10,0.31,0.83,0.49
9.139648,0.0047230814,0.052265394,0.07841156,0.31,0.83,0.49,15587,10164.90,0,0,3,0.07,-0.91,2.17,0.31,0.83,0.49
9.838867,0.0067230808,0.048265394,0.07841156,0.31,0.83,0.49,15613,10165.60,0,0,3,0.21,-1.19,2.17,0.31,0.83,0.49
10.139648,0.013723081,0.048265394,0.074411556,0.31,0.83,0.49,15636,10165.90,0,0,3,0.70,-1.19,1.89,0.31,0.83,0.49
9.139648,0.019723082,0.049265392,0.06941155,0.31,0.83,0.49,15639,10164.90,0,0,3,1.12,-1.12,1.54,0.31,0.83,0.49
9.139648,0.020723082,0.054265395,0.06541155,0.31,0.83,0.49,15655,10164.90,0,0,3,1.19,-0.77,1.26,0.31,0.83,0.49
9.139648,0.01572308,0.061265394,0.07241155,0.31,0.83,0.5,15685,10164.90,0,0,3,0.84,-0.28,1.75,0.31,0.83,0.50
10.139648,0.00972308,0.061265394,0.08741155,0.31,0.83,0.49,15700,10165.90,0,0,3,0.42,-0.28,2.80,0.31,0.83,0.49
8.139648,0.008723081,0.060265396,0.08641155,0.31,0.84,0.49,15722,10163.90,0,0,3,0.35,-0.35,2.73,0.31,0.84,0.49
10.139648,0.018723082,0.0632654,0.085411556,0.31,0.83,0.49,15745,10165.90,0,0,3,1.05,-0.14,2.66,0.31,0.83,0.49
8.838867,0.012723081,0.065265395,0.081411555,0.31,0.83,0.5,15759,10164.60,0,0,3,0.63,0.00,2.38,0.31,0.83,0.50
10.139648,0.002723081,0.06826539,0.08341155,0.32,0.83,0.49,15782,10165.90,0,0,3,-0.07,0.21,2.52,0.32,0.83,0.49
11.139648,-0.0022769184,0.062265396,0.08941156,0.32,0.84,0.49,15806,10166.90,0,0,3,-0.42,-0.21,2.94,0.32,0.84,0.49
9.139648,0.0057230815,0.06726539,0.08641155,0.31,0.83,0.49,15835,10164.90,0,0,3,0.14,0.14,2.73,0.31,0.83,0.49
10.139648,0.0077230814,0.065265395,0.07941155,0.31,0.83,0.49,15850,10165.90,0,0,3,0.28,0.00,2.24,0.31,0.83,0.49
10.139648,0.0057230815,0.0702654,0.07541156,0.31,0.83,0.49,15865,10165.90,0,0,3,0.14,0.35,1.96,0.31,0.83,0.49
12.5390625,0.0077230814,0.069265395,0.07541156,0.31,0.83,0.49,15880,10168.30,0,0,3,0.28,0.28,1.96,0.31,0.83,0.49
12.5390625,0.0057230815,0.06726539,0.073411554,0.32,0.83,0.49,15910,10168.30,0,0,3,0.14,0.14,1.82,0.32,0.83,0.49
14.239258,0.0047230814,0.061265394,0.06941155,0.32,0.83,0.49,15917,10170.00,0,0,3,0.07,-0.28,1.54,0.32,0.83,0.49
12.139648,-0.0012769187,0.052265394,0.070411555,0.32,0.83,0.49,15940,10167.90,0,0,3,-0.35,-0.91,1.61,0.32,0.83,0.49
13.139648,7.230814E-4,0.052265394,0.073411554,0.32,0.83,0.49,15955,10168.90,0,0,3,-0.21,-0.91,1.82,0.32,0.83,0.49
9.139648,0.0037230812,0.051265396,0.07241155,0.31,0.84,0.49,15977,10164.90,0,0,3,0.00,-0.98,1.75,0.31,0.84,0.49
19.639648,0.0037230812,0.052265394,0.06841155,0.31,0.84,0.49,16007,10175.40,0,0,3,0.00,-0.91,1.47,0.31,0.84,0.49
18.239258,0.0077230814,0.057265393,0.06441155,0.31,0.83,0.49,16029,10174.00,0,0,3,0.28,-0.56,1.19,0.31,0.83,0.49
20.939453,0.0017230811,0.06426539,0.060411554,0.31,0.83,0.49,16045,10176.70,0,0,3,-0.14,-0.07,0.91,0.31,0.83,0.49
24.639648,-0.003276919,0.065265395,0.05941155,0.3,0.85,0.49,16067,10180.40,0,0,3,-0.49,0.00,0.84,0.30,0.85,0.49
28.338867,-0.0012769187,0.069265395,0.049411554,0.3,0.85,0.49,16082,10184.10,0,0,3,-0.35,0.28,0.14,0.30,0.85,0.49
32.739258,0.010723081,0.058265395,0.050411552,0.31,0.84,0.5,16105,10188.50,0,0,3,0.49,-0.49,0.21,0.31,0.84,0.50
36.838867,-0.0072769187,0.0632654,0.058411554,0.31,0.86,0.51,16128,10192.60,0,0,3,-0.77,-0.14,0.77,0.31,0.86,0.51
39.539062,-0.0072769187,0.060265396,0.073411554,0.3,0.88,0.51,16146,10195.30,0,0,3,-0.77,-0.35,1.82,0.30,0.88,0.51
39.838867,0.0017230811,0.06426539,0.095411554,0.3,0.89,0.51,16157,10195.60,0,0,3,-0.14,-0.07,3.36,0.30,0.89,0.51
41.838867,0.051723078,0.080265395,0.11641155,0.3,0.91,0.51,16187,10197.60,0,0,3,3.36,1.05,4.83,0.30,0.91,0.51
45.539062,0.12072307,0.10126539,0.14941156,0.3,0.9,0.49,16210,10201.30,0,0,3,8.19,2.52,7.14,0.30,0.90,0.49
42.539062,0.20572309,0.11126539,0.17141156,0.29,0.9,0.45,16217,10198.30,0,0,3,14.14,3.22,8.68,0.29,0.90,0.45
47.939453,0.29872307,0.1142654,0.16941155,0.28,0.87,0.43,16240,10203.70,0,0,3,20.65,3.43,8.54,0.28,0.87,0.43
41.239258,0.36872306,0.1142654,0.17141156,0.29,0.83,0.44,16261,10197.00,0,0,3,25.55,3.43,8.68,0.29,0.83,0.44
40.838867,0.42272308,0.1142654,0.17041156,0.3,0.82,0.43,16284,10196.60,0,0,3,29.33,3.43,8.61,0.30,0.82,0.43
39.838867,0.44972306,0.11226539,0.14841156,0.31,0.79,0.43,16314,10195.60,0,0,3,31.22,3.29,7.07,0.31,0.79,0.43
39.838867,0.4657231,0.1082654,0.114411555,0.33,0.76,0.44,16345,10195.60,0,0,3,32.34,3.01,4.69,0.33,0.76,0.44
40.838867,0.4477231,0.10126539,0.08741155,0.34,0.76,0.46,16360,10196.60,0,0,3,31.08,2.52,2.80,0.34,0.76,0.46
39.838867,0.35572308,0.0922654,0.09341155,0.37,0.76,0.51,16375,10195.60,0,0,3,24.64,1.89,3.22,0.37,0.76,0.51
37.13965,0.26072308,0.08926539,0.11941155,0.4,0.77,0.53,16389,10192.90,0,0,3,17.99,1.68,5.04,0.40,0.77,0.53
37.838867,0.16972308,0.08626539,0.16041155,0.43,0.77,0.54,16404,10193.60,0,0,3,11.62,1.47,7.91,0.43,0.77,0.54
36.838867,0.10072309,0.087265395,0.20141155,0.44,0.78,0.54,16427,10192.60,0,0,3,6.79,1.54,10.78,0.44,0.78,0.54
36.838867,0.057723083,0.08226539,0.20841157,0.43,0.81,0.54,16449,10192.60,0,0,3,3.78,1.19,11.27,0.43,0.81,0.54
37.838867,0.03872308,0.0882654,0.17541155,0.42,0.84,0.54,16472,10193.60,0,0,3,2.45,1.61,8.96,0.42,0.84,0.54
33.739258,0.04372308,0.1102654,0.12641156,0.41,0.86,0.54,16495,10189.50,0,0,3,2.80,3.15,5.53,0.41,0.86,0.54
36.838867,0.076723084,0.1522654,0.092411555,0.41,0.87,0.53,16510,10192.60,0,0,3,5.11,6.09,3.15,0.41,0.87,0.53
34.13965,0.12572308,0.1892654,0.06841155,0.4,0.86,0.52,16540,10189.90,0,0,3,8.54,8.68,1.47,0.40,0.86,0.52
31.739258,0.17972308,0.2172654,0.039411552,0.39,0.87,0.5,16555,10187.50,0,0,3,12.32,10.64,-0.56,0.39,0.87,0.50
28.739258,0.16272308,0.23626539,-0.006588448,0.37,0.86,0.49,16578,10184.50,0,0,3,11.13,11.97,-3.78,0.37,0.86,0.49
28.739258,0.3077231,0.22226539,-0.022588447,0.35,0.8,0.55,16599,10184.50,0,0,3,21.28,10.99,-4.90,0.35,0.80,0.55
26.039062,0.30572307,0.1872654,-0.07158844,0.35,0.8,0.48,16621,10181.80,0,0,3,21.14,8.54,-8.33,0.35,0.80,0.48
31.739258,0.1337231,0.1982654,-0.052588448,0.39,0.75,0.45,16636,10187.50,0,0,3,9.10,9.31,-7.00,0.39,0.75,0.45
31.039062,0.10272308,0.1892654,-0.072588444,0.34,0.93,0.51,16652,10186.80,0,0,3,6.93,8.68,-8.40,0.34,0.93,0.51
31.039062,0.34972307,0.1772654,-0.13358843,0.27,0.79,0.41,16667,10186.80,0,0,3,24.22,7.84,-12.67,0.27,0.79,0.41
36.838867,0.3007231,0.1422654,-0.13758844,0.27,0.74,0.38,16689,10192.60,0,0,3,20.79,5.39,-12.95,0.27,0.74,0.38
46.239258,0.016723081,0.1422654,-0.07058845,0.33,0.91,0.5,16712,10202.00,0,0,3,0.91,5.39,-8.26,0.33,0.91,0.50
36.838867,0.076723084,0.08226539,-0.04558845,0.31,0.77,0.39,16735,10192.60,83,96,3,5.11,1.19,-6.51,0.31,0.77,0.39
28.039062,0.13272308,0.008265395,-0.044588447,0.26,0.9,0.43,16757,10183.80,83,96,3,9.03,-3.99,-6.44,0.26,0.90,0.43
29.039062,-0.02227692,-7.346049E-4,0.044411555,0.23,0.94,0.48,16772,10184.80,83,96,3,-1.82,-4.62,-0.21,0.23,0.94,0.48
28.039062,0.04972308,-0.002734609,0.11341155,0.29,0.88,0.43,16802,10183.80,83,96,3,3.22,-4.76,4.62,0.29,0.88,0.43
28.039062,0.017723082,0.0012653917,0.18641156,0.28,0.96,0.44,16817,10183.80,83,96,3,0.98,-4.48,9.73,0.28,0.96,0.44
21.239258,0.09672308,0.0012653917,0.23741156,0.29,0.92,0.41,16839,10177.00,83,96,3,6.51,-4.48,13.30,0.29,0.92,0.41
31.039062,0.08572307,-7.346049E-4,0.29241154,0.3,0.88,0.39,16862,10186.80,83,96,3,5.74,-4.62,17.15,0.30,0.88,0.39
32.739258,0.12672308,-0.01073461,0.31041157,0.31,0.86,0.36,16878,10188.50,83,96,3,8.61,-5.32,18.41,0.31,0.86,0.36
31.039062,0.12972309,-0.008734606,0.31941158,0.29,0.86,0.34,16891,10186.80,83,96,3,8.82,-5.18,19.04,0.29,0.86,0.34
30.338867,0.15972309,0.0012653917,0.30341157,0.28,0.9,0.32,16906,10186.10,83,96,3,10.92,-4.48,17.92,0.28,0.90,0.32
33.439453,0.20872308,0.045265395,0.28741154,0.31,0.93,0.31,16929,10189.20,83,96,3,14.35,-1.40,16.80,0.31,0.93,0.31
31.439453,0.26072308,0.095265396,0.31341156,0.34,0.93,0.3,16959,10187.20,83,96,3,17.99,2.10,18.62,0.34,0.93,0.30
29.039062,0.2667231,0.1212654,0.33141154,0.35,0.92,0.28,16979,10184.80,83,96,3,18.41,3.92,19.88,0.35,0.92,0.28
29.039062,0.2457231,0.1362654,0.32741156,0.36,0.93,0.26,16997,10184.80,83,96,3,16.94,4.97,19.60,0.36,0.93,0.26
30.039062,0.22972308,0.1582654,0.32241157,0.37,0.93,0.26,17020,10185.80,83,96,3,15.82,6.51,19.25,0.37,0.93,0.26
30.039062,0.19372308,0.16726539,0.28641155,0.37,0.91,0.26,17043,10185.80,83,96,3,13.30,7.14,16.73,0.37,0.91,0.26
36.13965,0.15672308,0.18126538,0.25441155,0.36,0.9,0.26,17064,10191.90,83,96,3,10.71,8.12,14.49,0.36,0.90,0.26
31.039062,0.12472309,0.19726539,0.22941154,0.35,0.89,0.26,17079,10186.80,83,96,3,8.47,9.24,12.74,0.35,0.89,0.26
30.039062,0.10772309,0.21826538,0.20041156,0.33,0.9,0.26,17102,10185.80,83,96,3,7.28,10.71,10.71,0.33,0.90,0.26
29.739258,0.09972307,0.2332654,0.16841155,0.33,0.91,0.27,17126,10185.50,83,96,3,6.72,11.76,8.47,0.33,0.91,0.27
29.039062,0.09772308,0.2422654,0.13341156,0.33,0.91,0.26,17155,10184.80,83,96,3,6.58,12.39,6.02,0.33,0.91,0.26
29.039062,0.09772308,0.2452654,0.106411554,0.34,0.9,0.27,17156,10184.80,83,96,3,6.58,12.60,4.13,0.34,0.90,0.27
29.338867,0.09372309,0.2382654,0.09041156,0.34,0.9,0.27,17177,10185.10,83,96,3,6.30,12.11,3.01,0.34,0.90,0.27
26.039062,0.09972307,0.2312654,0.10141155,0.35,0.91,0.27,17207,10181.80,83,96,3,6.72,11.62,3.78,0.35,0.91,0.27
31.439453,0.09772308,0.2312654,0.12741154,0.34,0.9,0.28,17222,10187.20,83,96,3,6.58,11.62,5.60,0.34,0.90,0.28
29.739258,0.08972308,0.2402654,0.16441154,0.33,0.9,0.27,17244,10185.50,83,96,3,6.02,12.25,8.19,0.33,0.90,0.27
29.338867,0.106723085,0.2722654,0.18541154,0.34,0.88,0.28,17252,10185.10,83,96,3,7.21,14.49,9.66,0.34,0.88,0.28
29.039062,0.10572308,0.2932654,0.24441156,0.34,0.93,0.26,17283,10184.80,83,96,3,7.14,15.96,13.79,0.34,0.93,0.26
30.039062,0.12772308,0.31126538,0.26441154,0.33,0.92,0.25,17305,10185.80,83,96,3,8.68,17.22,15.19,0.33,0.92,0.25
28.338867,0.123723075,0.3062654,0.19741157,0.32,0.92,0.25,17320,10184.10,83,96,3,8.40,16.87,10.50,0.32,0.92,0.25
29.338867,0.09772308,0.2742654,0.14341155,0.34,0.9,0.26,17343,10185.10,83,96,3,6.58,14.63,6.72,0.34,0.90,0.26
28.338867,0.07872309,0.2612654,0.17341155,0.35,0.89,0.27,17364,10184.10,83,96,3,5.25,13.72,8.82,0.35,0.89,0.27
30.039062,0.059723083,0.2492654,0.19841155,0.35,0.92,0.26,17387,10185.80,83,96,3,3.92,12.88,10.57,0.35,0.92,0.26
29.338867,0.06772308,0.2492654,0.20941156,0.34,0.92,0.26,17417,10185.10,83,96,3,4.48,12.88,11.34,0.34,0.92,0.26
26.338867,0.09272309,0.2632654,0.21741155,0.33,0.93,0.25,17418,10182.10,83,96,3,6.23,13.86,11.90,0.33,0.93,0.25
30.338867,0.116723076,0.2742654,0.20341155,0.34,0.91,0.25,17439,10186.10,83,96,3,7.91,14.63,10.92,0.34,0.91,0.25
29.338867,0.12772308,0.2812654,0.20041156,0.34,0.89,0.25,17462,10185.10,83,96,3,8.68,15.12,10.71,0.34,0.89,0.25
30.039062,0.13472308,0.28826538,0.22341156,0.35,0.88,0.25,17500,10185.80,83,96,3,9.17,15.61,12.32,0.35,0.88,0.25
29.338867,0.12272307,0.2762654,0.23641154,0.35,0.89,0.25,17508,10185.10,83,96,3,8.33,14.77,13.23,0.35,0.89,0.25
28.338867,0.10372308,0.24826542,0.23841155,0.37,0.91,0.25,17529,10184.10,83,96,3,7.00,12.81,13.37,0.37,0.91,0.25
29.338867,0.09772308,0.2282654,0.24141157,0.37,0.91,0.25,17552,10185.10,83,96,3,6.58,11.41,13.58,0.37,0.91,0.25
29.338867,0.11172308,0.2192654,0.24941155,0.37,0.91,0.25,17575,10185.10,0,96,3,7.56,10.78,14.14,0.37,0.91,0.25
29.739258,0.10572308,0.1912654,0.22441155,0.37,0.91,0.25,17597,10185.50,0,96,3,7.14,8.82,12.39,0.37,0.91,0.25
28.338867,0.09672308,0.1792654,0.19841155,0.36,0.91,0.26,17612,10184.10,0,96,3,6.51,7.98,10.57,0.36,0.91,0.26
30.338867,0.08172308,0.1712654,0.17941156,0.36,0.9,0.26,17626,10186.10,0,96,3,5.46,7.42,9.24,0.36,0.90,0.26
29.338867,0.07472308,0.1682654,0.15841156,0.35,0.89,0.27,17649,10185.10,0,96,3,4.97,7.21,7.77,0.35,0.89,0.27
29.338867,0.065723084,0.16126539,0.15241155,0.36,0.9,0.28,17672,10185.10,0,96,3,4.34,6.72,7.35,0.36,0.90,0.28
30.338867,0.06772308,0.1582654,0.15541156,0.37,0.91,0.3,17687,10186.10,0,96,3,4.48,6.51,7.56,0.37,0.91,0.30
28.039062,0.053723082,0.15326539,0.19341156,0.39,0.91,0.31,17702,10183.80,0,96,3,3.50,6.16,10.22,0.39,0.91,0.31
28.338867,0.06872308,0.1592654,0.25641155,0.39,0.88,0.31,17725,10184.10,0,96,3,4.55,6.58,14.63,0.39,0.88,0.31
28.739258,0.098723084,0.18426539,0.28141153,0.37,0.85,0.33,17747,10184.50,0,96,3,6.65,8.33,16.38,0.37,0.85,0.33
28.338867,0.116723076,0.20726538,0.25941154,0.35,0.85,0.35,17777,10184.10,0,96,3,7.91,9.94,14.84,0.35,0.85,0.35
28.739258,0.12472309,0.23926541,0.25541157,0.36,0.82,0.35,17792,10184.50,0,96,3,8.47,12.18,14.56,0.36,0.82,0.35
27.639648,0.15172309,0.2932654,0.27341154,0.35,0.81,0.39,17815,10183.40,0,96,3,10.36,15.96,15.82,0.35,0.81,0.39
26.039062,0.17072308,0.38026538,0.33341157,0.36,0.82,0.41,17845,10181.80,0,96,3,11.69,22.05,20.02,0.36,0.82,0.41
27.639648,0.19472308,0.4902654,0.40441155,0.37,0.8,0.45,17860,10183.40,0,96,3,13.37,29.75,24.99,0.37,0.80,0.45
27.639648,0.19272308,0.57326543,0.46841156,0.39,0.8,0.46,17881,10183.40,0,96,3,13.23,35.56,29.47,0.39,0.80,0.46
26.039062,0.20072308,0.6762654,0.53041154,0.37,0.82,0.47,17889,10181.80,0,96,3,13.79,42.77,33.81,0.37,0.82,0.47
26.639648,0.23072308,0.83526546,0.5954116,0.34,0.85,0.5,17904,10182.40,0,96,3,15.89,53.90,38.36,0.34,0.85,0.50
26.639648,0.3077231,1.0662655,0.6564116,0.31,0.88,0.55,17919,10182.40,0,96,3,21.28,70.07,42.63,0.31,0.88,0.55
20.239258,0.40572307,1.4372654,0.71341157,0.3,0.85,0.61,17942,10176.00,0,96,3,28.14,96.04,46.62,0.30,0.85,0.61
26.338867,0.46172312,1.8112655,0.7584116,0.3,0.84,0.63,17965,10182.10,0,96,3,32.06,122.22,49.77,0.30,0.84,0.63
23.939453,0.5127231,2.1082654,0.72841156,0.33,0.85,0.61,17987,10179.70,0,96,3,35.63,143.01,47.67,0.33,0.85,0.61
23.639648,0.5817231,2.3212655,0.6664116,0.38,0.83,0.6,18017,10179.40,0,96,3,40.46,157.92,43.33,0.38,0.83,0.60
22.639648,0.6337231,2.4802654,0.64941156,0.41,0.79,0.6,18032,10178.40,0,96,3,44.10,169.05,42.14,0.41,0.79,0.60
22.639648,0.6277231,2.5402653,0.61641157,0.43,0.8,0.55,18047,10178.40,0,96,3,43.68,173.25,39.83,0.43,0.80,0.55
22.639648,0.6407231,2.4702654,0.57141155,0.44,0.79,0.51,18069,10178.40,0,96,3,44.59,168.35,36.68,0.44,0.79,0.51
18.539062,0.62172306,2.3382654,0.55641156,0.44,0.79,0.5,18092,10174.30,0,96,3,43.26,159.11,35.63,0.44,0.79,0.50
19.939453,0.5777231,2.1922655,0.54441154,0.42,0.8,0.49,18122,10175.70,0,96,3,40.18,148.89,34.79,0.42,0.80,0.49
18.239258,0.5177231,2.0372653,0.50341153,0.41,0.8,0.47,18129,10174.00,0,96,3,35.98,138.04,31.92,0.41,0.80,0.47
20.939453,0.4337231,1.8492653,0.44641158,0.41,0.79,0.46,18153,10176.70,0,96,3,30.10,124.88,27.93,0.41,0.79,0.46
19.539062,0.35372308,1.6562655,0.42341155,0.41,0.8,0.45,18167,10175.30,0,96,3,24.50,111.37,26.32,0.41,0.80,0.45
18.539062,0.2837231,1.4532654,0.44141155,0.37,0.83,0.44,18189,10174.30,0,96,3,19.60,97.16,27.58,0.37,0.83,0.44
18.539062,0.24872307,1.2512654,0.45141158,0.34,0.86,0.4,18204,10174.30,0,96,3,17.15,83.02,28.28,0.34,0.86,0.40
18.539062,0.24672309,1.0342654,0.40841156,0.33,0.87,0.39,18226,10174.30,0,96,3,17.01,67.83,25.27,0.33,0.87,0.39
18.539062,0.2647231,0.85026544,0.38041157,0.31,0.87,0.42,18249,10174.30,0,96,3,18.27,54.95,23.31,0.31,0.87,0.42
20.939453,0.24672309,0.7232654,0.36841154,0.28,0.85,0.46,18272,10176.70,0,96,3,17.01,46.06,22.47,0.28,0.85,0.46
19.239258,0.17872308,0.6152654,0.34641156,0.24,0.86,0.44,18294,10175.00,0,96,3,12.25,38.50,20.93,0.24,0.86,0.44
18.539062,0.14772308,0.51826537,0.29741156,0.22,0.86,0.43,18325,10174.30,0,96,3,10.08,31.71,17.50,0.22,0.86,0.43
18.939453,0.13872308,0.4512654,0.25641155,0.23,0.85,0.44,18347,10174.70,0,96,3,9.45,27.02,14.63,0.23,0.85,0.44
17.939453,0.123723075,0.4142654,0.25741154,0.23,0.87,0.44,18362,10173.70,0,96,3,8.40,24.43,14.70,0.23,0.87,0.44
18.939453,0.12672308,0.3752654,0.23041156,0.22,0.85,0.42,18384,10174.70,0,96,3,8.61,21.70,12.81,0.22,0.85,0.42
19.939453,0.15172309,0.35326537,0.21341154,0.21,0.86,0.42,18407,10175.70,0,96,3,10.36,20.16,11.62,0.21,0.86,0.42
19.539062,0.18472308,0.34226537,0.20241156,0.21,0.86,0.43,18415,10175.30,0,96,3,12.67,19.39,10.85,0.21,0.86,0.43
21.239258,0.19372308,0.3292654,0.20941156,0.22,0.83,0.43,18437,10177.00,0,96,3,13.30,18.48,11.34,0.22,0.83,0.43
19.239258,0.19672309,0.3072654,0.22941154,0.21,0.85,0.43,18460,10175.00,0,96,3,13.51,16.94,12.74,0.21,0.85,0.43
18.939453,0.21672308,0.3132654,0.21341154,0.2,0.85,0.44,18482,10174.70,0,96,3,14.91,17.36,11.62,0.20,0.85,0.44
19.539062,0.19572307,0.2652654,0.13841155,0.22,0.82,0.43,18497,10175.30,0,96,3,13.44,14.00,6.37,0.22,0.82,0.43
20.939453,0.13972309,0.1632654,0.092411555,0.25,0.88,0.43,18519,10176.70,0,96,3,9.52,6.86,3.15,0.25,0.88,0.43
20.939453,0.07072309,0.047265396,0.092411555,0.21,1.28,0.41,18542,10176.70,0,96,3,4.69,-1.26,3.15,0.21,1.28,0.41
16.539062,0.03672308,0.072265394,-0.011588447,0.24,0.95,0.46,18565,10172.30,0,96,3,2.31,0.49,-4.13,0.24,0.95,0.46
21.239258,0.018723082,0.07426539,-0.012588445,0.27,0.79,0.43,18595,10177.00,0,96,3,1.05,0.63,-4.20,0.27,0.79,0.43
25.338867,0.059723083,0.0932654,-0.036588445,0.29,0.82,0.41,18610,10181.10,0,96,3,3.92,1.96,-5.88,0.29,0.82,0.41
27.039062,0.098723084,0.1032654,-0.055588447,0.33,0.86,0.39,18625,10182.80,0,96,3,6.65,2.66,-7.21,0.33,0.86,0.39
22.939453,0.11272308,0.08926539,-0.05058845,0.36,0.84,0.39,18640,10178.70,0,96,3,7.63,1.68,-6.86,0.36,0.84,0.39
28.039062,0.13072309,0.0852654,-0.017588452,0.38,0.8,0.38,18654,10183.80,0,96,3,8.89,1.40,-4.55,0.38,0.80,0.38
28.039062,0.16772307,0.09026539,0.037411556,0.39,0.85,0.38,18669,10183.80,0,96,3,11.48,1.75,-0.70,0.39,0.85,0.38
21.939453,0.17672308,0.083265394,0.092411555,0.44,0.84,0.38,18692,10177.70,0,96,3,12.11,1.26,3.15,0.44,0.84,0.38
28.338867,0.15372309,0.044265397,0.11241156,0.45,0.83,0.39,18714,10184.10,0,96,3,10.50,-1.47,4.55,0.45,0.83,0.39
28.338867,0.12072307,0.004265394,0.10541155,0.47,0.79,0.42,18737,10184.10,0,96,3,8.19,-4.27,4.06,0.47,0.79,0.42
28.039062,0.05072308,-0.045734607,0.095411554,0.48,0.79,0.46,18760,10183.80,0,96,3,3.29,-7.77,3.36,0.48,0.79,0.46
29.039062,-0.029276919,-0.086734615,0.09441155,0.49,0.8,0.46,18782,10184.80,0,96,3,-2.31,-10.64,3.29,0.49,0.80,0.46
28.039062,-0.074276924,-0.1277346,0.09341155,0.48,0.8,0.45,18804,10183.80,0,96,3,-5.46,-13.51,3.22,0.48,0.80,0.45
27.039062,-0.061276924,-0.1537346,0.088411555,0.47,0.83,0.46,18828,10182.80,0,96,3,-4.55,-15.33,2.87,0.47,0.83,0.46
29.039062,-0.02227692,-0.1577346,0.07841156,0.45,0.83,0.48,18849,10184.80,0,96,3,-1.82,-15.61,2.17,0.45,0.83,0.48
29.739258,-0.016276918,-0.1737346,0.07141155,0.44,0.83,0.49,18864,10185.50,0,96,3,-1.40,-16.73,1.68,0.44,0.83,0.49
30.338867,-0.020276917,-0.1877346,0.058411554,0.44,0.82,0.5,18887,10186.10,0,96,3,-1.68,-17.71,0.77,0.44,0.82,0.50
35.13965,-0.02827692,-0.20073462,0.060411554,0.44,0.83,0.5,18901,10190.90,0,96,3,-2.24,-18.62,0.91,0.44,0.83,0.50
31.039062,-0.02427692,-0.19473463,0.07241155,0.43,0.82,0.52,18917,10186.80,0,96,3,-1.96,-18.20,1.75,0.43,0.82,0.52
29.338867,-0.019276919,-0.1537346,0.11141156,0.42,0.82,0.54,18939,10185.10,0,96,3,-1.61,-15.33,4.48,0.42,0.82,0.54
31.439453,-0.047276918,-0.1157346,0.12241156,0.41,0.81,0.54,18962,10187.20,0,96,3,-3.57,-12.67,5.25,0.41,0.81,0.54
32.439453,-0.091276914,-0.1167346,0.095411554,0.41,0.82,0.52,18984,10188.20,0,96,3,-6.65,-12.74,3.36,0.41,0.82,0.52
32.439453,-0.09427692,-0.1227346,0.058411554,0.4,0.81,0.51,19000,10188.20,0,96,3,-6.86,-13.16,0.77,0.40,0.81,0.51
32.439453,-0.05127692,-0.08973461,0.036411554,0.37,0.83,0.5,19022,10188.20,0,96,3,-3.85,-10.85,-0.77,0.37,0.83,0.50
31.439453,7.230814E-4,-0.036734603,0.0074115545,0.35,0.82,0.5,19045,10187.20,0,96,3,-0.21,-7.14,-2.80,0.35,0.82,0.50
33.439453,0.02172308,-0.0017346069,-0.013588447,0.36,0.81,0.48,19066,10189.20,0,96,3,1.26,-4.69,-4.27,0.36,0.81,0.48
32.039062,0.016723081,0.0072653964,-0.0015884489,0.36,0.83,0.45,19089,10187.80,0,96,3,0.91,-4.06,-3.43,0.36,0.83,0.45
33.439453,0.014723081,0.009265393,0.011411555,0.35,0.85,0.44,19111,10189.20,0,96,3,0.77,-3.92,-2.52,0.35,0.85,0.44
32.439453,0.016723081,0.008265395,0.023411555,0.35,0.85,0.44,19134,10188.20,0,96,3,0.91,-3.99,-1.68,0.35,0.85,0.44
32.039062,0.008723081,0.0022653937,0.027411554,0.35,0.85,0.43,19142,10187.80,0,96,3,0.35,-4.41,-1.40,0.35,0.85,0.43
35.439453,-0.009276919,-0.009734608,0.033411555,0.35,0.85,0.43,19157,10191.20,0,96,3,-0.91,-5.25,-0.98,0.35,0.85,0.43
32.439453,-0.026276918,-0.026734605,0.022411553,0.33,0.86,0.43,19179,10188.20,0,96,3,-2.10,-6.44,-1.75,0.33,0.86,0.43
32.439453,-0.02227692,-0.0417346,-5.8844313E-4,0.32,0.87,0.42,19202,10188.20,0,96,3,-1.82,-7.49,-3.36,0.32,0.87,0.42
31.439453,-0.01327692,-0.055734612,-0.019588448,0.32,0.86,0.42,19225,10187.20,0,96,3,-1.19,-8.47,-4.69,0.32,0.86,0.42
32.439453,-0.01327692,-0.055734612,-0.0095884465,0.32,0.85,0.42,19247,10188.20,0,96,3,-1.19,-8.47,-3.99,0.32,0.85,0.42
31.439453,-0.02727692,-0.074734606,0.0034115538,0.32,0.84,0.41,19269,10187.20,0,96,3,-2.17,-9.80,-3.08,0.32,0.84,0.41
31.439453,-0.02827692,-0.07773461,0.021411553,0.3,0.84,0.42,19284,10187.20,0,96,3,-2.24,-10.01,-1.82,0.30,0.84,0.42
31.739258,-0.025276918,-0.064734615,0.040411554,0.31,0.83,0.42,19306,10187.50,84,96,3,-2.03,-9.10,-0.49,0.31,0.83,0.42
30.739258,-0.04127692,-0.051734596,0.07541156,0.32,0.84,0.42,19329,10186.50,84,96,3,-3.15,-8.19,1.96,0.32,0.84,0.42
30.338867,-0.06027692,-0.048734605,0.09341155,0.32,0.86,0.42,19352,10186.10,84,96,3,-4.48,-7.98,3.22,0.32,0.86,0.42
31.039062,-0.06027692,-0.04673461,0.09741156,0.33,0.85,0.43,19375,10186.80,84,96,3,-4.48,-7.84,3.50,0.33,0.85,0.43
31.439453,-0.05327692,-0.036734603,0.103411555,0.33,0.83,0.44,19390,10187.20,84,96,3,-3.99,-7.14,3.92,0.33,0.83,0.44
30.739258,-0.056276917,-0.029734604,0.10541155,0.32,0.83,0.45,19405,10186.50,84,96,3,-4.20,-6.65,4.06,0.32,0.83,0.45
30.338867,-0.06827691,-0.009734608,0.10941155,0.33,0.83,0.46,19420,10186.10,84,96,3,-5.04,-5.25,4.34,0.33,0.83,0.46
31.439453,-0.09427692,0.004265394,0.114411555,0.33,0.84,0.46,19443,10187.20,84,96,3,-6.86,-4.27,4.69,0.33,0.84,0.46
29.338867,-0.075276926,0.022265393,0.11141156,0.33,0.87,0.46,19472,10185.10,84,96,3,-5.53,-3.01,4.48,0.33,0.87,0.46
31.439453,-0.054276917,0.045265395,0.092411555,0.34,0.85,0.48,19487,10187.20,84,96,3,-4.06,-1.40,3.15,0.34,0.85,0.48
31.439453,-0.05227692,0.080265395,0.10941155,0.38,0.83,0.49,19510,10187.20,84,96,3,-3.92,1.05,4.34,0.38,0.83,0.49
31.739258,-0.06727691,0.10126539,0.13341156,0.39,0.85,0.48,19532,10187.50,84,96,3,-4.97,2.52,6.02,0.39,0.85,0.48
30.739258,-0.061276924,0.09026539,0.121411555,0.39,0.87,0.46,19554,10186.50,84,96,3,-4.55,1.75,5.18,0.39,0.87,0.46
31.739258,-0.03327692,0.0702654,0.06941155,0.4,0.86,0.46,19569,10187.50,84,96,3,-2.59,0.35,1.54,0.40,0.86,0.46
31.739258,-0.0052769184,0.047265396,0.044411555,0.4,0.83,0.44,19592,10187.50,84,96,3,-0.63,-1.26,-0.21,0.40,0.83,0.44
34.739258,0.008723081,0.009265393,0.032411553,0.38,0.84,0.44,19614,10190.50,84,96,3,0.35,-3.92,-1.05,0.38,0.84,0.44
31.439453,0.019723082,-0.020734608,-0.0045884475,0.37,0.85,0.45,19637,10187.20,84,96,3,1.12,-6.02,-3.64,0.37,0.85,0.45
31.739258,0.035723083,-0.040734604,-0.041588448,0.38,0.85,0.46,19652,10187.50,84,96,3,2.24,-7.42,-6.23,0.38,0.85,0.46
30.739258,0.046723083,-0.0537346,-0.05658845,0.39,0.84,0.47,19666,10186.50,84,96,3,3.01,-8.33,-7.28,0.39,0.84,0.47
32.739258,0.06372308,-0.052734606,-0.065588444,0.37,0.84,0.49,19689,10188.50,84,96,3,4.20,-8.26,-7.91,0.37,0.84,0.49
31.039062,0.084723085,-0.05873461,-0.088588454,0.4,0.85,0.52,19712,10186.80,84,96,3,5.67,-8.68,-9.52,0.40,0.85,0.52
30.739258,0.08172308,-0.076734595,-0.09658844,0.43,0.83,0.52,19734,10186.50,84,96,3,5.46,-9.94,-10.08,0.43,0.83,0.52
31.739258,0.069723085,-0.096734606,-0.09358845,0.43,0.82,0.51,19749,10187.50,84,96,3,4.62,-11.34,-9.87,0.43,0.82,0.51
31.338867,0.042723082,-0.096734606,-0.091588445,0.39,0.81,0.5,19772,10187.10,84,96,3,2.73,-11.34,-9.73,0.39,0.81,0.50
30.039062,0.011723082,-0.04673461,-0.09258845,0.37,0.82,0.5,19794,10185.80,84,96,3,0.56,-7.84,-9.80,0.37,0.82,0.50
31.739258,-0.020276917,0.035265394,-0.07358845,0.36,0.84,0.47,19817,10187.50,84,96,3,-1.68,-2.10,-8.47,0.36,0.84,0.47
30.739258,-0.02327692,0.1102654,-0.052588448,0.38,0.86,0.41,19839,10186.50,84,96,3,-1.89,3.15,-7.00,0.38,0.86,0.41
31.739258,0.0017230811,0.14126539,-0.035588443,0.42,0.88,0.37,19862,10187.50,84,96,3,-0.14,5.32,-5.81,0.42,0.88,0.37
29.739258,0.011723082,0.13726538,-0.025588445,0.44,0.88,0.37,19877,10185.50,84,96,3,0.56,5.04,-5.11,0.44,0.88,0.37
30.039062,0.011723082,0.120265394,-0.030588448,0.43,0.89,0.38,19892,10185.80,84,96,3,0.56,3.85,-5.46,0.43,0.89,0.38
32.739258,0.013723081,0.109265395,-0.062588446,0.4,0.9,0.4,19907,10188.50,84,96,3,0.70,3.08,-7.70,0.40,0.90,0.40
31.739258,0.020723082,0.11926539,-0.12558845,0.39,0.9,0.42,19929,10187.50,84,96,3,1.19,3.78,-12.11,0.39,0.90,0.42
31.739258,0.026723081,0.1292654,-0.16858846,0.39,0.88,0.44,19952,10187.50,84,96,3,1.61,4.48,-15.12,0.39,0.88,0.44
31.739258,0.014723081,0.1152654,-0.16158846,0.39,0.86,0.43,19978,10187.50,84,96,3,0.77,3.50,-14.63,0.39,0.86,0.43
33.739258,0.04572308,0.0932654,-0.121588446,0.34,0.89,0.41,19996,10189.50,84,96,3,2.94,1.96,-11.83,0.34,0.89,0.41
31.739258,0.14472309,0.13226539,-0.088588454,0.32,0.89,0.44,20019,10187.50,84,96,3,9.87,4.69,-9.52,0.32,0.89,0.44
31.039062,0.20072308,0.20026538,-0.05358845,0.33,0.86,0.47,20050,10186.80,84,96,3,13.79,9.45,-7.07,0.33,0.86,0.47
33.039062,0.1867231,0.23726541,-0.015588447,0.35,0.81,0.47,20058,10188.80,84,96,3,12.81,12.04,-4.41,0.35,0.81,0.47
31.739258,0.1557231,0.2282654,0.020411553,0.31,0.86,0.43,20088,10187.50,84,96,3,10.64,11.41,-1.89,0.31,0.86,0.43
31.739258,0.21572308,0.2652654,0.023411555,0.3,0.85,0.43,20102,10187.50,84,96,3,14.84,14.00,-1.68,0.30,0.85,0.43
33.039062,0.25472307,0.3252654,0.033411555,0.32,0.81,0.45,20131,10188.80,84,96,3,17.57,18.20,-0.98,0.32,0.81,0.45
33.739258,0.21972309,0.3372654,0.040411554,0.34,0.77,0.45,20139,10189.50,84,96,3,15.12,19.04,-0.49,0.34,0.77,0.45
33.039062,0.16272308,0.3322654,0.08041155,0.34,0.77,0.42,20162,10188.80,84,96,3,11.13,18.69,2.31,0.34,0.77,0.42
33.039062,0.05672308,0.28826538,0.10741155,0.29,0.84,0.37,20178,10188.80,84,96,3,3.71,15.61,4.20,0.29,0.84,0.37
32.039062,0.084723085,0.2862654,0.13441156,0.28,0.89,0.35,20199,10187.80,84,96,3,5.67,15.47,6.09,0.28,0.89,0.35
32.039062,0.091723084,0.2722654,0.16641155,0.27,0.89,0.34,20222,10187.80,84,96,3,6.16,14.49,8.33,0.27,0.89,0.34
34.039062,0.041723084,0.2262654,0.19141155,0.24,0.88,0.32,20244,10189.80,84,96,3,2.66,11.27,10.08,0.24,0.88,0.32
35.13965,-0.02727692,0.1542654,0.13641155,0.19,0.89,0.33,20267,10190.90,84,96,3,-2.17,6.23,6.23,0.19,0.89,0.33
34.039062,-0.008276918,0.12626539,0.10841155,0.2,0.86,0.35,20289,10189.80,84,96,3,-0.84,4.27,4.27,0.20,0.86,0.35
33.439453,-0.009276919,0.116265394,0.099411555,0.2,0.81,0.37,20312,10189.20,84,96,3,-0.91,3.57,3.64,0.20,0.81,0.37
34.039062,-0.011276918,0.1272654,0.13341156,0.19,0.81,0.37,20335,10189.80,84,96,3,-1.05,4.34,6.02,0.19,0.81,0.37
35.13965,-0.0062769186,0.1332654,0.20541155,0.19,0.88,0.36,20349,10190.90,84,96,3,-0.70,4.76,11.06,0.19,0.88,0.36
33.039062,-0.011276918,0.14826539,0.28241158,0.21,0.9,0.37,20372,10188.80,84,96,3,-1.05,5.81,16.45,0.21,0.90,0.37
33.039062,-0.026276918,0.1752654,0.35941157,0.23,0.85,0.39,20387,10188.80,84,96,3,-2.10,7.70,21.84,0.23,0.85,0.39
34.039062,-0.070276916,0.1982654,0.42541155,0.22,0.82,0.42,20410,10189.80,84,96,3,-5.18,9.31,26.46,0.22,0.82,0.42
34.039062,-0.14827693,0.21126539,0.46341157,0.21,0.8,0.45,20425,10189.80,84,96,3,-10.64,10.22,29.12,0.21,0.80,0.45
33.039062,-0.2862769,0.2082654,0.5144115,0.22,0.79,0.48,20440,10188.80,84,96,3,-20.30,10.01,32.69,0.22,0.79,0.48
32.039062,-0.45827693,0.19026539,0.57241154,0.24,0.75,0.49,20462,10187.80,84,96,3,-32.34,8.75,36.75,0.24,0.75,0.49
30.039062,-0.6832769,0.1492654,0.6714116,0.26,0.75,0.48,20484,10185.80,84,96,3,-48.09,5.88,43.68,0.26,0.75,0.48
33.039062,-0.8472769,0.11926539,0.8174116,0.27,0.71,0.48,20507,10188.80,84,96,3,-59.57,3.78,53.90,0.27,0.71,0.48
33.439453,-1.0002769,0.09726539,1.0194116,0.32,0.62,0.54,20529,10189.20,84,96,3,-70.28,2.24,68.04,0.32,0.62,0.54
33.039062,-1.1532769,0.033265393,1.1764115,0.36,0.74,0.52,20552,10188.80,84,96,3,-80.99,-2.24,79.03,0.36,0.74,0.52
34.039062,-1.080277,-0.051734596,1.2114116,0.34,0.87,0.48,20575,10189.80,84,96,3,-75.88,-8.19,81.48,0.34,0.87,0.48
33.039062,-0.8732769,-0.086734615,1.1394116,0.33,0.87,0.51,20597,10188.80,84,96,3,-61.39,-10.64,76.44,0.33,0.87,0.51
33.039062,-0.6752769,-0.10573461,0.97741157,0.33,0.93,0.55,20612,10188.80,84,96,3,-47.53,-11.97,65.10,0.33,0.93,0.55
34.439453,-0.51427686,-0.10573461,0.77041155,0.36,0.98,0.59,20634,10190.20,84,96,3,-36.26,-11.97,50.61,0.36,0.98,0.59
33.039062,-0.35927692,-0.0857346,0.56341153,0.39,0.95,0.61,20649,10188.80,84,96,3,-25.41,-10.57,36.12,0.39,0.95,0.61
33.439453,-0.24527691,-0.05873461,0.38241157,0.41,0.89,0.63,20665,10189.20,84,96,3,-17.43,-8.68,23.45,0.41,0.89,0.63
33.039062,-0.15727693,-0.029734604,0.22341156,0.44,0.8,0.63,20687,10188.80,84,96,3,-11.27,-6.65,12.32,0.44,0.80,0.63
34.039062,-0.15027691,-0.034734607,0.13141155,0.46,0.72,0.63,20710,10189.80,84,96,3,-10.78,-7.00,5.88,0.46,0.72,0.63
33.039062,-0.19527692,-0.0787346,0.10841155,0.47,0.7,0.62,20732,10188.80,84,96,3,-13.93,-10.08,4.27,0.47,0.70,0.62
33.439453,-0.26327693,-0.1597346,0.07541156,0.48,0.7,0.59,20747,10189.20,84,96,3,-18.69,-15.75,1.96,0.48,0.70,0.59
33.439453,-0.30027694,-0.27873462,0.019411553,0.49,0.73,0.56,20777,10189.20,84,96,3,-21.28,-24.08,-1.96,0.49,0.73,0.56
33.439453,-0.29227692,-0.42773458,-0.07358845,0.51,0.75,0.53,20792,10189.20,84,96,3,-20.72,-34.51,-8.47,0.51,0.75,0.53
31.039062,-0.24827692,-0.5867346,-0.18858844,0.52,0.74,0.53,20814,10186.80,84,96,3,-17.64,-45.64,-16.52,0.52,0.74,0.53
33.439453,-0.23327692,-0.8077346,-0.31058842,0.55,0.73,0.52,20837,10189.20,84,96,3,-16.59,-61.11,-25.06,0.55,0.73,0.52
33.039062,-0.24327692,-1.0397346,-0.44658846,0.59,0.74,0.48,20859,10188.80,84,96,3,-17.29,-77.35,-34.58,0.59,0.74,0.48
33.439453,-0.25727692,-1.3587346,-0.62758845,0.66,0.73,0.46,20889,10189.20,84,96,3,-18.27,-99.68,-47.25,0.66,0.73,0.46
33.439453,-0.2842769,-1.6307346,-0.78958845,0.69,0.71,0.46,20897,10189.20,84,96,3,-20.16,-118.72,-58.59,0.69,0.71,0.46
28.739258,-0.3142769,-1.9027345,-0.89658844,0.7,0.7,0.44,20912,10184.50,84,96,3,-22.26,-137.76,-66.08,0.70,0.70,0.44
33.039062,-0.36627692,-2.2337344,-1.0935885,0.71,0.68,0.47,20934,10188.80,84,96,3,-25.90,-160.93,-79.87,0.71,0.68,0.47
32.739258,-0.4602769,-2.5437346,-1.2155885,0.72,0.7,0.52,20956,10188.50,84,96,3,-32.48,-182.63,-88.41,0.72,0.70,0.52
32.439453,-0.5942769,-2.7067344,-1.2385883,0.71,0.71,0.56,21002,10188.20,84,96,3,-41.86,-194.04,-90.02,0.71,0.71,0.56
25.338867,-0.6742769,-2.7317345,-1.1835884,0.67,0.68,0.55,21003,10181.10,84,96,3,-47.46,-195.79,-86.17,0.67,0.68,0.55
29.338867,-0.6892769,-2.6267347,-1.1015885,0.59,0.65,0.52,21024,10185.10,84,96,3,-48.51,-188.44,-80.43,0.59,0.65,0.52
29.338867,-0.6302769,-2.4237344,-1.0235884,0.52,0.68,0.49,21046,10185.10,84,96,3,-44.38,-174.23,-74.97,0.52,0.68,0.49
29.338867,-0.5652769,-2.1387346,-0.9495885,0.48,0.7,0.47,21062,10185.10,84,96,3,-39.83,-154.28,-69.79,0.48,0.70,0.47
29.338867,-0.5272769,-1.8577346,-0.86358845,0.45,0.72,0.46,21084,10185.10,84,96,3,-37.17,-134.61,-63.77,0.45,0.72,0.46
29.739258,-0.49627692,-1.5647346,-0.79758847,0.41,0.73,0.42,21107,10185.50,84,96,3,-35.00,-114.10,-59.15,0.41,0.73,0.42
28.338867,-0.4622769,-1.2807347,-0.73758847,0.42,0.76,0.38,21152,10184.10,84,96,3,-32.62,-94.22,-54.95,0.42,0.76,0.38
23.239258,-0.41827694,-1.0737346,-0.67958844,0.43,0.77,0.36,21153,10179.00,84,96,3,-29.54,-79.73,-50.89,0.43,0.77,0.36
24.338867,-0.3832769,-0.8887346,-0.59958845,0.45,0.78,0.33,21167,10180.10,84,96,3,-27.09,-66.78,-45.29,0.45,0.78,0.33
22.239258,-0.3652769,-0.73673457,-0.5185884,0.48,0.79,0.31,21175,10178.00,84,96,3,-25.83,-56.14,-39.62,0.48,0.79,0.31
21.639648,-0.36227694,-0.5867346,-0.40958843,0.49,0.8,0.29,21197,10177.40,84,96,3,-25.62,-45.64,-31.99,0.49,0.80,0.29
22.639648,-0.3542769,-0.48373464,-0.33858845,0.5,0.82,0.25,21235,10178.40,84,96,3,-25.06,-38.43,-27.02,0.50,0.82,0.25
19.539062,-0.3302769,-0.4107346,-0.28158844,0.53,0.82,0.24,21249,10175.30,84,96,3,-23.38,-33.32,-23.03,0.53,0.82,0.24
18.838867,-0.3102769,-0.3657346,-0.23858845,0.53,0.82,0.24,21257,10174.60,84,96,3,-21.98,-30.17,-20.02,0.53,0.82,0.24
18.539062,-0.2842769,-0.31973463,-0.19458845,0.52,0.81,0.26,21279,10174.30,84,96,3,-20.16,-26.95,-16.94,0.52,0.81,0.26
18.539062,-0.26827693,-0.2597346,-0.12958845,0.48,0.8,0.29,21302,10174.30,84,96,3,-19.04,-22.75,-12.39,0.48,0.80,0.29
16.539062,-0.25727692,-0.18173462,-0.08058845,0.37,1.0,0.33,21324,10172.30,84,96,3,-18.27,-17.29,-8.96,0.37,1.00,0.33
9.739258,-0.2882769,-0.19073462,-0.21458843,0.32,1.12,0.27,21371,10165.50,84,96,3,-20.44,-17.92,-18.34,0.32,1.12,0.27
11.838867,-0.23627691,-0.22073463,-0.36258844,0.42,0.93,0.24,21373,10167.60,84,96,3,-16.80,-20.02,-28.70,0.42,0.93,0.24
13.838867,-0.16827692,-0.23473462,-0.33058843,0.48,0.8,0.28,21385,10169.60,84,96,3,-12.04,-21.00,-26.46,0.48,0.80,0.28
15.5390625,-0.14027691,-0.23573461,-0.24858844,0.53,0.76,0.33,21414,10171.30,84,96,3,-10.08,-21.07,-20.72,0.53,0.76,0.33
16.539062,-0.12527691,-0.2037346,-0.11458845,0.52,0.77,0.32,21422,10172.30,84,96,3,-9.03,-18.83,-11.34,0.52,0.77,0.32
18.239258,-0.025276918,-0.1007346,0.017411554,0.48,0.8,0.26,21444,10174.00,84,96,3,-2.03,-11.62,-2.10,0.48,0.80,0.26
19.239258,0.12872308,0.019265395,0.058411554,0.46,0.75,0.23,21467,10175.00,84,96,3,8.75,-3.22,0.77,0.46,0.75,0.23
20.539062,0.20672308,0.084265396,0.047411554,0.47,0.68,0.22,21497,10176.30,84,96,3,14.21,1.33,0.00,0.47,0.68,0.22
21.639648,0.18572308,0.1442654,0.014411554,0.47,0.69,0.2,21512,10177.40,84,96,3,12.74,5.53,-2.31,0.47,0.69,0.20
23.639648,0.084723085,0.124265395,-0.012588445,0.47,0.82,0.19,21528,10179.40,84,96,3,5.67,4.13,-4.20,0.47,0.82,0.19
22.639648,0.04772308,0.113265395,0.015411552,0.51,0.89,0.18,21564,10178.40,84,96,3,3.08,3.36,-2.24,0.51,0.89,0.18
23.639648,0.03372308,0.09726539,0.08741155,0.53,0.9,0.16,21565,10179.40,84,96,3,2.10,2.24,2.80,0.53,0.90,0.16
23.639648,0.062723085,0.0992654,0.15341155,0.51,0.9,0.16,21602,10179.40,84,96,3,4.13,2.38,7.42,0.51,0.90,0.16
25.939453,0.08972308,0.11226539,0.16341156,0.47,0.88,0.17,21609,10181.70,84,96,3,6.02,3.29,8.12,0.47,0.88,0.17
25.639648,0.08872308,0.11126539,0.11641155,0.44,0.9,0.16,21632,10181.40,84,96,3,5.95,3.22,4.83,0.44,0.90,0.16
27.039062,0.046723083,0.098265395,0.020411553,0.43,0.86,0.2,21662,10182.80,84,96,3,3.01,2.31,-1.89,0.43,0.86,0.20
28.639648,0.022723082,0.1152654,-0.03858845,0.4,0.87,0.23,21663,10184.40,84,96,3,1.33,3.50,-6.02,0.40,0.87,0.23
30.039062,0.008723081,0.1402654,-0.058588445,0.4,0.94,0.27,21677,10185.80,84,96,3,0.35,5.25,-7.42,0.40,0.94,0.27
24.639648,-0.043276917,0.14726539,-0.054588445,0.45,1.12,0.3,21714,10180.40,84,96,3,-3.29,5.74,-7.14,0.45,1.12,0.30
30.338867,-0.056276917,0.18426539,0.066411555,0.53,0.97,0.29,21721,10186.10,84,96,3,-4.20,8.33,1.33,0.53,0.97,0.29
31.739258,-0.05127692,0.20226541,0.14841156,0.52,0.87,0.33,21745,10187.50,84,96,3,-3.85,9.59,7.07,0.52,0.87,0.33
33.739258,-0.10127692,0.1742654,0.14341155,0.52,0.89,0.34,21767,10189.50,84,96,3,-7.35,7.63,6.72,0.52,0.89,0.34
33.739258,-0.096276924,0.1632654,0.12941155,0.51,0.9,0.35,21781,10189.50,84,96,3,-7.00,6.86,5.74,0.51,0.90,0.35
35.13965,-0.02427692,0.20426539,0.106411554,0.46,0.86,0.36,21804,10190.90,84,96,3,-1.96,9.73,4.13,0.46,0.86,0.36
35.13965,0.04572308,0.2522654,0.012411553,0.41,0.83,0.36,21828,10190.90,84,96,3,2.94,13.09,-2.45,0.41,0.83,0.36
35.739258,0.10072309,0.31626537,-0.08358844,0.4,0.8,0.35,21849,10191.50,84,96,3,6.79,17.57,-9.17,0.40,0.80,0.35
36.739258,0.13672309,0.3512654,-0.12858844,0.4,0.74,0.35,21871,10192.50,84,96,3,9.31,20.02,-12.32,0.40,0.74,0.35
37.439453,0.14372309,0.35726538,-0.12758845,0.42,0.73,0.34,21886,10193.20,84,96,3,9.80,20.44,-12.25,0.42,0.73,0.34
39.13965,0.15172309,0.34826538,-0.089588456,0.44,0.72,0.33,21901,10194.90,84,96,3,10.36,19.81,-9.59,0.44,0.72,0.33
37.13965,0.14972308,0.32026538,-0.032588445,0.45,0.72,0.35,21917,10192.90,84,96,3,10.22,17.85,-5.60,0.45,0.72,0.35
38.838867,0.11072308,0.2662654,0.06441155,0.47,0.75,0.37,21939,10194.60,84,96,3,7.49,14.07,1.19,0.47,0.75,0.37
39.13965,0.05872308,0.22326541,0.16141155,0.49,0.81,0.39,21961,10194.90,84,96,3,3.85,11.06,7.98,0.49,0.81,0.39
39.13965,0.042723082,0.22026539,0.24341157,0.49,0.84,0.38,21985,10194.90,84,96,3,2.73,10.85,13.72,0.49,0.84,0.38
38.439453,0.069723085,0.2422654,0.27441156,0.47,0.86,0.37,22006,10194.20,84,96,3,4.62,12.39,15.89,0.47,0.86,0.37
42.13965,0.10772309,0.2542654,0.22741157,0.43,0.87,0.35,22044,10197.90,84,96,3,7.28,13.23,12.60,0.43,0.87,0.35
36.13965,0.14172308,0.2472654,0.11941155,0.43,0.86,0.35,22059,10191.90,84,96,3,9.66,12.74,5.04,0.43,0.86,0.35
39.439453,0.16972308,0.23226538,0.054411553,0.43,0.85,0.36,22074,10195.20,84,96,3,11.62,11.69,0.49,0.43,0.85,0.36
39.13965,0.17372309,0.2052654,0.03141155,0.43,0.83,0.37,22096,10194.90,84,96,3,11.90,9.80,-1.12,0.43,0.83,0.37
40.13965,0.17172308,0.19526541,0.049411554,0.41,0.82,0.38,22111,10195.90,84,96,3,11.76,9.10,0.14,0.41,0.82,0.38
39.439453,0.18172309,0.2312654,0.08741155,0.36,0.85,0.4,22134,10195.20,84,96,3,12.46,11.62,2.80,0.36,0.85,0.40
39.439453,0.20972309,0.3442654,0.095411554,0.31,0.85,0.46,22149,10195.20,84,96,3,14.42,19.53,3.36,0.31,0.85,0.46
36.13965,0.23972309,0.54926544,0.10141155,0.27,0.84,0.52,22164,10191.90,84,96,3,16.52,33.88,3.78,0.27,0.84,0.52
39.13965,0.26872307,0.92926544,0.13441156,0.22,0.84,0.56,22187,10194.90,84,96,3,18.55,60.48,6.09,0.22,0.84,0.56
42.13965,0.36172307,1.4642655,0.21241155,0.19,0.87,0.56,22210,10197.90,84,96,3,25.06,97.93,11.55,0.19,0.87,0.56
39.13965,0.5307231,1.9472655,0.31041157,0.2,0.83,0.57,22232,10194.90,84,96,3,36.89,131.74,18.41,0.20,0.83,0.57
39.439453,0.6247231,2.3482654,0.4134116,0.25,0.78,0.6,22254,10195.20,84,96,3,43.47,159.81,25.62,0.25,0.78,0.60
40.13965,0.6547231,2.6242654,0.47741157,0.31,0.81,0.56,22269,10195.90,84,96,3,45.57,179.13,30.10,0.31,0.81,0.56
38.439453,0.6517231,2.7072654,0.43441156,0.4,0.83,0.51,22292,10194.20,84,96,3,45.36,184.94,27.09,0.40,0.83,0.51
37.439453,0.6427231,2.6762655,0.43241158,0.44,0.79,0.49,22314,10193.20,84,96,3,44.73,182.77,26.95,0.44,0.79,0.49
38.439453,0.61072314,2.6252654,0.49641156,0.45,0.77,0.47,22336,10194.20,84,96,3,42.49,179.20,31.43,0.45,0.77,0.47
39.13965,0.58072305,2.4522653,0.5364115,0.49,0.81,0.41,22360,10194.90,84,96,3,40.39,167.09,34.23,0.49,0.81,0.41
40.539062,0.5387231,2.1552656,0.5134115,0.49,0.83,0.39,22383,10196.30,84,96,3,37.45,146.30,32.62,0.49,0.83,0.39
38.439453,0.5047231,1.8902655,0.48941156,0.46,0.82,0.4,22420,10194.20,84,96,3,35.07,127.75,30.94,0.46,0.82,0.40
38.13965,0.4627231,1.7212654,0.48441157,0.43,0.81,0.41,22420,10193.90,84,96,3,32.13,115.92,30.59,0.43,0.81,0.41
38.439453,0.42072308,1.4942654,0.46641156,0.41,0.86,0.38,22427,10194.20,84,96,3,29.19,100.03,29.33,0.41,0.86,0.38
39.439453,0.38172308,1.2502654,0.41141155,0.38,1.0,0.41,22457,10195.20,84,96,3,26.46,82.95,25.48,0.38,1.00,0.41
34.439453,0.28672308,0.9632654,0.34241155,0.38,1.04,0.42,22471,10190.20,84,96,3,19.81,62.86,20.65,0.38,1.04,0.42
34.439453,0.22672307,0.7912654,0.34241155,0.39,0.89,0.38,22501,10190.20,84,96,3,15.61,50.82,20.65,0.39,0.89,0.38
33.039062,0.21672308,0.6662654,0.35441157,0.38,0.89,0.36,22517,10188.80,84,96,3,14.91,42.07,21.49,0.38,0.89,0.36
33.439453,0.17572309,0.5312654,0.35341156,0.39,0.98,0.38,22540,10189.20,84,96,3,12.04,32.62,21.42,0.39,0.98,0.38
33.439453,0.086723074,0.38326538,0.35441157,0.43,0.93,0.41,22555,10189.20,84,96,3,5.81,22.26,21.49,0.43,0.93,0.41
34.439453,0.010723081,0.2542654,0.36241156,0.41,0.92,0.4,22584,10190.20,84,96,3,0.49,13.23,22.05,0.41,0.92,0.40
31.338867,-0.010276919,0.1792654,0.30941156,0.38,0.91,0.36,22607,10187.10,84,96,3,-0.98,7.98,18.34,0.38,0.91,0.36
36.439453,0.042723082,0.13926539,0.22441155,0.37,0.85,0.32,22622,10192.20,84,96,3,2.73,5.18,12.39,0.37,0.85,0.32
36.13965,0.09972307,0.11826539,0.16241156,0.36,0.82,0.3,22645,10191.90,84,96,3,6.72,3.71,8.05,0.36,0.82,0.30
36.439453,0.1407231,0.09726539,0.10141155,0.37,0.76,0.31,22659,10192.20,84,96,3,9.59,2.24,3.78,0.37,0.76,0.31
35.739258,0.15972309,0.07526539,0.05741155,0.36,0.72,0.33,22674,10191.50,84,96,3,10.92,0.70,0.70,0.36,0.72,0.33
34.439453,0.13672309,0.040265396,0.012411553,0.35,0.74,0.35,22689,10190.20,84,96,3,9.31,-1.75,-2.45,0.35,0.74,0.35
35.439453,0.09772308,0.012265395,-0.0035884455,0.35,0.76,0.35,22711,10191.20,84,96,3,6.58,-3.71,-3.57,0.35,0.76,0.35
34.439453,0.069723085,-0.002734609,0.032411553,0.37,0.83,0.36,22734,10190.20,84,96,3,4.62,-4.76,-1.05,0.37,0.83,0.36
35.739258,0.03472308,-7.346049E-4,0.073411554,0.4,0.85,0.4,22757,10191.50,84,96,3,2.17,-4.62,1.82,0.40,0.85,0.40
35.439453,-0.05027692,0.011265393,0.12041155,0.43,0.81,0.46,22779,10191.20,84,96,3,-3.78,-3.78,5.11,0.43,0.81,0.46
35.739258,-0.18927692,0.008265395,0.17341155,0.45,0.78,0.48,22802,10191.50,84,96,3,-13.51,-3.99,8.82,0.45,0.78,0.48
35.739258,-0.26227692,-0.0047346056,0.18641156,0.44,0.85,0.45,22825,10191.50,84,96,3,-18.62,-4.90,9.73,0.44,0.85,0.45
37.13965,-0.22727692,-0.0047346056,0.14641155,0.41,0.91,0.43,22846,10192.90,84,96,3,-16.17,-4.90,6.93,0.41,0.91,0.43
35.439453,-0.13327692,0.033265393,0.06541155,0.36,0.93,0.43,22861,10191.20,84,96,3,-9.59,-2.24,1.26,0.36,0.93,0.43
35.439453,-0.07227692,0.060265396,-0.005588446,0.33,0.92,0.41,22884,10191.20,84,96,3,-5.32,-0.35,-3.71,0.33,0.92,0.41
35.039062,-0.032276917,0.069265395,-0.07358845,0.3,0.91,0.39,22907,10190.80,84,96,3,-2.52,0.28,-8.47,0.30,0.91,0.39
33.439453,-0.0052769184,0.0702654,-0.10958844,0.27,0.89,0.36,22915,10189.20,84,96,3,-0.63,0.35,-10.99,0.27,0.89,0.36
32.739258,0.019723082,0.0662654,-0.11858844,0.25,0.87,0.34,22928,10188.50,84,96,3,1.12,0.07,-11.62,0.25,0.87,0.34
24.639648,0.04472308,0.072265394,-0.08658845,0.22,0.88,0.32,22951,10180.40,84,96,3,2.87,0.49,-9.38,0.22,0.88,0.32
29.338867,0.05672308,0.07526539,-0.05958844,0.2,0.88,0.31,22982,10185.10,84,96,3,3.71,0.70,-7.49,0.20,0.88,0.31
29.338867,0.03472308,0.07526539,-0.040588446,0.21,0.85,0.3,22997,10185.10,84,96,3,2.17,0.70,-6.16,0.21,0.85,0.30
27.639648,0.0067230808,0.0812654,-0.011588447,0.22,0.84,0.29,23012,10183.40,84,96,3,0.21,1.12,-4.13,0.22,0.84,0.29
27.639648,-0.011276918,0.0962654,-0.005588446,0.19,0.89,0.28,23045,10183.40,84,96,3,-1.05,2.17,-3.71,0.19,0.89,0.28
25.939453,-0.0052769184,0.1662654,0.0014115535,0.22,0.89,0.29,23060,10181.70,84,96,3,-0.63,7.07,-3.22,0.22,0.89,0.29
27.639648,-0.014276918,0.24826542,0.035411555,0.26,0.88,0.28,23079,10183.40,84,96,3,-1.26,12.81,-0.84,0.26,0.88,0.28
25.639648,-0.014276918,0.29026538,0.10141155,0.31,0.84,0.27,23102,10181.40,84,96,3,-1.26,15.75,3.78,0.31,0.84,0.27
28.639648,-0.016276918,0.3132654,0.19141155,0.33,0.84,0.31,23125,10184.40,84,96,3,-1.40,17.36,10.08,0.33,0.84,0.31
29.639648,-0.016276918,0.3252654,0.25241154,0.33,0.87,0.32,23147,10185.40,84,96,3,-1.40,18.20,14.35,0.33,0.87,0.32
31.739258,0.002723081,0.3332654,0.30541155,0.32,0.94,0.33,23162,10187.50,84,96,3,-0.07,18.76,18.06,0.32,0.94,0.33
29.639648,0.03372308,0.3252654,0.31941158,0.3,1.04,0.35,23169,10185.40,84,96,3,2.10,18.20,19.04,0.30,1.04,0.35
29.039062,0.08972308,0.31626537,0.27141157,0.26,1.13,0.37,23192,10184.80,84,96,3,6.02,17.57,15.68,0.26,1.13,0.37
25.639648,0.16372308,0.34826538,0.21841156,0.27,0.94,0.41,23215,10181.40,84,96,3,11.20,19.81,11.97,0.27,0.94,0.41
24.639648,0.18272308,0.35726538,0.15941155,0.28,0.83,0.46,23237,10180.40,84,96,3,12.53,20.44,7.84,0.28,0.83,0.46
23.639648,0.15872309,0.3332654,0.09841155,0.29,0.8,0.62,23259,10179.40,84,96,3,10.85,18.76,3.57,0.29,0.80,0.62
22.239258,0.08772308,0.2872654,0.060411554,0.28,0.85,0.53,23282,10178.00,84,96,3,5.88,15.54,0.91,0.28,0.85,0.53
22.639648,0.04472308,0.29426542,0.06541155,0.32,0.79,0.54,23319,10178.40,84,96,3,2.87,16.03,1.26,0.32,0.79,0.54
24.939453,0.017723082,0.3082654,0.092411555,0.34,0.77,0.55,23334,10180.70,84,96,3,0.98,17.01,3.15,0.34,0.77,0.55
23.239258,0.0017230811,0.31626537,0.10841155,0.34,0.77,0.52,23349,10179.00,84,96,3,-0.14,17.57,4.27,0.34,0.77,0.52
24.639648,0.026723081,0.31626537,0.106411554,0.36,0.78,0.52,23372,10180.40,84,96,3,1.61,17.57,4.13,0.36,0.78,0.52
24.939453,0.048723083,0.3032654,0.117411554,0.39,0.79,0.51,23402,10180.70,84,96,3,3.15,16.66,4.90,0.39,0.79,0.51
23.939453,0.057723083,0.2812654,0.13041155,0.4,0.79,0.51,23403,10179.70,84,96,3,3.78,15.12,5.81,0.40,0.79,0.51
23.639648,0.05072308,0.24826542,0.117411554,0.38,0.8,0.51,23424,10179.40,84,96,3,3.29,12.81,4.90,0.38,0.80,0.51
28.039062,0.037723083,0.21126539,0.11541156,0.37,0.81,0.51,23439,10183.80,84,96,3,2.38,10.22,4.76,0.37,0.81,0.51
25.639648,0.029723082,0.1782654,0.09041156,0.35,0.84,0.51,23461,10181.40,84,96,3,1.82,7.91,3.01,0.35,0.84,0.51
25.639648,0.019723082,0.1352654,0.060411554,0.35,0.84,0.5,23484,10181.40,84,96,3,1.12,4.90,0.91,0.35,0.84,0.50
26.639648,7.230814E-4,0.105265394,0.06441155,0.33,0.81,0.51,23514,10182.40,84,96,3,-0.21,2.80,1.19,0.33,0.81,0.51
26.939453,-0.010276919,0.09026539,0.07841156,0.31,0.83,0.38,23544,10182.70,84,96,3,-0.98,1.75,2.17,0.31,0.83,0.38
27.639648,0.0037230812,0.083265394,0.055411555,0.3,0.84,0.5,23559,10183.40,0,96,3,0.00,1.26,0.56,0.30,0.84,0.50
29.039062,0.019723082,0.0782654,0.046411555,0.3,0.83,0.5,23574,10184.80,0,96,3,1.12,0.91,-0.07,0.30,0.83,0.50
30.039062,0.02772308,0.08926539,0.07141155,0.29,0.83,0.51,23604,10185.80,0,96,3,1.68,1.68,1.68,0.29,0.83,0.51
31.739258,0.03472308,0.12326539,0.10541155,0.26,0.84,0.51,23619,10187.50,0,96,3,2.17,4.06,4.06,0.26,0.84,0.51
33.039062,0.02772308,0.1632654,0.121411555,0.27,0.85,0.5,23635,10188.80,0,96,3,1.68,6.86,5.18,0.27,0.85,0.50
33.039062,0.02772308,0.1522654,0.12541156,0.3,0.86,0.49,23664,10188.80,0,96,3,1.68,6.09,5.46,0.30,0.86,0.49
36.439453,0.010723081,0.14126539,0.13141155,0.32,0.86,0.47,23665,10192.20,0,96,3,0.49,5.32,5.88,0.32,0.86,0.47
34.039062,0.014723081,0.11126539,0.16341156,0.31,0.85,0.45,23694,10189.80,0,96,3,0.77,3.22,8.12,0.31,0.85,0.45
32.039062,0.020723082,0.0812654,0.18441156,0.29,0.86,0.45,23724,10187.80,0,96,3,1.19,1.12,9.59,0.29,0.86,0.45
35.039062,0.010723081,0.062265396,0.15641156,0.29,0.87,0.44,23739,10190.80,0,96,3,0.49,-0.21,7.63,0.29,0.87,0.44
35.039062,0.008723081,0.045265395,0.12841156,0.29,0.87,0.44,23761,10190.80,0,96,3,0.35,-1.40,5.67,0.29,0.87,0.44
35.039062,0.0077230814,0.03426539,0.12841156,0.28,0.87,0.44,23777,10190.80,0,96,3,0.28,-2.17,5.67,0.28,0.87,0.44
35.039062,0.0067230808,0.045265395,0.12641156,0.28,0.87,0.44,23799,10190.80,0,96,3,0.21,-1.40,5.53,0.28,0.87,0.44
35.039062,-0.011276918,0.047265396,0.14341155,0.28,0.86,0.45,23822,10190.80,0,96,3,-1.05,-1.26,6.72,0.28,0.86,0.45
35.039062,-0.03027692,0.062265396,0.16141155,0.28,0.87,0.44,23851,10190.80,0,96,3,-2.38,-0.21,7.98,0.28,0.87,0.44
34.039062,-0.026276918,0.072265394,0.17141156,0.29,0.86,0.44,23859,10189.80,0,96,3,-2.10,0.49,8.68,0.29,0.86,0.44
34.039062,-0.03927692,0.059265394,0.18441156,0.31,0.84,0.43,23882,10189.80,0,96,3,-3.01,-0.42,9.59,0.31,0.84,0.43
37.13965,-0.05327692,0.032265395,0.17841154,0.32,0.85,0.43,23912,10192.90,0,96,3,-3.99,-2.31,9.17,0.32,0.85,0.43
35.439453,-0.056276917,-0.008734606,0.19041157,0.33,0.86,0.43,23913,10191.20,0,96,3,-4.20,-5.18,10.01,0.33,0.86,0.43
35.039062,-0.054276917,-0.029734604,0.19341156,0.33,0.88,0.45,23935,10190.80,0,96,3,-4.06,-6.65,10.22,0.33,0.88,0.45
35.439453,-0.06627692,-0.049734607,0.19741157,0.34,0.89,0.46,23948,10191.20,0,96,3,-4.90,-8.05,10.50,0.34,0.89,0.46
34.439453,-0.061276924,-0.086734615,0.15641156,0.34,0.9,0.47,23971,10190.20,0,96,3,-4.55,-10.64,7.63,0.34,0.90,0.47
40.13965,-0.06027692,-0.13373461,0.10241155,0.34,0.88,0.49,23994,10195.90,0,96,3,-4.48,-13.93,3.85,0.34,0.88,0.49
34.439453,-0.06227692,-0.1597346,0.08641155,0.32,0.86,0.49,24025,10190.20,0,96,3,-4.62,-15.75,2.73,0.32,0.86,0.49
34.039062,-0.04827692,-0.1467346,0.08341155,0.3,0.85,0.5,24039,10189.80,0,96,3,-3.64,-14.84,2.52,0.30,0.85,0.50
35.039062,-0.03127692,-0.14473459,0.06441155,0.31,0.86,0.49,24054,10190.80,0,96,3,-2.45,-14.70,1.19,0.31,0.86,0.49
33.439453,7.230814E-4,-0.1507346,0.048411552,0.32,0.86,0.48,24084,10189.20,0,96,3,-0.21,-15.12,0.07,0.32,0.86,0.48
34.439453,0.016723081,-0.1677346,0.029411554,0.3,0.88,0.49,24114,10190.20,0,96,3,0.91,-16.31,-1.26,0.30,0.88,0.49
34.439453,0.014723081,-0.1717346,0.006411556,0.29,0.89,0.49,24145,10190.20,0,96,3,0.77,-16.59,-2.87,0.29,0.89,0.49
33.039062,0.0047230814,-0.16873458,0.008411553,0.29,0.92,0.49,24146,10188.80,0,96,3,0.07,-16.38,-2.73,0.29,0.92,0.49
34.439453,-0.003276919,-0.1717346,0.0034115538,0.25,1.01,0.47,24159,10190.20,0,96,3,-0.49,-16.59,-3.08,0.25,1.01,0.47
33.039062,0.0067230808,-0.15873462,-0.032588445,0.24,1.0,0.44,24166,10188.80,0,96,3,0.21,-15.68,-5.60,0.24,1.00,0.44
32.338867,0.052723084,-0.1017346,-0.030588448,0.28,0.83,0.42,24190,10188.10,0,96,3,3.43,-11.69,-5.46,0.28,0.83,0.42
34.439453,0.069723085,-0.066734605,0.014411554,0.29,0.77,0.41,24211,10190.20,0,96,3,4.62,-9.24,-2.31,0.29,0.77,0.41
33.439453,0.02372308,-0.059734605,0.063411556,0.31,0.78,0.4,24234,10189.20,0,96,3,1.40,-8.75,1.12,0.31,0.78,0.40
34.739258,-0.01327692,-0.042734608,0.12341156,0.35,0.76,0.38,24256,10190.50,0,96,3,-1.19,-7.56,5.32,0.35,0.76,0.38
36.439453,-0.02727692,-0.0417346,0.18341157,0.38,0.75,0.35,24279,10192.20,0,96,3,-2.17,-7.49,9.52,0.38,0.75,0.35
35.439453,-0.04227692,-0.069734596,0.18741155,0.4,0.78,0.34,24301,10191.20,0,96,3,-3.22,-9.45,9.80,0.40,0.78,0.34
35.739258,-0.06227692,-0.10473461,0.15741155,0.41,0.8,0.35,24324,10191.50,0,96,3,-4.62,-11.90,7.70,0.41,0.80,0.35
34.439453,-0.07927692,-0.103734605,0.12041155,0.42,0.78,0.37,24339,10190.20,0,96,3,-5.81,-11.83,5.11,0.42,0.78,0.37
35.039062,-0.10927692,-0.1017346,0.095411554,0.42,0.79,0.4,24361,10190.80,0,96,3,-7.91,-11.69,3.36,0.42,0.79,0.40
33.739258,-0.13227692,-0.081734605,0.096411556,0.43,0.8,0.42,24392,10189.50,84,96,3,-9.52,-10.29,3.43,0.43,0.80,0.42
33.739258,-0.14327691,-0.052734606,0.12541156,0.43,0.84,0.43,24414,10189.50,84,96,3,-10.29,-8.26,5.46,0.43,0.84,0.43
36.439453,-0.13027692,-0.02173461,0.15541156,0.43,0.89,0.43,24422,10192.20,84,96,3,-9.38,-6.09,7.56,0.43,0.89,0.43
34.439453,-0.11027692,0.012265395,0.16941155,0.42,0.9,0.43,24444,10190.20,84,96,3,-7.98,-3.71,8.54,0.42,0.90,0.43
34.739258,-0.104276925,0.024265397,0.14841156,0.44,0.87,0.44,24459,10190.50,84,96,3,-7.56,-2.87,7.07,0.44,0.87,0.44
33.439453,-0.12027693,0.027265392,0.14341155,0.45,0.85,0.45,24481,10189.20,84,96,3,-8.68,-2.66,6.72,0.45,0.85,0.45
34.739258,-0.13927692,0.029265396,0.13041155,0.43,0.85,0.44,24504,10190.50,84,96,3,-10.01,-2.52,5.81,0.43,0.85,0.44
35.039062,-0.13427691,0.053265397,0.08741155,0.42,0.84,0.44,24527,10190.80,84,96,3,-9.66,-0.84,2.80,0.42,0.84,0.44
34.039062,-0.12327692,0.061265394,0.07841156,0.41,0.82,0.45,24549,10189.80,84,96,3,-8.89,-0.28,2.17,0.41,0.82,0.45
35.439453,-0.11227691,0.08626539,0.056411553,0.41,0.83,0.44,24572,10191.20,84,96,3,-8.12,1.47,0.63,0.41,0.83,0.44
34.739258,-0.10727692,0.0922654,0.032411553,0.4,0.85,0.43,24587,10190.50,84,96,3,-7.77,1.89,-1.05,0.40,0.85,0.43
33.739258,-0.10727692,0.084265396,0.010411553,0.4,0.86,0.42,24617,10189.50,84,96,3,-7.77,1.33,-2.59,0.40,0.86,0.42
34.739258,-0.11727692,0.073265396,0.011411555,0.39,0.86,0.44,24632,10190.50,84,96,3,-8.47,0.56,-2.52,0.39,0.86,0.44
34.739258,-0.12727691,0.069265395,0.022411553,0.39,0.86,0.44,24654,10190.50,84,96,3,-9.17,0.28,-1.75,0.39,0.86,0.44
28.639648,-0.13727692,0.07126539,0.042411555,0.39,0.85,0.45,24668,10184.40,84,96,3,-9.87,0.42,-0.35,0.39,0.85,0.45
32.739258,-0.13927692,0.08226539,0.066411555,0.37,0.85,0.46,24698,10188.50,84,96,3,-10.01,1.19,1.33,0.37,0.85,0.46
33.739258,-0.12827691,0.0852654,0.07541156,0.37,0.85,0.45,24706,10189.50,84,96,3,-9.24,1.40,1.96,0.37,0.85,0.45
34.039062,-0.09027691,0.106265396,0.10741155,0.39,0.84,0.46,24729,10189.80,84,96,3,-6.58,2.87,4.20,0.39,0.84,0.46
36.739258,-0.06527692,0.12626539,0.15441155,0.41,0.82,0.48,24751,10192.50,84,96,3,-4.83,4.27,7.49,0.41,0.82,0.48
33.739258,-0.06327692,0.1512654,0.17141156,0.39,0.83,0.48,24774,10189.50,84,96,3,-4.69,6.02,8.68,0.39,0.83,0.48
34.739258,-0.043276917,0.18126538,0.14241156,0.36,0.87,0.48,24797,10190.50,84,96,3,-3.29,8.12,6.65,0.36,0.87,0.48
34.739258,0.0067230808,0.20226541,0.062411554,0.34,0.91,0.46,24848,10190.50,84,96,3,0.21,9.59,1.05,0.34,0.91,0.46
33.739258,0.05872308,0.22726539,0.005411554,0.35,0.85,0.45,24850,10189.50,84,96,3,3.85,11.34,-2.94,0.35,0.85,0.45
33.039062,0.072723076,0.2352654,0.023411555,0.37,0.68,0.47,24856,10188.80,84,96,3,4.83,11.90,-1.68,0.37,0.68,0.47
32.739258,-0.008276918,0.19326541,0.08241156,0.38,0.67,0.5,24895,10188.50,84,96,3,-0.84,8.96,2.45,0.38,0.67,0.50
31.039062,-0.08027692,0.1452654,0.121411555,0.39,0.69,0.52,24896,10186.80,84,96,3,-5.88,5.60,5.18,0.39,0.69,0.52
35.739258,-0.13327692,0.095265396,0.14941156,0.39,0.73,0.55,24917,10191.50,84,96,3,-9.59,2.10,7.14,0.39,0.73,0.55
37.439453,-0.16927691,0.057265393,0.13641155,0.39,0.78,0.56,24931,10193.20,84,96,3,-12.11,-0.56,6.23,0.39,0.78,0.56
37.739258,-0.16327691,0.026265394,0.106411554,0.38,0.82,0.57,24954,10193.50,84,96,3,-11.69,-2.73,4.13,0.38,0.82,0.57
35.039062,-0.05927692,0.03426539,0.055411555,0.36,0.85,0.57,24977,10190.80,84,96,3,-4.41,-2.17,0.56,0.36,0.85,0.57
33.739258,0.037723083,0.053265397,0.012411553,0.34,0.82,0.58,24999,10189.50,84,96,3,2.38,-0.84,-2.45,0.34,0.82,0.58
33.338867,0.08872308,0.055265397,-0.018588446,0.34,0.8,0.57,25021,10189.10,84,96,3,5.95,-0.70,-4.62,0.34,0.80,0.57
33.739258,0.106723085,0.042265393,-0.024588443,0.34,0.78,0.57,25044,10189.50,84,96,3,7.21,-1.61,-5.04,0.34,0.78,0.57
34.039062,0.094723076,0.030265395,0.018411554,0.33,0.78,0.57,25059,10189.80,84,96,3,6.37,-2.45,-2.03,0.33,0.78,0.57
33.739258,0.062723085,0.059265394,0.025411554,0.31,0.81,0.57,25082,10189.50,84,96,3,4.13,-0.42,-1.54,0.31,0.81,0.57
35.039062,0.053723082,0.0702654,0.055411555,0.3,0.83,0.57,25104,10190.80,84,96,3,3.50,0.35,0.56,0.30,0.83,0.57
34.739258,0.08572307,0.11226539,0.040411554,0.29,0.84,0.55,25134,10190.50,84,96,3,5.74,3.29,-0.49,0.29,0.84,0.55
34.039062,0.10472308,0.14626539,0.034411553,0.28,0.83,0.54,25142,10189.80,84,96,3,7.07,5.67,-0.91,0.28,0.83,0.54
34.039062,0.12572308,0.18226539,0.012411553,0.28,0.82,0.52,25156,10189.80,84,96,3,8.54,8.19,-2.45,0.28,0.82,0.52
33.739258,0.13672309,0.1962654,0.004411552,0.27,0.81,0.5,25171,10189.50,84,96,3,9.31,9.17,-3.01,0.27,0.81,0.50
34.039062,0.13972309,0.2032654,0.005411554,0.26,0.82,0.47,25195,10189.80,84,96,3,9.52,9.66,-2.94,0.26,0.82,0.47
35.439453,0.15272309,0.20226541,-0.006588448,0.24,0.83,0.45,25224,10191.20,84,96,3,10.43,9.59,-3.78,0.24,0.83,0.45
33.039062,0.1557231,0.19026539,-0.022588447,0.26,0.82,0.44,25239,10188.80,84,96,3,10.64,8.75,-4.90,0.26,0.82,0.44
34.039062,0.1557231,0.16926539,-0.019588448,0.28,0.8,0.45,25269,10189.80,84,96,3,10.64,7.28,-4.69,0.28,0.80,0.45
33.039062,0.12772308,0.13926539,0.020411553,0.3,0.79,0.44,25284,10188.80,84,96,3,8.68,5.18,-1.89,0.30,0.79,0.44
34.039062,0.08572307,0.1142654,0.08241156,0.31,0.77,0.45,25299,10189.80,84,96,3,5.74,3.43,2.45,0.31,0.77,0.45
32.739258,0.02172308,0.0812654,0.11341155,0.3,0.76,0.45,25321,10188.50,84,96,3,1.26,1.12,4.62,0.30,0.76,0.45
33.039062,-0.03927692,0.055265397,0.13441156,0.3,0.78,0.46,25344,10188.80,84,96,3,-3.01,-0.70,6.09,0.30,0.78,0.46
32.338867,-0.07827692,0.031265393,0.14641155,0.31,0.79,0.47,25366,10188.10,84,96,3,-5.74,-2.38,6.93,0.31,0.79,0.47
31.039062,-0.096276924,0.024265397,0.16241156,0.33,0.8,0.49,25389,10186.80,84,96,3,-7.00,-2.87,8.05,0.33,0.80,0.49
32.039062,-0.10827692,0.014265396,0.18541154,0.34,0.81,0.51,25404,10187.80,84,96,3,-7.84,-3.57,9.66,0.34,0.81,0.51
31.739258,-0.12327692,0.0072653964,0.20441154,0.34,0.83,0.51,25419,10187.50,84,96,3,-8.89,-4.06,10.99,0.34,0.83,0.51
32.039062,-0.12327692,0.004265394,0.22641155,0.34,0.86,0.52,25442,10187.80,84,96,3,-8.89,-4.27,12.53,0.34,0.86,0.52
32.338867,-0.097276926,0.0072653964,0.20341155,0.34,0.88,0.53,25464,10188.10,84,96,3,-7.07,-4.06,10.92,0.34,0.88,0.53
31.039062,-0.082276925,0.005265396,0.14541155,0.34,0.89,0.53,25486,10186.80,84,96,3,-6.02,-4.20,6.86,0.34,0.89,0.53
30.338867,-0.04827692,-0.011734605,0.070411555,0.34,0.88,0.51,25509,10186.10,84,96,3,-3.64,-5.39,1.61,0.34,0.88,0.51
30.039062,-0.0012769187,-0.0417346,-0.01658845,0.36,0.85,0.51,25531,10185.80,84,96,3,-0.35,-7.49,-4.48,0.36,0.85,0.51
30.338867,0.03672308,-0.0857346,-0.062588446,0.37,0.82,0.5,25554,10186.10,84,96,3,2.31,-10.57,-7.70,0.37,0.82,0.50
29.039062,0.03272308,-0.17473459,-0.08158844,0.3,1.04,0.51,25569,10184.80,84,96,3,2.03,-16.80,-9.03,0.30,1.04,0.51
26.939453,-0.0072769187,-0.22073463,-0.17958844,0.37,0.86,0.51,25592,10182.70,84,96,3,-0.77,-20.02,-15.89,0.37,0.86,0.51
27.338867,0.00972308,-0.22373462,-0.07158844,0.37,0.75,0.52,25614,10183.10,84,96,3,0.42,-20.23,-8.33,0.37,0.75,0.52
25.939453,0.02172308,-0.23573461,-0.035588443,0.32,0.85,0.5,25637,10181.70,84,96,3,1.26,-21.07,-5.81,0.32,0.85,0.50
25.338867,0.046723083,-0.20173463,0.004411552,0.33,0.85,0.48,25651,10181.10,84,96,3,3.01,-18.69,-3.01,0.33,0.85,0.48
26.338867,0.069723085,-0.17073461,0.027411554,0.35,0.81,0.47,25666,10182.10,84,96,3,4.62,-16.52,-1.40,0.35,0.81,0.47
25.939453,0.07072309,-0.1027346,0.09141155,0.4,0.75,0.45,25712,10181.70,84,96,3,4.69,-11.76,3.08,0.40,0.75,0.45
25.239258,0.041723084,-0.1007346,0.12541156,0.42,0.78,0.44,25713,10181.00,84,96,3,2.66,-11.62,5.46,0.42,0.78,0.44
25.239258,0.02172308,-0.09573462,0.13041155,0.46,0.71,0.43,25741,10181.00,84,96,3,1.26,-11.27,5.81,0.46,0.71,0.43
25.239258,0.0017230811,-0.1227346,0.070411555,0.4,0.79,0.42,25756,10181.00,84,96,3,-0.14,-13.16,1.61,0.40,0.79,0.42
26.338867,-0.008276918,-0.1157346,-0.03958845,0.38,0.83,0.41,25795,10182.10,84,96,3,-0.84,-12.67,-6.09,0.38,0.83,0.41
28.338867,-0.008276918,-0.081734605,-0.08158844,0.38,0.8,0.42,25809,10184.10,84,96,3,-0.84,-10.29,-9.03,0.38,0.80,0.42
27.338867,-0.05227692,-0.048734605,-0.07158844,0.38,0.76,0.44,25828,10183.10,84,96,3,-3.92,-7.98,-8.33,0.38,0.76,0.44
25.239258,-0.118276924,-0.026734605,-0.005588446,0.38,0.77,0.46,25854,10181.00,84,96,3,-8.54,-6.44,-3.71,0.38,0.77,0.46
26.338867,-0.16227691,-7.346049E-4,0.074411556,0.38,0.8,0.47,25869,10182.10,84,96,3,-11.62,-4.62,1.89,0.38,0.80,0.47
27.338867,-0.1602769,0.059265394,0.13141155,0.41,0.8,0.47,25884,10183.10,84,96,3,-11.48,-0.42,5.88,0.41,0.80,0.47
25.239258,-0.15527691,0.051265396,0.19241154,0.43,0.8,0.47,25906,10181.00,84,96,3,-11.13,-0.98,10.15,0.43,0.80,0.47
25.239258,-0.14927691,0.048265394,0.19941157,0.43,0.8,0.46,25914,10181.00,84,96,3,-10.71,-1.19,10.64,0.43,0.80,0.46
26.338867,-0.12927692,0.035265394,0.16941155,0.43,0.81,0.46,25936,10182.10,84,96,3,-9.31,-2.10,8.54,0.43,0.81,0.46
23.239258,-0.106276914,0.012265395,0.14241156,0.42,0.81,0.46,25958,10179.00,84,96,3,-7.70,-3.71,6.65,0.42,0.81,0.46
30.338867,-0.07927692,0.015265394,0.10441156,0.42,0.81,0.47,25974,10186.10,84,96,3,-5.81,-3.50,3.99,0.42,0.81,0.47
26.939453,-0.06427692,0.023265395,0.066411555,0.41,0.81,0.46,25997,10182.70,84,96,3,-4.76,-2.94,1.33,0.41,0.81,0.46
28.639648,-0.06427692,0.020265393,0.037411556,0.4,0.81,0.45,26019,10184.40,84,96,3,-4.76,-3.15,-0.70,0.40,0.81,0.45
29.639648,-0.075276926,0.021265395,0.004411552,0.37,0.81,0.45,26042,10185.40,84,96,3,-5.53,-3.08,-3.01,0.37,0.81,0.45
30.338867,-0.089276925,0.032265395,-0.007588446,0.36,0.82,0.45,26064,10186.10,84,96,3,-6.51,-2.31,-3.85,0.36,0.82,0.45
30.639648,-0.11527692,0.060265396,0.015411552,0.36,0.81,0.46,26079,10186.40,84,96,3,-8.33,-0.35,-2.24,0.36,0.81,0.46
31.338867,-0.14627692,0.0812654,0.06841155,0.36,0.81,0.45,26109,10187.10,84,96,3,-10.50,1.12,1.47,0.36,0.81,0.45
34.739258,-0.16427691,0.10426539,0.10841155,0.35,0.82,0.45,26124,10190.50,84,96,3,-11.76,2.73,4.27,0.35,0.82,0.45
33.338867,-0.17327692,0.1212654,0.13941155,0.35,0.82,0.45,26139,10189.10,84,96,3,-12.39,3.92,6.44,0.35,0.82,0.45
34.739258,-0.17727691,0.1332654,0.16041155,0.36,0.82,0.46,26154,10190.50,84,96,3,-12.67,4.76,7.91,0.36,0.82,0.46
34.739258,-0.18027692,0.14626539,0.17641154,0.37,0.82,0.47,26177,10190.50,84,96,3,-12.88,5.67,9.03,0.37,0.82,0.47
35.739258,-0.1972769,0.1652654,0.20041156,0.39,0.83,0.48,26206,10191.50,84,96,3,-14.07,7.00,10.71,0.39,0.83,0.48
33.338867,-0.20427692,0.1792654,0.21341154,0.4,0.84,0.48,26221,10189.10,84,96,3,-14.56,7.98,11.62,0.40,0.84,0.48
34.439453,-0.19927691,0.18526539,0.19841155,0.41,0.86,0.48,26237,10190.20,84,96,3,-14.21,8.40,10.57,0.41,0.86,0.48
36.439453,-0.18227692,0.19326541,0.16241156,0.41,0.86,0.48,26259,10192.20,84,96,3,-13.02,8.96,8.05,0.41,0.86,0.48
37.739258,-0.18327692,0.1962654,0.11341155,0.4,0.87,0.5,26281,10193.50,84,96,3,-13.09,9.17,4.62,0.40,0.87,0.50
38.439453,-0.20527692,0.1782654,0.048411552,0.34,1.01,0.5,26344,10194.20,84,96,3,-14.63,7.91,0.07,0.34,1.01,0.50
36.739258,-0.20427692,0.19526541,-0.012588445,0.4,0.87,0.53,26350,10192.50,84,96,3,-14.56,9.10,-4.20,0.40,0.87,0.53
30.338867,-0.25727692,0.17226538,0.014411554,0.41,0.75,0.56,26353,10186.10,84,96,3,-18.27,7.49,-2.31,0.41,0.75,0.56
35.739258,-0.3052769,0.1082654,0.046411555,0.43,0.72,0.58,26363,10191.50,84,96,3,-21.63,3.01,-0.07,0.43,0.72,0.58
37.739258,-0.27827692,0.057265393,0.052411553,0.43,0.75,0.59,26394,10193.50,84,96,3,-19.74,-0.56,0.35,0.43,0.75,0.59
39.838867,-0.21527691,0.054265395,0.038411554,0.44,0.72,0.62,26416,10195.60,84,96,3,-15.33,-0.77,-0.63,0.44,0.72,0.62
40.838867,-0.14327691,0.06726539,0.034411553,0.42,0.68,0.65,26424,10196.60,84,96,3,-10.29,0.14,-0.91,0.42,0.68,0.65
40.838867,-0.09327692,0.08626539,-0.006588448,0.38,0.7,0.67,26455,10196.60,84,96,3,-6.79,1.47,-3.78,0.38,0.70,0.67
38.838867,-0.01227692,0.106265396,-0.07758845,0.35,0.69,0.67,26462,10194.60,84,96,3,-1.12,2.87,-8.75,0.35,0.69,0.67
35.739258,0.048723083,0.13926539,-0.14458844,0.33,0.68,0.67,26484,10191.50,84,96,3,3.15,5.18,-13.44,0.33,0.68,0.67
37.13965,0.069723085,0.1502654,-0.15358844,0.34,0.68,0.66,26506,10192.90,84,96,3,4.62,5.95,-14.07,0.34,0.68,0.66
36.739258,0.072723076,0.1542654,-0.11758845,0.34,0.69,0.65,26552,10192.50,84,96,3,4.83,6.23,-11.55,0.34,0.69,0.65
35.739258,0.072723076,0.11226539,-0.07058845,0.34,0.72,0.65,26561,10191.50,84,96,3,4.83,3.29,-8.26,0.34,0.72,0.65
39.13965,0.09272309,0.069265395,-0.065588444,0.33,0.77,0.66,26574,10194.90,84,96,3,6.23,0.28,-7.91,0.33,0.77,0.66
38.838867,0.13472308,0.057265393,-0.06758845,0.32,0.8,0.66,26596,10194.60,84,96,3,9.17,-0.56,-8.05,0.32,0.80,0.66
30.639648,0.19772309,0.062265396,-0.06958844,0.29,0.8,0.65,26619,10186.40,84,96,3,13.58,-0.21,-8.19,0.29,0.80,0.65
35.739258,0.2597231,0.08626539,-0.09258845,0.27,0.79,0.62,26634,10191.50,84,96,3,17.92,1.47,-9.80,0.27,0.79,0.62
34.739258,0.32172307,0.102265395,-0.116588436,0.25,0.78,0.6,26649,10190.50,84,96,3,22.26,2.59,-11.48,0.25,0.78,0.60
34.739258,0.3667231,0.1282654,-0.14158845,0.23,0.76,0.56,26664,10190.50,84,96,3,25.41,4.41,-13.23,0.23,0.76,0.56
33.739258,0.3967231,0.1502654,-0.15358844,0.22,0.74,0.54,26694,10189.50,84,96,3,27.51,5.95,-14.07,0.22,0.74,0.54
33.739258,0.41272306,0.1642654,-0.16358846,0.22,0.74,0.53,26701,10189.50,84,96,3,28.63,6.93,-14.77,0.22,0.74,0.53
33.739258,0.42072308,0.1772654,-0.15858844,0.24,0.75,0.52,26724,10189.50,84,96,3,29.19,7.84,-14.42,0.24,0.75,0.52
33.739258,0.40572307,0.1892654,-0.11258844,0.24,0.77,0.51,26754,10189.50,84,96,3,28.14,8.68,-11.20,0.24,0.77,0.51
32.739258,0.39272308,0.2082654,-0.055588447,0.24,0.8,0.49,26769,10188.50,84,96,3,27.23,10.01,-7.21,0.24,0.80,0.49
31.039062,0.3957231,0.20426539,-0.028588451,0.24,0.83,0.49,26791,10186.80,84,96,3,27.44,9.73,-5.32,0.24,0.83,0.49
33.739258,0.36572307,0.19326541,-0.036588445,0.27,0.84,0.51,26814,10189.50,84,96,3,25.34,8.96,-5.88,0.27,0.84,0.51
33.739258,0.31872308,0.18126538,-0.024588443,0.28,0.84,0.5,26844,10189.50,84,96,3,22.05,8.12,-5.04,0.28,0.84,0.50
27.639648,0.27272308,0.1732654,0.0074115545,0.29,0.82,0.49,26866,10183.40,84,96,3,18.83,7.56,-2.80,0.29,0.82,0.49
35.039062,0.22372308,0.1492654,0.014411554,0.29,0.82,0.49,26874,10190.80,84,96,3,15.40,5.88,-2.31,0.29,0.82,0.49
31.039062,0.19172308,0.120265394,0.022411553,0.3,0.82,0.5,26896,10186.80,84,96,3,13.16,3.85,-1.75,0.30,0.82,0.50
33.039062,0.17172308,0.102265395,0.048411552,0.29,0.84,0.51,26911,10188.80,84,96,3,11.76,2.59,0.07,0.29,0.84,0.51
32.039062,0.15172309,0.0922654,0.06741156,0.29,0.85,0.53,26926,10187.80,84,96,3,10.36,1.89,1.40,0.29,0.85,0.53
31.739258,0.12772308,0.069265395,0.074411556,0.31,0.87,0.53,26949,10187.50,84,96,3,8.68,0.28,1.89,0.31,0.87,0.53
32.739258,0.16872309,0.026265394,0.012411553,0.28,0.93,0.53,26971,10188.50,84,96,3,11.55,-2.73,-2.45,0.28,0.93,0.53
33.039062,0.27272308,0.016265392,-0.15258846,0.28,0.98,0.55,26994,10188.80,0,96,3,18.83,-3.43,-14.00,0.28,0.98,0.55
32.039062,0.3597231,0.008265395,-0.30058846,0.3,1.05,0.55,27009,10187.80,0,96,3,24.92,-3.99,-24.36,0.30,1.05,0.55
30.639648,0.4287231,-0.019734606,-0.41858843,0.31,1.05,0.51,27039,10186.40,0,96,3,29.75,-5.95,-32.62,0.31,1.05,0.51
30.039062,0.49272308,-0.059734605,-0.49658847,0.26,1.03,0.46,27054,10185.80,0,96,3,34.23,-8.75,-38.08,0.26,1.03,0.46
25.939453,0.5517231,-0.055734612,-0.46158844,0.28,0.9,0.41,27077,10181.70,0,96,3,38.36,-8.47,-35.63,0.28,0.90,0.41
25.239258,0.5307231,-0.030734599,-0.27058843,0.32,0.77,0.4,27106,10181.00,0,96,3,36.89,-6.72,-22.26,0.32,0.77,0.40
27.939453,0.39972308,-0.040734604,-0.052588448,0.32,0.75,0.38,27121,10183.70,0,96,3,27.72,-7.42,-7.00,0.32,0.75,0.38
31.039062,0.2997231,-0.0577346,0.039411552,0.31,0.76,0.34,27136,10186.80,0,96,3,20.72,-8.61,-0.56,0.31,0.76,0.34
31.739258,0.23372309,-0.086734615,0.085411556,0.27,0.85,0.3,27152,10187.50,0,96,3,16.10,-10.64,2.66,0.27,0.85,0.30
32.338867,0.19672309,-0.10673461,0.061411552,0.23,0.93,0.28,27174,10188.10,0,96,3,13.51,-12.04,0.98,0.23,0.93,0.28
31.039062,0.16172309,-0.0877346,0.013411552,0.21,0.94,0.32,27197,10186.80,0,96,3,11.06,-10.71,-2.38,0.21,0.94,0.32
29.639648,0.06872308,-0.0537346,-0.013588447,0.2,0.93,0.34,27213,10185.40,0,96,3,4.55,-8.33,-4.27,0.20,0.93,0.34
31.039062,-0.02327692,-0.011734605,-0.005588446,0.18,0.97,0.32,27234,10186.80,0,96,3,-1.89,-5.39,-3.71,0.18,0.97,0.32
32.039062,-0.04127692,0.049265392,0.026411554,0.19,0.97,0.3,27256,10187.80,0,96,3,-3.15,-1.12,-1.47,0.19,0.97,0.30
24.939453,-0.047276918,0.098265395,0.09041156,0.22,0.93,0.31,27279,10180.70,0,96,3,-3.57,2.31,3.01,0.22,0.93,0.31
29.039062,-0.08627692,0.10426539,0.13241155,0.23,0.93,0.3,27309,10184.80,0,96,3,-6.30,2.73,5.95,0.23,0.93,0.30
30.039062,-0.11727692,0.0882654,0.16141155,0.24,0.91,0.29,27316,10185.80,0,96,3,-8.47,1.61,7.98,0.24,0.91,0.29
31.338867,-0.121276915,0.0772654,0.18341157,0.22,0.9,0.29,27339,10187.10,0,96,3,-8.75,0.84,9.52,0.22,0.90,0.29
31.039062,-0.118276924,0.0702654,0.16841155,0.19,0.88,0.3,27361,10186.80,0,96,3,-8.54,0.35,8.47,0.19,0.88,0.30
30.338867,-0.12027693,0.072265394,0.110411555,0.17,0.87,0.3,27384,10186.10,0,96,3,-8.68,0.49,4.41,0.17,0.87,0.30
29.338867,-0.11927691,0.0812654,0.061411552,0.17,0.84,0.31,27399,10185.10,0,96,3,-8.61,1.12,0.98,0.17,0.84,0.31
26.939453,-0.11227691,0.08626539,0.027411554,0.18,0.82,0.34,27414,10182.70,0,96,3,-8.12,1.47,-1.40,0.18,0.82,0.34
26.939453,-0.11527692,0.095265396,0.030411553,0.22,0.78,0.37,27437,10182.70,0,96,3,-8.33,2.10,-1.19,0.22,0.78,0.37
25.939453,-0.13227692,0.10426539,0.09041156,0.27,0.69,0.42,27451,10181.70,0,96,3,-9.52,2.73,3.01,0.27,0.69,0.42
27.338867,-0.15527691,0.0962654,0.21541154,0.29,0.71,0.46,27473,10183.10,0,96,3,-11.13,2.17,11.76,0.29,0.71,0.46
28.338867,-0.15927692,0.0932654,0.29741156,0.28,0.76,0.5,27497,10184.10,0,96,3,-11.41,1.96,17.50,0.28,0.76,0.50
30.039062,-0.14127691,0.098265395,0.33641157,0.21,0.8,0.48,27519,10185.80,0,96,3,-10.15,2.31,20.23,0.21,0.80,0.48
30.039062,-0.15127692,0.048265394,0.26241156,0.07,0.91,0.41,27541,10185.80,0,96,3,-10.85,-1.19,15.05,0.07,0.91,0.41
26.239258,-0.15127692,0.1382654,0.36441156,0.47,0.39,0.39,27572,10182.00,0,96,3,-10.85,5.11,22.19,0.47,0.39,0.39
27.338867,-0.3792769,0.015265394,0.7864116,0.51,0.16,0.49,27594,10183.10,0,96,3,-26.81,-3.50,51.73,0.51,0.16,0.49
31.039062,-0.90627694,-0.2967346,1.2094115,0.55,0.38,0.61,27609,10186.80,0,96,3,-63.70,-25.34,81.34,0.55,0.38,0.61
31.338867,-1.334277,-0.53773457,1.4704115,0.47,0.87,0.51,27632,10187.10,0,96,3,-93.66,-42.21,99.61,0.47,0.87,0.51
32.338867,-1.307277,-0.6927346,1.4524115,0.42,0.98,0.37,27669,10188.10,0,96,3,-91.77,-53.06,98.35,0.42,0.98,0.37
33.039062,-1.129277,-0.7987346,1.3074116,0.41,0.93,0.41,27670,10188.80,0,96,3,-79.31,-60.48,88.20,0.41,0.93,0.41
33.338867,-0.959277,-0.8657346,1.1884116,0.46,0.78,0.56,27676,10189.10,0,96,3,-67.41,-65.17,79.87,0.46,0.78,0.56
35.439453,-0.96127695,-0.8787346,1.1024115,0.37,0.93,0.65,27699,10191.20,0,96,3,-67.55,-66.08,73.85,0.37,0.93,0.65
32.039062,-0.8442769,-0.8337346,0.59941155,0.35,1.12,0.65,27721,10187.80,0,96,3,-59.36,-62.93,38.64,0.35,1.12,0.65
34.039062,-0.67027694,-0.6887346,0.24341157,0.41,1.15,0.68,27744,10189.80,0,96,3,-47.18,-52.78,13.72,0.41,1.15,0.68
34.439453,-0.5262769,-0.50073457,0.103411555,0.48,1.07,0.69,27766,10190.20,0,96,3,-37.10,-39.62,3.92,0.48,1.07,0.69
34.439453,-0.50827694,-0.35973462,0.041411553,0.54,1.08,0.7,27781,10190.20,0,96,3,-35.84,-29.75,-0.42,0.54,1.08,0.70
32.338867,-0.5332769,-0.36373463,0.11941155,0.59,1.08,0.71,27811,10188.10,0,96,3,-37.59,-30.03,5.04,0.59,1.08,0.71
31.338867,-0.5942769,-0.38173464,0.21241155,0.62,1.02,0.72,27842,10187.10,0,96,3,-41.86,-31.29,11.55,0.62,1.02,0.72
33.039062,-0.71627694,-0.42973465,0.33741155,0.63,0.92,0.7,27849,10188.80,0,96,3,-50.40,-34.65,20.30,0.63,0.92,0.70
34.039062,-0.8762769,-0.4447346,0.46941158,0.62,0.76,0.65,27886,10189.80,0,96,3,-61.60,-35.70,29.54,0.62,0.76,0.65
35.439453,-0.9792769,-0.4717346,0.51941156,0.61,0.64,0.59,27887,10191.20,0,96,3,-68.81,-37.59,33.04,0.61,0.64,0.59
36.739258,-1.055277,-0.5167346,0.54041153,0.59,0.53,0.5,27909,10192.50,0,96,3,-74.13,-40.74,34.51,0.59,0.53,0.50
40.439453,-1.055277,-0.5547346,0.54041153,0.55,0.46,0.42,27925,10196.20,0,96,3,-74.13,-43.40,34.51,0.55,0.46,0.42
38.439453,-0.96227694,-0.55273455,0.5154115,0.51,0.36,0.33,27947,10194.20,0,96,3,-67.62,-43.26,32.76,0.51,0.36,0.33
40.439453,-0.80327696,-0.5167346,0.48641154,0.45,0.28,0.27,27962,10196.20,0,96,3,-56.49,-40.74,30.73,0.45,0.28,0.27
40.439453,-0.6492769,-0.48373464,0.39441156,0.39,0.22,0.24,27984,10196.20,0,96,3,-45.71,-38.43,24.29,0.39,0.22,0.24
39.439453,-0.52227694,-0.45473465,0.24441156,0.35,0.21,0.19,28006,10195.20,0,96,3,-36.82,-36.40,13.79,0.35,0.21,0.19
40.439453,-0.4592769,-0.45173457,0.10141155,0.37,0.31,0.26,28037,10196.20,0,96,3,-32.41,-36.19,3.78,0.37,0.31,0.26
35.039062,-0.50427693,-0.45173457,-0.08258846,0.33,0.42,0.37,28051,10190.80,0,96,3,-35.56,-36.19,-9.10,0.33,0.42,0.37
32.039062,-0.4592769,-0.3747346,-0.21458843,0.43,0.61,0.6,28074,10187.80,0,96,3,-32.41,-30.80,-18.34,0.43,0.61,0.60
31.338867,-0.37127692,-0.1577346,-0.055588447,0.67,0.67,0.82,28097,10187.10,0,96,3,-26.25,-15.61,-7.21,0.67,0.67,0.82
32.739258,-0.2972769,0.0882654,0.25241154,0.81,0.72,0.88,28111,10188.50,0,96,3,-21.07,1.61,14.35,0.81,0.72,0.88
30.639648,-0.20427692,0.2522654,0.49141157,0.85,0.82,0.91,28133,10186.40,0,96,3,-14.56,13.09,31.08,0.85,0.82,0.91
33.739258,-0.111276925,0.42726538,0.75241154,0.89,0.83,0.93,28156,10189.50,0,96,3,-8.05,25.34,49.35,0.89,0.83,0.93
31.739258,0.01572308,0.6662654,1.0554116,0.89,0.76,0.91,28171,10187.50,0,96,3,0.84,42.07,70.56,0.89,0.76,0.91
34.039062,0.13172309,0.92326546,1.2984116,0.8,0.7,0.89,28187,10189.80,0,96,3,8.96,60.06,87.57,0.80,0.70,0.89
33.739258,0.20672308,1.1412654,1.4484116,0.75,0.62,0.82,28209,10189.50,0,96,3,14.21,75.32,98.07,0.75,0.62,0.82
37.739258,0.22572309,1.1932654,1.3884116,0.71,0.51,0.72,28232,10193.50,0,96,3,15.54,78.96,93.87,0.71,0.51,0.72
36.439453,0.2637231,1.1842655,1.3004116,0.66,0.39,0.66,28254,10192.20,0,96,3,18.20,78.33,87.71,0.66,0.39,0.66
37.739258,0.33972308,1.2082654,1.2534115,0.58,0.28,0.61,28269,10193.50,0,96,3,23.52,80.01,84.42,0.58,0.28,0.61
39.439453,0.4457231,1.2252654,1.1814115,0.5,0.18,0.53,28291,10195.20,0,96,3,30.94,81.20,79.38,0.50,0.18,0.53
40.838867,0.54672307,1.1862655,1.0394115,0.47,0.08,0.5,28313,10196.60,0,96,3,38.01,78.47,69.44,0.47,0.08,0.50
40.439453,0.60272306,1.1312654,0.96141154,0.46,0.04,0.56,28336,10196.20,0,96,3,41.93,74.62,63.98,0.46,0.04,0.56
39.838867,0.62072307,1.0952654,0.9164116,0.46,0.07,0.61,28359,10195.60,0,96,3,43.19,72.10,60.83,0.46,0.07,0.61
40.838867,0.5987231,1.0512654,0.86241156,0.46,0.11,0.62,28382,10196.60,0,96,3,41.65,69.02,57.05,0.46,0.11,0.62
38.439453,0.5877231,0.98826545,0.78341156,0.48,0.18,0.64,28397,10194.20,0,96,3,40.88,64.61,51.52,0.48,0.18,0.64
39.838867,0.63172305,0.9302654,0.7174116,0.49,0.32,0.63,28412,10195.60,0,96,3,43.96,60.55,46.90,0.49,0.32,0.63
40.838867,0.7627231,0.89726543,0.6574116,0.48,0.43,0.65,28427,10196.60,0,96,3,53.13,58.24,42.70,0.48,0.43,0.65
35.739258,0.96772313,0.8992654,0.54041153,0.44,0.33,0.7,28449,10191.50,0,96,3,67.48,58.38,34.51,0.44,0.33,0.70
36.039062,1.063723,0.86026543,0.40241158,0.5,0.34,0.88,28471,10191.80,0,96,3,74.20,55.65,24.85,0.50,0.34,0.88
33.039062,0.9537231,0.8262654,0.40541154,0.63,0.36,1.05,28494,10188.80,0,96,3,66.50,53.27,25.06,0.63,0.36,1.05
31.739258,0.8107231,0.7932654,0.47141156,0.68,0.51,1.08,28517,10187.50,0,96,3,56.49,50.96,29.68,0.68,0.51,1.08
28.639648,0.7797231,0.78526545,0.5744116,0.68,0.66,1.14,28539,10184.40,0,96,3,54.32,50.40,36.89,0.68,0.66,1.14
27.639648,0.7027231,0.7922654,0.6184116,0.66,0.69,1.23,28554,10183.40,0,96,3,48.93,50.89,39.97,0.66,0.69,1.23
26.639648,0.4767231,0.72626543,0.58841157,0.62,0.7,1.27,28576,10182.40,0,96,3,33.11,46.27,37.87,0.62,0.70,1.27
32.739258,0.20072308,0.6832654,0.50241154,0.59,0.71,1.17,28599,10188.50,0,96,3,13.79,43.26,31.85,0.59,0.71,1.17
27.939453,0.13672309,0.6922654,0.49241155,0.57,0.67,1.04,28622,10183.70,0,96,3,9.31,43.89,31.15,0.57,0.67,1.04
29.639648,0.13672309,0.6912654,0.48441157,0.55,0.6,0.96,28637,10185.40,0,96,3,9.31,43.82,30.59,0.55,0.60,0.96
30.639648,0.11472309,0.65926546,0.46241155,0.52,0.51,0.89,28659,10186.40,0,96,3,7.77,41.58,29.05,0.52,0.51,0.89
30.338867,0.069723085,0.5952654,0.39541158,0.48,0.42,0.8,28674,10186.10,0,96,3,4.62,37.10,24.36,0.48,0.42,0.80
31.739258,0.02472308,0.45226538,0.28041154,0.43,0.31,0.66,28696,10187.50,0,96,3,1.47,27.09,16.31,0.43,0.31,0.66
30.039062,0.022723082,0.33026537,0.17741156,0.4,0.18,0.58,28719,10185.80,85,0,3,1.33,18.55,9.10,0.40,0.18,0.58
28.639648,0.03972308,0.23026541,0.09141155,0.35,0.08,0.52,28741,10184.40,85,0,3,2.52,11.55,3.08,0.35,0.08,0.52
27.939453,0.07172309,0.13926539,-0.021588445,0.32,0.06,0.46,28756,10183.70,85,0,3,4.76,5.18,-4.83,0.32,0.06,0.46
28.639648,0.18572308,0.084265396,-0.15258846,0.28,0.1,0.4,28786,10184.40,85,0,3,12.74,1.33,-14.00,0.28,0.10,0.40
28.939453,0.3737231,0.054265395,-0.30858845,0.25,0.09,0.36,28801,10184.70,85,0,3,25.90,-0.77,-24.92,0.25,0.09,0.36
27.639648,0.6497231,0.049265392,-0.44858846,0.27,0.15,0.41,28824,10183.40,85,0,3,45.22,-1.12,-34.72,0.27,0.15,0.41
27.939453,0.8267231,0.038265392,-0.5195884,0.35,0.47,0.57,28846,10183.70,85,0,3,57.61,-1.89,-39.69,0.35,0.47,0.57
24.639648,0.85672307,0.060265396,-0.61358845,0.4,0.64,0.73,28883,10180.40,85,0,3,59.71,-0.35,-46.27,0.40,0.64,0.73
22.239258,0.8017231,0.062265396,-0.7125884,0.46,0.85,0.91,28885,10178.00,85,0,3,55.86,-0.21,-53.20,0.46,0.85,0.91
22.939453,0.5857231,0.037265394,-0.77458847,0.51,0.94,1.15,28921,10178.70,85,0,3,40.74,-1.96,-57.54,0.51,0.94,1.15
18.838867,0.3147231,0.058265395,-0.73558843,0.58,1.05,1.2,28923,10174.60,85,0,3,21.77,-0.49,-54.81,0.58,1.05,1.20
17.838867,0.16072308,0.11226539,-0.54758847,0.7,1.08,1.22,28944,10173.60,85,0,3,10.99,3.29,-41.65,0.70,1.08,1.22
17.539062,-0.03327692,0.1712654,-0.14958844,0.75,1.14,1.18,28959,10173.30,85,0,3,-2.59,7.42,-13.79,0.75,1.14,1.18
19.838867,-0.19527692,0.19326541,0.12541156,0.69,1.12,1.1,28989,10175.60,85,0,3,-13.93,8.96,5.46,0.69,1.12,1.10
20.838867,-0.2912769,0.16926539,0.17141156,0.55,1.04,0.95,29004,10176.60,85,0,3,-20.65,7.28,8.68,0.55,1.04,0.95
22.539062,-0.28927693,0.1212654,0.06841155,0.44,0.85,0.78,29026,10178.30,85,0,3,-20.51,3.92,1.47,0.44,0.85,0.78
23.939453,-0.26227692,0.094265394,-0.0095884465,0.36,0.58,0.67,29041,10179.70,85,0,3,-18.62,2.03,-3.99,0.36,0.58,0.67
25.939453,-0.22327691,0.065265395,-0.03158845,0.28,0.29,0.55,29065,10181.70,85,0,3,-15.89,0.00,-5.53,0.28,0.29,0.55
26.939453,-0.18127692,0.0072653964,-0.055588447,0.2,0.13,0.44,29086,10182.70,85,0,3,-12.95,-4.06,-7.21,0.20,0.13,0.44
27.939453,-0.075276926,-0.066734605,-0.08158844,0.15,0.07,0.32,29109,10183.70,85,0,3,-5.53,-9.24,-9.03,0.15,0.07,0.32
28.939453,0.109723076,-0.14973462,-0.10258845,0.11,0.05,0.25,29131,10184.70,85,0,3,7.42,-15.05,-10.50,0.11,0.05,0.25
30.639648,0.2637231,-0.18673462,-0.11258844,0.1,0.01,0.25,29146,10186.40,85,0,3,18.20,-17.64,-11.20,0.10,0.01,0.25
30.039062,0.3917231,-0.19173461,-0.10158845,0.08,-0.04,0.27,29161,10185.80,85,0,3,27.16,-17.99,-10.43,0.08,-0.04,0.27
31.039062,0.50072306,-0.16973463,-0.04958845,0.06,-0.04,0.33,29177,10186.80,85,0,3,34.79,-16.45,-6.79,0.06,-0.04,0.33
28.338867,0.60972303,-0.1397346,0.008411553,0.06,0.15,0.43,29213,10184.10,85,0,3,42.42,-14.35,-2.73,0.06,0.15,0.43
38.13965,0.6837231,-0.108734615,-0.0045884475,0.1,0.41,0.6,29229,10193.90,85,0,3,47.60,-12.18,-3.64,0.10,0.41,0.60
32.039062,0.65772307,-0.047734603,-0.0095884465,0.25,0.65,0.88,29244,10187.80,85,0,3,45.78,-7.91,-3.99,0.25,0.65,0.88
31.039062,0.6387231,0.023265395,0.07141155,0.34,0.86,1.05,29276,10186.80,85,0,3,44.45,-2.94,1.68,0.34,0.86,1.05
32.039062,0.4747231,-0.013734609,0.025411554,0.44,1.08,1.13,29289,10187.80,85,0,3,32.97,-5.53,-1.54,0.44,1.08,1.13
32.039062,0.2777231,-0.1097346,-0.10858845,0.55,1.26,1.22,29312,10187.80,85,0,3,19.18,-12.25,-10.92,0.55,1.26,1.22
33.338867,-0.13227692,-0.19373459,-0.16458845,0.58,1.32,1.27,29327,10189.10,85,0,3,-9.52,-18.13,-14.84,0.58,1.32,1.27
25.939453,-0.5262769,-0.2657346,-0.16158846,0.6,1.27,1.22,29349,10181.70,85,0,3,-37.10,-23.17,-14.63,0.60,1.27,1.22
28.639648,-0.8162769,-0.39473462,-0.058588445,0.54,1.17,1.15,29371,10184.40,85,0,3,-57.40,-32.20,-7.42,0.54,1.17,1.15
31.039062,-0.99027693,-0.46673462,0.07241155,0.49,0.96,1.09,29394,10186.80,85,0,3,-69.58,-37.24,1.75,0.49,0.96,1.09
34.039062,-1.038277,-0.44273463,0.15041155,0.46,0.81,0.98,29409,10189.80,85,0,3,-72.94,-35.56,7.21,0.46,0.81,0.98
35.439453,-1.020277,-0.39673463,0.17341155,0.41,0.66,0.83,29432,10191.20,85,0,3,-71.68,-32.34,8.82,0.41,0.66,0.83
38.13965,-0.8862769,-0.35973462,0.12041155,0.31,0.49,0.61,29447,10193.90,85,0,3,-62.30,-29.75,5.11,0.31,0.49,0.61
32.039062,-0.6162769,-0.3237346,-0.021588445,0.24,0.31,0.39,29469,10187.80,85,0,3,-43.40,-27.23,-4.83,0.24,0.31,0.39
37.13965,-0.24627692,-0.3147346,-0.22258842,0.19,0.17,0.18,29492,10192.90,85,0,3,-17.50,-26.60,-18.90,0.19,0.17,0.18
36.439453,0.12472309,-0.3147346,-0.42458844,0.19,0.1,0.04,29514,10192.20,85,0,3,8.47,-26.60,-33.04,0.19,0.10,0.04
35.039062,0.41372308,-0.2997346,-0.50158846,0.25,-0.06,0.03,29536,10190.80,0,0,3,28.70,-25.55,-38.43,0.25,-0.06,0.03
35.439453,0.4767231,-0.32273462,-0.5195884,0.27,-0.19,0.13,29559,10191.20,0,0,3,33.11,-27.16,-39.69,0.27,-0.19,0.13
35.439453,0.33072308,-0.36973462,-0.5605885,0.3,-0.04,0.24,29581,10191.20,0,0,3,22.89,-30.45,-42.56,0.30,-0.04,0.24
38.439453,0.22372308,-0.4237346,-0.59958845,0.41,0.34,0.39,29604,10194.20,0,0,3,15.40,-34.23,-45.29,0.41,0.34,0.39
35.439453,0.18372309,-0.4487346,-0.56658846,0.51,0.6,0.58,29619,10191.20,0,0,3,12.60,-35.98,-42.98,0.51,0.60,0.58
34.739258,0.094723076,-0.49173465,-0.5955884,0.53,0.79,0.97,29641,10190.50,0,0,3,6.37,-38.99,-45.01,0.53,0.79,0.97
38.439453,-0.13927692,-0.61273456,-0.73858845,0.61,1.02,1.03,29664,10194.20,0,0,3,-10.01,-47.46,-55.02,0.61,1.02,1.03
36.439453,-0.4062769,-0.7317346,-0.82658845,0.74,1.24,1.18,29679,10192.20,0,0,3,-28.70,-55.79,-61.18,0.74,1.24,1.18
36.039062,-0.60227686,-0.7637346,-0.6845885,0.8,1.23,1.13,29701,10191.80,0,0,3,-42.42,-58.03,-51.24,0.80,1.23,1.13
34.338867,-0.6002769,-0.7317346,-0.33558843,0.84,1.24,1.2,29716,10190.10,0,0,3,-42.28,-55.79,-26.81,0.84,1.24,1.20
32.338867,-0.6972769,-0.5457346,0.042411555,0.82,1.18,1.25,29738,10188.10,0,0,3,-49.07,-42.77,-0.35,0.82,1.18,1.25
33.739258,-0.76627696,-0.2517346,0.21441156,0.7,1.11,1.01,29762,10189.50,0,0,3,-53.90,-22.19,11.69,0.70,1.11,1.01
35.439453,-0.7082769,-0.028734602,0.21341154,0.55,0.98,0.95,29783,10191.20,0,0,3,-49.84,-6.58,11.62,0.55,0.98,0.95
36.439453,-0.53127694,0.07926539,0.17241156,0.46,0.71,0.8,29806,10192.20,0,0,3,-37.45,0.98,8.75,0.46,0.71,0.80
35.439453,-0.36827692,0.1642654,0.15741155,0.39,0.41,0.65,29829,10191.20,0,0,3,-26.04,6.93,7.70,0.39,0.41,0.65
34.338867,-0.20327692,0.19526541,0.19741157,0.34,0.2,0.49,29851,10190.10,0,0,3,-14.49,9.10,10.50,0.34,0.20,0.49
35.439453,-0.014276918,0.20026538,0.24941155,0.27,0.07,0.37,29878,10191.20,0,0,3,-1.26,9.45,14.14,0.27,0.07,0.37
34.739258,0.14572307,0.19226539,0.28441155,0.24,0.04,0.32,29896,10190.50,0,0,3,9.94,8.89,16.59,0.24,0.04,0.32
34.739258,0.23572308,0.18326539,0.27141157,0.2,0.05,0.29,29912,10190.50,0,0,3,16.24,8.26,15.68,0.20,0.05,0.29
34.739258,0.30472308,0.16926539,0.21741155,0.17,0.02,0.29,29927,10190.50,0,0,3,21.07,7.28,11.90,0.17,0.02,0.29
33.338867,0.37472308,0.1792654,0.17841154,0.16,-0.01,0.32,29949,10189.10,0,0,3,25.97,7.98,9.17,0.16,-0.01,0.32
34.338867,0.4507231,0.19726539,0.15241155,0.14,0.14,0.39,29971,10190.10,0,0,3,31.29,9.24,7.35,0.14,0.14,0.39
35.439453,0.49872312,0.22526538,0.037411556,0.15,0.32,0.47,29987,10191.20,0,0,3,34.65,11.20,-0.70,0.15,0.32,0.47
33.338867,0.5187231,0.24326539,-0.12758845,0.23,0.52,0.64,30009,10189.10,0,0,3,36.05,12.46,-12.25,0.23,0.52,0.64
32.739258,0.5727231,0.2832654,-0.16158846,0.36,0.76,0.77,30032,10188.50,0,0,3,39.83,15.26,-14.63,0.36,0.76,0.77
32.739258,0.6407231,0.3382654,-0.14158845,0.45,0.84,0.91,30054,10188.50,0,0,3,44.59,19.11,-13.23,0.45,0.84,0.91
31.338867,0.5977231,0.3522654,-0.05658845,0.54,0.92,1.01,30076,10187.10,0,0,3,41.58,20.09,-7.28,0.54,0.92,1.01
31.639648,0.4447231,0.33526537,0.07641155,0.61,1.02,1.15,30098,10187.40,0,0,3,30.87,18.90,2.03,0.61,1.02,1.15
29.338867,0.13872308,0.29726538,0.18141156,0.59,1.19,1.26,30114,10185.10,0,0,3,9.45,16.24,9.38,0.59,1.19,1.26
28.338867,-0.14827693,0.2612654,0.23141155,0.56,1.32,1.27,30136,10184.10,0,0,3,-10.64,13.72,12.88,0.56,1.32,1.27
30.639648,-0.26827693,0.25326538,0.28141153,0.54,1.32,1.21,30159,10186.40,0,0,3,-19.04,13.16,16.38,0.54,1.32,1.21
32.338867,-0.29327694,0.23226538,0.34141156,0.51,1.24,1.15,30174,10188.10,0,0,3,-20.79,11.69,20.58,0.51,1.24,1.15
33.338867,-0.26827693,0.2082654,0.41441157,0.48,1.12,1.08,30189,10189.10,0,0,3,-19.04,10.01,25.69,0.48,1.12,1.08
33.739258,-0.16427691,0.1572654,0.53541154,0.45,0.89,0.95,30212,10189.50,0,0,3,-11.76,6.44,34.16,0.45,0.89,0.95
36.739258,0.123723075,0.1452654,0.73741156,0.37,0.68,0.77,30234,10192.50,0,0,3,8.40,5.60,48.30,0.37,0.68,0.77
29.639648,0.4477231,0.0962654,0.7814116,0.2,0.45,0.55,30249,10185.40,0,0,3,31.08,2.17,51.38,0.20,0.45,0.55
32.739258,0.7207231,-0.002734609,0.55341154,0.12,0.3,0.31,30271,10188.50,0,0,3,50.19,-4.76,35.42,0.12,0.30,0.31
31.639648,0.9927231,-0.1297346,0.15641156,0.11,0.28,0.11,30294,10187.40,0,0,3,69.23,-13.65,7.63,0.11,0.28,0.11
32.739258,1.228723,-0.25373462,-0.24158844,0.13,0.18,0.02,30317,10188.50,0,0,3,85.75,-22.33,-20.23,0.13,0.18,0.02
30.639648,1.330723,-0.34873462,-0.64258844,0.14,0.03,0.03,30339,10186.40,0,0,3,92.89,-28.98,-48.30,0.14,0.03,0.03
29.338867,1.309723,-0.46573457,-0.9995885,0.23,0.1,0.1,30361,10185.10,0,0,3,91.42,-37.17,-73.29,0.23,0.10,0.10
30.639648,1.250723,-0.56573457,-1.2065884,0.33,0.32,0.23,30384,10186.40,95,0,3,87.29,-44.17,-87.78,0.33,0.32,0.23
23.539062,1.171723,-0.6327346,-1.2985885,0.39,0.56,0.33,30399,10179.30,95,0,3,81.76,-48.86,-94.22,0.39,0.56,0.33
25.639648,1.0947231,-0.6917346,-1.3945885,0.4,0.78,0.39,30414,10181.40,95,0,3,76.37,-52.99,-100.94,0.40,0.78,0.39
24.239258,1.069723,-0.7087346,-1.4675884,0.37,1.01,0.53,30429,10180.00,95,0,3,74.62,-54.18,-106.05,0.37,1.01,0.53
17.539062,0.9477231,-0.5947346,-1.5305884,0.48,1.24,0.75,30451,10173.30,95,0,3,66.08,-46.20,-110.46,0.48,1.24,0.75
20.539062,0.7167231,-0.43173462,-1.3055885,0.6,1.39,0.85,30474,10176.30,95,0,3,49.91,-34.79,-94.71,0.60,1.39,0.85
19.139648,0.3827231,-0.4257346,-0.9775884,0.61,1.53,0.84,30497,10174.90,95,0,3,26.53,-34.37,-71.75,0.61,1.53,0.84
16.439453,0.07472308,-0.45673463,-0.61258847,0.61,1.67,0.78,30519,10172.20,95,0,3,4.97,-36.54,-46.20,0.61,1.67,0.78
14.439453,-0.017276919,-0.3987346,-0.33158845,0.55,1.65,0.71,30533,10170.20,95,0,3,-1.47,-32.48,-26.53,0.55,1.65,0.71
17.539062,-0.017276919,-0.26973462,-0.20558843,0.5,1.46,0.63,30557,10173.30,95,0,3,-1.47,-23.45,-17.71,0.50,1.46,0.63
20.539062,-0.009276919,-0.20773461,-0.19358847,0.42,1.21,0.53,30579,10176.30,95,0,3,-0.91,-19.11,-16.87,0.42,1.21,0.53
21.539062,0.046723083,-0.20273462,-0.25258845,0.34,0.88,0.39,30601,10177.30,95,0,3,3.01,-18.76,-21.00,0.34,0.88,0.39
24.939453,0.15072308,-0.1577346,-0.37458846,0.28,0.51,0.28,30624,10180.70,95,0,3,10.29,-15.61,-29.54,0.28,0.51,0.28
28.338867,0.25872308,-0.118734606,-0.4715885,0.23,0.28,0.21,30639,10184.10,95,0,3,17.85,-12.88,-36.33,0.23,0.28,0.21
28.639648,0.3717231,-0.0797346,-0.54858845,0.17,0.19,0.15,30653,10184.40,95,0,3,25.76,-10.15,-41.72,0.17,0.19,0.15
26.939453,0.4547231,-0.051734596,-0.60558844,0.15,0.01,0.12,30669,10182.70,95,0,3,31.57,-8.19,-45.71,0.15,0.01,0.12
27.639648,0.5187231,-0.042734608,-0.63758844,0.14,0.04,0.1,30692,10183.40,95,0,3,36.05,-7.56,-47.95,0.14,0.04,0.10
27.639648,0.5897231,-0.034734607,-0.6205884,0.13,-0.03,0.12,30706,10183.40,95,0,3,41.02,-7.00,-46.76,0.13,-0.03,0.12
27.639648,0.63972306,-0.033734605,-0.63358843,0.07,0.05,0.22,30729,10183.40,95,0,3,44.52,-6.93,-47.67,0.07,0.05,0.22
28.639648,0.64672303,-0.025734603,-0.63558847,-0.02,0.44,0.3,30752,10184.40,95,0,3,45.01,-6.37,-47.81,-0.02,0.44,0.30
27.639648,0.6527231,-0.045734607,-0.7555884,-0.06,0.81,0.39,30775,10183.40,95,0,3,45.43,-7.77,-56.21,-0.06,0.81,0.39
26.639648,0.6487231,-0.06173461,-0.73958844,0.02,1.12,0.45,30804,10182.40,95,0,3,45.15,-8.89,-55.09,0.02,1.12,0.45
25.939453,0.7617231,-0.0037346035,-0.49858844,0.08,1.33,0.5,30819,10181.70,95,0,3,53.06,-4.83,-38.22,0.08,1.33,0.50
26.639648,0.7437231,0.0062653944,-0.15758845,0.18,1.51,0.51,30842,10182.40,95,0,3,51.80,-4.13,-14.35,0.18,1.51,0.51
25.939453,0.5457231,-0.027734607,0.17941156,0.15,1.77,0.55,30856,10181.70,95,0,3,37.94,-6.51,9.24,0.15,1.77,0.55
25.639648,0.23472309,-0.03273461,0.37041157,0.05,1.92,0.55,30878,10181.40,95,0,3,16.17,-6.86,22.61,0.05,1.92,0.55
31.039062,0.06372308,-0.015734605,0.36641157,0.05,1.93,0.47,30901,10186.80,95,0,3,4.20,-5.67,22.33,0.05,1.93,0.47
31.039062,-0.047276918,-0.009734608,0.31341156,0.04,1.82,0.44,30916,10186.80,95,0,3,-3.57,-5.25,18.62,0.04,1.82,0.44
31.039062,-0.13727692,0.0022653937,0.24641156,0.07,1.6,0.43,30931,10186.80,95,0,3,-9.87,-4.41,13.93,0.07,1.60,0.43
33.039062,-0.20327692,0.043265395,0.25841156,0.15,1.21,0.38,30954,10188.80,95,0,3,-14.49,-1.54,14.77,0.15,1.21,0.38
34.039062,-0.2342769,0.095265396,0.36341158,0.2,0.84,0.28,30977,10189.80,95,0,3,-16.66,2.10,22.12,0.20,0.84,0.28
34.039062,-0.21127692,0.14726539,0.40641156,0.24,0.48,0.18,30991,10189.80,95,0,3,-15.05,5.74,25.13,0.24,0.48,0.18
36.039062,-0.17427692,0.1542654,0.38341156,0.26,0.23,0.09,31014,10191.80,95,0,3,-12.46,6.23,23.52,0.26,0.23,0.09
36.039062,-0.08627692,0.1272654,0.28641155,0.2,0.12,-0.0,31051,10191.80,95,0,3,-6.30,4.34,16.73,0.20,0.12,-0.00
37.039062,0.046723083,0.0882654,0.07141155,0.13,0.12,-0.06,31059,10192.80,95,0,3,3.01,1.61,1.68,0.13,0.12,-0.06
37.039062,0.18772309,0.07126539,-0.12758845,0.12,0.05,-0.07,31081,10192.80,95,0,3,12.88,0.42,-12.25,0.12,0.05,-0.07
37.039062,0.30472308,0.062265396,-0.26958844,0.17,0.02,-0.01,31104,10192.80,95,0,3,21.07,-0.21,-22.19,0.17,0.02,-0.01
39.13965,0.28772306,-0.0167346,-0.31158844,0.12,0.39,0.06,31119,10194.90,95,0,3,19.88,-5.74,-25.13,0.12,0.39,0.06
36.039062,0.27972308,-0.11273461,-0.4705884,0.11,0.89,0.08,31150,10191.80,95,0,3,19.32,-12.46,-36.26,0.11,0.89,0.08
36.039062,0.3297231,-0.1297346,-0.50858843,0.25,0.98,0.16,31164,10191.80,95,0,3,22.82,-13.65,-38.92,0.25,0.98,0.16
36.039062,0.35472307,-0.1577346,-0.41558844,0.25,1.28,0.25,31178,10191.80,95,0,3,24.57,-15.61,-32.41,0.25,1.28,0.25
34.039062,0.24072309,-0.13573459,-0.36358845,0.24,1.53,0.39,31201,10189.80,95,0,3,16.59,-14.07,-28.77,0.24,1.53,0.39
35.039062,0.041723084,-0.14973462,-0.30558842,0.13,2.06,0.39,31217,10190.80,95,0,3,2.66,-15.05,-24.71,0.13,2.06,0.39
32.039062,-0.13927692,-0.1007346,-0.22458845,0.2,2.24,0.34,31239,10187.80,95,0,3,-10.01,-11.62,-19.04,0.20,2.24,0.34
34.039062,-0.17027692,-0.044734605,0.015411552,0.31,2.02,0.32,31268,10189.80,0,0,3,-12.18,-7.70,-2.24,0.31,2.02,0.32
32.739258,-0.20927691,0.019265395,0.28141153,0.29,1.84,0.29,31283,10188.50,0,0,3,-14.91,-3.22,16.38,0.29,1.84,0.29
34.739258,-0.28327692,0.057265393,0.38941157,0.23,1.52,0.26,31307,10190.50,0,0,3,-20.09,-0.56,23.94,0.23,1.52,0.26
38.439453,-0.3102769,0.069265395,0.40541154,0.18,1.04,0.26,31329,10194.20,0,0,3,-21.98,0.28,25.06,0.18,1.04,0.26
38.13965,-0.3322769,0.06726539,0.38141155,0.08,0.63,0.22,31366,10193.90,0,0,3,-23.52,0.14,23.38,0.08,0.63,0.22
38.13965,-0.22927691,0.0632654,0.17341155,0.02,0.33,0.2,31374,10193.90,0,0,3,-16.31,-0.14,8.82,0.02,0.33,0.20
40.13965,-0.03127692,0.076265395,-0.09958845,-0.03,0.2,0.17,31396,10195.90,0,0,3,-2.45,0.77,-10.29,-0.03,0.20,0.17
37.039062,0.13572308,0.0932654,-0.24358845,-0.06,0.15,0.14,31411,10192.80,0,0,3,9.24,1.96,-20.37,-0.06,0.15,0.14
35.039062,0.2947231,0.11226539,-0.34258842,-0.06,0.04,0.14,31434,10190.80,0,0,3,20.37,3.29,-27.30,-0.06,0.04,0.14
34.739258,0.3917231,0.1212654,-0.35958844,-0.06,-0.05,0.18,31442,10190.50,0,0,3,27.16,3.92,-28.49,-0.06,-0.05,0.18
29.338867,0.4327231,0.1632654,-0.28258845,-0.08,-0.08,0.22,31471,10185.10,0,0,3,30.03,6.86,-23.10,-0.08,-0.08,0.22
39.439453,0.40572307,0.16226539,-0.20958844,-0.15,0.3,0.23,31502,10195.20,0,0,3,28.14,6.79,-17.99,-0.15,0.30,0.23
36.039062,0.40472308,0.0992654,-0.29158843,-0.21,0.84,0.27,31516,10191.80,0,0,3,28.07,2.38,-23.73,-0.21,0.84,0.27
36.439453,0.41172308,0.1272654,-0.33858845,-0.1,1.12,0.32,31532,10192.20,0,0,3,28.56,4.34,-27.02,-0.10,1.12,0.32
35.439453,0.46772307,0.16126539,-0.15258846,0.01,1.42,0.35,31557,10191.20,0,0,3,32.48,6.72,-14.00,0.01,1.42,0.35
37.739258,0.4507231,0.0932654,-5.8844313E-4,0.07,1.63,0.41,31576,10193.50,0,0,3,31.29,1.96,-3.36,0.07,1.63,0.41
36.439453,0.3137231,-0.0577346,0.028411552,-0.07,2.04,0.47,31592,10192.20,0,0,3,21.70,-8.61,-1.33,-0.07,2.04,0.47
32.039062,0.16272308,-0.015734605,-0.032588445,-0.08,2.13,0.47,31621,10187.80,0,0,3,11.13,-5.67,-5.60,-0.08,2.13,0.47
33.039062,0.069723085,0.1102654,0.013411552,-0.05,2.01,0.42,31636,10188.80,0,0,3,4.62,3.15,-2.38,-0.05,2.01,0.42
36.039062,-2.76919E-4,0.1792654,0.10441156,-0.01,1.81,0.39,31652,10191.80,0,0,3,-0.28,7.98,3.99,-0.01,1.81,0.39
36.739258,-0.096276924,0.20426539,0.23841155,0.04,1.55,0.36,31667,10192.50,0,0,3,-7.00,9.73,13.37,0.04,1.55,0.36
36.739258,-0.19427691,0.22326541,0.37041157,0.1,1.25,0.29,31681,10192.50,0,0,3,-13.86,11.06,22.61,0.10,1.25,0.29
36.439453,-0.26927692,0.2142654,0.47941157,0.16,0.85,0.11,31711,10192.20,0,0,3,-19.11,10.43,30.24,0.16,0.85,0.11
35.739258,-0.22027692,0.14626539,0.50141156,0.24,0.42,0.01,31726,10191.50,0,0,3,-15.68,5.67,31.78,0.24,0.42,0.01
35.439453,-0.16727692,0.044265397,0.45241156,0.24,0.13,-0.03,31748,10191.20,0,0,3,-11.97,-1.47,28.35,0.24,0.13,-0.03
36.739258,-0.114276916,-0.10473461,0.30441156,0.14,0.14,-0.1,31779,10192.50,0,0,3,-8.26,-11.90,17.99,0.14,0.14,-0.10
35.439453,0.018723082,-0.2107346,0.07841156,0.09,0.13,-0.14,31794,10191.20,0,0,3,1.05,-19.32,2.17,0.09,0.13,-0.14
27.239258,0.14472309,-0.2847346,-0.07158844,0.14,-0.02,-0.1,31831,10183.00,0,0,3,9.87,-24.50,-8.33,0.14,-0.02,-0.10
30.338867,0.13772309,-0.3797346,-0.06158845,0.16,-0.06,-0.03,31839,10186.10,0,0,3,9.38,-31.15,-7.63,0.16,-0.06,-0.03
32.039062,0.052723084,-0.43773457,-0.007588446,0.12,0.24,0.05,31861,10187.80,0,0,3,3.43,-35.21,-3.85,0.12,0.24,0.05
29.338867,-0.016276918,-0.4207346,0.024411554,0.1,0.92,0.05,31891,10185.10,0,0,3,-1.40,-34.02,-1.61,0.10,0.92,0.05
26.239258,0.03872308,-0.3767346,0.016411552,0.17,1.08,0.1,31898,10182.00,0,0,3,2.45,-30.94,-2.17,0.17,1.08,0.10
24.239258,0.03472308,-0.35273463,0.039411552,0.22,1.31,0.19,31913,10180.00,0,0,3,2.17,-29.26,-0.56,0.22,1.31,0.19
18.139648,-0.05327692,-0.2687346,0.058411554,0.22,1.54,0.39,31928,10173.90,0,0,3,-3.99,-23.38,0.77,0.22,1.54,0.39
20.239258,-0.27627692,-0.14973462,0.05941155,0.04,2.25,0.48,31951,10176.00,0,0,3,-19.60,-15.05,0.84,0.04,2.25,0.48
17.439453,-0.3742769,0.073265396,0.096411556,0.21,2.29,0.39,31974,10173.20,0,0,3,-26.46,0.56,3.43,0.21,2.29,0.39
15.139648,-0.21727692,0.2122654,0.29941157,0.25,2.32,0.25,32004,10170.90,0,0,3,-15.47,10.29,17.64,0.25,2.32,0.25
16.139648,-0.06327692,0.40126538,0.21741155,0.3,2.02,0.24,32019,10171.90,0,0,3,-4.69,23.52,11.90,0.30,2.02,0.24
18.539062,-0.11227691,0.4562654,0.26941156,0.25,1.64,0.19,32033,10174.30,0,0,3,-8.12,27.37,15.54,0.25,1.64,0.19
19.139648,-0.009276919,0.4212654,0.24441156,0.19,1.29,0.18,32056,10174.90,0,0,3,-0.91,24.92,13.79,0.19,1.29,0.18
21.239258,0.11972308,0.4202654,0.12441155,0.19,0.76,0.23,32080,10177.00,95,0,3,8.12,24.85,5.39,0.19,0.76,0.23
25.239258,0.15672308,0.3752654,-0.008588448,0.15,0.29,0.24,32101,10181.00,95,0,3,10.71,21.70,-3.92,0.15,0.29,0.24
25.639648,0.18272308,0.32726538,-0.11258844,0.09,0.12,0.17,32125,10181.40,95,0,3,12.53,18.34,-11.20,0.09,0.12,0.17
27.639648,0.23972309,0.2832654,-0.15758845,0.04,0.08,0.12,32146,10183.40,95,0,3,16.52,15.26,-14.35,0.04,0.08,0.12
19.539062,0.2857231,0.26926538,-0.14058843,0.01,-0.04,0.12,32161,10175.30,95,0,3,19.74,14.28,-13.16,0.01,-0.04,0.12
24.539062,0.28172308,0.2512654,-0.09558845,-0.03,-0.09,0.13,32177,10180.30,95,0,3,19.46,13.02,-10.01,-0.03,-0.09,0.13
23.239258,0.2447231,0.2332654,-0.072588444,-0.08,-0.08,0.13,32192,10179.00,95,0,3,16.87,11.76,-8.40,-0.08,-0.08,0.13
25.239258,0.23172309,0.1912654,-0.07658845,-0.12,0.17,0.12,32245,10181.00,95,0,3,15.96,8.82,-8.68,-0.12,0.17,0.12
22.539062,0.2597231,0.1222654,-0.17558843,-0.12,0.54,0.19,32246,10178.30,95,0,3,17.92,3.99,-15.61,-0.12,0.54,0.19
22.939453,0.19272308,0.043265395,-0.21458843,-0.06,0.98,0.26,32263,10178.70,95,0,3,13.23,-1.54,-18.34,-0.06,0.98,0.26
23.539062,0.18372309,0.035265394,-0.09058844,0.06,1.33,0.19,32282,10179.30,95,0,3,12.60,-2.10,-9.66,0.06,1.33,0.19
25.639648,0.34272307,0.053265397,0.17441157,0.14,1.55,0.23,32304,10181.40,95,0,3,23.73,-0.84,8.89,0.14,1.55,0.23
28.639648,0.2327231,-0.052734606,0.28641155,0.01,1.94,0.35,32319,10184.40,95,0,3,16.03,-8.26,16.73,0.01,1.94,0.35
27.639648,-0.03127692,-0.14573461,0.12841156,-0.08,2.13,0.37,32345,10183.40,95,0,3,-2.45,-14.77,5.67,-0.08,2.13,0.37
23.539062,-0.19227692,-0.074734606,0.025411554,-0.04,2.15,0.36,32364,10179.30,95,0,3,-13.72,-9.80,-1.54,-0.04,2.15,0.36
29.939453,-0.27127692,0.1152654,0.066411555,0.05,1.88,0.36,32386,10185.70,95,0,3,-19.25,3.50,1.33,0.05,1.88,0.36
31.639648,-0.38727692,0.17626539,0.27641156,0.1,1.49,0.32,32425,10187.40,95,0,3,-27.37,7.77,16.03,0.10,1.49,0.32
32.63965,-0.4862769,0.1452654,0.38841158,0.12,1.18,0.24,32431,10188.40,95,0,3,-34.30,5.60,23.87,0.12,1.18,0.24
34.739258,-0.53027695,0.15326539,0.42241156,0.14,0.79,0.15,32438,10190.50,95,0,3,-37.38,6.16,26.25,0.14,0.79,0.15
37.039062,-0.5372769,0.1222654,0.43141153,0.17,0.15,0.08,32469,10192.80,95,0,3,-37.87,3.99,26.88,0.17,0.15,0.08
35.739258,-0.54127693,0.016265392,0.36741155,0.11,0.04,-0.0,32483,10191.50,95,0,3,-38.15,-3.43,22.40,0.11,0.04,-0.00
37.739258,-0.4062769,-0.0787346,0.15141156,-0.03,0.19,-0.13,32506,10193.50,95,0,3,-28.70,-10.08,7.28,-0.03,0.19,-0.13
37.439453,-0.07227692,-0.098734595,-0.11758845,-0.03,0.13,-0.14,32529,10193.20,95,0,3,-5.32,-11.48,-11.55,-0.03,0.13,-0.14
35.739258,0.13972309,-0.13173461,-0.28458843,0.06,-0.02,-0.05,32551,10191.50,95,0,3,9.52,-13.79,-23.24,0.06,-0.02,-0.05
36.739258,0.17072308,-0.21273461,-0.28258845,0.15,-0.1,0.02,32574,10192.50,95,0,3,11.69,-19.46,-23.10,0.15,-0.10,0.02
39.13965,0.1557231,-0.2847346,-0.14458844,0.13,0.29,0.06,32596,10194.90,95,0,3,10.64,-24.50,-13.44,0.13,0.29,0.06
37.739258,0.2777231,-0.3107346,-0.10358844,0.17,0.97,0.08,32619,10193.50,95,0,3,19.18,-26.32,-10.57,0.17,0.97,0.08
38.039062,0.38672307,-0.2637346,-0.06458845,0.23,1.26,0.2,32634,10193.80,95,0,3,26.81,-23.03,-7.84,0.23,1.26,0.20
36.039062,0.32472306,-0.2617346,-0.094588436,0.2,1.53,0.28,32664,10191.80,95,0,3,22.47,-22.89,-9.94,0.20,1.53,0.28
35.039062,0.13972309,-0.2597346,-0.16758844,0.13,1.94,0.41,32671,10190.80,95,0,3,9.52,-22.75,-15.05,0.13,1.94,0.41
33.739258,-0.096276924,-0.2627346,-0.24358845,0.06,2.26,0.48,32686,10189.50,95,0,3,-7.00,-22.96,-20.37,0.06,2.26,0.48
30.639648,-0.24827692,-0.118734606,-0.08658845,0.19,2.28,0.44,32709,10186.40,95,0,3,-17.64,-12.88,-9.38,0.19,2.28,0.44
32.039062,-0.25927693,-0.031734608,0.33841157,0.3,2.26,0.4,32731,10187.80,95,0,3,-18.41,-6.79,20.37,0.30,2.26,0.40
34.338867,-0.2802769,0.06826539,0.5874115,0.32,2.01,0.32,32746,10190.10,95,0,3,-19.88,0.21,37.80,0.32,2.01,0.32
34.039062,-0.3582769,0.12626539,0.60341156,0.28,1.55,0.25,32768,10189.80,95,0,3,-25.34,4.27,38.92,0.28,1.55,0.25
36.039062,-0.3992769,0.095265396,0.56341153,0.2,1.01,0.22,32791,10191.80,95,0,3,-28.21,2.10,36.12,0.20,1.01,0.22
39.739258,-0.39427692,0.11826539,0.52941155,0.1,0.56,0.2,32814,10195.50,95,0,3,-27.86,3.71,33.74,0.10,0.56,0.20
40.838867,-0.31327692,0.20726538,0.46441156,0.02,0.17,0.14,32837,10196.60,95,0,3,-22.19,9.94,29.19,0.02,0.17,0.14
39.739258,-0.14027691,0.2632654,0.36141154,-0.1,0.16,0.06,32859,10195.50,95,0,3,-10.08,13.86,21.98,-0.10,0.16,0.06
38.13965,0.11472309,0.34126538,0.13341156,-0.18,0.22,0.02,32881,10193.90,95,0,3,7.77,19.32,6.02,-0.18,0.22,0.02
37.439453,0.2857231,0.3952654,-0.035588443,-0.18,0.11,0.04,32896,10193.20,95,0,3,19.74,23.10,-5.81,-0.18,0.11,0.04
37.039062,0.39972308,0.43026537,-0.15758845,-0.15,0.0,0.06,32912,10192.80,95,0,3,27.72,25.55,-14.35,-0.15,0.00,0.06
37.039062,0.47872308,0.4352654,-0.23858845,-0.13,-0.04,0.11,32934,10192.80,95,0,3,33.25,25.90,-20.02,-0.13,-0.04,0.11
38.13965,0.4977231,0.4132654,-0.30458844,-0.12,0.12,0.16,32941,10193.90,95,0,3,34.58,24.36,-24.64,-0.12,0.12,0.16
41.439453,0.46072307,0.2982654,-0.38258845,-0.09,0.84,0.23,32971,10197.20,95,0,3,31.99,16.31,-30.10,-0.09,0.84,0.23
39.13965,0.42272308,0.1942654,-0.48158842,0.04,1.25,0.32,32986,10194.90,95,0,3,29.33,9.03,-37.03,0.04,1.25,0.32
39.439453,0.44972306,0.19926539,-0.2555884,0.16,1.4,0.32,33009,10195.20,95,0,3,31.22,9.38,-21.21,0.16,1.40,0.32
40.439453,0.5307231,0.13226539,0.004411552,0.18,1.77,0.36,33031,10196.20,95,0,3,36.89,4.69,-3.01,0.18,1.77,0.36
39.13965,0.37972307,0.021265395,0.13041155,0.16,2.16,0.44,33054,10194.90,95,0,3,26.32,-3.08,5.81,0.16,2.16,0.44
36.439453,0.106723085,-0.006734602,0.15441155,0.1,2.16,0.46,33076,10192.20,95,0,3,7.21,-5.04,7.49,0.10,2.16,0.46
38.039062,-0.14027691,0.014265396,0.092411555,0.1,2.02,0.42,33099,10193.80,95,0,3,-10.08,-3.57,3.15,0.10,2.02,0.42
43.539062,-0.3252769,0.06726539,0.10541155,0.14,1.72,0.39,33114,10199.30,95,0,3,-23.03,0.14,4.06,0.14,1.72,0.39
46.539062,-0.4602769,0.080265395,0.21641156,0.18,1.27,0.31,33136,10202.30,95,0,3,-32.48,1.05,11.83,0.18,1.27,0.31
49.239258,-0.4712769,0.10426539,0.34241155,0.2,0.87,0.2,33166,10205.00,95,0,3,-33.25,2.73,20.65,0.20,0.87,0.20
53.338867,-0.41727692,0.1312654,0.41741157,0.17,0.47,0.12,33174,10209.10,95,0,3,-29.47,4.62,25.90,0.17,0.47,0.12
56.338867,-0.32727692,0.14826539,0.42341155,0.13,0.16,0.08,33196,10212.10,95,0,3,-23.17,5.81,26.32,0.13,0.16,0.08
57.338867,-0.24827692,0.1002654,0.32241157,0.08,0.04,0.02,33217,10213.10,95,0,3,-17.64,2.45,19.25,0.08,0.04,0.02
55.338867,-0.18327692,0.028265394,0.13141155,0.01,0.16,-0.05,33234,10211.10,95,0,3,-13.09,-2.59,5.88,0.01,0.16,-0.05
51.63965,-0.05127692,-0.013734609,-0.089588456,0.0,0.12,-0.09,33256,10207.40,95,0,3,-3.85,-5.53,-9.59,0.00,0.12,-0.09
47.539062,0.09272309,-0.042734608,-0.25358844,0.04,-0.02,-0.08,33272,10203.30,95,0,3,6.23,-7.56,-21.07,0.04,-0.02,-0.08
42.13965,0.22272308,-0.081734605,-0.32658845,0.08,-0.04,-0.08,33295,10197.90,95,0,3,15.33,-10.29,-26.18,0.08,-0.04,-0.08
48.239258,0.32472306,-0.13773459,-0.31558844,0.13,0.19,0.0,33317,10204.00,95,0,3,22.47,-14.21,-25.41,0.13,0.19,0.00
50.939453,0.39372307,-0.23073462,-0.30158845,0.11,0.9,0.04,33339,10206.70,95,0,3,27.30,-20.72,-24.43,0.11,0.90,0.04
45.539062,0.5157231,-0.2037346,-0.18958846,0.3,1.2,0.18,33361,10201.30,95,0,3,35.84,-18.83,-16.59,0.30,1.20,0.18
41.439453,0.38772306,-0.17473459,-0.02058845,0.24,1.51,0.37,33392,10197.20,95,0,3,26.88,-16.80,-4.76,0.24,1.51,0.37
36.039062,0.035723083,-0.21273461,-0.08758844,0.12,1.99,0.44,33407,10191.80,95,0,3,2.24,-19.46,-9.45,0.12,1.99,0.44
30.338867,-0.14727691,-0.2777346,-0.13958845,0.1,2.52,0.36,33421,10186.10,95,0,3,-10.57,-24.01,-13.09,0.10,2.52,0.36
25.239258,-0.1752769,-0.25373462,-0.051588446,0.21,2.6,0.34,33444,10181.00,95,0,3,-12.53,-22.33,-6.93,0.21,2.60,0.34
19.139648,-0.084276915,-0.19173461,0.28841156,0.28,2.31,0.35,33460,10174.90,95,0,3,-6.16,-17.99,16.87,0.28,2.31,0.35
16.439453,-0.03927692,-0.033734605,0.50541157,0.21,2.0,0.29,33482,10172.20,95,0,3,-3.01,-6.93,32.06,0.21,2.00,0.29
9.0390625,-0.11727692,0.14126539,0.5604116,0.17,1.45,0.25,33519,10164.80,95,0,3,-8.47,5.32,35.91,0.17,1.45,0.25
2.9394531,-0.22127691,0.20626539,0.5674116,0.12,0.89,0.21,33527,10158.70,95,0,3,-15.75,9.87,36.40,0.12,0.89,0.21
2.9394531,-0.31927693,0.2592654,0.50641155,0.05,0.29,0.16,33542,10158.70,95,0,3,-22.61,13.58,32.13,0.05,0.29,0.16
3.9394531,-0.3352769,0.24826542,0.36541155,-0.04,0.05,0.08,33564,10159.70,95,0,3,-23.73,12.81,22.26,-0.04,0.05,0.08
5.6396484,-0.24427693,0.2152654,0.18841156,-0.08,0.08,0.02,33586,10161.40,95,0,3,-17.36,10.50,9.87,-0.08,0.08,0.02
7.0390625,-0.077276915,0.19726539,0.061411552,-0.09,0.12,-0.0,33631,10162.80,95,0,3,-5.67,9.24,0.98,-0.09,0.12,-0.00
7.6396484,0.091723084,0.2192654,0.029411554,-0.06,-0.02,0.07,33632,10163.40,95,0,3,6.16,10.78,-1.26,-0.06,-0.02,0.07
8.0390625,0.14672309,0.2352654,0.047411554,-0.03,-0.09,0.14,33646,10163.80,95,0,3,10.01,11.90,0.00,-0.03,-0.09,0.14
7.0390625,0.108723074,0.2732654,0.12341156,0.01,-0.17,0.25,33662,10162.80,95,0,3,7.35,14.56,5.32,0.01,-0.17,0.25
9.338867,-0.019276919,0.30426538,0.26841155,0.04,-0.17,0.32,33677,10165.10,95,0,3,-1.61,16.73,15.47,0.04,-0.17,0.32
9.739258,-0.20227692,0.3152654,0.46241155,0.01,0.23,0.38,33700,10165.50,95,0,3,-14.42,17.50,29.05,0.01,0.23,0.38
11.439453,-0.4042769,0.28826538,0.67241156,0.01,1.1,0.4,33722,10167.20,95,0,3,-28.56,15.61,43.75,0.01,1.10,0.40
4.939453,-0.4722769,0.3402654,0.8914116,0.27,1.46,0.4,33736,10160.70,95,0,3,-33.32,19.25,59.08,0.27,1.46,0.40
5.338867,-0.33127692,0.35526538,1.2234116,0.41,1.89,0.36,33759,10161.10,95,0,3,-23.45,20.30,82.32,0.41,1.89,0.36
3.2392578,-0.3482769,0.29026538,1.3084115,0.38,2.22,0.65,33782,10159.00,95,0,3,-24.64,15.75,88.27,0.38,2.22,0.65
0.23925781,-0.7852769,0.3442654,1.1564115,0.32,2.09,0.81,33804,10156.00,0,0,3,-55.23,19.53,77.63,0.32,2.09,0.81
-0.7607422,-1.1042769,0.45526537,0.9814115,0.36,2.13,0.7,33826,10155.00,0,0,3,-77.56,27.30,65.38,0.36,2.13,0.70
2.2392578,-1.1942769,0.5882654,0.9934116,0.5,1.64,0.62,33848,10158.00,0,0,3,-83.86,36.61,66.22,0.50,1.64,0.62
1.9394531,-1.226277,0.53526545,1.2334116,0.49,1.21,0.5,33871,10157.70,0,0,3,-86.10,32.90,83.02,0.49,1.21,0.50
1.9394531,-1.182277,0.4842654,1.3784115,0.4,0.74,0.34,33886,10157.70,0,0,3,-83.02,29.33,93.17,0.40,0.74,0.34
7.338867,-1.1072769,0.4652654,1.3324115,0.32,0.37,0.19,33917,10163.10,0,0,3,-77.77,28.00,89.95,0.32,0.37,0.19
7.0390625,-1.0082769,0.4322654,1.2084115,0.25,0.11,0.11,33924,10162.80,0,0,3,-70.84,25.69,81.27,0.25,0.11,0.11
19.539062,-0.9272769,0.3442654,1.0244116,0.18,0.16,0.05,33938,10175.30,0,0,3,-65.17,19.53,68.39,0.18,0.16,0.05
23.539062,-0.7692769,0.2652654,0.71941155,0.12,0.21,-0.02,33961,10179.30,0,0,3,-54.11,14.00,47.04,0.12,0.21,-0.02
28.639648,-0.56827694,0.19926539,0.45641154,0.1,0.17,-0.04,33984,10184.40,0,0,3,-40.04,9.38,28.63,0.10,0.17,-0.04
35.739258,-0.35927692,0.073265396,0.29741156,0.18,0.09,0.01,34007,10191.50,0,0,3,-25.41,0.56,17.50,0.18,0.09,0.01
39.739258,-0.31327692,0.057265393,0.117411554,0.23,0.01,0.09,34029,10195.50,0,0,3,-22.19,-0.56,4.90,0.23,0.01,0.09
46.239258,-0.22127691,-0.0417346,-0.120588444,0.25,0.02,0.11,34044,10202.00,0,0,3,-15.75,-7.49,-11.76,0.25,0.02,0.11
51.939453,0.053723082,-0.24173462,-0.46258843,0.36,0.79,0.31,34066,10207.70,0,0,3,3.50,-21.49,-35.70,0.36,0.79,0.31
52.239258,0.25472307,-0.20773461,-0.31658843,0.63,0.98,0.61,34089,10208.00,0,0,3,17.57,-19.11,-25.48,0.63,0.98,0.61
53.939453,0.26772308,-0.1717346,-0.32258844,0.6,1.2,0.81,34111,10209.70,0,0,3,18.48,-16.59,-25.90,0.60,1.20,0.81
52.939453,0.15372309,-0.16173461,-0.35058844,0.61,1.53,1.01,34134,10208.70,0,0,3,10.50,-15.89,-27.86,0.61,1.53,1.01
51.939453,-0.017276919,-0.1597346,-0.29458845,0.72,1.82,1.05,34149,10207.70,0,0,3,-1.47,-15.75,-23.94,0.72,1.82,1.05
52.239258,-0.10127692,-0.1367346,-0.11758845,0.86,1.85,1.04,34164,10208.00,0,0,3,-7.35,-14.14,-11.55,0.86,1.85,1.04
47.838867,-0.21327691,-0.1997346,0.17441157,0.93,1.83,1.05,34179,10203.60,0,0,3,-15.19,-18.55,8.89,0.93,1.83,1.05
47.838867,-0.3762769,-0.20073462,0.45741156,0.96,1.69,1.05,34194,10203.60,0,0,3,-26.60,-18.62,28.70,0.96,1.69,1.05
52.939453,-0.5362769,-0.026734605,0.7084116,0.79,1.45,0.82,34224,10208.70,0,0,3,-37.80,-6.44,46.27,0.79,1.45,0.82
46.239258,-0.4772769,0.105265394,0.7814116,0.56,1.08,0.6,34239,10202.00,0,0,3,-33.67,2.80,51.38,0.56,1.08,0.60
46.838867,-0.37527692,0.19226539,0.6904115,0.33,0.59,0.45,34268,10202.60,0,0,3,-26.53,8.89,45.01,0.33,0.59,0.45
50.239258,-0.30627692,0.22726539,0.5414116,0.17,0.2,0.25,34291,10206.00,0,0,3,-21.70,11.34,34.58,0.17,0.20,0.25
48.939453,-0.13427691,0.23926541,0.37741157,0.1,0.16,0.14,34306,10204.70,0,0,3,-9.66,12.18,23.10,0.10,0.16,0.14
47.838867,0.055723082,0.26226538,0.24141157,0.06,0.17,0.09,34329,10203.60,0,0,3,3.64,13.79,13.58,0.06,0.17,0.09
41.838867,0.20272309,0.2832654,0.110411555,0.03,0.04,0.1,34351,10197.60,0,0,3,13.93,15.26,4.41,0.03,0.04,0.10
44.13965,0.24172308,0.2862654,-0.046588443,0.05,-0.08,0.16,34374,10199.90,0,0,3,16.66,15.47,-6.58,0.05,-0.08,0.16
45.539062,0.23472309,0.26226538,-0.13558847,0.12,-0.07,0.24,34388,10201.30,0,0,3,16.17,13.79,-12.81,0.12,-0.07,0.24
46.239258,0.2647231,0.21126539,-0.23258844,0.14,0.13,0.27,34412,10202.00,0,0,3,18.27,10.22,-19.60,0.14,0.13,0.27
48.239258,0.4017231,0.07126539,-0.39158842,0.21,0.7,0.36,34428,10204.00,0,0,3,27.86,0.42,-30.73,0.21,0.70,0.36
46.539062,0.5447231,-0.0037346035,-0.5605885,0.31,0.99,0.5,34442,10202.30,0,0,3,37.87,-4.83,-42.56,0.31,0.99,0.50
45.13965,0.75972307,-0.006734602,-0.5805884,0.43,1.29,0.77,34464,10200.90,0,0,3,52.92,-5.04,-43.96,0.43,1.29,0.77
46.239258,0.80672306,0.0072653964,-0.52658844,0.58,1.22,0.94,34486,10202.00,0,0,3,56.21,-4.06,-40.18,0.58,1.22,0.94
45.13965,0.5597231,-0.07573461,-0.35458842,0.63,1.66,1.09,34516,10200.90,0,0,3,38.92,-9.87,-28.14,0.63,1.66,1.09
42.13965,0.3037231,0.0022653937,-0.20758843,0.56,1.78,1.11,34523,10197.90,0,0,3,21.00,-4.41,-17.85,0.56,1.78,1.11
36.039062,0.04572308,0.1142654,-0.13658845,0.58,1.72,1.09,34546,10191.80,0,0,3,2.94,3.43,-12.88,0.58,1.72,1.09
44.539062,-0.3052769,0.2312654,-0.04958845,0.66,1.41,0.93,34576,10200.30,0,0,3,-21.63,11.62,-6.79,0.66,1.41,0.93
41.838867,-0.50427693,0.1782654,0.106411554,0.6,1.08,0.67,34591,10197.60,0,0,3,-35.56,7.91,4.13,0.60,1.08,0.67
42.13965,-0.5122769,0.013265394,0.20641154,0.46,0.72,0.44,34621,10197.90,0,0,3,-36.12,-3.64,11.13,0.46,0.72,0.44
43.13965,-0.36627692,-0.0797346,0.11541156,0.31,0.29,0.24,34636,10198.90,95,0,3,-25.90,-10.15,4.76,0.31,0.29,0.24
43.13965,-0.20927691,-0.1397346,-0.03458844,0.22,0.13,0.16,34659,10198.90,95,0,3,-14.91,-14.35,-5.74,0.22,0.13,0.16
39.739258,-0.07627691,-0.20173463,-0.21358845,0.19,0.18,0.11,34674,10195.50,95,0,3,-5.60,-18.69,-18.27,0.19,0.18,0.11
