Pressure_Rel,GyroX_Rel,GyroY_Rel,GyroZ_Rel,AccX_Rel,AccY_Rel,AccZ_Rel,Timestamp,Pressure_abs,HeartRate,Oxygen,Status,GyroX,GyroY,GyroZ,AccX,AccY,AccZ
0,0,0,0,0,0,0,3207,10095.9,0,0,0,9.03,0.49,1.19,0.68,0.32,0.69
0,0,0,0,0,0,0,3222,10095.9,0,0,0,6.72,-0.56,0.56,0.68,0.33,0.69
0,0,0,0,0,0,0,3237,10094.9,0,0,0,-0.14,-1.05,0.56,0.68,0.34,0.68
0,0,0,0,0,0,0,3252,10089.9,0,0,0,-2.38,0,1.4,0.68,0.35,0.69
0,0,0,0,0,0,0,3266,10095.9,0,0,0,-3.08,-0.98,1.12,0.68,0.35,0.69
0,0,0,0,0,0,0,3290,10095.9,0,0,0,-1.68,-1.82,3.22,0.67,0.34,0.67
0,0,0,0,0,0,0,3305,10094.9,0,0,0,-2.31,-0.77,3.36,0.68,0.33,0.68
0,0,0,0,0,0,0,3319,10095.9,0,0,0,-1.12,-0.42,3.22,0.68,0.33,0.68
0,0,0,0,0,0,0,3334,10098.9,0,0,0,0.49,-0.35,1.54,0.69,0.32,0.69
0,0,0,0,0,0,0,3348,10094.6,0,0,0,2.87,0,0.7,0.69,0.33,0.69
0,0,0,0,0,0,0,3364,10094.9,0,0,0,3.57,0.35,-0.42,0.7,0.34,0.71
0,0,0,0,0,0,0,3379,10095.9,0,0,0,-1.05,-2.38,0.28,0.69,0.35,0.7
0,0,0,0,0,0,0,3401,10094.9,0,0,0,-1.19,-0.98,1.47,0.69,0.34,0.68
0,0,0,0,0,0,0,3416,10095.9,0,0,0,2.8,-0.21,1.19,0.68,0.35,0.69
0,0,0,0,0,0,0,3432,10096.9,0,0,0,3.15,-2.73,1.4,0.68,0.34,0.7
0,0,0,0,0,0,0,3446,10095.9,0,0,0,1.05,-2.94,2.73,0.68,0.35,0.68
0,0,0,0,0,0,0,3462,10095.6,0,0,0,-1.33,-1.54,2.59,0.7,0.33,0.69
0,0,0,0,0,0,0,3476,10095.6,0,0,0,-3.22,-2.45,1.26,0.69,0.32,0.69
0,0,0,0,0,0,0,3498,10095.9,0,0,0,-2.24,-2.59,0.77,0.69,0.33,0.69
0,0,0,0,0,0,0,3513,10095.9,0,0,0,-0.28,-3.29,1.75,0.68,0.34,0.69
0,0,0,0,0,0,0,3528,10095.9,0,0,0,0.35,-4.06,3.01,0.68,0.32,0.68
0,0,0,0,0,0,0,3544,10094.9,0,0,0,1.33,-2.1,1.05,0.67,0.33,0.66
0,0,0,0,0,0,0,3559,10095.9,0,0,0,6.16,-2.03,0.28,0.68,0.33,0.67
0,0,0,0,0,0,0,3574,10095.9,0,0,0,7.98,-1.47,-0.63,0.68,0.33,0.69
0,0,0,0,0,0,0,3588,10095.9,0,0,0,3.01,-2.94,0.63,0.68,0.33,0.68
2.0664062,-0.08102544,0.0060690828,0.04827819,0.29,0.9,0.37,13607,10098.6,0,0,1,-2.94,-2.03,0.14,0.29,0.9,0.37
3.0664062,-0.080025434,0.0030690804,0.04527819,0.29,0.9,0.37,13623,10099.6,0,0,1,-2.87,-2.24,-0.07,0.29,0.9,0.37
3.0664062,-0.07902543,0.0030690804,0.04027819,0.29,0.9,0.37,13638,10099.6,0,0,1,-2.8,-2.24,-0.42,0.29,0.9,0.37
2.0664062,-0.07802544,0.0050690826,0.032278188,0.29,0.9,0.37,13660,10098.6,0,0,1,-2.73,-2.1,-0.98,0.29,0.9,0.37
2.0664062,-0.07502544,0.012069082,0.03127819,0.29,0.89,0.37,13683,10098.6,0,0,1,-2.52,-1.61,-1.05,0.29,0.89,0.37
2.0664062,-0.07102544,0.012069082,0.02827819,0.29,0.89,0.37,13698,10098.6,0,0,1,-2.24,-1.61,-1.26,0.29,0.89,0.37
2.0664062,-0.06802544,0.008069081,0.03027819,0.29,0.89,0.37,13720,10098.6,0,0,1,-2.03,-1.89,-1.12,0.29,0.89,0.37
3.0664062,-0.066025436,0.0050690826,0.03127819,0.28,0.89,0.37,13743,10099.6,0,0,1,-1.89,-2.1,-1.05,0.28,0.89,0.37
3.0664062,-0.07202543,0.009069081,0.04127819,0.29,0.89,0.37,13765,10099.6,0,0,1,-2.31,-1.82,-0.35,0.29,0.89,0.37
2.3671875,-0.07702544,0.0060690828,0.04527819,0.29,0.89,0.37,13790,10098.9,0,0,1,-2.66,-2.03,-0.07,0.29,0.89,0.37
3.0664062,-0.07802544,0.0050690826,0.05327819,0.28,0.89,0.37,13818,10099.6,0,0,1,-2.73,-2.1,0.49,0.28,0.89,0.37
3.0664062,-0.07702544,0.009069081,0.06127819,0.28,0.89,0.37,13825,10099.6,0,0,1,-2.66,-1.82,1.05,0.28,0.89,0.37
4.0664062,-0.07702544,0.0050690826,0.06127819,0.28,0.89,0.37,13840,10100.6,0,0,1,-2.66,-2.1,1.05,0.28,0.89,0.37
3.0664062,-0.07202543,0.0050690826,0.058278188,0.28,0.9,0.37,13855,10099.6,0,0,1,-2.31,-2.1,0.84,0.28,0.9,0.37
5.0664062,-0.06402544,0.0030690804,0.05327819,0.28,0.9,0.37,13878,10101.6,0,0,1,-1.75,-2.24,0.49,0.28,0.9,0.37
-1.9335938,-0.06402544,-0.0069309175,0.05127819,0.29,0.9,0.37,13893,10094.6,0,0,1,-1.75,-2.94,0.35,0.29,0.9,0.37
3.0664062,-0.06002544,-0.014930919,0.04927819,0.29,0.89,0.37,13916,10099.6,0,0,1,-1.47,-3.5,0.21,0.29,0.89,0.37
4.0664062,-0.07002544,-0.014930919,0.07027819,0.29,0.89,0.38,13938,10100.6,0,0,1,-2.17,-3.5,1.68,0.29,0.89,0.38
3.0664062,-0.066025436,-0.015930917,0.07827819,0.29,0.9,0.37,13961,10099.6,0,0,1,-1.89,-3.57,2.24,0.29,0.9,0.37
5.0664062,-0.056025438,-0.0079309195,0.07227819,0.28,0.9,0.37,13975,10101.6,0,0,1,-1.19,-3.01,1.82,0.28,0.9,0.37
4.466797,-0.050025437,0.007069081,0.060278192,0.28,0.9,0.38,14005,10101,0,0,1,-0.77,-1.96,0.98,0.28,0.9,0.38
4.466797,-0.050025437,0.015069082,0.05327819,0.29,0.89,0.37,14028,10101,0,0,1,-0.77,-1.4,0.49,0.29,0.89,0.37
4.0664062,-0.04902544,0.01606908,0.060278192,0.29,0.89,0.37,14043,10100.6,0,0,1,-0.7,-1.33,0.98,0.29,0.89,0.37
4.466797,-0.048025437,0.013069082,0.058278188,0.29,0.89,0.37,14057,10101,0,0,1,-0.63,-1.54,0.84,0.29,0.89,0.37
4.0664062,-0.054025438,0.012069082,0.05627819,0.28,0.9,0.37,14081,10100.6,0,0,1,-1.05,-1.61,0.7,0.28,0.9,0.37
2.3671875,-0.054025438,0.015069082,0.05227819,0.28,0.89,0.38,14088,10098.9,0,0,1,-1.05,-1.4,0.42,0.28,0.89,0.38
5.466797,-0.06402544,0.022069082,0.05327819,0.29,0.88,0.38,14111,10102,0,0,1,-1.75,-0.91,0.49,0.29,0.88,0.38
5.7666016,-0.07102544,0.024069082,0.064278185,0.29,0.89,0.38,14126,10102.3,0,0,1,-2.24,-0.77,1.26,0.29,0.89,0.38
1.3671875,-0.07102544,0.024069082,0.08027819,0.29,0.89,0.38,14141,10097.9,0,0,1,-2.24,-0.77,2.38,0.29,0.89,0.38
5.466797,-0.061025437,0.021069082,0.086278185,0.29,0.89,0.37,14163,10102,0,0,1,-1.54,-0.98,2.8,0.29,0.89,0.37
5.466797,-0.059025437,0.014069082,0.07527819,0.29,0.9,0.37,14190,10102,0,0,1,-1.4,-1.47,2.03,0.29,0.9,0.37
6.466797,-0.055025436,0.012069082,0.07427819,0.29,0.89,0.37,14208,10103,0,0,1,-1.12,-1.61,1.96,0.29,0.89,0.37
2.0664062,-0.046025436,0.015069082,0.07527819,0.29,0.89,0.38,14224,10098.6,0,0,1,-0.49,-1.4,2.03,0.29,0.89,0.38
5.466797,-0.043025438,0.008069081,0.079278186,0.29,0.9,0.38,14245,10102,0,0,1,-0.28,-1.89,2.31,0.29,0.9,0.38
5.466797,-0.040025435,0.0050690826,0.084278196,0.3,0.89,0.38,14268,10102,0,0,1,-0.07,-2.1,2.66,0.3,0.89,0.38
6.466797,-0.040025435,0.0050690826,0.086278185,0.3,0.89,0.38,14290,10103,0,0,1,-0.07,-2.1,2.8,0.3,0.89,0.38
6.466797,-0.041025437,0.008069081,0.084278196,0.29,0.89,0.38,14313,10103,0,0,1,-0.14,-1.89,2.66,0.29,0.89,0.38
7.466797,-0.042025436,0.010069082,0.07827819,0.29,0.89,0.38,14327,10104,0,0,1,-0.21,-1.75,2.24,0.29,0.89,0.38
7.7666016,-0.043025438,0.012069082,0.06927819,0.29,0.89,0.38,14342,10104.3,0,0,1,-0.28,-1.61,1.61,0.29,0.89,0.38
6.466797,-0.040025435,0.019069081,0.06827819,0.29,0.89,0.38,14358,10103,0,0,1,-0.07,-1.12,1.54,0.29,0.89,0.38
8.466797,-0.041025437,0.019069081,0.06827819,0.3,0.89,0.38,14380,10105,0,0,1,-0.14,-1.12,1.54,0.3,0.89,0.38
9.466797,-0.043025438,0.017069083,0.07027819,0.3,0.89,0.38,14396,10106,0,0,1,-0.28,-1.26,1.68,0.3,0.89,0.38
9.466797,-0.042025436,0.018069081,0.07427819,0.3,0.89,0.37,14410,10106,0,0,1,-0.21,-1.19,1.96,0.3,0.89,0.37
3.3671875,-0.041025437,0.019069081,0.07127819,0.3,0.89,0.37,14433,10099.9,0,0,1,-0.14,-1.12,1.75,0.3,0.89,0.37
14.466797,-0.044025436,0.015069082,0.07027819,0.3,0.88,0.37,14455,10111,0,0,1,-0.35,-1.4,1.68,0.3,0.88,0.37
10.466797,-0.04702544,0.007069081,0.06827819,0.3,0.88,0.37,14478,10107,0,0,1,-0.56,-1.96,1.54,0.3,0.88,0.37
10.766602,-0.046025436,0.002069082,0.07127819,0.3,0.88,0.38,14500,10107.3,0,0,1,-0.49,-2.31,1.75,0.3,0.88,0.38
12.766602,-0.04702544,0.0050690826,0.07327819,0.3,0.89,0.38,14523,10109.3,0,0,1,-0.56,-2.1,1.89,0.3,0.89,0.38
13.466797,-0.041025437,0.012069082,0.06727819,0.29,0.9,0.38,14545,10110,0,0,1,-0.14,-1.61,1.47,0.29,0.9,0.38
13.466797,-0.03602544,0.015069082,0.064278185,0.29,0.9,0.37,14560,10110,0,0,1,0.21,-1.4,1.26,0.29,0.9,0.37
14.8671875,-0.029025437,0.014069082,0.05927819,0.3,0.88,0.38,14575,10111.4,0,0,1,0.7,-1.47,0.91,0.3,0.88,0.38
15.466797,-0.032025438,0.007069081,0.06627819,0.31,0.88,0.38,14590,10112,0,0,1,0.49,-1.96,1.4,0.31,0.88,0.38
15.466797,-0.03802544,0.0040690806,0.08727819,0.31,0.89,0.38,14612,10112,0,0,1,0.07,-2.17,2.87,0.31,0.89,0.38
16.466797,-0.039025437,6.908178e-05,0.09427819,0.3,0.9,0.38,14627,10113,0,0,1,0,-2.45,3.36,0.3,0.9,0.38
15.8671875,-0.030025437,0.0010690801,0.09227819,0.3,0.9,0.37,14642,10112.4,0,0,1,0.63,-2.38,3.22,0.3,0.9,0.37
15.8671875,-0.020025436,0.0060690828,0.084278196,0.3,0.9,0.37,14665,10112.4,0,0,1,1.33,-2.03,2.66,0.3,0.9,0.37
15.466797,-0.016025437,0.010069082,0.06727819,0.3,0.89,0.37,14680,10112,0,0,1,1.61,-1.75,1.47,0.3,0.89,0.37
16.466797,-0.020025436,0.010069082,0.05727819,0.3,0.89,0.37,14704,10113,0,0,1,1.33,-1.75,0.77,0.3,0.89,0.37
17.566406,-0.025025437,0.010069082,0.06327819,0.3,0.89,0.37,14725,10114.1,0,0,1,0.98,-1.75,1.19,0.3,0.89,0.37
17.867188,-0.029025437,0.009069081,0.06927819,0.3,0.89,0.37,14740,10114.4,0,0,1,0.7,-1.82,1.61,0.3,0.89,0.37
17.566406,-0.029025437,0.0040690806,0.058278188,0.3,0.89,0.37,14762,10114.1,0,0,1,0.7,-2.17,0.84,0.3,0.89,0.37
17.566406,-0.035025436,-0.0029309206,0.05527819,0.31,0.89,0.37,14785,10114.1,0,0,1,0.28,-2.66,0.63,0.31,0.89,0.37
16.466797,-0.043025438,-0.0019309185,0.06227819,0.3,0.88,0.38,14808,10113,0,0,1,-0.28,-2.59,1.12,0.3,0.88,0.38
16.466797,-0.044025436,0.0030690804,0.07227819,0.3,0.89,0.37,14825,10113,0,0,1,-0.35,-2.24,1.82,0.3,0.89,0.37
18.166992,-0.044025436,0.0040690806,0.06727819,0.3,0.89,0.38,14838,10114.7,0,0,1,-0.35,-2.17,1.47,0.3,0.89,0.38
17.867188,-0.03602544,0.0030690804,0.064278185,0.3,0.9,0.37,14860,10114.4,0,0,1,0.21,-2.24,1.26,0.3,0.9,0.37
16.867188,-0.031025436,0.009069081,0.058278188,0.3,0.9,0.37,14876,10113.4,0,0,1,0.56,-1.82,0.84,0.3,0.9,0.37
17.867188,-0.030025437,0.010069082,0.05027819,0.3,0.89,0.37,14891,10114.4,0,0,1,0.63,-1.75,0.28,0.3,0.89,0.37
15.8671875,-0.031025436,0.010069082,0.05027819,0.3,0.89,0.37,14913,10112.4,0,0,1,0.56,-1.75,0.28,0.3,0.89,0.37
17.867188,-0.035025436,0.011069084,0.05227819,0.3,0.89,0.37,14935,10114.4,0,0,1,0.28,-1.68,0.42,0.3,0.89,0.37
17.867188,-0.03802544,0.010069082,0.060278192,0.3,0.89,0.37,14958,10114.4,0,0,1,0.07,-1.75,0.98,0.3,0.89,0.37
16.867188,-0.042025436,0.011069084,0.06127819,0.3,0.89,0.37,14973,10113.4,0,0,1,-0.21,-1.68,1.05,0.3,0.89,0.37
18.867188,-0.039025437,0.012069082,0.05527819,0.3,0.9,0.37,14994,10115.4,0,0,1,0,-1.61,0.63,0.3,0.9,0.37
16.867188,-0.03602544,0.015069082,0.04927819,0.3,0.9,0.37,15017,10113.4,0,0,1,0.21,-1.4,0.21,0.3,0.9,0.37
17.566406,-0.033025436,0.018069081,0.04627819,0.3,0.89,0.37,15041,10114.1,0,0,1,0.42,-1.19,0,0.3,0.89,0.37
18.166992,-0.033025436,0.017069083,0.04827819,0.3,0.89,0.37,15063,10114.7,0,0,1,0.42,-1.26,0.14,0.3,0.89,0.37
16.867188,-0.033025436,0.01606908,0.04127819,0.3,0.89,0.37,15077,10113.4,0,0,1,0.42,-1.33,-0.35,0.3,0.89,0.37
17.166992,-0.037025437,0.014069082,0.03327819,0.3,0.89,0.37,15092,10113.7,0,0,1,0.14,-1.47,-0.91,0.3,0.89,0.37
19.867188,-0.03802544,0.015069082,0.03027819,0.3,0.89,0.36,15107,10116.4,0,0,1,0.07,-1.4,-1.12,0.3,0.89,0.36
16.867188,-0.03802544,0.013069082,0.03027819,0.3,0.89,0.37,15130,10113.4,0,0,1,0.07,-1.54,-1.12,0.3,0.89,0.37
17.867188,-0.044025436,0.011069084,0.032278188,0.3,0.88,0.37,15145,10114.4,0,0,1,-0.35,-1.68,-0.98,0.3,0.88,0.37
17.867188,-0.054025438,0.012069082,0.04327819,0.29,0.89,0.37,15168,10114.4,0,0,1,-1.05,-1.61,-0.21,0.29,0.89,0.37
19.867188,-0.06002544,0.015069082,0.05527819,0.29,0.89,0.37,15183,10116.4,0,0,1,-1.47,-1.4,0.63,0.29,0.89,0.37
15.8671875,-0.05802544,0.017069083,0.04927819,0.29,0.9,0.37,15206,10112.4,0,0,1,-1.33,-1.26,0.21,0.29,0.9,0.37
17.566406,-0.056025438,0.022069082,0.03827819,0.29,0.89,0.37,15235,10114.1,0,0,1,-1.19,-0.91,-0.56,0.29,0.89,0.37
16.466797,-0.05802544,0.024069082,0.04027819,0.29,0.89,0.37,15250,10113,0,0,1,-1.33,-0.77,-0.42,0.29,0.89,0.37
13.8671875,-0.05802544,0.024069082,0.04527819,0.29,0.89,0.37,15272,10110.4,0,0,1,-1.33,-0.77,-0.07,0.29,0.89,0.37
17.867188,-0.05302544,0.020069081,0.04827819,0.29,0.9,0.37,15295,10114.4,0,0,1,-0.98,-1.05,0.14,0.29,0.9,0.37
16.867188,-0.044025436,0.023069084,0.04627819,0.29,0.9,0.37,15310,10113.4,0,0,1,-0.35,-0.84,0,0.29,0.9,0.37
17.867188,-0.03802544,0.030069083,0.04427819,0.29,0.9,0.37,15325,10114.4,0,0,1,0.07,-0.35,-0.14,0.29,0.9,0.37
19.166992,-0.03602544,0.032069083,0.04427819,0.29,0.89,0.37,15340,10115.7,0,0,1,0.21,-0.21,-0.14,0.29,0.89,0.37
16.867188,-0.03802544,0.034069084,0.04427819,0.29,0.89,0.37,15358,10113.4,0,0,1,0.07,-0.07,-0.14,0.29,0.89,0.37
17.166992,-0.03802544,0.034069084,0.05027819,0.29,0.89,0.37,15372,10113.7,0,0,1,0.07,-0.07,0.28,0.29,0.89,0.37
16.867188,-0.04702544,0.034069084,0.06127819,0.29,0.89,0.37,15392,10113.4,0,0,1,-0.56,-0.07,1.05,0.29,0.89,0.37
16.867188,-0.050025437,0.032069083,0.060278192,0.29,0.88,0.37,15408,10113.4,0,0,1,-0.77,-0.21,0.98,0.29,0.88,0.37
17.166992,-0.06002544,0.03306908,0.06327819,0.29,0.89,0.38,15435,10113.7,0,0,1,-1.47,-0.14,1.19,0.29,0.89,0.38
18.566406,-0.065025434,0.04206908,0.06727819,0.29,0.89,0.38,15452,10115.1,0,0,1,-1.82,0.49,1.47,0.29,0.89,0.38
16.867188,-0.066025436,0.04006908,0.064278185,0.29,0.89,0.37,15475,10113.4,0,0,1,-1.89,0.35,1.26,0.29,0.89,0.37
16.867188,-0.06802544,0.046069082,0.06227819,0.29,0.89,0.37,15498,10113.4,0,0,1,-2.03,0.77,1.12,0.29,0.89,0.37
16.166992,-0.06702544,0.049069084,0.06227819,0.29,0.89,0.38,15520,10112.7,0,0,1,-1.96,0.98,1.12,0.29,0.89,0.38
17.166992,-0.065025434,0.04706908,0.06327819,0.29,0.89,0.38,15542,10113.7,0,0,1,-1.82,0.84,1.19,0.29,0.89,0.38
15.8671875,-0.062025435,0.04206908,0.060278192,0.29,0.89,0.38,15557,10112.4,0,0,1,-1.61,0.49,0.98,0.29,0.89,0.38
14.8671875,-0.061025437,0.03806908,0.05527819,0.3,0.89,0.38,15573,10111.4,0,0,1,-1.54,0.21,0.63,0.3,0.89,0.38
15.166992,-0.06002544,0.039069083,0.06227819,0.29,0.89,0.38,15587,10111.7,0,0,1,-1.47,0.28,1.12,0.29,0.89,0.38
15.466797,-0.06302544,0.03806908,0.06127819,0.29,0.89,0.38,15602,10112,0,0,1,-1.68,0.21,1.05,0.29,0.89,0.38
9.166992,-0.057025436,0.03806908,0.06527819,0.29,0.89,0.38,15625,10105.7,0,0,1,-1.26,0.21,1.33,0.29,0.89,0.38
14.166992,-0.043025438,0.02706908,0.07027819,0.29,0.89,0.38,15640,10110.7,0,0,1,-0.28,-0.56,1.68,0.29,0.89,0.38
12.766602,-0.025025437,0.014069082,0.083278194,0.29,0.88,0.38,15663,10109.3,0,0,1,0.98,-1.47,2.59,0.29,0.88,0.38
12.166992,-0.014025437,0.010069082,0.098278195,0.3,0.88,0.38,15678,10108.7,0,0,1,1.75,-1.75,3.64,0.3,0.88,0.38
11.166992,-0.026025437,0.02706908,0.093278185,0.3,0.89,0.37,15700,10107.7,0,0,1,0.91,-0.56,3.29,0.3,0.89,0.37
9.166992,-0.027025439,0.04206908,0.08727819,0.3,0.88,0.38,15724,10105.7,0,0,1,0.84,0.49,2.87,0.3,0.88,0.38
6.0664062,-0.027025439,0.04206908,0.08827819,0.3,0.88,0.38,15748,10102.6,0,0,1,0.84,0.49,2.94,0.3,0.88,0.38
5.0664062,-0.032025438,0.03306908,0.09027819,0.3,0.88,0.37,15767,10101.6,0,0,3,0.49,-0.14,3.08,0.3,0.88,0.37
0.76660156,-0.040025435,0.028069083,0.09027819,0.29,0.88,0.38,15790,10097.3,0,0,3,-0.07,-0.49,3.08,0.29,0.88,0.38
0.06640625,-0.062025435,0.029069083,0.086278185,0.3,0.89,0.38,15813,10096.6,0,0,3,-1.61,-0.42,2.8,0.3,0.89,0.38
-0.93359375,-0.07002544,0.028069083,0.084278196,0.3,0.89,0.38,15828,10095.6,0,0,3,-2.17,-0.49,2.66,0.3,0.89,0.38
-3.3330078,-0.073025435,0.024069082,0.07827819,0.3,0.89,0.38,15850,10093.2,0,0,3,-2.38,-0.77,2.24,0.3,0.89,0.38
-1.9335938,-0.07602544,0.026069082,0.06727819,0.29,0.89,0.38,15858,10094.6,0,0,3,-2.59,-0.63,1.47,0.29,0.89,0.38
-2.9335938,-0.07602544,0.023069084,0.05627819,0.3,0.89,0.38,15873,10093.6,0,0,3,-2.59,-0.84,0.7,0.3,0.89,0.38
-3.9335938,-0.087025434,0.019069081,0.05727819,0.3,0.88,0.39,15896,10092.6,0,0,3,-3.36,-1.12,0.77,0.3,0.88,0.39
-2.9335938,-0.09002544,0.015069082,0.06727819,0.3,0.9,0.38,15918,10093.6,0,0,3,-3.57,-1.4,1.47,0.3,0.9,0.38
-2.6328125,-0.07102544,0.009069081,0.07027819,0.3,0.9,0.38,15941,10093.9,0,0,3,-2.24,-1.82,1.68,0.3,0.9,0.38
0.06640625,-0.061025437,0.0040690806,0.05927819,0.29,0.89,0.38,15957,10096.6,0,0,3,-1.54,-2.17,0.91,0.29,0.89,0.38
-4.6328125,-0.05302544,0.008069081,0.05127819,0.3,0.89,0.39,15985,10091.9,0,0,3,-0.98,-1.89,0.35,0.3,0.89,0.39
-2.6328125,-0.055025436,0.0010690801,0.04427819,0.29,0.89,0.38,15993,10093.9,0,0,3,-1.12,-2.38,-0.14,0.29,0.89,0.38
-1.6328125,-0.055025436,0.002069082,0.04627819,0.3,0.89,0.39,16008,10094.9,0,0,3,-1.12,-2.31,0,0.3,0.89,0.39
-1.9335938,-0.054025438,-0.0019309185,0.05027819,0.29,0.89,0.38,16031,10094.6,0,0,3,-1.05,-2.59,0.28,0.29,0.89,0.38
-0.93359375,-0.05302544,-0.0029309206,0.04827819,0.29,0.89,0.38,16045,10095.6,0,0,3,-0.98,-2.66,0.14,0.29,0.89,0.38
-1.9335938,-0.052025437,-0.0059309155,0.04127819,0.29,0.88,0.38,16060,10094.6,0,0,3,-0.91,-2.87,-0.35,0.29,0.88,0.38
-0.6328125,-0.057025436,-0.010930918,0.03927819,0.29,0.88,0.39,16083,10095.9,0,0,3,-1.26,-3.22,-0.49,0.29,0.88,0.39
-1.3330078,-0.065025434,-0.00993092,0.04227819,0.29,0.88,0.39,16090,10095.2,0,0,3,-1.82,-3.15,-0.28,0.29,0.88,0.39
0.3671875,-0.06802544,-0.010930918,0.04327819,0.29,0.89,0.39,16105,10096.9,0,0,3,-2.03,-3.22,-0.21,0.29,0.89,0.39
2.7666016,-0.07202543,-0.008930918,0.04527819,0.3,0.89,0.39,16121,10099.3,0,0,3,-2.31,-3.08,-0.07,0.3,0.89,0.39
1.0664062,-0.069025435,-0.012930915,0.04927819,0.3,0.89,0.39,16142,10097.6,0,0,3,-2.1,-3.36,0.21,0.3,0.89,0.39
2.3671875,-0.065025434,-0.011930916,0.04827819,0.29,0.88,0.39,16157,10098.9,0,0,3,-1.82,-3.29,0.14,0.29,0.88,0.39
3.3671875,-0.061025437,-0.0079309195,0.05627819,0.29,0.88,0.39,16173,10099.9,0,0,3,-1.54,-3.01,0.7,0.29,0.88,0.39
3.3671875,-0.059025437,-0.0069309175,0.05527819,0.28,0.89,0.39,16188,10099.9,0,0,3,-1.4,-2.94,0.63,0.28,0.89,0.39
2.7666016,-0.059025437,-0.004930917,0.04727819,0.28,0.89,0.39,16203,10099.3,0,0,3,-1.4,-2.8,0.07,0.28,0.89,0.39
4.0664062,-0.059025437,0.0030690804,0.04527819,0.29,0.89,0.39,16217,10100.6,0,0,3,-1.4,-2.24,-0.07,0.29,0.89,0.39
5.466797,-0.061025437,0.0010690801,0.04127819,0.29,0.89,0.39,16232,10102,0,0,3,-1.54,-2.38,-0.35,0.29,0.89,0.39
6.466797,-0.06002544,6.908178e-05,0.03827819,0.29,0.89,0.39,16255,10103,0,0,3,-1.47,-2.45,-0.56,0.29,0.89,0.39
7.466797,-0.057025436,0.0010690801,0.03927819,0.29,0.89,0.39,16270,10104,0,0,3,-1.26,-2.38,-0.49,0.29,0.89,0.39
8.766602,-0.04902544,0.0030690804,0.04227819,0.28,0.88,0.39,16293,10105.3,0,0,3,-0.7,-2.24,-0.28,0.28,0.88,0.39
10.466797,-0.048025437,0.008069081,0.04827819,0.28,0.88,0.4,16299,10107,0,0,3,-0.63,-1.89,0.14,0.28,0.88,0.4
9.466797,-0.05302544,0.012069082,0.05427819,0.28,0.89,0.39,16315,10106,0,0,3,-0.98,-1.61,0.56,0.28,0.89,0.39
11.466797,-0.057025436,0.013069082,0.05427819,0.28,0.89,0.39,16330,10108,0,0,3,-1.26,-1.54,0.56,0.28,0.89,0.39
12.466797,-0.056025438,0.015069082,0.05427819,0.28,0.89,0.39,16360,10109,0,0,3,-1.19,-1.4,0.56,0.28,0.89,0.39
14.166992,-0.055025436,0.010069082,0.05427819,0.29,0.89,0.39,16367,10110.7,0,0,3,-1.12,-1.75,0.56,0.29,0.89,0.39
19.566406,-0.054025438,0.007069081,0.05427819,0.28,0.88,0.39,16383,10116.1,0,0,3,-1.05,-1.96,0.56,0.28,0.88,0.39
18.566406,-0.05302544,0.0040690806,0.05027819,0.28,0.88,0.4,16398,10115.1,0,0,3,-0.98,-2.17,0.28,0.28,0.88,0.4
19.566406,-0.055025436,0.0040690806,0.04827819,0.28,0.88,0.4,16413,10116.1,0,0,3,-1.12,-2.17,0.14,0.28,0.88,0.4
26.266602,-0.05302544,0.010069082,0.05727819,0.28,0.89,0.4,16427,10122.8,0,0,3,-0.98,-1.75,0.77,0.28,0.89,0.4
23.566406,-0.046025436,0.018069081,0.06227819,0.28,0.89,0.4,16450,10120.1,0,0,3,-0.49,-1.19,1.12,0.28,0.89,0.4
24.566406,-0.03802544,0.021069082,0.06627819,0.28,0.88,0.4,16465,10121.1,0,0,3,0.07,-0.98,1.4,0.28,0.88,0.4
25.566406,-0.029025437,0.023069084,0.07427819,0.29,0.89,0.4,16480,10122.1,0,0,3,0.7,-0.84,1.96,0.29,0.89,0.4
26.566406,-0.024025436,0.019069081,0.07827819,0.29,0.88,0.4,16495,10123.1,0,0,3,1.05,-1.12,2.24,0.29,0.88,0.4
28.566406,-0.018025437,0.020069081,0.08827819,0.29,0.87,0.4,16510,10125.1,0,0,3,1.47,-1.05,2.94,0.29,0.87,0.4
26.566406,-0.018025437,0.023069084,0.101278186,0.29,0.88,0.4,16533,10123.1,0,0,3,1.47,-0.84,3.85,0.29,0.88,0.4
27.966797,-0.013025437,0.031069081,0.10427819,0.29,0.89,0.4,16548,10124.5,0,0,3,1.82,-0.28,4.06,0.29,0.89,0.4
25.867188,-0.008025436,0.039069083,0.11727819,0.29,0.89,0.4,16563,10122.4,0,0,3,2.17,0.28,4.97,0.29,0.89,0.4
27.566406,-0.0020254366,0.048069082,0.120278195,0.29,0.89,0.4,16578,10124.1,0,0,3,2.59,0.91,5.18,0.29,0.89,0.4
27.966797,0.0049745627,0.054069083,0.120278195,0.29,0.89,0.4,16592,10124.5,0,0,3,3.08,1.33,5.18,0.29,0.89,0.4
27.566406,0.009974565,0.06706908,0.12427819,0.29,0.88,0.41,16608,10124.1,0,0,3,3.43,2.24,5.46,0.29,0.88,0.41
27.566406,0.013974562,0.08006908,0.123278186,0.29,0.88,0.4,16623,10124.1,0,0,3,3.71,3.15,5.39,0.29,0.88,0.4
22.566406,0.016974565,0.09906909,0.13227819,0.29,0.88,0.4,16645,10119.1,0,0,3,3.92,4.48,6.02,0.29,0.88,0.4
26.966797,0.017974563,0.11506908,0.12427819,0.29,0.89,0.4,16660,10123.5,0,0,3,3.99,5.6,5.46,0.29,0.89,0.4
25.566406,0.023974564,0.12306908,0.11827819,0.29,0.9,0.39,16675,10122.1,0,0,3,4.41,6.16,5.04,0.29,0.9,0.39
26.966797,0.028974567,0.13306908,0.11627819,0.3,0.89,0.4,16690,10123.5,0,0,3,4.76,6.86,4.9,0.3,0.89,0.4
27.566406,0.026974563,0.14106908,0.11727819,0.3,0.88,0.4,16705,10124.1,0,0,3,4.62,7.42,4.97,0.3,0.88,0.4
23.867188,0.031974558,0.14306909,0.12627819,0.31,0.88,0.39,16722,10120.4,0,0,3,4.97,7.56,5.6,0.31,0.88,0.39
25.566406,0.030974563,0.13506909,0.12827818,0.31,0.89,0.38,16739,10122.1,0,0,3,4.9,7,5.74,0.31,0.89,0.38
25.266602,0.03297456,0.12106909,0.120278195,0.31,0.89,0.38,16758,10121.8,0,0,3,5.04,6.02,5.18,0.31,0.89,0.38
19.867188,0.035974566,0.11006908,0.11827819,0.31,0.89,0.38,16773,10116.4,0,0,3,5.25,5.25,5.04,0.31,0.89,0.38
24.867188,0.035974566,0.10306908,0.11727819,0.31,0.89,0.38,16787,10121.4,0,0,3,5.25,4.76,4.97,0.31,0.89,0.38
25.266602,0.036974568,0.104069084,0.115278184,0.3,0.89,0.38,16802,10121.8,0,0,3,5.32,4.83,4.83,0.3,0.89,0.38
23.867188,0.037974562,0.105069086,0.11227819,0.3,0.89,0.38,16818,10120.4,0,0,3,5.39,4.9,4.62,0.3,0.89,0.38
23.867188,0.036974568,0.09906909,0.105278194,0.31,0.89,0.38,16832,10120.4,0,0,3,5.32,4.48,4.13,0.31,0.89,0.38
23.867188,0.036974568,0.10006909,0.10027819,0.31,0.9,0.38,16855,10120.4,0,0,3,5.32,4.55,3.78,0.31,0.9,0.38
24.867188,0.04097456,0.10206908,0.093278185,0.31,0.89,0.38,16870,10121.4,0,0,3,5.6,4.69,3.29,0.31,0.89,0.38
24.867188,0.038974565,0.10206908,0.08727819,0.3,0.89,0.38,16885,10121.4,0,0,3,5.46,4.69,2.87,0.3,0.89,0.38
21.867188,0.042974558,0.107069075,0.08727819,0.3,0.89,0.37,16908,10118.4,0,0,3,5.74,5.04,2.87,0.3,0.89,0.37
22.867188,0.036974568,0.097069085,0.07627819,0.31,0.89,0.37,16931,10119.4,0,0,3,5.32,4.34,2.1,0.31,0.89,0.37
23.566406,0.029974561,0.09506908,0.08027819,0.31,0.88,0.37,16952,10120.1,0,0,3,4.83,4.2,2.38,0.31,0.88,0.37
23.266602,0.018974561,0.09906909,0.093278185,0.3,0.88,0.37,16967,10119.8,0,0,3,4.06,4.48,3.29,0.3,0.88,0.37
23.867188,0.00897456,0.09906909,0.098278195,0.3,0.88,0.38,16989,10120.4,0,0,3,3.36,4.48,3.64,0.3,0.88,0.38
23.867188,-0.009025438,0.090069085,0.09727819,0.31,0.89,0.38,17013,10120.4,0,0,3,2.1,3.85,3.57,0.31,0.89,0.38
24.266602,-0.0050254352,0.08506908,0.08827819,0.29,0.91,0.37,17035,10120.8,0,0,3,2.38,3.5,2.94,0.29,0.91,0.37
21.867188,0.015974563,0.08806908,0.07627819,0.29,0.91,0.38,17057,10118.4,0,0,3,3.85,3.71,2.1,0.29,0.91,0.38
23.867188,0.037974562,0.09306908,0.08227819,0.3,0.9,0.38,17073,10120.4,0,0,3,5.39,4.06,2.52,0.3,0.9,0.38
22.867188,0.061974566,0.104069084,0.10727819,0.3,0.88,0.39,17087,10119.4,0,0,3,7.07,4.83,4.27,0.3,0.88,0.39
23.266602,0.06597456,0.107069075,0.12527819,0.31,0.88,0.39,17103,10119.8,0,0,3,7.35,5.04,5.53,0.31,0.88,0.39
23.266602,0.06997457,0.10606907,0.13027819,0.3,0.91,0.38,17118,10119.8,0,0,3,7.63,4.97,5.88,0.3,0.91,0.38
22.867188,0.08597456,0.11306909,0.13227819,0.3,0.93,0.37,17140,10119.4,0,0,3,8.75,5.46,6.02,0.3,0.93,0.37
23.266602,0.12297456,0.13906908,0.13827819,0.3,0.9,0.37,17157,10119.8,0,0,3,11.34,7.28,6.44,0.3,0.9,0.37
22.166992,0.14097457,0.18506908,0.1712782,0.29,0.88,0.37,17178,10118.7,0,0,3,12.6,10.5,8.75,0.29,0.88,0.37
23.266602,0.14397457,0.22906908,0.1952782,0.3,0.87,0.36,17208,10119.8,0,0,3,12.81,13.58,10.43,0.3,0.87,0.36
21.867188,0.13897456,0.24606909,0.2002782,0.3,0.89,0.34,17223,10118.4,0,0,3,12.46,14.77,10.78,0.3,0.89,0.34
20.867188,0.12997456,0.26006907,0.1782782,0.3,0.9,0.32,17245,10117.4,0,0,3,11.83,15.75,9.24,0.3,0.9,0.32
21.166992,0.105974555,0.23506908,0.14227818,0.33,0.88,0.32,17268,10117.7,0,0,3,10.15,14,6.72,0.33,0.88,0.32
21.166992,0.06297456,0.18706909,0.12927818,0.35,0.87,0.32,17290,10117.7,0,0,3,7.14,10.64,5.81,0.35,0.87,0.32
19.867188,0.019974563,0.11506908,0.13227819,0.35,0.88,0.31,17312,10116.4,0,0,3,4.13,5.6,6.02,0.35,0.88,0.31
21.166992,-0.0030254386,0.06706908,0.13327819,0.34,0.87,0.32,17328,10117.7,0,0,3,2.52,2.24,6.09,0.34,0.87,0.32
17.166992,-0.026025437,0.026069082,0.1272782,0.34,0.88,0.32,17343,10113.7,0,0,3,0.91,-0.63,5.67,0.34,0.88,0.32
20.166992,-0.043025438,-0.019930918,0.11827819,0.33,0.89,0.32,17365,10116.7,0,0,3,-0.28,-3.85,5.04,0.33,0.89,0.32
20.166992,-0.056025438,-0.052930918,0.091278195,0.33,0.89,0.33,17373,10116.7,0,0,3,-1.19,-6.16,3.15,0.33,0.89,0.33
17.166992,-0.06802544,-0.07493092,0.08227819,0.33,0.89,0.35,17394,10113.7,0,0,3,-2.03,-7.7,2.52,0.33,0.89,0.35
20.166992,-0.08402544,-0.105930924,0.064278185,0.32,0.89,0.35,17417,10116.7,0,0,3,-3.15,-9.87,1.26,0.32,0.89,0.35
20.166992,-0.09802544,-0.12893091,0.04327819,0.32,0.9,0.36,17432,10116.7,0,0,3,-4.13,-11.48,-0.21,0.32,0.9,0.36
20.566406,-0.095025435,-0.14393091,0.04127819,0.3,0.9,0.37,17455,10117.1,0,0,3,-3.92,-12.53,-0.35,0.3,0.9,0.37
20.166992,-0.087025434,-0.15093093,0.02627819,0.3,0.9,0.37,17484,10116.7,0,0,3,-3.36,-13.02,-1.4,0.3,0.9,0.37
20.566406,-0.08202544,-0.14693092,0.02327819,0.3,0.88,0.39,17500,10117.1,0,0,3,-3.01,-12.74,-1.61,0.3,0.88,0.39
20.166992,-0.08502544,-0.14193092,0.032278188,0.31,0.87,0.39,17522,10116.7,0,0,3,-3.22,-12.39,-0.98,0.31,0.87,0.39
20.166992,-0.08502544,-0.13293092,0.058278188,0.31,0.87,0.4,17545,10116.7,0,0,3,-3.22,-11.76,0.84,0.31,0.87,0.4
22.166992,-0.07002544,-0.11693093,0.08727819,0.31,0.89,0.4,17567,10118.7,0,0,3,-2.17,-10.64,2.87,0.31,0.89,0.4
23.566406,-0.045025438,-0.086930916,0.11027819,0.31,0.91,0.39,17582,10120.1,0,0,3,-0.42,-8.54,4.48,0.31,0.91,0.39
21.166992,-0.009025438,-0.05093092,0.13227819,0.31,0.91,0.39,17598,10117.7,0,0,3,2.1,-6.02,6.02,0.31,0.91,0.39
22.266602,0.035974566,0.0060690828,0.1712782,0.31,0.91,0.38,17613,10118.8,0,0,3,5.25,-2.03,8.75,0.31,0.91,0.38
19.566406,0.08497457,0.06506908,0.19727819,0.31,0.9,0.37,17628,10116.1,0,0,3,8.68,2.1,10.57,0.31,0.9,0.37
20.566406,0.13797456,0.13106908,0.23627819,0.31,0.9,0.36,17642,10117.1,0,0,3,12.39,6.72,13.3,0.31,0.9,0.36
24.867188,0.20197457,0.22506908,0.2942782,0.32,0.9,0.34,17665,10121.4,0,0,3,16.87,13.3,17.36,0.32,0.9,0.34
19.566406,0.2909746,0.3140691,0.36427817,0.31,0.91,0.33,17688,10116.1,0,0,3,23.1,19.53,22.26,0.31,0.91,0.33
18.867188,0.28497458,0.37506908,0.3182782,0.31,0.91,0.32,17710,10115.4,0,0,3,22.68,23.8,19.04,0.31,0.91,0.32
19.166992,0.28797457,0.47006908,0.2762782,0.29,0.92,0.33,17733,10115.7,0,0,3,22.89,30.45,16.1,0.29,0.92,0.33
19.566406,0.3279746,0.6310691,0.27127817,0.27,0.94,0.36,17755,10116.1,0,0,3,25.69,41.72,15.75,0.27,0.94,0.36
17.466797,0.4089746,0.92706907,0.29927817,0.2,0.95,0.41,17777,10114,0,0,3,31.36,62.44,17.71,0.2,0.95,0.41
17.466797,0.52697456,1.3560691,0.37027818,0.16,0.94,0.47,17793,10114,0,0,3,39.62,92.47,22.68,0.16,0.94,0.47
17.466797,0.6689746,1.9040692,0.5172782,0.12,0.91,0.54,17815,10114,0,0,3,49.56,130.83,32.97,0.12,0.91,0.54
16.466797,0.7679746,2.368069,0.60027814,0.11,0.91,0.59,17830,10113,0,0,3,56.49,163.31,38.78,0.11,0.91,0.59
15.466797,0.8639746,2.892069,0.64927816,0.12,0.9,0.64,17852,10112,0,0,3,63.21,199.99,42.21,0.12,0.9,0.64
15.466797,0.9269746,3.2500691,0.66427815,0.13,0.88,0.68,17868,10112,0,0,3,67.62,225.05,43.26,0.13,0.88,0.68
11.466797,0.97297454,3.640069,0.67227817,0.16,0.86,0.7,17890,10108,0,0,3,70.84,252.35,43.82,0.16,0.86,0.7
13.466797,1.0059747,4.101069,0.65327823,0.21,0.85,0.71,17905,10110,0,0,3,73.15,284.62,42.49,0.21,0.85,0.71
11.466797,1.0219746,4.394069,0.62727815,0.27,0.84,0.69,17927,10108,0,0,3,74.27,305.13,40.67,0.27,0.84,0.69
17.867188,1.0619745,4.618069,0.6612782,0.3,0.84,0.67,17964,10114.4,0,0,3,77.07,320.81,43.05,0.3,0.84,0.67
13.766602,1.1009746,4.757069,0.7072782,0.35,0.83,0.63,17988,10110.3,0,0,3,79.8,330.54,46.27,0.35,0.83,0.63
13.466797,1.0519747,4.692069,0.70227814,0.39,0.81,0.55,17989,10110,0,0,3,76.37,325.99,45.92,0.39,0.81,0.55
13.466797,0.9609746,4.487069,0.7062782,0.42,0.79,0.48,18010,10110,0,0,3,70,311.64,46.2,0.42,0.79,0.48
13.766602,0.83197457,4.1580687,0.71427816,0.42,0.78,0.42,18070,10110.3,0,0,3,60.97,288.61,46.76,0.42,0.78,0.42
16.867188,0.67497456,3.840069,0.75227815,0.41,0.78,0.38,18072,10113.4,0,0,3,49.98,266.35,49.42,0.41,0.78,0.38
12.466797,0.52797455,3.539069,0.7712782,0.42,0.78,0.32,18074,10109,0,0,3,39.69,245.28,50.75,0.42,0.78,0.32
14.466797,0.36597458,3.199069,0.7802782,0.41,0.79,0.27,18093,10111,0,0,3,28.35,221.48,51.38,0.41,0.79,0.27
14.466797,0.24397455,2.848069,0.7792782,0.38,0.82,0.25,18107,10111,0,0,3,19.81,196.91,51.31,0.38,0.82,0.25
10.766602,0.17297456,2.510069,0.7672782,0.35,0.86,0.23,18122,10107.3,0,0,3,14.84,173.25,50.47,0.35,0.86,0.23
13.766602,0.098974556,2.166069,0.76127815,0.33,0.88,0.22,18138,10110.3,0,0,3,9.66,149.17,50.05,0.33,0.88,0.22
12.766602,0.024974566,1.7590691,0.7132782,0.28,0.9,0.26,18160,10109.3,0,0,3,4.48,120.68,46.69,0.28,0.9,0.26
12.766602,0.00897456,1.5260692,0.6622782,0.25,0.93,0.3,18182,10109.3,0,0,3,3.36,104.37,43.12,0.25,0.93,0.3
12.766602,-0.027025439,1.322069,0.6382782,0.24,0.92,0.33,18204,10109.3,0,0,3,0.84,90.09,41.44,0.24,0.92,0.33
12.766602,-0.08402544,1.1320691,0.6162782,0.25,0.92,0.35,18227,10109.3,0,0,3,-3.15,76.79,39.9,0.25,0.92,0.35
13.766602,-0.13902543,0.97106904,0.5792782,0.25,0.93,0.35,18250,10110.3,0,0,3,-7,65.52,37.31,0.25,0.93,0.35
13.766602,-0.19602543,0.77406913,0.5272782,0.27,0.94,0.33,18265,10110.3,0,0,3,-10.99,51.73,33.67,0.27,0.94,0.33
12.766602,-0.24802545,0.5370691,0.45127818,0.28,0.98,0.3,18290,10109.3,0,0,3,-14.63,35.14,28.35,0.28,0.98,0.3
12.766602,-0.21702544,0.30806908,0.3682782,0.27,1,0.29,18314,10109.3,0,0,3,-12.46,19.11,22.54,0.27,1,0.29
13.166992,-0.17302544,0.15906909,0.3062782,0.26,1,0.31,18332,10109.7,0,0,3,-9.38,8.68,18.2,0.26,1,0.31
11.766602,-0.12902544,0.0030690804,0.2562782,0.23,0.99,0.34,18350,10108.3,0,0,3,-6.3,-2.24,14.7,0.23,0.99,0.34
16.867188,-0.08302544,-0.063930914,0.2012782,0.2,0.98,0.37,18372,10113.4,0,0,3,-3.08,-6.93,10.85,0.2,0.98,0.37
13.166992,-0.059025437,-0.091930926,0.16227819,0.18,0.96,0.39,18379,10109.7,0,0,3,-1.4,-8.89,8.12,0.18,0.96,0.39
12.466797,-0.07002544,-0.10993092,0.11827819,0.17,0.94,0.4,18393,10109,0,0,3,-2.17,-10.15,5.04,0.17,0.94,0.4
14.166992,-0.069025435,-0.09493093,0.07527819,0.13,0.96,0.4,18415,10110.7,0,0,3,-2.1,-9.1,2.03,0.13,0.96,0.4
14.166992,-0.014025437,-0.021930918,0.027278189,0.11,0.97,0.42,18438,10110.7,0,0,3,1.75,-3.99,-1.33,0.11,0.97,0.42
9.066406,0.015974563,0.04006908,-0.011721808,0.13,0.93,0.42,18460,10105.6,0,0,3,3.85,0.35,-4.06,0.13,0.93,0.42
12.466797,0.016974565,0.07206908,-0.0067218095,0.14,0.93,0.4,18482,10109,0,0,3,3.92,2.59,-3.71,0.14,0.93,0.4
14.466797,0.07097456,0.10806908,0.02327819,0.11,0.95,0.39,18498,10111,0,0,3,7.7,5.11,-1.61,0.11,0.95,0.39
14.166992,0.10997456,0.12006909,0.018278189,0.13,0.94,0.39,18528,10110.7,0,0,3,10.43,5.95,-1.96,0.13,0.94,0.39
15.166992,0.120974556,0.112069085,0.01927819,0.13,0.93,0.38,18550,10111.7,0,0,3,11.2,5.39,-1.89,0.13,0.93,0.38
16.867188,0.13897456,0.12206909,0.04927819,0.11,0.93,0.39,18565,10113.4,0,0,3,12.46,6.09,0.21,0.11,0.93,0.39
15.8671875,0.15797456,0.15506908,0.07327819,0.1,0.92,0.39,18580,10112.4,0,0,3,13.79,8.4,1.89,0.1,0.92,0.39
15.166992,0.15797456,0.18006907,0.091278195,0.11,0.92,0.38,18594,10111.7,0,0,3,13.79,10.15,3.15,0.11,0.92,0.38
17.166992,0.15197456,0.20006908,0.11127819,0.1,0.91,0.38,18610,10113.7,0,0,3,13.37,11.55,4.55,0.1,0.91,0.38
17.166992,0.14497456,0.24106908,0.1342782,0.1,0.91,0.38,18624,10113.7,0,0,3,12.88,14.42,6.16,0.1,0.91,0.38
22.166992,0.11297457,0.2630691,0.15227818,0.11,0.9,0.38,18640,10118.7,0,0,3,10.64,15.96,7.42,0.11,0.9,0.38
15.8671875,0.06897457,0.28006908,0.1732782,0.11,0.9,0.37,18673,10112.4,0,0,3,7.56,17.15,8.89,0.11,0.9,0.37
17.166992,0.024974566,0.29306906,0.18127818,0.1,0.92,0.35,18678,10113.7,0,0,3,4.48,18.06,9.45,0.1,0.92,0.35
17.166992,0.0019745603,0.30006906,0.17527819,0.11,0.92,0.34,18722,10113.7,0,0,3,2.87,18.55,9.03,0.11,0.92,0.34
17.166992,-0.024025436,0.28706908,0.1712782,0.14,0.92,0.34,18723,10113.7,0,0,3,1.05,17.64,8.75,0.14,0.92,0.34
20.166992,-0.03802544,0.28106907,0.2002782,0.14,0.92,0.34,18744,10116.7,0,0,3,0.07,17.22,10.78,0.14,0.92,0.34
18.166992,-0.032025438,0.28106907,0.22127819,0.13,0.93,0.35,18767,10114.7,0,0,3,0.49,17.22,12.25,0.13,0.93,0.35
11.766602,-0.052025437,0.2720691,0.2182782,0.14,0.93,0.35,18790,10108.3,0,0,3,-0.91,16.59,12.04,0.14,0.93,0.35
18.166992,-0.062025435,0.27106908,0.2082782,0.13,0.93,0.35,18813,10114.7,0,0,3,-1.61,16.52,11.34,0.13,0.93,0.35
18.166992,-0.045025438,0.28706908,0.21427819,0.13,0.94,0.35,18836,10114.7,0,0,3,-0.42,17.64,11.76,0.13,0.94,0.35
18.166992,-0.042025436,0.29906908,0.21227819,0.13,0.94,0.36,18849,10114.7,0,0,3,-0.21,18.48,11.62,0.13,0.94,0.36
18.466797,-0.054025438,0.3070691,0.19927819,0.13,0.94,0.36,18857,10115,0,0,3,-1.05,19.04,10.71,0.13,0.94,0.36
17.166992,-0.05802544,0.31106907,0.1962782,0.13,0.94,0.35,18880,10113.7,0,0,3,-1.33,19.32,10.5,0.13,0.94,0.35
19.166992,-0.056025438,0.31606907,0.2112782,0.14,0.93,0.35,18888,10115.7,0,0,3,-1.19,19.67,11.55,0.14,0.93,0.35
18.166992,-0.05802544,0.31806907,0.20527819,0.14,0.93,0.35,18909,10114.7,0,0,3,-1.33,19.81,11.13,0.14,0.93,0.35
17.166992,-0.05802544,0.31906906,0.21327819,0.15,0.93,0.36,18943,10113.7,0,0,3,-1.33,19.88,11.69,0.15,0.93,0.36
13.466797,-0.054025438,0.31906906,0.21327819,0.16,0.94,0.35,18971,10110,0,0,3,-1.05,19.88,11.69,0.16,0.94,0.35
18.466797,-0.052025437,0.29906908,0.1942782,0.16,0.95,0.34,18977,10115,0,0,3,-0.91,18.48,10.36,0.16,0.95,0.34
18.166992,-0.035025436,0.27306908,0.16627818,0.16,0.95,0.34,19003,10114.7,0,0,3,0.28,16.66,8.4,0.16,0.95,0.34
18.466797,-0.014025437,0.24906906,0.13927819,0.17,0.95,0.34,19030,10115,0,0,3,1.75,14.98,6.51,0.17,0.95,0.34
17.466797,-0.011025436,0.22106908,0.11127819,0.17,0.94,0.35,19045,10114,0,0,3,1.96,13.02,4.55,0.17,0.94,0.35
18.466797,-0.010025438,0.19306909,0.091278195,0.16,0.94,0.35,19067,10115,0,0,3,2.03,11.06,3.15,0.16,0.94,0.35
19.566406,-0.010025438,0.17606908,0.07427819,0.16,0.93,0.35,19083,10116.1,0,0,3,2.03,9.87,1.96,0.16,0.93,0.35
20.566406,-0.016025437,0.15406908,0.06327819,0.15,0.94,0.35,19098,10117.1,0,0,3,1.61,8.33,1.19,0.15,0.94,0.35
17.466797,-0.019025438,0.13906908,0.05027819,0.15,0.94,0.35,19114,10114,0,0,3,1.4,7.28,0.28,0.15,0.94,0.35
19.566406,-0.004025437,0.13206908,0.04227819,0.14,0.94,0.36,19128,10116.1,0,0,3,2.45,6.79,-0.28,0.14,0.94,0.36
18.867188,0.010974564,0.13606909,0.04827819,0.14,0.94,0.37,19142,10115.4,0,0,3,3.5,7.07,0.14,0.14,0.94,0.37
19.566406,0.0019745603,0.14306909,0.05427819,0.14,0.93,0.37,19165,10116.1,0,0,3,2.87,7.56,0.56,0.14,0.93,0.37
21.566406,-0.021025438,0.13006908,0.05127819,0.14,0.93,0.35,19187,10118.1,0,0,3,1.26,6.65,0.35,0.14,0.93,0.35
19.566406,-0.013025437,0.11806908,0.04527819,0.14,0.94,0.35,19202,10116.1,0,0,3,1.82,5.81,-0.07,0.14,0.94,0.35
19.566406,0.0049745627,0.11306909,0.05227819,0.14,0.94,0.36,19225,10116.1,0,0,3,3.08,5.46,0.42,0.14,0.94,0.36
18.466797,0.006974563,0.10306908,0.05927819,0.14,0.93,0.36,19247,10115,0,0,3,3.22,4.76,0.91,0.14,0.93,0.36
18.466797,0.0029745623,0.09606908,0.06527819,0.14,0.92,0.36,19262,10115,0,0,3,2.94,4.27,1.33,0.14,0.92,0.36
19.867188,0.0019745603,0.09906909,0.07527819,0.14,0.93,0.36,19270,10116.4,0,0,3,2.87,4.48,2.03,0.14,0.93,0.36
19.867188,0.0029745623,0.10606907,0.084278196,0.13,0.94,0.36,19285,10116.4,0,0,3,2.94,4.97,2.66,0.13,0.94,0.36
19.566406,0.0029745623,0.112069085,0.079278186,0.13,0.94,0.36,19300,10116.1,0,0,3,2.94,5.39,2.31,0.13,0.94,0.36
18.867188,-0.0060254373,0.11306909,0.06227819,0.13,0.93,0.36,19315,10115.4,0,0,3,2.31,5.46,1.12,0.13,0.93,0.36
15.166992,-0.013025437,0.11706908,0.06627819,0.13,0.93,0.36,19338,10111.7,0,0,3,1.82,5.74,1.4,0.13,0.93,0.36
17.867188,-0.020025436,0.12806909,0.06927819,0.14,0.93,0.36,19360,10114.4,0,0,3,1.33,6.51,1.61,0.14,0.93,0.36
18.466797,-0.026025437,0.13306908,0.064278185,0.13,0.94,0.36,19368,10115,0,0,3,0.91,6.86,1.26,0.13,0.94,0.36
19.166992,-0.027025439,0.13306908,0.06727819,0.14,0.93,0.35,19382,10115.7,0,0,3,0.84,6.86,1.47,0.14,0.93,0.35
18.466797,-0.033025436,0.12906907,0.06927819,0.14,0.92,0.35,19397,10115,0,0,3,0.42,6.58,1.61,0.14,0.92,0.35
15.466797,-0.041025437,0.12106909,0.06527819,0.15,0.91,0.35,19413,10112,0,0,3,-0.14,6.02,1.33,0.15,0.91,0.35
17.867188,-0.052025437,0.10006909,0.07427819,0.14,0.92,0.34,19442,10114.4,0,0,3,-0.91,4.55,1.96,0.14,0.92,0.34
17.867188,-0.04902544,0.090069085,0.08127819,0.13,0.93,0.35,19450,10114.4,0,0,3,-0.7,3.85,2.45,0.13,0.93,0.35
18.166992,-0.042025436,0.09306908,0.08527819,0.13,0.93,0.36,19465,10114.7,0,0,3,-0.21,4.06,2.73,0.13,0.93,0.36
17.867188,-0.050025437,0.10206908,0.083278194,0.13,0.93,0.37,19479,10114.4,0,0,3,-0.77,4.69,2.59,0.13,0.93,0.37
18.867188,-0.065025434,0.11106908,0.086278185,0.13,0.93,0.38,19495,10115.4,0,0,3,-1.82,5.32,2.8,0.13,0.93,0.38
20.867188,-0.07602544,0.11506908,0.08827819,0.13,0.94,0.37,19517,10117.4,0,0,3,-2.59,5.6,2.94,0.13,0.94,0.37
19.867188,-0.07202543,0.11506908,0.084278196,0.13,0.94,0.36,19532,10116.4,0,0,3,-2.31,5.6,2.66,0.13,0.94,0.36
18.867188,-0.069025435,0.104069084,0.06927819,0.12,0.94,0.35,19547,10115.4,0,0,3,-2.1,4.83,1.61,0.12,0.94,0.35
15.8671875,-0.057025436,0.10106908,0.06627819,0.12,0.94,0.36,19562,10112.4,0,0,3,-1.26,4.62,1.4,0.12,0.94,0.36
18.867188,-0.033025436,0.10906908,0.079278186,0.12,0.94,0.37,19578,10115.4,0,0,3,0.42,5.18,2.31,0.12,0.94,0.37
18.867188,-0.020025436,0.12806909,0.093278185,0.12,0.94,0.38,19608,10115.4,0,0,3,1.33,6.51,3.29,0.12,0.94,0.38
18.867188,-0.022025436,0.13706908,0.093278185,0.11,0.93,0.38,19609,10115.4,0,0,3,1.19,7.14,3.29,0.11,0.93,0.38
18.867188,-0.039025437,0.14306909,0.09227819,0.12,0.91,0.37,19638,10115.4,0,0,3,0,7.56,3.22,0.12,0.91,0.37
18.466797,-0.040025435,0.15006909,0.10027819,0.12,0.93,0.36,19645,10115,0,0,3,-0.07,8.05,3.78,0.12,0.93,0.36
18.867188,-0.027025439,0.16106908,0.105278194,0.11,0.94,0.37,19660,10115.4,0,0,3,0.84,8.82,4.13,0.11,0.94,0.37
18.867188,-0.020025436,0.17106909,0.113278195,0.12,0.95,0.37,19675,10115.4,0,0,3,1.33,9.52,4.69,0.12,0.95,0.37
21.166992,-0.028025437,0.17006907,0.10827819,0.12,0.93,0.37,19690,10117.7,0,0,3,0.77,9.45,4.34,0.12,0.93,0.37
17.867188,-0.041025437,0.16806908,0.10827819,0.13,0.92,0.37,19705,10114.4,0,0,3,-0.14,9.31,4.34,0.13,0.92,0.37
18.867188,-0.04902544,0.16606908,0.12627819,0.13,0.92,0.37,19735,10115.4,0,0,3,-0.7,9.17,5.6,0.13,0.92,0.37
18.867188,-0.051025435,0.16106908,0.13927819,0.13,0.93,0.36,19742,10115.4,0,0,3,-0.84,8.82,6.51,0.13,0.93,0.36
18.166992,-0.050025437,0.14706908,0.14127819,0.13,0.94,0.36,19765,10114.7,0,0,3,-0.77,7.84,6.65,0.13,0.94,0.36
18.867188,-0.054025438,0.12706909,0.13927819,0.13,0.94,0.35,19773,10115.4,0,0,3,-1.05,6.44,6.51,0.13,0.94,0.35
17.867188,-0.051025435,0.11306909,0.14227818,0.12,0.95,0.35,19795,10114.4,0,0,3,-0.84,5.46,6.72,0.12,0.95,0.35
18.166992,-0.04902544,0.10006909,0.1362782,0.11,0.96,0.35,19803,10114.7,0,0,3,-0.7,4.55,6.3,0.11,0.96,0.35
19.166992,-0.048025437,0.08706908,0.1212782,0.11,0.97,0.34,19840,10115.7,0,0,3,-0.63,3.64,5.25,0.11,0.97,0.34
18.166992,-0.04702544,0.06906909,0.09627819,0.1,0.98,0.33,19841,10114.7,0,0,3,-0.56,2.38,3.5,0.1,0.98,0.33
17.867188,-0.013025437,0.054069083,0.060278192,0.09,1.01,0.32,19870,10114.4,0,0,3,1.82,1.33,0.98,0.09,1.01,0.32
18.466797,0.038974565,0.04006908,0.0052781925,0.08,1.02,0.32,19871,10115,0,0,3,5.46,0.35,-2.87,0.08,1.02,0.32
17.867188,0.07497457,0.020069081,-0.058721807,0.08,1,0.33,19886,10114.4,0,0,3,7.98,-1.05,-7.35,0.08,1,0.33
20.867188,0.08997455,0.007069081,-0.085721806,0.09,0.95,0.35,19916,10117.4,0,0,3,9.03,-1.96,-9.24,0.09,0.95,0.35
18.166992,0.098974556,0.0030690804,-0.090721816,0.09,0.91,0.37,19922,10114.7,0,0,3,9.66,-2.24,-9.59,0.09,0.91,0.37
18.466797,0.09097457,0.014069082,-0.08372182,0.09,0.91,0.39,19937,10115,0,0,3,9.1,-1.47,-9.1,0.09,0.91,0.39
19.166992,0.07197456,0.03606908,-0.063721806,0.1,0.9,0.4,19959,10115.7,0,0,3,7.77,0.07,-7.7,0.1,0.9,0.4
18.867188,0.049974564,0.05106908,-0.022721808,0.11,0.89,0.41,19967,10115.4,0,0,3,6.23,1.12,-4.83,0.11,0.89,0.41
18.166992,0.012974564,0.061069082,0.04327819,0.13,0.89,0.39,19990,10114.7,0,0,3,3.64,1.82,-0.21,0.13,0.89,0.39
20.166992,-0.030025437,0.04206908,0.10427819,0.15,0.89,0.38,20012,10116.7,0,0,3,0.63,0.49,4.06,0.15,0.89,0.38
18.867188,-0.062025435,0.019069081,0.17027819,0.15,0.88,0.38,20027,10115.4,0,0,3,-1.61,-1.12,8.68,0.15,0.88,0.38
22.166992,-0.07502544,0.011069084,0.21327819,0.15,0.9,0.38,20050,10118.7,0,0,3,-2.52,-1.68,11.69,0.15,0.9,0.38
19.166992,-0.09402543,0.011069084,0.2392782,0.15,0.89,0.39,20065,10115.7,0,0,3,-3.85,-1.68,13.51,0.15,0.89,0.39
21.166992,-0.12602544,0.015069082,0.26127818,0.16,0.87,0.41,20087,10117.7,0,0,3,-6.09,-1.4,15.05,0.16,0.87,0.41
19.166992,-0.18402544,0.04006908,0.29627818,0.17,0.82,0.43,20094,10115.7,0,0,3,-10.15,0.35,17.5,0.17,0.82,0.43
20.166992,-0.23702544,0.08606908,0.3622782,0.2,0.74,0.47,20109,10116.7,0,0,3,-13.86,3.57,22.12,0.2,0.74,0.47
19.166992,-0.33102542,0.16706908,0.46627817,0.23,0.68,0.51,20132,10115.7,0,0,3,-20.44,9.24,29.4,0.23,0.68,0.51
17.867188,-0.5700254,0.22206908,0.5832782,0.23,0.74,0.51,20147,10114.4,0,0,3,-37.17,13.09,37.59,0.23,0.74,0.51
19.166992,-0.6820254,0.21706907,0.5732782,0.24,1,0.34,20170,10115.7,0,0,3,-45.01,12.74,36.89,0.24,1,0.34
19.166992,-0.5500254,0.07606908,0.39627817,0.17,1.36,0.14,20192,10115.7,0,0,3,-35.77,2.87,24.5,0.17,1.36,0.14
19.166992,-0.20602544,-0.21193093,-0.03072181,0.12,1.54,-0,20222,10115.7,0,0,3,-11.69,-17.29,-5.39,0.12,1.54,-0
22.566406,0.20297457,-0.4309309,-0.41372183,0.1,1.21,0.16,20237,10119.1,0,0,3,16.94,-32.62,-32.2,0.1,1.21,0.16
22.166992,0.3089746,-0.4659309,-0.5197218,0.13,0.78,0.41,20267,10118.7,0,0,3,24.36,-35.07,-39.62,0.13,0.78,0.41
20.867188,0.19997455,-0.2549309,-0.33272183,0.06,0.63,0.63,20282,10117.4,0,0,3,16.73,-20.3,-26.53,0.06,0.63,0.63
20.166992,-0.021025438,0.002069082,-0.0697218,0.05,0.72,0.64,20305,10116.7,0,0,3,1.26,-2.31,-8.12,0.05,0.72,0.64
19.166992,-0.12802544,0.23806907,0.11927819,0.09,0.91,0.48,20329,10115.7,0,0,3,-6.23,14.21,5.11,0.09,0.91,0.48
19.466797,-0.095025435,0.34706908,0.1862782,0.13,1.01,0.34,20342,10116,0,0,3,-3.92,21.84,9.8,0.13,1.01,0.34
18.466797,-0.010025438,0.3350691,0.13027819,0.16,1.01,0.28,20361,10115,0,0,3,2.03,21,5.88,0.16,1.01,0.28
18.867188,0.04097456,0.23506908,0.04627819,0.2,0.94,0.3,20373,10115.4,0,0,3,5.6,14,0,0.2,0.94,0.3
19.166992,0.039974567,0.14706908,0.03127819,0.24,0.88,0.35,20390,10115.7,0,0,3,5.53,7.84,-1.05,0.24,0.88,0.35
20.566406,-0.016025437,0.011069084,0.07327819,0.26,0.87,0.38,20409,10117.1,0,0,3,1.61,-1.68,1.89,0.26,0.87,0.38
20.166992,-0.08602543,-0.10193093,0.08927819,0.23,0.91,0.39,20432,10116.7,0,0,3,-3.29,-9.59,3.01,0.23,0.91,0.39
19.466797,-0.09802544,-0.20093092,0.07727819,0.18,0.95,0.38,20462,10116,0,0,3,-4.13,-16.52,2.17,0.18,0.95,0.38
21.566406,-0.07002544,-0.25893092,0.05427819,0.16,0.96,0.38,20478,10118.1,0,0,3,-2.17,-20.58,0.56,0.16,0.96,0.38
20.566406,-0.034025438,-0.29993093,0.01127819,0.14,0.96,0.38,20512,10117.1,0,0,3,0.35,-23.45,-2.45,0.14,0.96,0.38
20.566406,0.015974563,-0.27593094,-0.04572181,0.12,0.95,0.4,20531,10117.1,0,0,3,3.85,-21.77,-6.44,0.12,0.95,0.4
20.566406,0.046974566,-0.2239309,-0.047721807,0.11,0.92,0.42,20545,10117.1,0,0,3,6.02,-18.13,-6.58,0.11,0.92,0.42
20.166992,0.04497456,-0.16793092,-0.049721804,0.13,0.92,0.4,20559,10116.7,0,0,3,5.88,-14.21,-6.72,0.13,0.92,0.4
20.166992,0.049974564,-0.14593092,-0.060721803,0.15,0.92,0.38,20583,10116.7,0,0,3,6.23,-12.67,-7.49,0.15,0.92,0.38
20.166992,0.07097456,-0.14493093,-0.068721816,0.16,0.94,0.37,20605,10116.7,0,0,3,7.7,-12.6,-8.05,0.16,0.94,0.37
22.566406,0.09497456,-0.15893093,-0.075721815,0.17,0.94,0.38,20612,10119.1,0,0,3,9.38,-13.58,-8.54,0.17,0.94,0.38
20.566406,0.098974556,-0.18193091,-0.08772181,0.19,0.93,0.37,20627,10117.1,0,0,3,9.66,-15.19,-9.38,0.19,0.93,0.37
20.566406,0.08497457,-0.22693092,-0.1137218,0.21,0.94,0.36,20642,10117.1,0,0,3,8.68,-18.34,-11.2,0.21,0.94,0.36
20.166992,0.06997457,-0.32193092,-0.1577218,0.23,0.95,0.34,20680,10116.7,0,0,3,7.63,-24.99,-14.28,0.23,0.95,0.34
20.566406,0.06797455,-0.4429309,-0.21872179,0.23,0.94,0.34,20688,10117.1,0,0,3,7.49,-33.46,-18.55,0.23,0.94,0.34
24.566406,0.042974558,-0.5739309,-0.27272183,0.23,0.93,0.34,20710,10121.1,0,0,3,5.74,-42.63,-22.33,0.23,0.93,0.34
19.466797,0.03397456,-0.6859309,-0.29572183,0.2,0.93,0.35,20732,10116,0,0,3,5.11,-50.47,-23.94,0.2,0.93,0.35
19.466797,0.09097457,-0.7049309,-0.27772182,0.15,0.95,0.36,20747,10116,0,0,3,9.1,-51.8,-22.68,0.15,0.95,0.36
19.166992,0.12397456,-0.69693094,-0.27772182,0.14,0.93,0.37,20770,10115.7,0,0,3,11.41,-51.24,-22.68,0.14,0.93,0.37
18.466797,0.081974566,-0.73193085,-0.28472182,0.16,0.9,0.35,20792,10115,0,0,3,8.47,-53.69,-23.17,0.16,0.9,0.35
17.466797,0.039974567,-0.7629309,-0.25872183,0.15,0.92,0.34,20815,10114,0,0,3,5.53,-55.86,-21.35,0.15,0.92,0.34
16.867188,0.039974567,-0.7629309,-0.2367218,0.14,0.94,0.34,20830,10113.4,0,0,3,5.53,-55.86,-19.81,0.14,0.94,0.34
17.466797,0.022974566,-0.7929309,-0.23972182,0.16,0.94,0.32,20845,10114,0,0,3,4.34,-57.96,-20.02,0.16,0.94,0.32
21.867188,-0.020025436,-0.8889309,-0.2717218,0.19,0.96,0.27,20874,10118.4,0,0,3,1.33,-64.68,-22.26,0.19,0.96,0.27
16.466797,-0.020025436,-1.0109309,-0.31372184,0.21,0.98,0.25,20882,10113,0,0,3,1.33,-73.22,-25.2,0.21,0.98,0.25
14.466797,0.025974568,-1.1459309,-0.33272183,0.21,0.96,0.27,20905,10111,0,0,3,4.55,-82.67,-26.53,0.21,0.96,0.27
14.766602,0.0049745627,-1.2769308,-0.36072183,0.22,0.91,0.29,20927,10111.3,0,0,3,3.08,-91.84,-28.49,0.22,0.91,0.29
14.766602,-0.114025444,-1.4489309,-0.40272182,0.22,0.88,0.3,20942,10111.3,0,0,3,-5.25,-103.88,-31.43,0.22,0.88,0.3
14.466797,-0.17802544,-1.5379308,-0.37272182,0.21,0.91,0.31,20964,10111,0,0,3,-9.73,-110.11,-29.33,0.21,0.91,0.31
14.466797,-0.23102543,-1.6309309,-0.34972182,0.24,0.91,0.3,20987,10111,0,0,3,-13.44,-116.62,-27.72,0.24,0.91,0.3
8.766602,-0.37402543,-1.8549309,-0.39772183,0.29,0.89,0.28,21013,10105.3,0,0,3,-23.45,-132.3,-31.08,0.29,0.89,0.28
13.466797,-0.5620254,-2.198931,-0.45172182,0.35,0.85,0.25,21040,10110,0,0,3,-36.61,-156.38,-34.86,0.35,0.85,0.25
13.766602,-0.7250254,-2.6469312,-0.52672184,0.34,0.88,0.25,21073,10110.3,0,0,3,-48.02,-187.74,-40.11,0.34,0.88,0.25
14.766602,-0.8190254,-3.007931,-0.63672185,0.35,0.88,0.3,21077,10111.3,0,0,3,-54.6,-213.01,-47.81,0.35,0.88,0.3
13.766602,-0.89702547,-3.2639308,-0.7267218,0.37,0.87,0.34,21092,10110.3,0,0,3,-60.06,-230.93,-54.11,0.37,0.87,0.34
13.766602,-0.9730254,-3.491931,-0.80472183,0.4,0.87,0.37,21107,10110.3,0,0,3,-65.38,-246.89,-59.57,0.4,0.87,0.37
9.466797,-1.0090255,-3.677931,-0.8437218,0.41,0.88,0.38,21135,10106,0,0,3,-67.9,-259.91,-62.3,0.41,0.88,0.38
13.766602,-1.0100255,-3.8299308,-0.8657218,0.41,0.86,0.42,21140,10110.3,0,0,3,-67.97,-270.55,-63.84,0.41,0.86,0.42
13.766602,-1.0150255,-3.9879308,-0.89972186,0.39,0.85,0.48,21167,10110.3,0,0,3,-68.32,-281.61,-66.22,0.39,0.85,0.48
13.766602,-1.0260254,-4.069931,-0.9207218,0.37,0.84,0.51,21182,10110.3,0,0,3,-69.09,-287.35,-67.69,0.37,0.84,0.51
12.766602,-1.0170255,-4.082931,-0.9027218,0.36,0.81,0.55,21205,10109.3,0,0,3,-68.46,-288.26,-66.43,0.36,0.81,0.55
12.466797,-1.0030255,-4.0209312,-0.8437218,0.36,0.81,0.57,21228,10109,0,0,3,-67.48,-283.92,-62.3,0.36,0.81,0.57
11.766602,-0.97502536,-3.893931,-0.7507218,0.34,0.8,0.59,21250,10108.3,0,0,3,-65.52,-275.03,-55.79,0.34,0.8,0.59
13.466797,-0.95002544,-3.7199311,-0.65172184,0.29,0.81,0.6,21272,10110,0,0,3,-63.77,-262.85,-48.86,0.29,0.81,0.6
13.766602,-0.8930254,-3.467931,-0.59172183,0.23,0.88,0.6,21295,10110.3,0,0,3,-59.78,-245.21,-44.66,0.23,0.88,0.6
13.766602,-0.78802544,-3.083931,-0.5717218,0.18,0.92,0.59,21322,10110.3,0,0,3,-52.43,-218.33,-43.26,0.18,0.92,0.59
13.766602,-0.6890254,-2.770931,-0.5447218,0.17,0.91,0.58,21332,10110.3,0,0,3,-45.5,-196.42,-41.37,0.17,0.91,0.58
12.166992,-0.6130254,-2.451931,-0.5007218,0.17,0.89,0.56,21347,10108.7,0,0,3,-40.18,-174.09,-38.29,0.17,0.89,0.56
12.766602,-0.5490254,-2.141931,-0.4427218,0.16,0.88,0.54,21362,10109.3,0,0,3,-35.7,-152.39,-34.23,0.16,0.88,0.54
12.766602,-0.52002543,-1.894931,-0.39372182,0.18,0.89,0.51,21377,10109.3,0,0,3,-33.67,-135.1,-30.8,0.18,0.89,0.51
13.166992,-0.4820254,-1.6149309,-0.34272182,0.19,0.89,0.47,21392,10109.7,0,0,3,-31.01,-115.5,-27.23,0.19,0.89,0.47
13.166992,-0.43802544,-1.3459308,-0.26072183,0.2,0.9,0.44,21415,10109.7,0,0,3,-27.93,-96.67,-21.49,0.2,0.9,0.44
15.166992,-0.3970254,-1.127931,-0.2027218,0.23,0.9,0.4,21440,10111.7,0,0,3,-25.06,-81.41,-17.43,0.23,0.9,0.4
10.066406,-0.38202542,-0.9679309,-0.18972181,0.24,0.91,0.39,21475,10106.6,0,0,3,-24.01,-70.21,-16.52,0.24,0.91,0.39
14.466797,-0.3600254,-0.84193087,-0.14672181,0.25,0.89,0.39,21483,10111,0,0,3,-22.47,-61.39,-13.51,0.25,0.89,0.39
15.466797,-0.35202542,-0.71793085,-0.0887218,0.27,0.88,0.38,21505,10112,0,0,3,-21.91,-52.71,-9.45,0.27,0.88,0.38
17.166992,-0.31502542,-0.5979309,-0.039721813,0.28,0.89,0.38,21527,10113.7,0,0,3,-19.32,-44.31,-6.02,0.28,0.89,0.38
17.867188,-0.28202543,-0.5159309,-0.015721813,0.27,0.92,0.37,21542,10114.4,0,0,3,-17.01,-38.57,-4.34,0.27,0.92,0.37
19.867188,-0.23502545,-0.44193092,-0.00872181,0.29,0.91,0.37,21565,10116.4,0,0,3,-13.72,-33.39,-3.85,0.29,0.91,0.37
22.867188,-0.21002544,-0.38693094,0.022278192,0.31,0.9,0.37,21595,10119.4,0,0,3,-11.97,-29.54,-1.68,0.31,0.9,0.37
24.166992,-0.18802544,-0.35393092,0.03727819,0.31,0.92,0.35,21603,10120.7,0,0,3,-10.43,-27.23,-0.63,0.31,0.92,0.35
24.166992,-0.17202544,-0.32393092,0.02427819,0.31,0.92,0.34,21617,10120.7,0,0,3,-9.31,-25.13,-1.54,0.31,0.92,0.34
27.566406,-0.15302543,-0.30193093,0.009278189,0.3,0.92,0.33,21632,10124.1,0,0,3,-7.98,-23.59,-2.59,0.3,0.92,0.33
25.266602,-0.13902543,-0.2829309,-0.0127218105,0.29,0.92,0.33,21647,10121.8,0,0,3,-7,-22.26,-4.13,0.29,0.92,0.33
26.266602,-0.11602543,-0.2349309,-0.0027218126,0.3,0.9,0.34,21670,10122.8,0,0,3,-5.39,-18.9,-3.43,0.3,0.9,0.34
27.266602,-0.11102544,-0.19593093,0.02027819,0.3,0.89,0.34,21684,10123.8,0,0,3,-5.04,-16.17,-1.82,0.3,0.89,0.34
21.166992,-0.11802544,-0.16193092,0.04027819,0.31,0.88,0.35,21715,10117.7,0,0,3,-5.53,-13.79,-0.42,0.31,0.88,0.35
27.867188,-0.12302543,-0.12693092,0.058278188,0.31,0.88,0.35,21722,10124.4,0,0,3,-5.88,-11.34,0.84,0.31,0.88,0.35
28.266602,-0.12202543,-0.08993092,0.06927819,0.31,0.88,0.35,21745,10124.8,0,0,3,-5.81,-8.75,1.61,0.31,0.88,0.35
27.266602,-0.117025435,-0.05093092,0.086278185,0.32,0.88,0.36,21752,10123.8,0,0,3,-5.46,-6.02,2.8,0.32,0.88,0.36
28.266602,-0.11902544,-0.017930917,0.09527819,0.32,0.9,0.36,21767,10124.8,0,0,3,-5.6,-3.71,3.43,0.32,0.9,0.36
26.867188,-0.110025436,0.008069081,0.10627819,0.32,0.91,0.35,21782,10123.4,0,0,3,-4.97,-1.89,4.2,0.32,0.91,0.35
28.266602,-0.088025436,0.04706908,0.11827819,0.32,0.91,0.36,21807,10124.8,0,0,3,-3.43,0.84,5.04,0.32,0.91,0.36
27.566406,-0.07002544,0.07006908,0.115278184,0.33,0.91,0.35,21822,10124.1,0,0,3,-2.17,2.45,4.83,0.33,0.91,0.35
29.566406,-0.050025437,0.09206908,0.101278186,0.33,0.91,0.35,21835,10126.1,0,0,3,-0.77,3.99,3.85,0.33,0.91,0.35
28.266602,-0.029025437,0.105069086,0.08927819,0.34,0.91,0.35,21850,10124.8,0,0,3,0.7,4.9,3.01,0.34,0.91,0.35
27.566406,-0.013025437,0.112069085,0.08127819,0.34,0.89,0.36,21865,10124.1,0,0,3,1.82,5.39,2.45,0.34,0.89,0.36
26.266602,-0.0060254373,0.12506908,0.07827819,0.34,0.89,0.35,21880,10122.8,0,0,3,2.31,6.3,2.24,0.34,0.89,0.35
27.566406,-0.0060254373,0.12606908,0.07627819,0.35,0.89,0.35,21894,10124.1,0,0,3,2.31,6.37,2.1,0.35,0.89,0.35
28.266602,-0.004025437,0.12306908,0.06527819,0.35,0.9,0.35,21918,10124.8,0,0,3,2.45,6.16,1.33,0.35,0.9,0.35
28.266602,0.0039745644,0.13106908,0.06227819,0.34,0.9,0.35,21932,10124.8,0,0,3,3.01,6.72,1.12,0.34,0.9,0.35
27.566406,0.007974561,0.13606909,0.05327819,0.34,0.9,0.35,21946,10124.1,0,0,3,3.29,7.07,0.49,0.34,0.9,0.35
29.266602,-2.5436282e-05,0.13806908,0.03827819,0.33,0.9,0.35,21963,10125.8,0,0,3,2.73,7.21,-0.56,0.33,0.9,0.35
28.566406,-0.0030254386,0.14406909,0.02527819,0.33,0.9,0.35,21978,10125.1,0,0,3,2.52,7.63,-1.47,0.33,0.9,0.35
29.266602,-0.011025436,0.15406908,0.02627819,0.33,0.88,0.36,21993,10125.8,0,0,3,1.96,8.33,-1.4,0.33,0.88,0.36
27.566406,-0.024025436,0.15606909,0.03027819,0.33,0.88,0.35,22015,10124.1,0,0,3,1.05,8.47,-1.12,0.33,0.88,0.35
27.266602,-0.035025436,0.15106907,0.02427819,0.33,0.89,0.34,22030,10123.8,0,0,3,0.28,8.12,-1.54,0.33,0.89,0.34
29.566406,-0.031025436,0.14206907,0.01927819,0.33,0.89,0.33,22047,10126.1,0,0,3,0.56,7.49,-1.89,0.33,0.89,0.33
26.566406,-0.022025436,0.12706909,0.01627819,0.33,0.9,0.33,22060,10123.1,0,0,3,1.19,6.44,-2.1,0.33,0.9,0.33
27.566406,-0.010025438,0.11406909,0.01927819,0.33,0.9,0.33,22075,10124.1,0,0,3,2.03,5.53,-1.89,0.33,0.9,0.33
28.266602,-0.014025437,0.10306908,0.022278192,0.32,0.87,0.35,22090,10124.8,0,0,3,1.75,4.76,-1.68,0.32,0.87,0.35
27.566406,-0.033025436,0.10106908,0.04127819,0.32,0.87,0.35,22105,10124.1,0,0,3,0.42,4.62,-0.35,0.32,0.87,0.35
27.566406,-0.048025437,0.10906908,0.06927819,0.32,0.87,0.35,22127,10124.1,0,0,3,-0.63,5.18,1.61,0.32,0.87,0.35
27.266602,-0.056025438,0.11506908,0.08727819,0.31,0.88,0.35,22142,10123.8,0,0,3,-1.19,5.6,2.87,0.31,0.88,0.35
27.566406,-0.054025438,0.12006909,0.10227819,0.31,0.89,0.35,22165,10124.1,0,0,3,-1.05,5.95,3.92,0.31,0.89,0.35
27.566406,-0.050025437,0.12106909,0.10827819,0.31,0.89,0.35,22172,10124.1,0,0,3,-0.77,6.02,4.34,0.31,0.89,0.35
27.566406,-0.042025436,0.13506909,0.1212782,0.31,0.89,0.35,22187,10124.1,0,0,3,-0.21,7,5.25,0.31,0.89,0.35
26.566406,-0.032025438,0.15006909,0.14627819,0.31,0.88,0.36,22202,10123.1,0,0,3,0.49,8.05,7,0.31,0.88,0.36
27.566406,-0.022025436,0.17206909,0.16527818,0.32,0.9,0.37,22225,10124.1,0,0,3,1.19,9.59,8.33,0.32,0.9,0.37
26.566406,-0.004025437,0.20106907,0.17527819,0.3,0.91,0.38,22247,10123.1,0,0,3,2.45,11.62,9.03,0.3,0.91,0.38
27.566406,0.021974564,0.24906906,0.18827818,0.29,0.91,0.38,22255,10124.1,0,0,3,4.27,14.98,9.94,0.29,0.91,0.38
26.566406,0.06997457,0.33406907,0.2182782,0.26,0.91,0.42,22270,10123.1,0,0,3,7.63,20.93,12.04,0.26,0.91,0.42
26.566406,0.13797456,0.5410691,0.2672782,0.21,0.92,0.48,22285,10123.1,0,0,3,12.39,35.42,15.47,0.21,0.92,0.48
29.566406,0.22997455,0.8240691,0.3502782,0.17,0.91,0.53,22307,10126.1,0,0,3,18.83,55.23,21.28,0.17,0.91,0.53
26.266602,0.32397458,1.1910691,0.44727817,0.11,0.92,0.57,22322,10122.8,0,0,3,25.41,80.92,28.07,0.11,0.92,0.57
26.566406,0.41297457,1.5840691,0.5112782,0.08,0.96,0.56,22337,10123.1,0,0,3,31.64,108.43,32.55,0.08,0.96,0.56
26.566406,0.5549746,1.9580691,0.5452782,0.12,0.93,0.57,22360,10123.1,0,0,3,41.58,134.61,34.93,0.12,0.93,0.57
26.867188,0.6549746,2.313069,0.6032782,0.16,0.92,0.6,22370,10123.4,0,0,3,48.58,159.46,38.99,0.16,0.92,0.6
26.266602,0.7479746,2.643069,0.6792782,0.17,0.9,0.64,22382,10122.8,0,0,3,55.09,182.56,44.31,0.17,0.9,0.64
25.566406,0.82397455,2.935069,0.7872782,0.19,0.86,0.65,22405,10122.1,0,0,3,60.41,203,51.87,0.19,0.86,0.65
26.867188,0.89197457,3.268069,0.8912782,0.2,0.83,0.66,22420,10123.4,0,0,3,65.17,226.31,59.15,0.2,0.83,0.66
25.566406,0.9649745,3.583069,0.9722782,0.21,0.82,0.65,22434,10122.1,0,0,3,70.28,248.36,64.82,0.21,0.82,0.65
25.867188,1.0399746,3.8540688,1.0392783,0.24,0.8,0.63,22449,10122.4,0,0,3,75.53,267.33,69.51,0.24,0.8,0.63
26.867188,1.1209745,4.088069,1.0722783,0.32,0.8,0.55,22480,10123.4,0,0,3,81.2,283.71,71.82,0.32,0.8,0.55
25.867188,1.1559746,4.1580687,1.0802782,0.37,0.79,0.53,22495,10122.4,0,0,3,83.65,288.61,72.38,0.37,0.79,0.53
26.566406,1.1509746,4.186069,1.0992782,0.37,0.77,0.54,22517,10123.1,0,0,3,83.3,290.57,73.71,0.37,0.77,0.54
25.867188,1.0369745,4.069069,1.0412782,0.4,0.75,0.51,22547,10122.4,0,0,3,75.32,282.38,69.65,0.4,0.75,0.51
28.867188,0.9039746,3.8920689,0.98327816,0.44,0.77,0.45,22555,10125.4,0,0,3,66.01,269.99,65.59,0.44,0.77,0.45
23.867188,0.7519746,3.616069,0.90127814,0.48,0.77,0.39,22570,10120.4,0,0,3,55.37,250.67,59.85,0.48,0.77,0.39
24.867188,0.5719746,3.277069,0.8472782,0.5,0.78,0.36,22592,10121.4,0,0,3,42.77,226.94,56.07,0.5,0.78,0.36
21.867188,0.44197455,2.9450688,0.8542782,0.48,0.8,0.35,22622,10118.4,0,0,3,33.67,203.7,56.56,0.48,0.8,0.35
23.867188,0.34697458,2.6590688,0.8962782,0.44,0.82,0.36,22623,10120.4,0,0,3,27.02,183.68,59.5,0.44,0.82,0.36
23.867188,0.24497454,2.395069,0.93227816,0.44,0.82,0.35,22637,10120.4,0,0,3,19.88,165.2,62.02,0.44,0.82,0.35
24.867188,0.13597456,2.114069,0.9302782,0.42,0.86,0.31,22652,10121.4,0,0,3,12.25,145.53,61.88,0.42,0.86,0.31
21.867188,0.11797455,1.7570691,0.87627816,0.35,0.94,0.29,22675,10118.4,0,0,3,10.99,120.54,58.1,0.35,0.94,0.29
21.566406,0.17797455,1.497069,0.78327817,0.33,0.91,0.33,22699,10118.1,0,0,3,15.19,102.34,51.59,0.33,0.91,0.33
23.867188,0.15597455,1.2870691,0.7212782,0.36,0.84,0.37,22736,10120.4,0,0,3,13.65,87.64,47.25,0.36,0.84,0.37
21.867188,0.10497455,1.1390691,0.7442782,0.36,0.81,0.38,22750,10118.4,0,0,3,10.08,77.28,48.86,0.36,0.81,0.38
20.867188,0.048974562,1.0650691,0.7772781,0.3,0.85,0.38,22765,10117.4,0,0,3,6.16,72.1,51.17,0.3,0.85,0.38
19.867188,0.04397456,1.031069,0.7592782,0.25,0.93,0.38,22788,10116.4,0,0,3,5.81,69.72,49.91,0.25,0.93,0.38
19.867188,0.06497456,0.96406907,0.6432782,0.24,1.04,0.31,22817,10116.4,0,0,3,7.28,65.03,41.79,0.24,1.04,0.31
20.867188,0.11597456,0.8260691,0.45327818,0.24,1.14,0.22,22824,10117.4,0,0,3,10.85,55.37,28.49,0.24,1.14,0.22
19.166992,0.19297455,0.6620691,0.25927818,0.2,1.17,0.18,22847,10115.7,0,0,3,16.24,43.89,14.91,0.2,1.17,0.18
21.166992,0.28097457,0.45006907,-0.03372181,0.22,1.08,0.24,22862,10117.7,0,0,3,22.4,29.05,-5.6,0.22,1.08,0.24
19.867188,0.32297456,0.2540691,-0.1867218,0.27,0.92,0.39,22877,10116.4,0,0,3,25.34,15.33,-16.31,0.27,0.92,0.39
14.766602,0.3019746,0.20406908,-0.17772181,0.3,0.78,0.52,22892,10111.3,0,0,3,23.87,11.83,-15.68,0.3,0.78,0.52
21.166992,0.14797457,0.25506908,-0.028721813,0.29,0.73,0.57,22915,10117.7,0,0,3,13.09,15.4,-5.25,0.29,0.73,0.57
21.166992,-0.039025437,0.27806908,0.09927819,0.28,0.75,0.52,22938,10117.7,0,0,3,0,17.01,3.71,0.28,0.75,0.52
19.867188,-0.21702544,0.20506908,0.17727819,0.3,0.8,0.41,22967,10116.4,0,0,3,-12.46,11.9,9.17,0.3,0.8,0.41
21.166992,-0.29202542,0.07406908,0.25927818,0.3,0.89,0.3,22990,10117.7,0,0,3,-17.71,2.73,14.91,0.3,0.89,0.3
21.867188,-0.09702544,-0.20093092,0.1352782,0.17,1.32,0.03,23012,10118.4,0,0,3,-4.06,-16.52,6.23,0.17,1.32,0.03
21.166992,0.38197458,-0.5839309,-0.43072182,0.16,1.46,0.04,23029,10117.7,0,0,3,29.47,-43.33,-33.39,0.16,1.46,0.04
21.166992,0.8109746,-0.9239308,-0.9267218,0.23,1.27,0.24,23050,10117.7,0,0,3,59.5,-67.13,-68.11,0.23,1.27,0.24
18.867188,0.9639746,-1.0259309,-1.1467218,0.31,0.97,0.47,23065,10115.4,0,0,3,70.21,-74.27,-83.51,0.31,0.97,0.47
22.166992,0.8989746,-0.95693094,-1.1157217,0.29,0.79,0.57,23088,10118.7,0,0,3,65.66,-69.44,-81.34,0.29,0.79,0.57
23.166992,0.6939746,-0.8759309,-0.9327218,0.26,0.67,0.58,23103,10119.7,0,0,3,51.31,-63.77,-68.53,0.26,0.67,0.58
23.867188,0.4079746,-0.8389309,-0.70172185,0.23,0.62,0.53,23117,10120.4,0,0,3,31.29,-61.18,-52.36,0.23,0.62,0.53
24.166992,0.13197456,-0.85993093,-0.4597218,0.23,0.61,0.46,23140,10120.7,0,0,3,11.97,-62.65,-35.42,0.23,0.61,0.46
27.266602,-0.3200254,-0.9599309,-0.20572181,0.21,0.67,0.36,23155,10123.8,0,0,3,-19.67,-69.65,-17.64,0.21,0.67,0.36
25.266602,-0.6440254,-1.1149309,0.01627819,0.21,0.71,0.34,23185,10121.8,0,0,3,-42.35,-80.5,-2.1,0.21,0.71,0.34
25.266602,-0.76502544,-1.1709309,0.37227818,0.21,0.81,0.31,23200,10121.8,0,0,3,-50.82,-84.42,22.82,0.21,0.81,0.31
26.266602,-0.78302544,-1.2769308,0.6102782,0.15,0.95,0.23,23215,10122.8,0,0,3,-52.08,-91.84,39.48,0.15,0.95,0.23
26.266602,-0.7250254,-1.4169309,0.6022782,0.14,0.98,0.23,23245,10122.8,0,0,3,-48.02,-101.64,38.92,0.14,0.98,0.23
26.867188,-0.7110254,-1.5519308,0.4932782,0.18,0.96,0.31,23267,10123.4,0,0,3,-47.04,-111.09,31.29,0.18,0.96,0.31
28.566406,-0.7260254,-1.6149309,0.38627818,0.16,0.99,0.32,23282,10125.1,0,0,3,-48.09,-115.5,23.8,0.16,0.99,0.32
27.266602,-0.6070254,-1.5089309,0.24327819,0.11,1.06,0.35,23312,10123.8,0,0,3,-39.76,-108.08,13.79,0.11,1.06,0.35
27.266602,-0.43102545,-1.3169309,0.02527819,0.1,1.09,0.38,23327,10123.8,0,0,3,-27.44,-94.64,-1.47,0.1,1.09,0.38
26.566406,-0.32202542,-1.2259308,-0.1807218,0.11,1.14,0.33,23342,10123.1,0,0,3,-19.81,-88.27,-15.89,0.11,1.14,0.33
27.566406,-0.17802544,-1.1669309,-0.44972184,0.12,1.15,0.32,23357,10124.1,0,0,3,-9.73,-84.14,-34.72,0.12,1.15,0.32
27.266602,-0.019025438,-1.0949309,-0.6837218,0.17,1.11,0.33,23373,10123.8,0,0,3,1.4,-79.1,-51.1,0.17,1.11,0.33
26.266602,0.12197457,-0.9989308,-0.80472183,0.24,0.99,0.38,23395,10122.8,0,0,3,11.27,-72.38,-59.57,0.24,0.99,0.38
28.566406,0.18497457,-0.85693085,-0.7837218,0.24,0.93,0.41,23410,10125.1,0,0,3,15.68,-62.44,-58.1,0.24,0.93,0.41
27.566406,0.22097458,-0.6879309,-0.6487218,0.21,0.89,0.41,23436,10124.1,0,0,3,18.2,-50.61,-48.65,0.21,0.89,0.41
27.566406,0.19797456,-0.5149309,-0.43572184,0.18,0.83,0.4,23455,10124.1,0,0,3,16.59,-38.5,-33.74,0.18,0.83,0.4
20.466797,0.080974564,-0.4289309,-0.25172183,0.18,0.81,0.38,23477,10117,0,0,3,8.4,-32.48,-20.86,0.18,0.81,0.38
31.566406,-0.07402544,-0.38293093,-0.075721815,0.21,0.8,0.35,23500,10128.1,0,0,3,-2.45,-29.26,-8.54,0.21,0.8,0.35
28.266602,-0.22902544,-0.3709309,0.11127819,0.2,0.83,0.31,23530,10124.8,0,0,3,-13.3,-28.42,4.55,0.2,0.83,0.31
27.566406,-0.29102543,-0.36093092,0.2222782,0.14,0.93,0.25,23545,10124.1,0,0,3,-17.64,-27.72,12.32,0.14,0.93,0.25
26.566406,-0.23602544,-0.33793092,0.1892782,0.14,0.97,0.28,23567,10123.1,0,0,3,-13.79,-26.11,10.01,0.14,0.97,0.28
26.566406,-0.18702544,-0.30893093,0.14227818,0.18,0.94,0.32,23582,10123.1,0,0,3,-10.36,-24.08,6.72,0.18,0.94,0.32
26.867188,-0.16102543,-0.26093093,0.11927819,0.21,0.97,0.35,23604,10123.4,0,0,3,-8.54,-20.72,5.11,0.21,0.97,0.35
16.466797,-0.15502544,-0.22293091,0.11127819,0.24,0.9,0.33,23612,10113,0,0,3,-8.12,-18.06,4.55,0.24,0.9,0.33
32.566406,-0.19702545,-0.20293091,0.11127819,0.25,0.92,0.38,23635,10129.1,0,0,3,-11.06,-16.66,4.55,0.25,0.92,0.38
27.566406,-0.19602543,-0.21193093,0.13227819,0.26,0.88,0.34,23665,10124.1,0,0,3,-10.99,-17.29,6.02,0.26,0.88,0.34
26.566406,-0.22602545,-0.23193094,0.14027819,0.23,0.95,0.31,23680,10123.1,0,0,3,-13.09,-18.69,6.58,0.23,0.95,0.31
28.566406,-0.19802544,-0.24793091,0.10927819,0.23,0.95,0.33,23695,10125.1,0,0,3,-11.13,-19.81,4.41,0.23,0.95,0.33
31.566406,-0.19302544,-0.25693092,0.06927819,0.26,0.94,0.35,23709,10128.1,0,0,3,-10.78,-20.44,1.61,0.26,0.94,0.35
27.867188,-0.19802544,-0.25393093,0.04527819,0.28,0.9,0.34,23747,10124.4,0,0,3,-11.13,-20.23,-0.07,0.28,0.9,0.34
16.766602,-0.19702545,-0.26893094,0.05427819,0.29,0.9,0.3,23755,10113.3,0,0,3,-11.06,-21.28,0.56,0.29,0.9,0.3
30.566406,-0.17302544,-0.29993093,0.03627819,0.28,0.95,0.29,23785,10127.1,0,0,3,-9.38,-23.45,-0.7,0.28,0.95,0.29
19.867188,-0.18802544,-0.33293092,0.0032781884,0.29,0.89,0.31,23799,10116.4,0,0,3,-10.43,-25.76,-3.01,0.29,0.89,0.31
26.266602,-0.24002543,-0.37193093,-0.024721805,0.3,0.89,0.31,23822,10122.8,0,0,3,-14.07,-28.49,-4.97,0.3,0.89,0.31
27.266602,-0.30502543,-0.4219309,-0.046721812,0.31,0.9,0.3,23838,10123.8,0,0,3,-18.62,-31.99,-6.51,0.31,0.9,0.3
27.566406,-0.3420254,-0.49593088,-0.0697218,0.33,0.92,0.27,23853,10124.1,0,0,3,-21.21,-37.17,-8.12,0.33,0.92,0.27
24.867188,-0.36102545,-0.61493087,-0.10372181,0.36,0.94,0.24,23867,10121.4,0,0,3,-22.54,-45.5,-10.5,0.36,0.94,0.24
24.867188,-0.35202542,-0.7509309,-0.1127218,0.38,0.93,0.22,23882,10121.4,0,0,3,-21.91,-55.02,-11.13,0.38,0.93,0.22
26.867188,-0.3710254,-0.93393093,-0.12772182,0.39,0.89,0.23,23905,10123.4,0,0,3,-23.24,-67.83,-12.18,0.39,0.89,0.23
22.867188,-0.45302543,-1.2259308,-0.2037218,0.42,0.86,0.23,23928,10119.4,0,0,3,-28.98,-88.27,-17.5,0.42,0.86,0.23
32.966797,-0.5680254,-1.5239309,-0.2877218,0.43,1,0.23,23957,10129.5,0,0,3,-37.03,-109.13,-23.38,0.43,1,0.23
29.266602,-0.63402545,-1.7729309,-0.32772183,0.43,0.89,0.24,23975,10125.8,0,0,3,-41.65,-126.56,-26.18,0.43,0.89,0.24
28.867188,-0.6670254,-2.007931,-0.3487218,0.43,0.9,0.27,23995,10125.4,0,0,3,-43.96,-143.01,-27.65,0.43,0.9,0.27
28.867188,-0.7010254,-2.182931,-0.38572183,0.42,0.9,0.29,24018,10125.4,0,0,3,-46.34,-155.26,-30.24,0.42,0.9,0.29
28.867188,-0.72302544,-2.295931,-0.40172184,0.4,0.87,0.33,24047,10125.4,0,0,3,-47.88,-163.17,-31.36,0.4,0.87,0.33
28.867188,-0.73302543,-2.331931,-0.37572184,0.38,0.87,0.38,24056,10125.4,0,0,3,-48.58,-165.69,-29.54,0.38,0.87,0.38
27.867188,-0.7310254,-2.312931,-0.34672183,0.36,0.89,0.39,24077,10124.4,0,0,3,-48.44,-164.36,-27.51,0.36,0.89,0.39
27.867188,-0.7150254,-2.266931,-0.3317218,0.33,0.91,0.4,24093,10124.4,0,0,3,-47.32,-161.14,-26.46,0.33,0.91,0.4
27.566406,-0.6810254,-2.182931,-0.31972185,0.31,0.92,0.4,24108,10124.1,0,0,3,-44.94,-155.26,-25.62,0.31,0.92,0.4
28.867188,-0.63902545,-2.069931,-0.3107218,0.29,0.91,0.41,24123,10125.4,0,0,3,-42,-147.35,-24.99,0.29,0.91,0.41
28.867188,-0.5820254,-1.9309309,-0.29672182,0.27,0.91,0.42,24138,10125.4,0,0,3,-38.01,-137.62,-24.01,0.27,0.91,0.42
28.566406,-0.52402544,-1.7269309,-0.2927218,0.26,0.94,0.41,24160,10125.1,0,0,3,-33.95,-123.34,-23.73,0.26,0.94,0.41
29.266602,-0.45802543,-1.5039309,-0.29072183,0.25,0.94,0.4,24198,10125.8,0,0,3,-29.33,-107.73,-23.59,0.25,0.94,0.4
28.867188,-0.38902542,-0.9939308,-0.25772184,0.24,0.91,0.41,24205,10125.4,0,0,3,-24.5,-72.03,-21.28,0.24,0.91,0.41
27.266602,-0.3420254,-0.97893095,-0.21972181,0.25,0.91,0.4,24228,10123.8,0,0,3,-21.21,-70.98,-18.62,0.25,0.91,0.4
27.867188,-0.29902545,-0.7789309,-0.2117218,0.25,0.93,0.37,24250,10124.4,0,0,3,-18.2,-56.98,-18.06,0.25,0.93,0.37
28.566406,-0.23702544,-0.60793084,-0.20172182,0.27,0.92,0.35,24272,10125.1,0,0,3,-13.86,-45.01,-17.36,0.27,0.92,0.35
27.266602,-0.19002543,-0.4549309,-0.1657218,0.3,0.89,0.34,24287,10123.8,0,0,3,-10.57,-34.3,-14.84,0.3,0.89,0.34
26.566406,-0.16502544,-0.35693094,-0.12472181,0.31,0.9,0.32,24310,10123.1,0,0,3,-8.82,-27.44,-11.97,0.31,0.9,0.32
27.266602,-0.15202543,-0.30093092,-0.107721806,0.32,0.9,0.31,24324,10123.8,0,0,3,-7.91,-23.52,-10.78,0.32,0.9,0.31
27.266602,-0.124025434,-0.26093093,-0.085721806,0.33,0.9,0.31,24348,10123.8,0,0,3,-5.95,-20.72,-9.24,0.33,0.9,0.31
28.266602,-0.11102544,-0.22493094,-0.05672181,0.34,0.87,0.31,24362,10124.8,0,0,3,-5.04,-18.2,-7.21,0.34,0.87,0.31
27.566406,-0.12202543,-0.19993094,-0.03372181,0.34,0.87,0.32,24377,10124.1,0,0,3,-5.81,-16.45,-5.6,0.34,0.87,0.32
25.166992,-0.13402544,-0.18793091,-0.017721813,0.34,0.88,0.31,24392,10121.7,0,0,3,-6.65,-15.61,-4.48,0.34,0.88,0.31
27.266602,-0.13502543,-0.17793092,0.00027818978,0.33,0.91,0.3,24414,10123.8,0,0,3,-6.72,-14.91,-3.22,0.33,0.91,0.3
27.266602,-0.124025434,-0.14693092,0.009278189,0.33,0.9,0.32,24437,10123.8,0,0,3,-5.95,-12.74,-2.59,0.33,0.9,0.32
25.166992,-0.11602543,-0.12693092,0.007278189,0.33,0.9,0.31,24459,10121.7,0,0,3,-5.39,-11.34,-2.73,0.33,0.9,0.31
27.266602,-0.110025436,-0.11893092,-0.009721812,0.33,0.9,0.32,24483,10123.8,0,0,3,-4.97,-10.78,-3.92,0.33,0.9,0.32
27.566406,-0.11302544,-0.08793092,-0.011721808,0.32,0.9,0.33,24505,10124.1,0,0,3,-5.18,-8.61,-4.06,0.32,0.9,0.33
27.266602,-0.09702544,-0.05793092,-0.013721809,0.32,0.91,0.32,24522,10123.8,0,0,3,-4.06,-6.51,-4.2,0.32,0.91,0.32
28.266602,-0.08202544,-0.041930918,-0.013721809,0.32,0.91,0.33,24550,10124.8,0,0,3,-3.01,-5.39,-4.2,0.32,0.91,0.33
27.566406,-0.06402544,-0.02093092,-0.0037218109,0.31,0.91,0.34,24565,10124.1,0,0,3,-1.75,-3.92,-3.5,0.31,0.91,0.34
22.566406,-0.057025436,0.009069081,0.014278188,0.31,0.9,0.34,24595,10119.1,0,0,3,-1.26,-1.82,-2.24,0.31,0.9,0.34
27.266602,-0.055025436,0.034069084,0.022278192,0.31,0.9,0.34,24602,10123.8,0,0,3,-1.12,-0.07,-1.68,0.31,0.9,0.34
27.266602,-0.055025436,0.060069084,0.02827819,0.31,0.9,0.33,24617,10123.8,0,0,3,-1.12,1.75,-1.26,0.31,0.9,0.33
27.566406,-0.051025435,0.08506908,0.04027819,0.32,0.9,0.34,24632,10124.1,0,0,3,-0.84,3.5,-0.42,0.32,0.9,0.34
27.867188,-0.045025438,0.11006908,0.05127819,0.31,0.91,0.34,24662,10124.4,0,0,3,-0.42,5.25,0.35,0.31,0.91,0.34
26.566406,-0.035025436,0.12806909,0.04927819,0.31,0.91,0.34,24670,10123.1,0,0,3,0.28,6.51,0.21,0.31,0.91,0.34
26.867188,-0.029025437,0.14406909,0.03727819,0.31,0.91,0.33,24692,10123.4,0,0,3,0.7,7.63,-0.63,0.31,0.91,0.33
26.867188,-0.019025438,0.17006907,0.03027819,0.31,0.91,0.33,24714,10123.4,0,0,3,1.4,9.45,-1.12,0.31,0.91,0.33
26.266602,-0.004025437,0.19906907,0.03827819,0.3,0.91,0.33,24737,10122.8,0,0,3,2.45,11.48,-0.56,0.3,0.91,0.33
27.566406,0.011974562,0.20806907,0.02827819,0.3,0.92,0.32,24752,10124.1,0,0,3,3.57,12.11,-1.26,0.3,0.92,0.32
27.566406,0.025974568,0.20506908,0.022278192,0.3,0.91,0.33,24775,10124.1,0,0,3,4.55,11.9,-1.68,0.3,0.91,0.33
27.266602,0.026974563,0.22506908,0.04327819,0.3,0.9,0.34,24797,10123.8,0,0,3,4.62,13.3,-0.21,0.3,0.9,0.34
25.566406,0.04397456,0.27306908,0.07627819,0.27,0.92,0.35,24821,10122.1,0,0,3,5.81,16.66,2.1,0.27,0.92,0.35
25.566406,0.09297456,0.38506907,0.08727819,0.23,0.94,0.39,24842,10122.1,0,0,3,9.24,24.5,2.87,0.23,0.94,0.39
26.566406,0.14797457,0.54706913,0.10927819,0.18,0.94,0.43,24857,10123.1,0,0,3,13.09,35.84,4.41,0.18,0.94,0.43
26.566406,0.21797456,0.7530691,0.14027819,0.14,0.93,0.47,24872,10123.1,0,0,3,17.99,50.26,6.58,0.14,0.93,0.47
25.867188,0.29497457,1.0590692,0.2012782,0.1,0.95,0.49,24887,10122.4,0,0,3,23.38,71.68,10.85,0.1,0.95,0.49
25.166992,0.41097456,1.4750692,0.2302782,0.11,0.96,0.5,24917,10121.7,0,0,3,31.5,100.8,12.88,0.11,0.96,0.5
24.566406,0.5049746,1.9130692,0.25927818,0.14,0.92,0.51,24932,10121.1,0,0,3,38.08,131.46,14.91,0.14,0.92,0.51
25.867188,0.55197453,2.230069,0.2902782,0.17,0.91,0.48,24955,10122.4,0,0,3,41.37,153.65,17.08,0.17,0.91,0.48
25.867188,0.59597456,2.407069,0.3022782,0.24,0.9,0.44,24977,10122.4,0,0,3,44.45,166.04,17.92,0.24,0.9,0.44
24.566406,0.61597455,2.476069,0.32727817,0.3,0.89,0.4,24999,10121.1,0,0,3,45.85,170.87,19.67,0.3,0.89,0.4
24.867188,0.5929746,2.449069,0.3432782,0.33,0.88,0.35,25022,10121.4,0,0,3,44.24,168.98,20.79,0.33,0.88,0.35
23.867188,0.54197454,2.267069,0.3062782,0.35,0.89,0.3,25037,10120.4,0,0,3,40.67,156.24,18.2,0.35,0.89,0.3
24.166992,0.4829746,1.9870691,0.26627818,0.39,0.88,0.26,25060,10120.7,0,0,3,36.54,136.64,15.4,0.39,0.88,0.26
24.166992,0.42497456,1.745069,0.2482782,0.39,0.89,0.25,25082,10120.7,0,0,3,32.48,119.7,14.14,0.39,0.89,0.25
22.166992,0.3859746,1.5140691,0.2722782,0.36,0.91,0.25,25097,10118.7,0,0,3,29.75,103.53,15.82,0.36,0.91,0.25
23.867188,0.3599746,1.3230692,0.28527817,0.34,0.92,0.24,25112,10120.4,0,0,3,27.93,90.16,16.73,0.34,0.92,0.24
22.867188,0.33397457,1.1390691,0.29727817,0.32,0.9,0.25,25127,10119.4,0,0,3,26.11,77.28,17.57,0.32,0.9,0.25
21.867188,0.30397457,1.0030692,0.32327816,0.31,0.89,0.25,25142,10118.4,0,0,3,24.01,67.76,19.39,0.31,0.89,0.25
21.867188,0.24597456,0.82906914,0.3572782,0.28,0.89,0.28,25164,10118.4,0,0,3,19.95,55.58,21.77,0.28,0.89,0.28
21.867188,0.18297456,0.73206913,0.37427816,0.23,0.92,0.28,25188,10118.4,0,0,3,15.54,48.79,22.96,0.23,0.92,0.28
22.867188,0.16797456,0.6840691,0.3622782,0.2,0.93,0.28,25209,10119.4,0,0,2,14.49,45.43,22.12,0.2,0.93,0.28
19.466797,0.15597455,0.66306907,0.33527818,0.2,0.94,0.29,25232,10116,0,0,2,13.65,43.96,20.23,0.2,0.94,0.29
21.166992,0.14697456,0.6550691,0.32227817,0.21,0.93,0.3,25254,10117.7,0,0,2,13.02,43.4,19.32,0.21,0.93,0.3
19.867188,0.13397455,0.6600691,0.32427818,0.21,0.93,0.3,25277,10116.4,0,0,2,12.11,43.75,19.46,0.21,0.93,0.3
18.867188,0.13597456,0.67906916,0.33827817,0.2,0.95,0.29,25299,10115.4,0,0,2,12.25,45.08,20.44,0.2,0.95,0.29
18.867188,0.17097455,0.6840691,0.3572782,0.22,0.95,0.28,25314,10115.4,0,0,2,14.7,45.43,21.77,0.22,0.95,0.28
20.166992,0.18597455,0.6650691,0.36727816,0.24,0.94,0.28,25337,10116.7,0,0,2,15.75,44.1,22.47,0.24,0.94,0.28
17.766602,0.17997456,0.6330691,0.3582782,0.25,0.94,0.29,25352,10114.3,0,0,2,15.33,41.86,21.84,0.25,0.94,0.29
17.766602,0.15397456,0.59206915,0.34827816,0.26,0.92,0.29,25375,10114.3,0,0,2,13.51,38.99,21.14,0.26,0.92,0.29
17.766602,0.12297456,0.55306906,0.3322782,0.25,0.92,0.28,25389,10114.3,0,0,2,11.34,36.26,20.02,0.25,0.92,0.28
17.766602,0.08497457,0.49606907,0.30127817,0.25,0.94,0.26,25405,10114.3,0,0,2,8.68,32.27,17.85,0.25,0.94,0.26
18.166992,0.06897457,0.42506906,0.2452782,0.26,0.94,0.25,25427,10114.7,0,0,2,7.56,27.3,13.93,0.26,0.94,0.25
17.166992,0.052974563,0.35506907,0.2092782,0.26,0.94,0.26,25449,10113.7,0,0,2,6.44,22.4,11.41,0.26,0.94,0.26
15.766602,0.025974568,0.29906908,0.1802782,0.26,0.93,0.28,25472,10112.3,0,0,2,4.55,18.48,9.38,0.26,0.93,0.28
18.166992,0.00897456,0.2720691,0.1862782,0.24,0.93,0.29,25488,10114.7,0,0,2,3.36,16.59,9.8,0.24,0.93,0.29
16.466797,-0.0060254373,0.26006907,0.1712782,0.24,0.95,0.27,25509,10113,0,0,2,2.31,15.75,8.75,0.24,0.95,0.27
16.766602,0.000974562,0.24006908,0.15527819,0.24,0.94,0.27,25539,10113.3,0,0,2,2.8,14.35,7.63,0.24,0.94,0.27
17.166992,0.0059745647,0.18706909,0.12527819,0.26,0.95,0.27,25554,10113.7,0,0,2,3.15,10.64,5.53,0.26,0.95,0.27
17.166992,0.0059745647,0.14706908,0.11227819,0.26,0.94,0.27,25577,10113.7,0,0,2,3.15,7.84,4.62,0.26,0.94,0.27
23.166992,0.0029745623,0.11506908,0.11127819,0.26,0.94,0.27,25592,10119.7,0,0,2,2.94,5.6,4.55,0.26,0.94,0.27
19.166992,0.0029745623,0.09606908,0.11727819,0.25,0.94,0.27,25607,10115.7,0,0,2,2.94,4.27,4.97,0.25,0.94,0.27
17.766602,0.0039745644,0.082069084,0.115278184,0.24,0.95,0.27,25630,10114.3,0,0,2,3.01,3.29,4.83,0.24,0.95,0.27
19.466797,0.007974561,0.07606908,0.10627819,0.24,0.94,0.28,25645,10116,0,0,2,3.29,2.87,4.2,0.24,0.94,0.28
19.466797,0.0019745603,0.08006908,0.09427819,0.24,0.94,0.29,25667,10116,0,0,2,2.87,3.15,3.36,0.24,0.94,0.29
18.166992,-0.017025437,0.09106909,0.08727819,0.24,0.93,0.29,25690,10114.7,0,0,2,1.54,3.92,2.87,0.24,0.93,0.29
20.166992,-0.031025436,0.10006909,0.086278185,0.24,0.94,0.28,25705,10116.7,0,0,2,0.56,4.55,2.8,0.24,0.94,0.28
17.466797,-0.027025439,0.107069075,0.086278185,0.24,0.96,0.28,25727,10114,0,0,2,0.84,5.04,2.8,0.24,0.96,0.28
19.466797,-0.0050254352,0.112069085,0.06627819,0.24,0.96,0.28,25749,10116,0,0,2,2.38,5.39,1.4,0.24,0.96,0.28
18.166992,0.006974563,0.10806908,0.05027819,0.25,0.95,0.28,25771,10114.7,0,0,2,3.22,5.11,0.28,0.25,0.95,0.28
20.166992,0.0039745644,0.09806909,0.04527819,0.25,0.94,0.28,25794,10116.7,0,0,2,3.01,4.41,-0.07,0.25,0.94,0.28
20.466797,-0.013025437,0.08506908,0.04427819,0.24,0.94,0.28,25818,10117,0,0,2,1.82,3.5,-0.14,0.24,0.94,0.28
21.466797,-0.014025437,0.06406908,0.03727819,0.24,0.94,0.27,25847,10118,0,0,2,1.75,2.03,-0.63,0.24,0.94,0.27
14.066406,-0.0070254356,0.050069083,0.03427819,0.24,0.95,0.26,25854,10110.6,0,0,2,2.24,1.05,-0.84,0.24,0.95,0.26
20.466797,0.000974562,0.04206908,0.02427819,0.24,0.94,0.27,25869,10117,0,0,2,2.8,0.49,-1.54,0.24,0.94,0.27
22.466797,-0.011025436,0.037069082,0.0152781885,0.23,0.93,0.28,25885,10119,0,0,2,1.96,0.14,-2.17,0.23,0.93,0.28
21.466797,-0.029025437,0.04206908,0.014278188,0.22,0.93,0.29,25907,10118,0,0,2,0.7,0.49,-2.24,0.22,0.93,0.29
22.466797,-0.04702544,0.06306908,0.02327819,0.22,0.93,0.29,25929,10119,0,0,2,-0.56,1.96,-1.61,0.22,0.93,0.29
22.867188,-0.04902544,0.06706908,0.02427819,0.22,0.94,0.28,25952,10119.4,0,0,2,-0.7,2.24,-1.54,0.22,0.94,0.28
24.566406,-0.048025437,0.06306908,0.01127819,0.22,0.94,0.28,25976,10121.1,0,0,2,-0.63,1.96,-2.45,0.22,0.94,0.28
23.867188,-0.051025435,0.05306908,0.008278187,0.23,0.93,0.28,25990,10120.4,0,0,2,-0.84,1.26,-2.66,0.23,0.93,0.28
27.266602,-0.066025436,0.039069083,0.0152781885,0.24,0.94,0.28,26013,10123.8,0,0,2,-1.89,0.28,-2.17,0.24,0.94,0.28
28.566406,-0.06402544,0.014069082,0.022278192,0.23,0.95,0.27,26035,10125.1,0,0,3,-1.75,-1.47,-1.68,0.23,0.95,0.27
28.867188,-0.04702544,-0.003930919,0.02527819,0.23,0.96,0.27,26064,10125.4,0,0,3,-0.56,-2.73,-1.47,0.23,0.96,0.27
32.566406,-0.041025437,-0.015930917,0.008278187,0.23,0.94,0.28,26080,10129.1,0,0,3,-0.14,-3.57,-2.66,0.23,0.94,0.28
26.867188,-0.045025438,-0.02693092,-0.0037218109,0.23,0.95,0.28,26095,10123.4,0,0,3,-0.42,-4.34,-3.5,0.23,0.95,0.28
33.966797,-0.051025435,-0.03293092,-0.01072181,0.24,0.95,0.29,26109,10130.5,0,0,3,-0.84,-4.76,-3.99,0.24,0.95,0.29
33.966797,-0.06402544,-0.04393092,-0.0127218105,0.25,0.94,0.29,26125,10130.5,0,0,3,-1.75,-5.53,-4.13,0.25,0.94,0.29
35.666992,-0.08502544,-0.051930923,-0.0027218126,0.26,0.92,0.29,26140,10132.2,0,0,3,-3.22,-6.09,-3.43,0.26,0.92,0.29
36.966797,-0.115025446,-0.064930916,0.008278187,0.25,0.92,0.29,26162,10133.5,0,0,3,-5.32,-7,-2.66,0.25,0.92,0.29
36.966797,-0.12702544,-0.08393091,0.0012781881,0.25,0.92,0.29,26185,10133.5,0,0,3,-6.16,-8.33,-3.15,0.25,0.92,0.29
39.966797,-0.124025434,-0.113930926,-0.018721815,0.25,0.92,0.28,26207,10136.5,0,0,3,-5.95,-10.43,-4.55,0.25,0.92,0.28
37.966797,-0.11802544,-0.14193092,-0.04172181,0.24,0.91,0.28,26229,10134.5,0,0,3,-5.53,-12.39,-6.16,0.24,0.91,0.28
39.666992,-0.10802543,-0.16193092,-0.04872181,0.24,0.91,0.28,26252,10136.2,0,0,3,-4.83,-13.79,-6.65,0.24,0.91,0.28
38.2666,-0.099025436,-0.17493092,-0.04572181,0.23,0.91,0.29,26276,10134.8,0,0,3,-4.2,-14.7,-6.44,0.23,0.91,0.29
37.966797,-0.08402544,-0.18793091,-0.03772181,0.22,0.91,0.29,26297,10134.5,0,0,3,-3.15,-15.61,-5.88,0.22,0.91,0.29
37.966797,-0.080025434,-0.19293092,-0.03872181,0.21,0.94,0.29,26321,10134.5,0,0,3,-2.87,-15.96,-5.95,0.21,0.94,0.29
37.966797,-0.07002544,-0.19493093,-0.03772181,0.21,0.98,0.29,26344,10134.5,0,0,3,-2.17,-16.1,-5.88,0.21,0.98,0.29
31.966797,-0.059025437,-0.1989309,-0.018721815,0.22,0.99,0.29,26357,10128.5,0,0,3,-1.4,-16.38,-4.55,0.22,0.99,0.29
37.966797,-0.055025436,-0.19293092,0.01627819,0.23,0.97,0.3,26372,10134.5,0,0,3,-1.12,-15.96,-2.1,0.23,0.97,0.3
36.966797,-0.050025437,-0.17793092,0.07327819,0.24,0.95,0.3,26403,10133.5,0,0,3,-0.77,-14.91,1.89,0.24,0.95,0.3
39.966797,-0.046025436,-0.14593092,0.1342782,0.23,0.93,0.3,26409,10136.5,0,0,3,-0.49,-12.67,6.16,0.23,0.93,0.3
32.566406,-0.031025436,-0.11793092,0.1582782,0.2,0.95,0.29,26432,10129.1,0,0,3,0.56,-10.71,7.84,0.2,0.95,0.29
36.966797,-0.012025436,-0.090930924,0.14027819,0.19,0.97,0.28,26469,10133.5,0,0,3,1.89,-8.82,6.58,0.19,0.97,0.28
38.2666,0.007974561,-0.064930916,0.07527819,0.17,0.97,0.27,26471,10134.8,0,0,3,3.29,-7,2.03,0.17,0.97,0.27
37.2666,0.013974562,-0.041930918,0.02127819,0.18,0.94,0.27,26492,10133.8,0,0,3,3.71,-5.39,-1.75,0.18,0.94,0.27
37.2666,-0.009025438,-0.01893092,0.009278189,0.21,0.91,0.27,26545,10133.8,0,0,3,2.1,-3.78,-2.59,0.21,0.91,0.27
36.2666,-0.043025438,-0.0009309165,0.05727819,0.21,0.91,0.28,26546,10132.8,0,0,3,-0.28,-2.52,0.77,0.21,0.91,0.28
38.2666,-0.07602544,0.013069082,0.10227819,0.2,0.92,0.29,26560,10134.8,0,0,3,-2.59,-1.54,3.92,0.2,0.92,0.29
36.966797,-0.11302544,0.026069082,0.123278186,0.19,0.93,0.3,26582,10133.5,0,0,3,-5.18,-0.63,5.39,0.19,0.93,0.3
37.966797,-0.12702544,0.043069083,0.11627819,0.2,0.95,0.3,26605,10134.5,0,0,3,-6.16,0.56,4.9,0.2,0.95,0.3
37.2666,-0.13802543,0.056069084,0.10327819,0.2,0.96,0.3,26620,10133.8,0,0,3,-6.93,1.47,3.99,0.2,0.96,0.3
36.2666,-0.14702544,0.06906909,0.093278185,0.22,0.97,0.29,26635,10132.8,0,0,3,-7.56,2.38,3.29,0.22,0.97,0.29
36.666992,-0.14002544,0.08306908,0.09927819,0.22,0.97,0.29,26664,10133.2,0,0,3,-7.07,3.36,3.71,0.22,0.97,0.29
36.2666,-0.12002544,0.08306908,0.113278195,0.21,0.96,0.3,26665,10132.8,0,0,3,-5.67,3.36,4.69,0.21,0.96,0.3
36.2666,-0.11102544,0.08606908,0.11827819,0.21,0.95,0.31,26688,10132.8,0,0,3,-5.04,3.57,5.04,0.21,0.95,0.31
35.2666,-0.107025445,0.07406908,0.09627819,0.2,0.96,0.3,26710,10131.8,0,0,3,-4.76,2.73,3.5,0.2,0.96,0.3
37.2666,-0.10802543,0.05806908,0.05127819,0.19,0.95,0.32,26732,10133.8,0,0,3,-4.83,1.61,0.35,0.19,0.95,0.32
34.2666,-0.09302544,0.06506908,0.012278188,0.2,0.95,0.3,26754,10130.8,0,0,3,-3.78,2.1,-2.38,0.2,0.95,0.3
36.2666,-0.059025437,0.049069084,-0.0007218085,0.2,0.95,0.29,26769,10132.8,0,0,3,-1.4,0.98,-3.29,0.2,0.95,0.29
35.966797,-0.056025438,0.03306908,0.0052781925,0.2,0.93,0.32,26799,10132.5,0,0,3,-1.19,-0.14,-2.87,0.2,0.93,0.32
36.2666,-0.07202543,0.028069083,0.03127819,0.19,0.92,0.32,26822,10132.8,0,0,3,-2.31,-0.49,-1.05,0.19,0.92,0.32
37.2666,-0.08502544,0.04206908,0.05327819,0.19,0.93,0.31,26837,10133.8,0,0,3,-3.22,0.49,0.49,0.19,0.93,0.31
37.2666,-0.08902544,0.046069082,0.06327819,0.19,0.92,0.32,26852,10133.8,0,0,3,-3.5,0.77,1.19,0.19,0.92,0.32
35.2666,-0.09702544,0.05806908,0.07827819,0.2,0.92,0.32,26874,10131.8,0,0,3,-4.06,1.61,2.24,0.2,0.92,0.32
35.966797,-0.110025436,0.061069082,0.09227819,0.2,0.92,0.32,26890,10132.5,0,0,3,-4.97,1.82,3.22,0.2,0.92,0.32
36.2666,-0.12102543,0.06306908,0.11027819,0.21,0.93,0.33,26912,10132.8,0,0,3,-5.74,1.96,4.48,0.21,0.93,0.33
36.666992,-0.11802544,0.06906909,0.11627819,0.2,0.94,0.33,26935,10133.2,0,0,3,-5.53,2.38,4.9,0.2,0.94,0.33
35.966797,-0.09202544,0.07306908,0.1142782,0.21,0.95,0.31,26950,10132.5,0,0,3,-3.71,2.66,4.76,0.21,0.95,0.31
35.2666,-0.06002544,0.06506908,0.115278184,0.23,0.94,0.31,26981,10131.8,0,0,3,-1.47,2.1,4.83,0.23,0.94,0.31
35.666992,-0.05802544,0.03606908,0.11827819,0.22,0.92,0.33,27010,10132.2,0,0,3,-1.33,0.07,5.04,0.22,0.92,0.33
36.666992,-0.061025437,0.014069082,0.12827818,0.23,0.93,0.31,27018,10133.2,0,0,3,-1.54,-1.47,5.74,0.23,0.93,0.31
35.666992,-0.037025437,0.0060690828,0.14227818,0.22,0.94,0.32,27047,10132.2,0,0,3,0.14,-2.03,6.72,0.22,0.94,0.32
37.666992,-0.020025436,0.029069083,0.1342782,0.21,0.94,0.33,27062,10134.2,0,0,3,1.33,-0.42,6.16,0.21,0.94,0.33
35.666992,-0.008025436,0.059069082,0.11627819,0.22,0.94,0.33,27085,10132.2,0,0,3,2.17,1.68,4.9,0.22,0.94,0.33
36.666992,-0.010025438,0.068069085,0.11727819,0.23,0.93,0.33,27099,10133.2,0,0,3,2.03,2.31,4.97,0.23,0.93,0.33
35.666992,-0.0030254386,0.07906908,0.11927819,0.23,0.93,0.33,27115,10132.2,0,0,3,2.52,3.08,5.11,0.23,0.93,0.33
35.666992,-0.0070254356,0.07906908,0.11727819,0.23,0.93,0.31,27130,10132.2,0,0,3,2.24,3.08,4.97,0.23,0.93,0.31
36.2666,0.0019745603,0.07206908,0.10627819,0.23,0.94,0.31,27144,10132.8,0,0,3,2.87,2.59,4.2,0.23,0.94,0.31
35.666992,0.018974561,0.06706908,0.09427819,0.24,0.93,0.31,27167,10132.2,0,0,3,4.06,2.24,3.36,0.24,0.93,0.31
36.966797,0.028974567,0.060069084,0.09427819,0.24,0.92,0.31,27189,10133.5,0,0,3,4.76,1.75,3.36,0.24,0.92,0.31
36.666992,0.025974568,0.06706908,0.10627819,0.24,0.94,0.31,27219,10133.2,0,0,3,4.55,2.24,4.2,0.24,0.94,0.31
35.966797,0.028974567,0.07406908,0.11127819,0.23,0.94,0.32,27234,10132.5,0,0,3,4.76,2.73,4.55,0.23,0.94,0.32
34.966797,0.026974563,0.082069084,0.09927819,0.24,0.94,0.31,27257,10131.5,0,0,3,4.62,3.29,3.71,0.24,0.94,0.31
35.966797,0.022974566,0.08906908,0.08727819,0.24,0.94,0.31,27302,10132.5,0,0,3,4.34,3.78,2.87,0.24,0.94,0.31
39.966797,0.030974563,0.09606908,0.07127819,0.23,0.94,0.31,27309,10136.5,0,0,3,4.9,4.27,1.75,0.23,0.94,0.31
34.966797,0.046974566,0.105069086,0.06127819,0.24,0.94,0.3,27324,10131.5,0,0,3,6.02,4.9,1.05,0.24,0.94,0.3
35.2666,0.049974564,0.107069075,0.05627819,0.24,0.94,0.29,27347,10131.8,0,0,3,6.23,5.04,0.7,0.24,0.94,0.29
34.966797,0.047974568,0.10806908,0.06127819,0.24,0.93,0.3,27362,10131.5,0,0,3,6.09,5.11,1.05,0.24,0.93,0.3
35.966797,0.041974563,0.10106908,0.06227819,0.23,0.93,0.3,27384,10132.5,0,0,3,5.67,4.62,1.12,0.23,0.93,0.3
34.966797,0.038974565,0.104069084,0.064278185,0.22,0.93,0.3,27392,10131.5,0,0,3,5.46,4.83,1.26,0.22,0.93,0.3
33.966797,0.041974563,0.11106908,0.07127819,0.22,0.93,0.29,27422,10130.5,0,0,3,5.67,5.32,1.75,0.22,0.93,0.29
33.566406,0.029974561,0.12006909,0.060278192,0.22,0.93,0.29,27438,10130.1,0,0,3,4.83,5.95,0.98,0.22,0.93,0.29
34.966797,0.020974562,0.11406909,0.060278192,0.22,0.93,0.29,27468,10131.5,0,0,3,4.2,5.53,0.98,0.22,0.93,0.29
34.966797,0.010974564,0.10106908,0.060278192,0.22,0.93,0.29,27482,10131.5,0,0,3,3.5,4.62,0.98,0.22,0.93,0.29
29.867188,0.000974562,0.09406908,0.06527819,0.23,0.94,0.29,27512,10126.4,0,0,3,2.8,4.13,1.33,0.23,0.94,0.29
36.966797,-0.008025436,0.08006908,0.06927819,0.23,0.93,0.29,27526,10133.5,0,0,3,2.17,3.15,1.61,0.23,0.93,0.29
35.566406,-0.016025437,0.07106908,0.05727819,0.22,0.94,0.28,27541,10132.1,0,0,3,1.61,2.52,0.77,0.22,0.94,0.28
34.966797,-0.019025438,0.052069083,0.04427819,0.23,0.94,0.28,27572,10131.5,0,0,3,1.4,1.19,-0.14,0.23,0.94,0.28
34.966797,-0.025025437,0.032069083,0.04127819,0.23,0.93,0.28,27594,10131.5,0,0,3,0.98,-0.21,-0.35,0.23,0.93,0.28
34.966797,-0.03602544,0.021069082,0.04727819,0.23,0.94,0.29,27602,10131.5,0,0,3,0.21,-0.98,0.07,0.23,0.94,0.29
35.566406,-0.05302544,0.012069082,0.05527819,0.23,0.93,0.29,27624,10132.1,0,0,3,-0.98,-1.61,0.63,0.23,0.93,0.29
36.2666,-0.061025437,0.002069082,0.05527819,0.22,0.94,0.29,27632,10132.8,0,0,3,-1.54,-2.31,0.63,0.22,0.94,0.29
34.966797,-0.06702544,-0.011930916,0.04227819,0.22,0.94,0.29,27655,10131.5,0,0,3,-1.96,-3.29,-0.28,0.22,0.94,0.29
33.966797,-0.06402544,-0.023930918,0.03027819,0.22,0.94,0.29,27672,10130.5,0,0,3,-1.75,-4.13,-1.12,0.22,0.94,0.29
33.966797,-0.059025437,-0.025930919,0.03327819,0.23,0.94,0.3,27707,10130.5,0,0,3,-1.4,-4.27,-0.91,0.23,0.94,0.3
33.966797,-0.06002544,-0.02793092,0.04227819,0.22,0.93,0.31,27722,10130.5,0,0,3,-1.47,-4.41,-0.28,0.22,0.93,0.31
34.966797,-0.07202543,-0.023930918,0.06327819,0.24,0.93,0.3,27744,10131.5,0,0,3,-2.31,-4.13,1.19,0.24,0.93,0.3
33.2666,-0.06402544,-0.03293092,0.06827819,0.22,0.94,0.29,27767,10129.8,0,0,3,-1.75,-4.76,1.54,0.22,0.94,0.29
33.2666,-0.05802544,-0.04293092,0.05427819,0.23,0.94,0.29,27790,10129.8,0,0,3,-1.33,-5.46,0.56,0.23,0.94,0.29
32.2666,-0.05302544,-0.04993092,0.04527819,0.23,0.94,0.3,27827,10128.8,0,0,3,-0.98,-5.95,-0.07,0.23,0.94,0.3
31.266602,-0.054025438,-0.047930915,0.04427819,0.23,0.93,0.3,27829,10127.8,0,0,3,-1.05,-5.81,-0.14,0.23,0.93,0.3
31.266602,-0.069025435,-0.05693092,0.05227819,0.24,0.93,0.3,27855,10127.8,0,0,3,-2.1,-6.44,0.42,0.24,0.93,0.3
30.266602,-0.06802544,-0.06693092,0.06127819,0.23,0.94,0.3,27865,10126.8,0,0,3,-2.03,-7.14,1.05,0.23,0.94,0.3
29.566406,-0.06402544,-0.076930925,0.05727819,0.23,0.94,0.29,27880,10126.1,0,0,3,-1.75,-7.84,0.77,0.23,0.94,0.29
26.166992,-0.055025436,-0.08393091,0.04627819,0.23,0.94,0.29,27895,10122.7,0,0,3,-1.12,-8.33,0,0.23,0.94,0.29
29.566406,-0.04702544,-0.08393091,0.04727819,0.23,0.93,0.3,27917,10126.1,0,0,3,-0.56,-8.33,0.07,0.23,0.93,0.3
26.566406,-0.048025437,-0.078930914,0.04927819,0.24,0.93,0.3,27940,10123.1,0,0,3,-0.63,-7.98,0.21,0.24,0.93,0.3
29.566406,-0.056025438,-0.081930906,0.04827819,0.23,0.94,0.29,27962,10126.1,0,0,3,-1.19,-8.19,0.14,0.23,0.94,0.29
26.166992,-0.051025435,-0.081930906,0.04127819,0.23,0.94,0.29,27985,10122.7,0,0,3,-0.84,-8.19,-0.35,0.23,0.94,0.29
27.166992,-0.055025436,-0.08293092,0.02827819,0.23,0.94,0.3,28000,10123.7,0,0,3,-1.12,-8.26,-1.26,0.23,0.94,0.3
26.566406,-0.057025436,-0.07993092,0.02027819,0.23,0.94,0.3,28022,10123.1,0,0,3,-1.26,-8.05,-1.82,0.23,0.94,0.3
26.566406,-0.050025437,-0.06593092,0.01927819,0.22,0.94,0.3,28045,10123.1,0,0,3,-0.77,-7.07,-1.89,0.22,0.94,0.3
25.566406,-0.04902544,-0.051930923,0.02027819,0.22,0.94,0.29,28075,10122.1,0,0,3,-0.7,-6.09,-1.82,0.22,0.94,0.29
26.566406,-0.040025435,-0.04593092,0.022278192,0.22,0.94,0.29,28089,10123.1,0,0,3,-0.07,-5.67,-1.68,0.22,0.94,0.29
26.566406,-0.041025437,-0.03993092,0.032278188,0.22,0.94,0.29,28097,10123.1,0,0,3,-0.14,-5.25,-0.98,0.22,0.94,0.29
20.867188,-0.037025437,-0.02793092,0.03927819,0.22,0.94,0.29,28127,10117.4,0,0,3,0.14,-4.41,-0.49,0.22,0.94,0.29
25.566406,-0.03602544,-0.021930918,0.04027819,0.22,0.94,0.29,28142,10122.1,0,0,3,0.21,-3.99,-0.42,0.22,0.94,0.29
25.566406,-0.03802544,-0.011930916,0.04127819,0.22,0.94,0.29,28157,10122.1,0,0,3,0.07,-3.29,-0.35,0.22,0.94,0.29
26.867188,-0.046025436,-0.0069309175,0.04127819,0.22,0.94,0.29,28172,10123.4,0,0,3,-0.49,-2.94,-0.35,0.22,0.94,0.29
25.867188,-0.050025437,-0.0019309185,0.05127819,0.22,0.94,0.28,28209,10122.4,0,0,3,-0.77,-2.59,0.35,0.22,0.94,0.28
25.867188,-0.046025436,0.002069082,0.05627819,0.21,0.95,0.28,28217,10122.4,0,0,3,-0.49,-2.31,0.7,0.21,0.95,0.28
19.766602,-0.05302544,0.0040690806,0.04627819,0.21,0.94,0.29,28247,10116.3,0,0,3,-0.98,-2.17,0,0.21,0.94,0.29
27.867188,-0.06802544,0.008069081,0.03827819,0.22,0.94,0.29,28269,10124.4,0,0,3,-2.03,-1.89,-0.56,0.22,0.94,0.29
26.166992,-0.06802544,0.011069084,0.04727819,0.22,0.94,0.29,28284,10122.7,0,0,3,-2.03,-1.68,0.07,0.22,0.94,0.29
26.867188,-0.062025435,0.010069082,0.05627819,0.22,0.94,0.29,28308,10123.4,0,0,3,-1.61,-1.75,0.7,0.22,0.94,0.29
25.867188,-0.05802544,0.0050690826,0.05727819,0.22,0.94,0.29,28329,10122.4,0,0,3,-1.33,-2.1,0.77,0.22,0.94,0.29
24.867188,-0.057025436,0.007069081,0.05427819,0.22,0.94,0.29,28344,10121.4,0,0,3,-1.26,-1.96,0.56,0.22,0.94,0.29
27.867188,-0.05802544,0.007069081,0.05527819,0.22,0.94,0.3,28367,10124.4,0,0,3,-1.33,-1.96,0.63,0.22,0.94,0.3
25.867188,-0.062025435,0.010069082,0.06327819,0.22,0.93,0.3,28397,10122.4,0,0,3,-1.61,-1.75,1.19,0.22,0.93,0.3
24.566406,-0.062025435,0.009069081,0.06727819,0.22,0.94,0.3,28399,10121.1,0,0,3,-1.61,-1.82,1.47,0.22,0.94,0.3
25.867188,-0.06002544,0.012069082,0.07427819,0.21,0.94,0.3,28420,10122.4,0,0,3,-1.47,-1.61,1.96,0.21,0.94,0.3
22.867188,-0.055025436,0.018069081,0.06227819,0.22,0.94,0.3,28449,10119.4,0,0,3,-1.12,-1.19,1.12,0.22,0.94,0.3
27.166992,-0.052025437,0.028069083,0.05527819,0.22,0.94,0.3,28464,10123.7,0,0,3,-0.91,-0.49,0.63,0.22,0.94,0.3
25.867188,-0.051025435,0.032069083,0.05327819,0.23,0.94,0.3,28479,10122.4,0,0,3,-0.84,-0.21,0.49,0.23,0.94,0.3
25.867188,-0.056025438,0.032069083,0.05727819,0.23,0.94,0.3,28510,10122.4,0,0,3,-1.19,-0.21,0.77,0.23,0.94,0.3
26.166992,-0.054025438,0.023069084,0.06127819,0.22,0.94,0.3,28524,10122.7,0,0,3,-1.05,-0.84,1.05,0.22,0.94,0.3
25.166992,-0.052025437,0.01606908,0.05727819,0.22,0.94,0.29,28555,10121.7,0,0,3,-0.91,-1.33,0.77,0.22,0.94,0.29
24.166992,-0.042025436,0.014069082,0.04827819,0.22,0.94,0.3,28570,10120.7,0,0,3,-0.21,-1.47,0.14,0.22,0.94,0.3
26.166992,-0.041025437,0.01606908,0.05027819,0.22,0.93,0.3,28593,10122.7,0,0,3,-0.14,-1.33,0.28,0.22,0.93,0.3
27.166992,-0.044025436,0.017069083,0.05127819,0.22,0.93,0.3,28599,10123.7,0,0,3,-0.35,-1.26,0.35,0.22,0.93,0.3
26.566406,-0.045025438,0.019069081,0.05527819,0.22,0.94,0.3,28622,10123.1,0,0,3,-0.42,-1.12,0.63,0.22,0.94,0.3
28.867188,-0.046025436,0.019069081,0.05627819,0.22,0.94,0.3,28637,10125.4,0,0,3,-0.49,-1.12,0.7,0.22,0.94,0.3
29.266602,-0.048025437,0.022069082,0.06127819,0.22,0.94,0.3,28659,10125.8,0,0,3,-0.63,-0.91,1.05,0.22,0.94,0.3
30.566406,-0.048025437,0.023069084,0.06227819,0.22,0.94,0.3,28674,10127.1,0,0,3,-0.63,-0.84,1.12,0.22,0.94,0.3
29.566406,-0.041025437,0.02706908,0.06227819,0.22,0.94,0.3,28697,10126.1,0,0,3,-0.14,-0.56,1.12,0.22,0.94,0.3
31.266602,-0.03802544,0.034069084,0.06127819,0.22,0.93,0.3,28712,10127.8,0,0,3,0.07,-0.07,1.05,0.22,0.93,0.3
31.266602,-0.039025437,0.03606908,0.06627819,0.22,0.94,0.31,28742,10127.8,0,0,3,0,0.07,1.4,0.22,0.94,0.31
32.2666,-0.039025437,0.039069083,0.06627819,0.22,0.94,0.3,28757,10128.8,0,0,3,0,0.28,1.4,0.22,0.94,0.3
34.2666,-0.031025436,0.04006908,0.064278185,0.22,0.94,0.3,28780,10130.8,0,0,3,0.56,0.35,1.26,0.22,0.94,0.3
31.566406,-0.031025436,0.041069083,0.06827819,0.22,0.94,0.3,28802,10128.1,0,0,3,0.56,0.42,1.54,0.22,0.94,0.3
32.566406,-0.040025435,0.037069082,0.05727819,0.21,0.94,0.3,28825,10129.1,0,0,3,-0.07,0.14,0.77,0.21,0.94,0.3
34.566406,-0.050025437,0.035069082,0.04927819,0.22,0.94,0.3,28864,10131.1,0,0,3,-0.77,0,0.21,0.22,0.94,0.3
34.2666,-0.048025437,0.03606908,0.05127819,0.22,0.94,0.3,28865,10130.8,0,0,3,-0.63,0.07,0.35,0.22,0.94,0.3
35.966797,-0.04702544,0.031069081,0.04927819,0.22,0.94,0.3,28892,10132.5,0,0,3,-0.56,-0.28,0.21,0.22,0.94,0.3
35.566406,-0.041025437,0.03306908,0.04727819,0.22,0.93,0.3,28893,10132.1,0,0,3,-0.14,-0.14,0.07,0.22,0.93,0.3
36.666992,-0.042025436,0.026069082,0.04827819,0.22,0.94,0.3,28922,10133.2,0,0,3,-0.21,-0.63,0.14,0.22,0.94,0.3
36.666992,-0.040025435,0.024069082,0.04227819,0.22,0.94,0.3,28952,10133.2,0,0,3,-0.07,-0.77,-0.28,0.22,0.94,0.3
38.666992,-0.042025436,0.019069081,0.29827818,0.22,0.94,0.31,28959,10135.2,0,0,3,-0.21,-1.12,17.64,0.22,0.94,0.31
39.666992,-0.035025436,0.019069081,0.05127819,0.22,0.94,0.3,28990,10136.2,0,0,3,0.28,-1.12,0.35,0.22,0.94,0.3
44.666992,-0.032025438,0.022069082,0.05627819,0.22,0.94,0.31,28997,10141.2,0,0,3,0.49,-0.91,0.7,0.22,0.94,0.31
42.666992,-0.039025437,0.020069081,0.04727819,0.21,0.94,0.31,29027,10139.2,0,0,3,0,-1.05,0.07,0.21,0.94,0.31
43.666992,-0.043025438,0.021069082,0.03527819,0.22,0.94,0.31,29043,10140.2,0,0,3,-0.28,-0.98,-0.77,0.22,0.94,0.31
44.666992,-0.034025438,0.023069084,0.03427819,0.22,0.94,0.3,29072,10141.2,0,0,3,0.35,-0.84,-0.84,0.22,0.94,0.3
44.666992,-0.017025437,0.025069082,0.03727819,0.22,0.94,0.3,29087,10141.2,0,0,3,1.54,-0.7,-0.63,0.22,0.94,0.3
44.666992,-0.011025436,0.023069084,0.04327819,0.22,0.94,0.31,29106,10141.2,0,0,3,1.96,-0.84,-0.21,0.22,0.94,0.31
46.666992,-0.011025436,0.017069083,0.04427819,0.21,0.94,0.31,29117,10143.2,0,0,3,1.96,-1.26,-0.14,0.21,0.94,0.31
42.666992,-0.012025436,0.01606908,0.05127819,0.22,0.94,0.31,29140,10139.2,0,0,3,1.89,-1.33,0.35,0.22,0.94,0.31
46.066406,-0.014025437,0.014069082,0.05227819,0.21,0.94,0.31,29155,10142.6,0,0,3,1.75,-1.47,0.42,0.21,0.94,0.31
45.367188,-0.011025436,0.014069082,0.05127819,0.21,0.94,0.3,29177,10141.9,0,0,3,1.96,-1.47,0.35,0.21,0.94,0.3
44.066406,-0.009025438,0.010069082,0.05527819,0.21,0.94,0.3,29192,10140.6,0,0,3,2.1,-1.75,0.63,0.21,0.94,0.3
45.066406,-0.0010254346,0.0050690826,0.058278188,0.21,0.94,0.3,29214,10141.6,0,0,3,2.66,-2.1,0.84,0.21,0.94,0.3
45.066406,0.000974562,0.0010690801,0.06727819,0.21,0.94,0.3,29252,10141.6,0,0,3,2.8,-2.38,1.47,0.21,0.94,0.3
45.066406,0.0049745627,-0.0009309165,0.06927819,0.21,0.94,0.3,29259,10141.6,0,0,3,3.08,-2.52,1.61,0.21,0.94,0.3
46.066406,0.006974563,0.0060690828,0.06727819,0.21,0.94,0.3,29281,10142.6,0,0,3,3.22,-2.03,1.47,0.21,0.94,0.3
45.367188,-2.5436282e-05,0.008069081,0.06727819,0.21,0.94,0.3,29311,10141.9,0,0,3,2.73,-1.89,1.47,0.21,0.94,0.3
45.066406,-0.009025438,0.010069082,0.06627819,0.21,0.94,0.29,29327,10141.6,0,0,3,2.1,-1.75,1.4,0.21,0.94,0.29
45.066406,-0.011025436,0.009069081,0.06527819,0.21,0.94,0.29,29357,10141.6,0,0,3,1.96,-1.82,1.33,0.21,0.94,0.29
45.066406,-0.009025438,0.010069082,0.07327819,0.21,0.95,0.29,29364,10141.6,0,0,3,2.1,-1.75,1.89,0.21,0.95,0.29
45.367188,-0.009025438,0.008069081,0.06827819,0.21,0.95,0.29,29379,10141.9,0,0,3,2.1,-1.89,1.54,0.21,0.95,0.29
44.367188,-0.010025438,0.0060690828,0.05727819,0.21,0.94,0.29,29395,10140.9,0,0,3,2.03,-2.03,0.77,0.21,0.94,0.29
44.367188,-0.017025437,0.0050690826,0.04927819,0.21,0.94,0.29,29417,10140.9,0,0,3,1.54,-2.1,0.21,0.21,0.94,0.29
45.367188,-0.025025437,0.007069081,0.05227819,0.22,0.94,0.29,29440,10141.9,0,0,3,0.98,-1.96,0.42,0.22,0.94,0.29
43.367188,-0.030025437,0.0010690801,0.06127819,0.21,0.95,0.28,29470,10139.9,0,0,3,0.63,-2.38,1.05,0.21,0.95,0.28
45.066406,-0.025025437,-0.00993092,0.05427819,0.21,0.95,0.28,29492,10141.6,0,0,3,0.98,-3.15,0.56,0.21,0.95,0.28
44.367188,-0.021025438,-0.0139309205,0.03627819,0.21,0.95,0.28,29507,10140.9,0,0,3,1.26,-3.43,-0.7,0.21,0.95,0.28
44.367188,-0.020025436,-0.01893092,0.02327819,0.21,0.94,0.28,29529,10140.9,0,0,3,1.33,-3.78,-1.61,0.21,0.94,0.28
44.367188,-0.025025437,-0.022930916,0.01627819,0.21,0.95,0.29,29567,10140.9,0,0,3,0.98,-4.06,-2.1,0.21,0.95,0.29
45.367188,-0.03802544,-0.037930917,0.014278188,0.21,0.94,0.28,29568,10141.9,0,0,3,0.07,-5.11,-2.24,0.21,0.94,0.28
39.2666,-0.050025437,-0.047930915,0.01127819,0.22,0.92,0.28,29605,10135.8,0,0,3,-0.77,-5.81,-2.45,0.22,0.92,0.28
40.966797,-0.039025437,-0.03893092,0.04027819,0.22,0.94,0.27,29612,10137.5,0,0,3,0,-5.18,-0.42,0.22,0.94,0.27
43.367188,-0.025025437,-0.022930916,0.06227819,0.21,0.95,0.28,29641,10139.9,0,0,3,0.98,-4.06,1.12,0.21,0.95,0.28
44.367188,-0.026025437,-0.011930916,0.07427819,0.2,0.95,0.29,29643,10140.9,0,0,3,0.91,-3.29,1.96,0.2,0.95,0.29
43.666992,-0.031025436,0.0060690828,0.07027819,0.21,0.94,0.29,29679,10140.2,0,0,3,0.56,-2.03,1.68,0.21,0.94,0.29
43.666992,-0.045025438,0.018069081,0.06127819,0.21,0.94,0.28,29687,10140.2,0,0,3,-0.42,-1.19,1.05,0.21,0.94,0.28
42.666992,-0.044025436,0.021069082,0.06327819,0.21,0.94,0.28,29709,10139.2,0,0,3,-0.35,-0.98,1.19,0.21,0.94,0.28
42.666992,-0.042025436,0.014069082,0.06627819,0.22,0.95,0.28,29725,10139.2,0,0,3,-0.21,-1.47,1.4,0.22,0.95,0.28
42.666992,-0.035025436,0.014069082,0.06527819,0.21,0.95,0.28,29755,10139.2,0,0,3,0.28,-1.47,1.33,0.21,0.95,0.28
43.666992,-0.031025436,0.020069081,0.064278185,0.21,0.95,0.28,29777,10140.2,0,0,3,0.56,-1.05,1.26,0.21,0.95,0.28
39.666992,-0.025025437,0.018069081,0.05227819,0.21,0.95,0.28,29792,10136.2,0,0,3,0.98,-1.19,0.42,0.21,0.95,0.28
41.966797,-0.024025436,0.020069081,0.04827819,0.21,0.94,0.28,29830,10138.5,0,0,3,1.05,-1.05,0.14,0.21,0.94,0.28
43.367188,-0.031025436,0.025069082,0.05027819,0.21,0.94,0.27,29845,10139.9,0,0,3,0.56,-0.7,0.28,0.21,0.94,0.27
42.666992,-0.030025437,0.026069082,0.05027819,0.22,0.94,0.28,29867,10139.2,0,0,3,0.63,-0.63,0.28,0.22,0.94,0.28
41.367188,-0.034025438,0.022069082,0.05427819,0.21,0.94,0.28,29874,10137.9,0,0,3,0.35,-0.91,0.56,0.21,0.94,0.28
42.367188,-0.044025436,0.018069081,0.05427819,0.21,0.94,0.28,29897,10138.9,0,0,3,-0.35,-1.19,0.56,0.21,0.94,0.28
45.666992,-0.050025437,0.026069082,0.05927819,0.22,0.93,0.28,29904,10142.2,0,0,3,-0.77,-0.63,0.91,0.22,0.93,0.28
42.666992,-0.052025437,0.034069084,0.06727819,0.22,0.95,0.29,29949,10139.2,0,0,3,-0.91,-0.07,1.47,0.22,0.95,0.29
42.666992,-0.048025437,0.037069082,0.06727819,0.21,0.95,0.28,29958,10139.2,0,0,3,-0.63,0.14,1.47,0.21,0.95,0.28
42.666992,-0.051025435,0.031069081,0.05327819,0.21,0.95,0.28,29972,10139.2,0,0,3,-0.84,-0.28,0.49,0.21,0.95,0.28
43.666992,-0.05302544,0.030069083,0.04227819,0.22,0.94,0.28,29994,10140.2,0,0,3,-0.98,-0.35,-0.28,0.22,0.94,0.28
42.666992,-0.052025437,0.025069082,0.04727819,0.22,0.94,0.28,30009,10139.2,0,0,3,-0.91,-0.7,0.07,0.22,0.94,0.28
42.966797,-0.05302544,0.014069082,0.05627819,0.22,0.93,0.29,30032,10139.5,0,0,3,-0.98,-1.47,0.7,0.22,0.93,0.29
41.966797,-0.056025438,0.0030690804,0.05627819,0.21,0.95,0.28,30061,10138.5,0,0,3,-1.19,-2.24,0.7,0.21,0.95,0.28
41.966797,-0.05302544,-0.0029309206,0.04727819,0.21,0.95,0.29,30077,10138.5,0,0,3,-0.98,-2.66,0.07,0.21,0.95,0.29
41.966797,-0.050025437,6.908178e-05,0.03427819,0.2,0.95,0.28,30101,10138.5,0,0,3,-0.77,-2.45,-0.84,0.2,0.95,0.28
39.966797,-0.044025436,0.008069081,0.03127819,0.21,0.95,0.29,30122,10136.5,0,0,3,-0.35,-1.89,-1.05,0.21,0.95,0.29
41.966797,-0.041025437,0.014069082,0.03327819,0.21,0.94,0.29,30132,10138.5,0,0,3,-0.14,-1.47,-0.91,0.21,0.94,0.29
41.367188,-0.04702544,0.019069081,0.03327819,0.2,0.94,0.29,30160,10137.9,0,0,3,-0.56,-1.12,-0.91,0.2,0.94,0.29
40.966797,-0.050025437,0.024069082,0.03627819,0.2,0.94,0.29,30182,10137.5,0,0,3,-0.77,-0.77,-0.7,0.2,0.94,0.29
41.966797,-0.050025437,0.02706908,0.04327819,0.2,0.94,0.28,30197,10138.5,0,0,3,-0.77,-0.56,-0.21,0.2,0.94,0.28
41.367188,-0.045025438,0.024069082,0.04627819,0.21,0.94,0.28,30205,10137.9,0,0,3,-0.42,-0.77,0,0.21,0.94,0.28
41.966797,-0.044025436,0.024069082,0.05727819,0.21,0.94,0.29,30227,10138.5,0,0,3,-0.35,-0.77,0.77,0.21,0.94,0.29
34.966797,-0.043025438,0.026069082,0.07027819,0.21,0.94,0.29,30249,10131.5,0,0,3,-0.28,-0.63,1.68,0.21,0.94,0.29
45.367188,-0.042025436,0.021069082,0.06627819,0.21,0.94,0.29,30272,10141.9,0,0,3,-0.21,-0.98,1.4,0.21,0.94,0.29
43.367188,-0.039025437,0.021069082,0.06327819,0.2,0.95,0.29,30294,10139.9,0,0,3,0,-0.98,1.19,0.2,0.95,0.29
41.367188,-0.037025437,0.025069082,0.06127819,0.21,0.95,0.29,30325,10137.9,0,0,3,0.14,-0.7,1.05,0.21,0.95,0.29
42.367188,-0.041025437,0.025069082,0.05727819,0.21,0.95,0.29,30340,10138.9,0,0,3,-0.14,-0.7,0.77,0.21,0.95,0.29
42.367188,-0.040025435,0.025069082,0.05727819,0.21,0.95,0.28,30371,10138.9,0,0,3,-0.07,-0.7,0.77,0.21,0.95,0.28
40.966797,-0.037025437,0.018069081,0.05027819,0.21,0.95,0.29,30377,10137.5,0,0,3,0.14,-1.19,0.28,0.21,0.95,0.29
40.2666,-0.034025438,0.013069082,0.04627819,0.2,0.95,0.28,30392,10136.8,0,0,3,0.35,-1.54,0,0.2,0.95,0.28
37.2666,-0.034025438,0.012069082,0.04627819,0.21,0.94,0.28,30407,10133.8,0,0,3,0.35,-1.61,0,0.21,0.94,0.28
41.367188,-0.041025437,0.009069081,0.04927819,0.21,0.94,0.28,30437,10137.9,0,0,3,-0.14,-1.82,0.21,0.21,0.94,0.28
42.367188,-0.03602544,0.007069081,0.05427819,0.2,0.95,0.28,30459,10138.9,0,0,3,0.21,-1.96,0.56,0.2,0.95,0.28
41.367188,-0.029025437,0.0030690804,0.05927819,0.2,0.96,0.28,30475,10137.9,0,0,3,0.7,-2.24,0.91,0.2,0.96,0.28
41.367188,-0.028025437,0.0060690828,0.05127819,0.2,0.95,0.29,30490,10137.9,0,0,3,0.77,-2.03,0.35,0.2,0.95,0.29
40.966797,-0.041025437,0.007069081,0.03927819,0.21,0.94,0.29,30520,10137.5,0,0,3,-0.14,-1.96,-0.49,0.21,0.94,0.29
40.2666,-0.048025437,0.010069082,0.04627819,0.21,0.94,0.28,30549,10136.8,0,0,3,-0.63,-1.75,0,0.21,0.94,0.28
41.367188,-0.042025436,0.0050690826,0.058278188,0.21,0.94,0.28,30565,10137.9,0,0,3,-0.21,-2.1,0.84,0.21,0.94,0.28
40.2666,-0.037025437,-0.0059309155,0.058278188,0.2,0.95,0.28,30579,10136.8,0,0,3,0.14,-2.87,0.84,0.2,0.95,0.28
39.666992,-0.039025437,-0.0059309155,0.05527819,0.21,0.94,0.28,30602,10136.2,0,0,3,0,-2.87,0.63,0.21,0.94,0.28
40.966797,-0.041025437,6.908178e-05,0.05727819,0.21,0.94,0.29,30617,10137.5,0,0,3,-0.14,-2.45,0.77,0.21,0.94,0.29
41.666992,-0.04702544,0.0050690826,0.058278188,0.21,0.94,0.28,30632,10138.2,0,0,3,-0.56,-2.1,0.84,0.21,0.94,0.28
40.666992,-0.048025437,0.007069081,0.060278192,0.21,0.95,0.28,30654,10137.2,0,0,3,-0.63,-1.96,0.98,0.21,0.95,0.28
41.367188,-0.045025438,0.008069081,0.05727819,0.2,0.95,0.28,30670,10137.9,0,0,3,-0.42,-1.89,0.77,0.2,0.95,0.28
40.666992,-0.046025436,0.007069081,0.04927819,0.2,0.95,0.28,30691,10137.2,0,0,3,-0.49,-1.96,0.21,0.2,0.95,0.28
42.666992,-0.050025437,0.010069082,0.04027819,0.2,0.95,0.28,30715,10139.2,0,0,3,-0.77,-1.75,-0.42,0.2,0.95,0.28
41.666992,-0.044025436,0.011069084,0.03927819,0.21,0.95,0.28,30737,10138.2,0,0,3,-0.35,-1.68,-0.49,0.21,0.95,0.28
40.966797,-0.039025437,0.007069081,0.03727819,0.2,0.94,0.28,30752,10137.5,0,0,3,0,-1.96,-0.63,0.2,0.94,0.28
40.666992,-0.041025437,0.0010690801,0.04127819,0.2,0.94,0.28,30775,10137.2,0,0,3,-0.14,-2.38,-0.35,0.2,0.94,0.28
41.966797,-0.045025438,-0.0009309165,0.05127819,0.2,0.94,0.28,30796,10138.5,0,0,3,-0.42,-2.52,0.35,0.2,0.94,0.28
41.666992,-0.044025436,0.002069082,0.05427819,0.2,0.95,0.28,30819,10138.2,0,0,3,-0.35,-2.31,0.56,0.2,0.95,0.28
43.666992,-0.046025436,0.008069081,0.04427819,0.2,0.95,0.29,30849,10140.2,0,0,3,-0.49,-1.89,-0.14,0.2,0.95,0.29
36.566406,-0.04902544,0.011069084,0.03827819,0.2,0.94,0.28,30864,10133.1,0,0,3,-0.7,-1.68,-0.56,0.2,0.94,0.28
41.966797,-0.051025435,0.013069082,0.04127819,0.2,0.94,0.28,30872,10138.5,0,0,3,-0.84,-1.54,-0.35,0.2,0.94,0.28
41.367188,-0.05302544,0.011069084,0.04327819,0.2,0.95,0.28,30886,10137.9,0,0,3,-0.98,-1.68,-0.21,0.2,0.95,0.28
36.566406,-0.04702544,0.0060690828,0.04927819,0.2,0.94,0.28,30909,10133.1,0,0,3,-0.56,-2.03,0.21,0.2,0.94,0.28
41.966797,-0.045025438,0.0060690828,0.05227819,0.2,0.94,0.29,30931,10138.5,0,0,3,-0.42,-2.03,0.42,0.2,0.94,0.29
41.966797,-0.04902544,0.0040690806,0.04827819,0.2,0.94,0.29,30946,10138.5,0,0,3,-0.7,-2.17,0.14,0.2,0.94,0.29
46.066406,-0.052025437,0.009069081,0.05627819,0.2,0.94,0.29,30977,10142.6,0,0,3,-0.91,-1.82,0.7,0.2,0.94,0.29
40.966797,-0.048025437,0.012069082,0.06827819,0.2,0.95,0.29,30992,10137.5,0,0,3,-0.63,-1.61,1.54,0.2,0.95,0.29
40.966797,-0.044025436,0.015069082,0.07127819,0.19,0.96,0.29,31015,10137.5,0,0,3,-0.35,-1.4,1.75,0.19,0.96,0.29
41.666992,-0.046025436,0.017069083,0.05927819,0.19,0.95,0.29,31037,10138.2,0,0,3,-0.49,-1.26,0.91,0.19,0.95,0.29
40.966797,-0.052025437,0.023069084,0.04927819,0.2,0.95,0.29,31059,10137.5,0,0,3,-0.91,-0.84,0.21,0.2,0.95,0.29
40.966797,-0.048025437,0.022069082,0.05427819,0.2,0.95,0.28,31081,10137.5,0,0,3,-0.63,-0.91,0.56,0.2,0.95,0.28
41.966797,-0.037025437,0.009069081,0.06227819,0.2,0.94,0.29,31097,10138.5,0,0,3,0.14,-1.82,1.12,0.2,0.94,0.29
41.966797,-0.037025437,0.0050690826,0.06727819,0.2,0.94,0.29,31119,10138.5,0,0,3,0.14,-2.1,1.47,0.2,0.94,0.29
40.966797,-0.037025437,0.002069082,0.06927819,0.2,0.95,0.29,31134,10137.5,0,0,3,0.14,-2.31,1.61,0.2,0.95,0.29
41.666992,-0.037025437,0.0040690806,0.06727819,0.2,0.95,0.29,31149,10138.2,0,0,3,0.14,-2.17,1.47,0.2,0.95,0.29
43.367188,-0.03802544,0.012069082,0.06327819,0.2,0.94,0.29,31173,10139.9,0,0,3,0.07,-1.61,1.19,0.2,0.94,0.29
39.966797,-0.032025438,0.018069081,0.060278192,0.2,0.95,0.29,31194,10136.5,0,0,3,0.49,-1.19,0.98,0.2,0.95,0.29
41.2666,-0.025025437,0.022069082,0.05927819,0.2,0.95,0.29,31209,10137.8,0,0,3,0.98,-0.91,0.91,0.2,0.95,0.29
38.2666,-0.028025437,0.024069082,0.05527819,0.2,0.94,0.29,31232,10134.8,0,0,3,0.77,-0.77,0.63,0.2,0.94,0.29
44.367188,-0.032025438,0.023069084,0.060278192,0.2,0.94,0.28,31255,10140.9,0,0,3,0.49,-0.84,0.98,0.2,0.94,0.28
41.666992,-0.030025437,0.021069082,0.06327819,0.2,0.95,0.28,31296,10138.2,0,0,3,0.63,-0.98,1.19,0.2,0.95,0.28
41.666992,-0.027025439,0.017069083,0.06127819,0.2,0.94,0.28,31296,10138.2,0,0,3,0.84,-1.26,1.05,0.2,0.94,0.28
41.2666,-0.030025437,0.015069082,0.06227819,0.2,0.94,0.28,31316,10137.8,0,0,3,0.63,-1.4,1.12,0.2,0.94,0.28
40.666992,-0.032025438,0.013069082,0.06727819,0.2,0.94,0.28,31338,10137.2,0,0,3,0.49,-1.54,1.47,0.2,0.94,0.28
38.2666,-0.035025436,0.01606908,0.07327819,0.2,0.95,0.28,31367,10134.8,0,0,3,0.28,-1.33,1.89,0.2,0.95,0.28
40.2666,-0.034025438,0.019069081,0.06927819,0.2,0.95,0.28,31382,10136.8,0,0,3,0.35,-1.12,1.61,0.2,0.95,0.28
40.2666,-0.037025437,0.023069084,0.06527819,0.2,0.95,0.28,31405,10136.8,0,0,3,0.14,-0.84,1.33,0.2,0.95,0.28
40.2666,-0.037025437,0.024069082,0.06127819,0.2,0.95,0.28,31428,10136.8,0,0,3,0.14,-0.77,1.05,0.2,0.95,0.28
40.2666,-0.039025437,0.023069084,0.06327819,0.2,0.95,0.28,31430,10136.8,0,0,3,0,-0.84,1.19,0.2,0.95,0.28
41.666992,-0.03802544,0.018069081,0.05927819,0.2,0.94,0.28,31449,10138.2,0,0,3,0.07,-1.19,0.91,0.2,0.94,0.28
39.666992,-0.03802544,0.009069081,0.06327819,0.2,0.95,0.28,31487,10136.2,0,0,3,0.07,-1.82,1.19,0.2,0.95,0.28
41.666992,-0.035025436,0.010069082,0.06627819,0.2,0.95,0.28,31495,10138.2,0,0,3,0.28,-1.75,1.4,0.2,0.95,0.28
36.566406,-0.03602544,0.008069081,0.064278185,0.2,0.94,0.28,31510,10133.1,0,0,3,0.21,-1.89,1.26,0.2,0.94,0.28
40.666992,-0.032025438,0.014069082,0.07127819,0.2,0.95,0.28,31525,10137.2,0,0,3,0.49,-1.47,1.75,0.2,0.95,0.28
40.966797,-0.03602544,0.018069081,0.06927819,0.2,0.95,0.28,31547,10137.5,0,0,3,0.21,-1.19,1.61,0.2,0.95,0.28
41.666992,-0.042025436,0.022069082,0.05727819,0.2,0.94,0.29,31584,10138.2,0,0,3,-0.21,-0.91,0.77,0.2,0.94,0.29
40.666992,-0.056025438,0.026069082,0.05927819,0.21,0.94,0.28,31599,10137.2,0,0,3,-1.19,-0.63,0.91,0.21,0.94,0.28
39.666992,-0.05302544,0.022069082,0.06827819,0.21,0.94,0.28,31623,10136.2,0,0,3,-0.98,-0.91,1.54,0.21,0.94,0.28
38.966797,-0.04702544,0.013069082,0.07027819,0.2,0.95,0.28,31652,10135.5,0,0,3,-0.56,-1.54,1.68,0.2,0.95,0.28
40.966797,-0.044025436,0.009069081,0.06627819,0.2,0.95,0.28,31654,10137.5,0,0,3,-0.35,-1.82,1.4,0.2,0.95,0.28
39.666992,-0.046025436,0.010069082,0.06327819,0.21,0.95,0.29,31675,10136.2,0,0,3,-0.49,-1.75,1.19,0.21,0.95,0.29
40.966797,-0.048025437,0.013069082,0.06227819,0.2,0.95,0.28,31697,10137.5,0,0,3,-0.63,-1.54,1.12,0.2,0.95,0.28
40.966797,-0.051025435,0.017069083,0.064278185,0.2,0.95,0.28,31727,10137.5,0,0,3,-0.84,-1.26,1.26,0.2,0.95,0.28
40.666992,-0.04902544,0.021069082,0.058278188,0.2,0.95,0.28,31741,10137.2,0,0,3,-0.7,-0.98,0.84,0.2,0.95,0.28
39.966797,-0.048025437,0.017069083,0.04827819,0.2,0.95,0.28,31773,10136.5,0,0,3,-0.63,-1.26,0.14,0.2,0.95,0.28
39.966797,-0.04902544,0.021069082,0.04927819,0.21,0.95,0.28,31780,10136.5,0,0,3,-0.7,-0.98,0.21,0.21,0.95,0.28
39.666992,-0.052025437,0.019069081,0.05427819,0.21,0.94,0.28,31809,10136.2,0,0,3,-0.91,-1.12,0.56,0.21,0.94,0.28
40.2666,-0.05302544,0.013069082,0.05627819,0.2,0.94,0.28,31824,10136.8,0,0,3,-0.98,-1.54,0.7,0.2,0.94,0.28
39.966797,-0.04902544,0.0060690828,0.05927819,0.2,0.95,0.28,31847,10136.5,0,0,3,-0.7,-2.03,0.91,0.2,0.95,0.28
39.966797,-0.043025438,0.007069081,0.05927819,0.2,0.95,0.28,31862,10136.5,0,0,3,-0.28,-1.96,0.91,0.2,0.95,0.28
40.666992,-0.043025438,0.0050690826,0.05527819,0.2,0.95,0.29,31876,10137.2,0,0,3,-0.28,-2.1,0.63,0.2,0.95,0.29
40.2666,-0.044025436,0.012069082,0.05427819,0.2,0.95,0.29,31899,10136.8,0,0,3,-0.35,-1.61,0.56,0.2,0.95,0.29
39.2666,-0.050025437,0.017069083,0.05627819,0.2,0.94,0.29,31922,10135.8,0,0,3,-0.77,-1.26,0.7,0.2,0.94,0.29
39.966797,-0.054025438,0.01606908,0.06127819,0.2,0.95,0.29,31937,10136.5,0,0,3,-1.05,-1.33,1.05,0.2,0.95,0.29
39.966797,-0.04702544,0.017069083,0.05727819,0.2,0.95,0.29,31959,10136.5,0,0,3,-0.56,-1.26,0.77,0.2,0.95,0.29
41.2666,-0.046025436,0.014069082,0.05627819,0.2,0.94,0.28,31982,10137.8,0,0,3,-0.49,-1.47,0.7,0.2,0.94,0.28
39.966797,-0.051025435,0.013069082,0.05627819,0.2,0.94,0.29,32004,10136.5,0,0,3,-0.84,-1.54,0.7,0.2,0.94,0.29
40.2666,-0.046025436,0.012069082,0.06727819,0.2,0.94,0.29,32027,10136.8,0,0,3,-0.49,-1.61,1.47,0.2,0.94,0.29
40.2666,-0.039025437,0.010069082,0.07627819,0.2,0.95,0.28,32057,10136.8,0,0,3,0,-1.75,2.1,0.2,0.95,0.28
39.2666,-0.039025437,0.0060690828,0.06327819,0.19,0.95,0.29,32079,10135.8,0,0,3,0,-2.03,1.19,0.19,0.95,0.29
34.2666,-0.04702544,0.017069083,0.05527819,0.2,0.94,0.29,32094,10130.8,0,0,3,-0.56,-1.26,0.63,0.2,0.94,0.29
42.2666,-0.052025437,0.025069082,0.05527819,0.2,0.95,0.29,32109,10138.8,0,0,3,-0.91,-0.7,0.63,0.2,0.95,0.29
39.666992,-0.050025437,0.023069084,0.060278192,0.2,0.95,0.28,32132,10136.2,0,0,3,-0.77,-0.84,0.98,0.2,0.95,0.28
40.2666,-0.044025436,0.017069083,0.06227819,0.2,0.95,0.28,32154,10136.8,0,0,3,-0.35,-1.26,1.12,0.2,0.95,0.28
38.2666,-0.03602544,0.010069082,0.064278185,0.2,0.94,0.29,32177,10134.8,0,0,3,0.21,-1.75,1.26,0.2,0.94,0.29
39.2666,-0.03802544,0.008069081,0.060278192,0.2,0.94,0.29,32184,10135.8,0,0,3,0.07,-1.89,0.98,0.2,0.94,0.29
39.2666,-0.037025437,0.011069084,0.060278192,0.2,0.95,0.29,32207,10135.8,0,0,3,0.14,-1.68,0.98,0.2,0.95,0.29
41.666992,-0.037025437,0.013069082,0.05927819,0.2,0.95,0.29,32230,10138.2,0,0,3,0.14,-1.54,0.91,0.2,0.95,0.29
36.566406,-0.034025438,0.018069081,0.06127819,0.2,0.94,0.29,32260,10133.1,0,0,3,0.35,-1.19,1.05,0.2,0.94,0.29
38.2666,-0.040025435,0.015069082,0.05427819,0.2,0.95,0.29,32274,10134.8,0,0,3,-0.07,-1.4,0.56,0.2,0.95,0.29
39.966797,-0.044025436,0.014069082,0.05727819,0.2,0.95,0.28,32312,10136.5,0,0,3,-0.35,-1.47,0.77,0.2,0.95,0.28
38.566406,-0.042025436,0.012069082,0.064278185,0.2,0.95,0.28,32327,10135.1,0,0,3,-0.21,-1.61,1.26,0.2,0.95,0.28
38.566406,-0.037025437,0.007069081,0.06327819,0.2,0.95,0.29,32342,10135.1,0,0,3,0.14,-1.96,1.19,0.2,0.95,0.29
40.666992,-0.037025437,0.0060690828,0.06527819,0.2,0.94,0.29,32357,10137.2,0,0,3,0.14,-2.03,1.33,0.2,0.94,0.29
34.566406,-0.032025438,0.009069081,0.06727819,0.2,0.94,0.29,32387,10131.1,0,0,3,0.49,-1.82,1.47,0.2,0.94,0.29
39.666992,-0.034025438,0.01606908,0.06327819,0.2,0.95,0.29,32402,10136.2,0,0,3,0.35,-1.33,1.19,0.2,0.95,0.29
39.666992,-0.03602544,0.019069081,0.06227819,0.2,0.95,0.28,32410,10136.2,0,0,3,0.21,-1.12,1.12,0.2,0.95,0.28
39.966797,-0.035025436,0.024069082,0.058278188,0.2,0.95,0.29,32439,10136.5,0,0,3,0.28,-0.77,0.84,0.2,0.95,0.29
38.566406,-0.035025436,0.024069082,0.06127819,0.2,0.94,0.28,32454,10135.1,0,0,3,0.28,-0.77,1.05,0.2,0.94,0.28
39.666992,-0.039025437,0.022069082,0.05527819,0.2,0.94,0.28,32470,10136.2,0,0,3,0,-0.91,0.63,0.2,0.94,0.28
38.2666,-0.041025437,0.015069082,0.05727819,0.2,0.95,0.28,32492,10134.8,0,0,3,-0.14,-1.4,0.77,0.2,0.95,0.28
37.966797,-0.034025438,0.008069081,0.05527819,0.21,0.95,0.29,32515,10134.5,0,0,3,0.35,-1.89,0.63,0.21,0.95,0.29
37.966797,-0.030025437,0.011069084,0.06327819,0.2,0.94,0.29,32537,10134.5,0,0,3,0.63,-1.68,1.19,0.2,0.94,0.29
38.966797,-0.033025436,0.017069083,0.06927819,0.2,0.95,0.29,32560,10135.5,0,0,3,0.42,-1.26,1.61,0.2,0.95,0.29
40.966797,-0.037025437,0.023069084,0.05927819,0.19,0.94,0.29,32590,10137.5,0,0,3,0.14,-0.84,0.91,0.19,0.94,0.29
40.666992,-0.046025436,0.030069083,0.05027819,0.2,0.94,0.28,32607,10137.2,0,0,3,-0.49,-0.35,0.28,0.2,0.94,0.28
38.966797,-0.04902544,0.031069081,0.05127819,0.21,0.94,0.28,32627,10135.5,0,0,3,-0.7,-0.28,0.35,0.21,0.94,0.28
38.966797,-0.045025438,0.02706908,0.05627819,0.2,0.94,0.28,32650,10135.5,0,0,3,-0.42,-0.56,0.7,0.2,0.94,0.28
39.2666,-0.042025436,0.018069081,0.06327819,0.2,0.95,0.29,32657,10135.8,0,0,3,-0.21,-1.19,1.19,0.2,0.95,0.29
37.966797,-0.041025437,0.014069082,0.06527819,0.2,0.94,0.29,32679,10134.5,0,0,3,-0.14,-1.47,1.33,0.2,0.94,0.29
38.966797,-0.045025438,0.012069082,0.06327819,0.2,0.94,0.29,32717,10135.5,0,0,3,-0.42,-1.61,1.19,0.2,0.94,0.29
39.2666,-0.043025438,0.012069082,0.05727819,0.2,0.95,0.28,32718,10135.8,0,0,3,-0.28,-1.61,0.77,0.2,0.95,0.28
45.367188,-0.03602544,0.014069082,0.05927819,0.2,0.95,0.28,32747,10141.9,0,0,3,0.21,-1.47,0.91,0.2,0.95,0.28
37.966797,-0.037025437,0.014069082,0.05227819,0.2,0.95,0.29,32762,10134.5,0,0,3,0.14,-1.47,0.42,0.2,0.95,0.29
38.2666,-0.039025437,0.015069082,0.04427819,0.2,0.94,0.29,32792,10134.8,0,0,3,0,-1.4,-0.14,0.2,0.94,0.29
38.966797,-0.042025436,0.019069081,0.05527819,0.2,0.94,0.28,32807,10135.5,0,0,3,-0.21,-1.12,0.63,0.2,0.94,0.28
39.2666,-0.042025436,0.009069081,0.05927819,0.21,0.94,0.28,32829,10135.8,0,0,3,-0.21,-1.82,0.91,0.21,0.94,0.28
38.966797,-0.042025436,0.0040690806,0.05927819,0.2,0.95,0.28,32852,10135.5,0,0,3,-0.21,-2.17,0.91,0.2,0.95,0.28
37.2666,-0.039025437,0.0010690801,0.05627819,0.2,0.95,0.28,32867,10133.8,0,0,3,0,-2.38,0.7,0.2,0.95,0.28
39.2666,-0.03802544,-0.0009309165,0.05527819,0.2,0.94,0.29,32889,10135.8,0,0,3,0.07,-2.52,0.63,0.2,0.94,0.29
39.2666,-0.042025436,0.0010690801,0.05427819,0.2,0.94,0.29,32912,10135.8,0,0,3,-0.21,-2.38,0.56,0.2,0.94,0.29
37.2666,-0.04902544,0.007069081,0.05527819,0.2,0.94,0.29,32927,10133.8,0,0,3,-0.7,-1.96,0.63,0.2,0.94,0.29
39.2666,-0.050025437,0.011069084,0.05727819,0.2,0.95,0.29,32942,10135.8,0,0,3,-0.77,-1.68,0.77,0.2,0.95,0.29
37.2666,-0.048025437,0.009069081,0.05427819,0.2,0.94,0.28,32964,10133.8,0,0,3,-0.63,-1.82,0.56,0.2,0.94,0.28
38.2666,-0.052025437,0.009069081,0.05627819,0.2,0.94,0.29,32987,10134.8,0,0,3,-0.91,-1.82,0.7,0.2,0.94,0.29
38.2666,-0.054025438,0.010069082,0.06527819,0.2,0.94,0.29,33009,10134.8,0,0,3,-1.05,-1.75,1.33,0.2,0.94,0.29
38.2666,-0.051025435,0.009069081,0.07127819,0.2,0.95,0.29,33032,10134.8,0,0,3,-0.84,-1.82,1.75,0.2,0.95,0.29
40.2666,-0.043025438,0.012069082,0.07527819,0.2,0.96,0.29,33054,10136.8,0,0,3,-0.28,-1.61,2.03,0.2,0.96,0.29
38.566406,-0.041025437,0.015069082,0.06127819,0.19,0.94,0.29,33085,10135.1,0,0,3,-0.14,-1.4,1.05,0.19,0.94,0.29
38.566406,-0.048025437,0.023069084,0.05027819,0.2,0.94,0.29,33100,10135.1,0,0,3,-0.63,-0.84,0.28,0.2,0.94,0.29
38.2666,-0.05302544,0.025069082,0.05627819,0.21,0.94,0.29,33122,10134.8,0,0,3,-0.98,-0.7,0.7,0.21,0.94,0.29
38.566406,-0.04702544,0.021069082,0.06227819,0.2,0.95,0.28,33137,10135.1,0,0,3,-0.56,-0.98,1.12,0.2,0.95,0.28
38.566406,-0.039025437,0.015069082,0.06827819,0.2,0.95,0.29,33153,10135.1,0,0,3,0,-1.4,1.54,0.2,0.95,0.29
40.666992,-0.037025437,0.009069081,0.064278185,0.2,0.95,0.29,33174,10137.2,0,0,3,0.14,-1.82,1.26,0.2,0.95,0.29
37.2666,-0.03802544,0.011069084,0.060278192,0.2,0.94,0.29,33196,10133.8,0,0,3,0.07,-1.68,0.98,0.2,0.94,0.29
37.966797,-0.03802544,0.015069082,0.058278188,0.2,0.95,0.29,33227,10134.5,0,0,3,0.07,-1.4,0.84,0.2,0.95,0.29
38.566406,-0.031025436,0.020069081,0.06127819,0.2,0.95,0.29,33235,10135.1,0,0,3,0.56,-1.05,1.05,0.2,0.95,0.29
38.566406,-0.033025436,0.020069081,0.05127819,0.2,0.95,0.29,33257,10135.1,0,0,3,0.42,-1.05,0.35,0.2,0.95,0.29
38.566406,-0.035025436,0.021069082,0.05327819,0.21,0.95,0.29,33279,10135.1,0,0,3,0.28,-0.98,0.49,0.21,0.95,0.29
38.966797,-0.032025438,0.021069082,0.05627819,0.2,0.95,0.28,33302,10135.5,0,0,3,0.49,-0.98,0.7,0.2,0.95,0.28
37.566406,-0.027025439,0.014069082,0.05727819,0.2,0.94,0.28,33324,10134.1,0,0,3,0.84,-1.47,0.77,0.2,0.94,0.28
38.966797,-0.027025439,0.008069081,0.05727819,0.2,0.94,0.29,33346,10135.5,0,0,3,0.84,-1.89,0.77,0.2,0.94,0.29
39.2666,-0.032025438,0.011069084,0.060278192,0.2,0.94,0.29,33369,10135.8,0,0,3,0.49,-1.68,0.98,0.2,0.94,0.29
38.966797,-0.035025436,0.012069082,0.05927819,0.2,0.94,0.29,33384,10135.5,0,0,3,0.28,-1.61,0.91,0.2,0.94,0.29
37.566406,-0.041025437,0.014069082,0.058278188,0.2,0.94,0.29,33399,10134.1,0,0,3,-0.14,-1.47,0.84,0.2,0.94,0.29
37.566406,-0.042025436,0.014069082,0.05127819,0.2,0.94,0.28,33424,10134.1,0,0,3,-0.21,-1.47,0.35,0.2,0.94,0.28
39.666992,-0.042025436,0.015069082,0.04627819,0.2,0.95,0.28,33444,10136.2,0,0,3,-0.21,-1.4,0,0.2,0.95,0.28
37.566406,-0.041025437,0.014069082,0.05027819,0.2,0.94,0.29,33466,10134.1,0,0,3,-0.14,-1.47,0.28,0.2,0.94,0.29
37.966797,-0.046025436,0.0060690828,0.05427819,0.2,0.94,0.28,33489,10134.5,0,0,3,-0.49,-2.03,0.56,0.2,0.94,0.28
37.566406,-0.042025436,0.0030690804,0.06227819,0.2,0.94,0.29,33504,10134.1,0,0,3,-0.21,-2.24,1.12,0.2,0.94,0.29
37.966797,-0.03602544,0.0040690806,0.06827819,0.2,0.95,0.29,33542,10134.5,0,0,3,0.21,-2.17,1.54,0.2,0.95,0.29
37.966797,-0.029025437,0.012069082,0.06527819,0.19,0.95,0.29,33549,10134.5,0,0,3,0.7,-1.61,1.33,0.19,0.95,0.29
32.566406,-0.037025437,0.024069082,0.05927819,0.19,0.94,0.29,33572,10129.1,0,0,3,0.14,-0.77,0.91,0.19,0.94,0.29
39.966797,-0.046025436,0.03306908,0.05727819,0.2,0.94,0.28,33601,10136.5,0,0,3,-0.49,-0.14,0.77,0.2,0.94,0.28
37.966797,-0.044025436,0.028069083,0.064278185,0.21,0.95,0.28,33619,10134.5,0,0,3,-0.35,-0.49,1.26,0.21,0.95,0.28
37.966797,-0.037025437,0.01606908,0.06527819,0.2,0.95,0.28,33640,10134.5,0,0,3,0.14,-1.33,1.33,0.2,0.95,0.28
32.867188,-0.033025436,0.0060690828,0.06327819,0.2,0.94,0.28,33647,10129.4,0,0,3,0.42,-2.03,1.19,0.2,0.94,0.28
37.966797,-0.033025436,0.0060690828,0.060278192,0.2,0.94,0.28,33685,10134.5,0,0,3,0.42,-2.03,0.98,0.2,0.94,0.28
38.966797,-0.040025435,0.008069081,0.058278188,0.2,0.94,0.28,33707,10135.5,0,0,3,-0.07,-1.89,0.84,0.2,0.94,0.28
40.966797,-0.03802544,0.012069082,0.05927819,0.2,0.95,0.29,33715,10137.5,0,0,3,0.07,-1.61,0.91,0.2,0.95,0.29
33.867188,-0.035025436,0.024069082,0.06327819,0.2,0.94,0.29,33730,10130.4,0,0,3,0.28,-0.77,1.19,0.2,0.94,0.29
37.566406,-0.045025438,0.02706908,0.05327819,0.2,0.94,0.29,33752,10134.1,0,0,3,-0.42,-0.56,0.49,0.2,0.94,0.29
38.566406,-0.04702544,0.029069083,0.05527819,0.2,0.95,0.28,33790,10135.1,110,0,3,-0.56,-0.42,0.63,0.2,0.95,0.28
37.966797,-0.041025437,0.022069082,0.05427819,0.21,0.95,0.28,33805,10134.5,110,0,3,-0.14,-0.91,0.56,0.21,0.95,0.28
38.2666,-0.039025437,0.015069082,0.05527819,0.21,0.95,0.28,33819,10134.8,110,0,3,0,-1.4,0.63,0.21,0.95,0.28
37.966797,-0.039025437,0.007069081,0.05227819,0.2,0.95,0.28,33842,10134.5,110,0,3,0,-1.96,0.42,0.2,0.95,0.28
32.867188,-0.030025437,0.0030690804,0.04527819,0.2,0.95,0.28,33879,10129.4,110,0,3,0.63,-2.24,-0.07,0.2,0.95,0.28
42.2666,-0.027025439,6.908178e-05,0.03927819,0.19,0.95,0.28,33881,10138.8,110,0,3,0.84,-2.45,-0.49,0.19,0.95,0.28
36.966797,-0.025025437,0.002069082,0.03327819,0.19,0.95,0.28,33902,10133.5,110,0,3,0.98,-2.31,-0.91,0.19,0.95,0.28
37.2666,-0.025025437,0.007069081,0.032278188,0.19,0.95,0.28,33909,10133.8,110,0,3,0.98,-1.96,-0.98,0.19,0.95,0.28
38.2666,-0.035025436,0.011069084,0.03527819,0.19,0.94,0.28,33940,10134.8,110,0,3,0.28,-1.68,-0.77,0.19,0.94,0.28
37.2666,-0.039025437,0.013069082,0.04127819,0.19,0.95,0.29,33954,10133.8,110,0,3,0,-1.54,-0.35,0.19,0.95,0.29
38.2666,-0.041025437,0.014069082,0.04827819,0.19,0.94,0.28,33976,10134.8,110,0,3,-0.14,-1.47,0.14,0.19,0.94,0.28
37.2666,-0.03802544,0.018069081,0.060278192,0.19,0.95,0.28,34006,10133.8,110,0,3,0.07,-1.19,0.98,0.19,0.95,0.28
37.566406,-0.032025438,0.019069081,0.06327819,0.19,0.95,0.28,34014,10134.1,110,0,3,0.49,-1.12,1.19,0.19,0.95,0.28
37.2666,-0.034025438,0.018069081,0.058278188,0.19,0.94,0.28,34038,10133.8,110,0,3,0.35,-1.19,0.84,0.19,0.94,0.28
37.2666,-0.045025438,0.025069082,0.05227819,0.19,0.94,0.28,34067,10133.8,110,0,3,-0.42,-0.7,0.42,0.19,0.94,0.28
37.2666,-0.04902544,0.029069083,0.06227819,0.2,0.95,0.28,34081,10133.8,110,0,3,-0.7,-0.42,1.12,0.2,0.95,0.28
38.2666,-0.04702544,0.025069082,0.07227819,0.2,0.95,0.28,34104,10134.8,110,0,3,-0.56,-0.7,1.82,0.2,0.95,0.28
37.566406,-0.04702544,0.017069083,0.07227819,0.2,0.95,0.28,34127,10134.1,110,0,3,-0.56,-1.26,1.82,0.2,0.95,0.28
37.2666,-0.04902544,0.014069082,0.07427819,0.2,0.94,0.28,34134,10133.8,110,0,3,-0.7,-1.47,1.96,0.2,0.94,0.28
37.2666,-0.04902544,0.015069082,0.07227819,0.2,0.94,0.28,34156,10133.8,110,0,3,-0.7,-1.4,1.82,0.2,0.94,0.28
36.2666,-0.050025437,0.015069082,0.07327819,0.19,0.95,0.28,34188,10132.8,110,0,3,-0.77,-1.4,1.89,0.19,0.95,0.28
36.966797,-0.04902544,0.013069082,0.06927819,0.19,0.95,0.28,34194,10133.5,110,0,3,-0.7,-1.54,1.61,0.19,0.95,0.28
37.566406,-0.050025437,0.015069082,0.05927819,0.19,0.95,0.29,34216,10134.1,110,0,3,-0.77,-1.4,0.91,0.19,0.95,0.29
37.566406,-0.056025438,0.014069082,0.05927819,0.2,0.95,0.28,34239,10134.1,110,0,3,-1.19,-1.47,0.91,0.2,0.95,0.28
