Pressure_Rel,GyroX_Rel,GyroY_Rel,GyroZ_Rel,AccX_Rel,AccY_Rel,AccZ_Rel,Timestamp,Pressure_abs,HeartRate,Oxygen,Status,GyroX,GyroY,GyroZ,AccX,AccY,AccZ
0,0,0,0,0,0,0,701,10110.4,0,0,0,1.54,10.5,-13.09,0.61,0.24,0.8
0,0,0,0,0,0,0,716,10110.4,0,0,0,6.65,11.41,-17.64,0.63,0.26,0.82
0,0,0,0,0,0,0,730,10110.4,0,0,0,10.36,11.06,-16.73,0.62,0.26,0.82
0,0,0,0,0,0,0,745,10114.4,0,0,0,9.31,11.83,-12.88,0.61,0.25,0.84
0,0,0,0,0,0,0,760,10110.4,0,0,0,8.54,10.99,-11.2,0.59,0.25,0.85
0,0,0,0,0,0,0,784,10111.4,0,0,0,-1.54,15.89,-5.81,0.58,0.25,0.85
0,0,0,0,0,0,0,797,10110.4,0,0,0,7.49,16.45,-2.59,0.6,0.23,0.86
0,0,0,0,0,0,0,813,10109.4,0,0,0,2.24,20.44,-1.26,0.62,0.21,0.88
0,0,0,0,0,0,0,828,10110.4,0,0,0,-6.51,18.06,-0.77,0.64,0.24,0.88
0,0,0,0,0,0,0,844,10109.4,0,0,0,-3.22,15.61,-5.95,0.62,0.3,0.87
0,0,0,0,0,0,0,864,10109.4,0,0,0,2.17,17.85,-17.43,0.59,0.31,0.87
0,0,0,0,0,0,0,880,10109.4,0,0,0,9.24,23.38,-26.81,0.61,0.23,0.93
0,0,0,0,0,0,0,905,10108.4,0,0,0,5.32,26.6,-30.1,0.62,0.22,0.93
0,0,0,0,0,0,0,909,10109.1,0,0,0,-4.06,29.33,-30.03,0.63,0.25,0.93
0,0,0,0,0,0,0,924,10108.4,0,0,0,-10.08,33.6,-20.86,0.6,0.25,0.94
0,0,0,0,0,0,0,939,10109.4,0,0,0,1.26,25.34,-15.33,0.63,0.19,0.95
0,0,0,0,0,0,0,962,10110.4,0,0,0,-10.64,26.32,-15.47,0.65,0.28,0.95
0,0,0,0,0,0,0,977,10109.4,0,0,0,8.12,18.06,-23.73,0.58,0.28,0.93
0,0,0,0,0,0,0,994,10109.4,0,0,0,28.7,15.05,-30.1,0.54,0.33,0.91
0,0,0,0,0,0,0,1009,10110.4,0,0,0,47.46,9.31,-40.6,0.54,0.28,0.9
0,0,0,0,0,0,0,1022,10109.4,0,0,0,56.49,-1.26,-45.92,0.48,0.38,0.83
0,0,0,0,0,0,0,1037,10110.4,0,0,0,74.69,-7.28,-39.41,0.46,0.43,0.8
0,0,0,0,0,0,0,1054,10109.7,0,0,0,91.49,-10.85,-21.91,0.44,0.37,0.82
0,0,0,0,0,0,0,1084,10109.4,0,0,0,66.57,-2.17,-23.38,0.34,-0.01,0.75
0,0,0,0,0,0,0,1090,10107.4,0,0,0,21,4.2,-35.7,0.38,0.31,0.83
0,0,0,0,0,0,0,1105,10109.4,0,0,0,0,14.56,-41.09,0.39,0.41,0.81
0,0,0,0,0,0,0,1120,10109.4,0,0,0,0.56,20.72,-37.52,0.43,0.45,0.81
0,0,0,0,0,0,0,1135,10109.4,0,0,0,20.86,16.24,-47.88,0.4,0.44,0.79
0,0,0,0,0,0,0,1151,10109.4,0,0,0,37.17,6.51,-66.22,0.37,0.44,0.79
0,0,0,0,0,0,0,1172,10109.1,0,0,0,39.76,-5.39,-67.34,0.33,0.5,0.76
0,0,0,0,0,0,0,1187,10109.7,0,0,0,42.35,-10.43,-54.81,0.29,0.52,0.77
0,0,0,0,0,0,0,1202,10110.7,0,0,0,49.49,-21.56,-41.51,0.41,0.49,0.73
0,0,0,0,0,0,0,1218,10109.4,0,0,0,57.75,-31.43,-30.17,0.37,0.53,0.73
0,0,0,0,0,0,0,1232,10109.7,0,0,0,47.95,-43.89,-24.15,0.32,0.54,0.74
0,0,0,0,0,0,0,1255,10110.4,0,0,0,32.13,-56.49,-10.01,0.32,0.59,0.68
0,0,0,0,0,0,0,1270,10108.7,0,0,0,23.31,-44.31,-3.29,0.25,0.61,0.66
0,0,0,0,0,0,0,1285,10109.4,0,0,0,0.49,-33.39,-6.86,0.31,0.6,0.68
0,0,0,0,0,0,0,1308,10107.4,0,0,0,25.41,-16.94,-6.16,0.29,0.66,0.53
0,0,0,0,0,0,0,1315,10108.7,0,0,0,36.4,1.75,-4.48,0.31,0.64,0.61
0,0,0,0,0,0,0,1330,10108.4,0,0,0,29.33,7.21,-15.05,0.33,0.62,0.69
0,0,0,0,0,0,0,1345,10108.4,0,0,0,20.02,8.75,-21.98,0.29,0.65,0.63
0,0,0,0,0,0,0,1367,10110.7,0,0,0,19.74,8.4,-26.81,0.34,0.7,0.61
0,0,0,0,0,0,0,1382,10111.7,0,0,0,6.79,23.8,-16.1,0.36,0.59,0.63
0,0,0,0,0,0,0,1397,10111.7,0,0,0,-1.68,21.91,-10.57,0.4,0.61,0.71
0,0,0,0,0,0,0,1413,10111.7,0,0,0,-3.92,23.45,-13.3,0.4,0.58,0.75
0,0,0,0,0,0,0,1427,10113.1,0,0,0,-7.77,26.6,-19.95,0.35,0.59,0.73
0,0,0,0,0,0,0,1442,10110.4,0,0,0,-19.32,31.99,-14.28,0.35,0.59,0.73
0,0,0,0,0,0,0,1465,10111.4,0,0,0,-11.2,29.47,-14.28,0.36,0.61,0.75
0,0,0,0,0,0,0,1481,10112.7,0,0,0,5.53,34.51,-16.73,0.41,0.52,0.79
0,0,0,0,0,0,0,1495,10113.7,0,0,0,14.7,34.51,-15.12,0.37,0.6,0.74
0,0,0,0,0,0,0,1509,10113.1,0,0,0,20.02,36.26,-9.87,0.25,0.66,0.66
0,0,0,0,0,0,0,1525,10113.4,0,0,0,29.96,27.23,-4.34,0.27,0.7,0.75
0,0,0,0,0,0,0,1547,10112.7,0,0,0,51.8,18.27,12.11,0.31,0.72,0.79
0,0,0,0,0,0,0,1561,10109.7,0,0,0,66.22,12.46,21.7,0.38,0.61,0.85
0,0,0,0,0,0,0,1576,10108.7,0,0,0,65.1,-22.4,54.04,0.62,0.63,0.89
0,0,0,0,0,0,0,1592,10105.7,0,0,0,46.62,-42.77,71.89,0.28,0.75,0.63
0,0,0,0,0,0,0,1606,10101.7,0,0,0,86.31,-50.89,83.65,0.34,0.67,0.65
0,0,0,0,0,0,0,1629,10100.7,0,0,0,78.05,-44.59,100.31,0.37,0.62,0.69
0,0,0,0,0,0,0,1644,10100.7,0,0,0,36.68,-30.59,90.37,0.31,0.57,0.7
0,0,0,0,0,0,0,1660,10100.4,0,0,0,22.19,-16.31,74.62,0.4,0.56,0.6
0,0,0,0,0,0,0,1674,10104,0,0,0,30.17,0.84,43.47,0.56,0.56,0.69
0,0,0,0,0,0,0,1690,10103.7,0,0,0,12.53,6.37,-1.82,0.53,0.54,0.66
0,0,0,0,0,0,0,1704,10106.7,0,0,0,-10.71,0.42,-45.5,0.47,0.6,0.6
0,0,0,0,0,0,0,1727,10111.7,0,0,0,-40.81,-8.33,-56.35,0.51,0.69,0.64
0,0,0,0,0,0,0,1742,10114.7,0,0,0,-9.52,-15.47,-48.79,0.48,0.68,0.66
0,0,0,0,0,0,0,1757,10117.8,0,0,0,21.14,-8.75,-9.66,0.44,0.78,0.63
0,0,0,0,0,0,0,1772,10124.8,0,0,0,36.12,-4.34,16.66,0.44,0.76,0.61
0,0,0,0,0,0,0,1786,10121.8,0,0,0,57.54,6.44,23.94,0.44,0.75,0.59
0,0,0,0,0,0,0,1802,10124.1,0,0,0,57.61,21.98,24.64,0.46,0.65,0.57
0,0,0,0,0,0,0,1825,10113.4,0,0,0,22.61,43.89,11.06,0.38,0.62,0.64
0,0,0,0,0,0,0,1839,10115.7,0,0,0,7.42,75.95,20.23,0.62,0.64,0.55
0,0,0,0,0,0,0,1854,10117.8,0,0,0,15.33,62.37,83.09,0.55,0.93,0.39
0,0,0,0,0,0,0,1870,10118.8,0,0,0,10.92,45.08,40.95,0.16,0.75,0.6
0,0,0,0,0,0,0,1884,10119.8,0,0,0,6.23,23.87,42,0.45,0.69,0.55
0,0,0,0,0,0,0,1902,10122.8,0,0,0,-8.54,6.51,17.36,0.4,0.59,0.59
0,0,0,0,0,0,0,1929,10123.4,0,0,0,-35.77,4.34,1.75,0.26,0.63,0.66
0,0,0,0,0,0,0,1936,10121.1,0,0,0,-17.78,21.91,-12.32,0.27,0.79,0.61
0,0,0,0,0,0,0,1952,10120.8,0,0,0,-126.35,12.11,-39.62,0.07,1.19,1.2
0,0,0,0,0,0,0,1968,10113.4,0,0,0,90.65,17.29,17.01,0.41,0.83,0.59
0,0,0,0,0,0,0,1982,10110.7,0,0,0,49.98,50.89,2.03,0.41,0.74,0.61
0,0,0,0,0,0,0,2012,10109.7,0,0,0,16.94,46.27,5.25,0.45,0.63,0.67
0,0,0,0,0,0,0,2019,10108.7,0,0,0,-7.35,37.1,16.73,0.52,0.74,0.64
0,0,0,0,0,0,0,2036,10108.1,0,0,0,-3.92,21,35.91,0.42,0.66,0.61
0,0,0,0,0,0,0,2049,10106.7,0,0,0,-8.89,6.51,60.2,0.47,0.72,0.69
0,0,0,0,0,0,0,2079,10106.7,0,0,0,32.62,-5.25,85.33,0.66,0.71,0.66
0,0,0,0,0,0,0,2081,10107.7,0,0,0,-62.93,-23.17,-67.13,0.31,0.28,0.29
0,0,0,0,0,0,0,2102,10105.7,0,0,0,27.3,-9.1,-14.14,0.45,0.65,0.73
0,0,0,0,0,0,0,2117,10105.4,0,0,0,15.26,-1.47,-21,0.35,0.57,0.61
0,0,0,0,0,0,0,2131,10105.7,0,0,0,-18.06,17.15,-32.2,0.54,0.7,0.62
0,0,0,0,0,0,0,2147,10105.7,0,0,0,-33.39,7.98,-14.42,0.45,0.68,0.66
0,0,0,0,0,0,0,2162,10110.7,0,0,0,7.84,-1.12,8.19,0.39,0.57,0.74
0,0,0,0,0,0,0,2185,10107.4,0,0,0,31.5,-10.57,17.08,0.38,0.63,0.73
0,0,0,0,0,0,0,2199,10107.7,0,0,0,19.46,-15.05,19.74,0.42,0.64,0.68
0,0,0,0,0,0,0,2221,10107.7,0,0,1,11.27,-26.95,2.1,0.41,0.62,0.69
0,0,0,0,0,0,0,2244,10107.7,0,0,1,-29.96,-19.39,-11.55,0.44,0.62,0.74
0,0,0,0,0,0,0,2260,10108.4,0,0,1,-4.69,-2.38,-32.69,0.52,0.97,1.21
0,0,0,0,0,0,0,2282,10107.7,0,0,1,-71.61,-31.43,-5.74,0.5,0.77,0.74
0,0,0,0,0,0,0,2297,10108.4,0,0,1,-58.87,-36.4,11.55,0.01,0.38,0.66
0,0,0,0,0,0,0,2312,10109.7,0,0,1,-69.37,16.31,-52.22,0.15,1.06,0.77
0,0,0,0,0,0,0,2334,10108.7,0,0,1,34.58,34.02,-10.5,0.17,0.57,0.49
0,0,0,0,0,0,0,2357,10105.7,0,0,1,-23.94,59.01,19.25,0.58,0.73,0.5
0,0,0,0,0,0,0,2372,10104.7,0,0,1,15.54,44.03,-26.18,0.44,0.7,0.67
0,0,0,0,0,0,0,2388,10105.7,0,0,1,17.85,38.78,-14.28,0.47,0.63,0.57
0,0,0,0,0,0,0,2403,10106.7,0,0,1,25.55,9.1,35.07,0.31,0.6,0.74
0,0,0,0,0,0,0,2424,10109.7,0,0,1,14.28,7.14,17.29,0.24,0.67,0.8
0,0,0,0,0,0,0,2454,10110.7,0,0,1,14.49,13.93,10.36,0.37,0.61,0.71
0,0,0,0,0,0,0,2469,10110.7,0,0,1,12.74,9.94,13.09,0.47,0.73,0.67
0,0,0,0,0,0,0,2491,10112.7,0,0,1,18.48,37.8,-1.54,0.41,0.61,0.71
0,0,0,0,0,0,0,2515,10114.1,0,0,1,40.46,36.82,-2.03,0.41,0.55,0.71
0,0,0,0,0,0,0,2530,10115.7,0,0,1,11.69,6.72,18.76,0.42,0.72,0.71
0,0,0,0,0,0,0,2551,10113.7,0,0,1,27.16,-3.29,26.95,0.32,0.57,0.68
0,0,0,0,0,0,0,2567,10111.7,0,0,1,30.66,-8.61,40.25,0.39,0.68,0.65
0,0,0,0,0,0,0,2582,10111.7,0,0,1,30.73,-7.49,34.93,0.38,0.67,0.66
0,0,0,0,0,0,0,2612,10109.7,0,0,1,29.12,-1.89,32.2,0.37,0.63,0.69
0,0,0,0,0,0,0,2613,10109.4,0,0,1,31.71,5.95,18.69,0.38,0.64,0.69
0,0,0,0,0,0,0,2627,10111.1,0,0,1,32.76,14.14,13.72,0.4,0.68,0.66
0,0,0,0,0,0,0,2650,10109.7,0,0,1,36.4,14.07,14.14,0.41,0.71,0.65
0,0,0,0,0,0,0,2671,10108.7,0,0,1,28.91,14.84,18.2,0.41,0.71,0.66
0,0,0,0,0,0,0,2694,10108.7,0,0,1,20.3,14.84,23.38,0.44,0.67,0.66
0,0,0,0,0,0,0,2719,10108.7,0,0,1,20.44,22.47,23.87,0.42,0.67,0.7
0,0,0,0,0,0,0,2739,10109.7,0,0,1,22.82,34.79,24.29,0.38,0.69,0.65
0,0,0,0,0,0,0,2762,10108.7,0,0,1,26.18,42.21,24.71,0.38,0.76,0.59
0,0,0,0,0,0,0,2799,10109.1,0,0,1,51.8,58.87,18.62,0.43,0.76,0.61
0,0,0,0,0,0,0,2800,10109.7,0,0,1,66.5,62.37,14.63,0.36,0.74,0.63
0,0,0,0,0,0,0,2814,10110.7,0,0,1,64.47,53.27,20.65,0.31,0.82,0.58
0,0,0,0,0,0,0,2829,10110.7,0,0,1,61.46,46.27,29.4,0.28,0.89,0.53
0,0,0,0,0,0,0,2844,10110.7,0,0,1,31.92,44.87,28.07,0.36,0.76,0.59
0,0,0,0,0,0,0,2871,10111.7,0,0,1,41.93,46.83,26.25,0.36,0.73,0.68
0,0,0,0,0,0,0,2883,10111.1,0,0,1,39.34,41.23,30.59,0.36,0.66,0.66
0,0,0,0,0,0,0,2904,10110.1,0,0,1,50.47,37.24,32.97,0.38,0.74,0.55
0,0,0,0,0,0,0,2935,10111.7,0,0,1,53.48,38.22,36.96,0.42,0.74,0.51
0,0,0,0,0,0,0,2942,10110.7,0,0,1,50.26,33.81,47.18,0.4,0.7,0.54
0,0,0,0,0,0,0,2965,10111.1,0,0,1,26.04,40.04,34.3,0.34,0.66,0.54
0,0,0,0,0,0,0,2987,10112.1,0,0,1,32.2,39.69,32.06,0.29,0.73,0.5
0,0,0,0,0,0,0,3017,10109.7,0,0,1,28.42,43.12,18.27,0.28,0.9,0.51
0,0,0,0,0,0,0,3032,10111.7,0,0,1,23.59,44.87,11.06,0.41,0.76,0.58
0,0,0,0,0,0,0,3047,10110.7,0,0,1,14.14,50.19,6.44,0.44,0.74,0.54
0,0,0,0,0,0,0,3061,10107.7,0,0,1,13.02,52.29,0.56,0.42,0.74,0.5
0,0,0,0,0,0,0,3091,10111.7,0,0,1,11.41,47.39,-1.19,0.41,0.73,0.49
0,0,0,0,0,0,0,3099,10110.7,0,0,1,5.46,46.41,-1.82,0.38,0.71,0.51
0,0,0,0,0,0,0,3122,10109.7,0,0,1,4.62,45.22,7.42,0.39,0.64,0.55
0,0,0,0,0,0,0,3128,10110.1,0,0,1,-5.39,34.16,11.62,0.43,0.67,0.51
0,0,0,0,0,0,0,3152,10110.7,0,0,1,-7.56,17.57,15.89,0.43,0.8,0.43
0,0,0,0,0,0,0,3174,10112.7,0,0,1,-11.48,-5.74,12.39,0.4,0.82,0.5
0,0,0,0,0,0,0,3197,10112.7,0,0,1,-12.39,-21.21,14.63,0.39,0.76,0.56
0,0,0,0,0,0,0,3220,10113.1,0,0,1,-11.27,-25.83,16.94,0.31,0.75,0.6
0,0,0,0,0,0,0,3243,10114.1,0,0,1,-9.24,-19.39,17.64,0.27,0.76,0.63
0,0,0,0,0,0,0,3257,10112.4,0,0,1,-9.66,-17.5,10.99,0.31,0.77,0.64
0,0,0,0,0,0,0,3286,10114.1,0,0,1,-18.69,-0.91,0.77,0.36,0.73,0.65
0,0,0,0,0,0,0,3309,10114.1,0,0,1,-24.99,5.18,-7,0.39,0.71,0.61
0,0,0,0,0,0,0,3317,10113.7,0,0,1,-25.55,7.7,-5.53,0.35,0.72,0.61
0,0,0,0,0,0,0,3340,10113.7,0,0,1,-22.4,2.87,-2.94,0.29,0.81,0.61
0,0,0,0,0,0,0,3362,10114.7,0,0,1,-6.44,4.9,-12.88,0.31,0.82,0.59
0,0,0,0,0,0,0,3377,10112.7,0,0,1,-0.7,10.99,-13.3,0.36,0.79,0.59
0,0,0,0,0,0,0,3385,10113.4,0,0,1,19.67,21.49,-19.18,0.39,0.69,0.59
0,0,0,0,0,0,0,3407,10113.7,0,0,1,-18.13,20.09,-8.54,0.38,0.75,0.58
0,0,0,0,0,0,0,3429,10110.7,0,0,1,-11.55,18.69,-5.11,0.3,0.84,0.58
0,0,0,0,0,0,0,3452,10113.7,0,0,1,-3.15,2.17,-5.11,0.35,0.76,0.62
0,0,0,0,0,0,0,3467,10114.4,0,0,1,9.52,-13.23,-6.72,0.32,0.68,0.66
0,0,0,0,0,0,0,3490,10116.7,0,0,1,-0.7,-15.26,-18.69,0.3,0.69,0.64
0,0,0,0,0,0,0,3512,10116.7,0,0,1,8.12,-7.21,-27.37,0.34,0.7,0.6
0,0,0,0,0,0,0,3535,10115.7,0,0,1,-0.77,-0.7,-30.17,0.36,0.8,0.52
0,0,0,0,0,0,0,3550,10111.7,0,0,1,-12.11,5.6,-27.51,0.36,0.81,0.55
0,0,0,0,0,0,0,3572,10115.1,0,0,1,-22.75,-2.66,-17.64,0.35,0.77,0.61
0,0,0,0,0,0,0,3587,10115.1,0,0,1,-19.04,-15.4,-14.07,0.31,0.74,0.65
0,0,0,0,0,0,0,3602,10117.1,0,0,1,-10.57,-27.79,-12.88,0.29,0.7,0.66
0,0,0,0,0,0,0,3617,10115.1,0,0,1,-2.38,-36.54,-12.88,0.26,0.77,0.61
0,0,0,0,0,0,0,3631,10114.7,0,0,1,1.4,-39.27,-15.4,0.28,0.8,0.59
0,0,0,0,0,0,0,3655,10115.7,0,0,1,-2.38,-46.27,-15.4,0.35,0.76,0.58
0,0,0,0,0,0,0,3684,10111.7,0,0,1,-7,-56,-19.04,0.38,0.72,0.57
0,0,0,0,0,0,0,3700,10117.4,0,0,1,-17.99,-41.37,-29.19,0.32,0.73,0.58
0,0,0,0,0,0,0,3729,10115.4,0,0,1,-13.37,-47.25,-24.08,0.26,0.75,0.61
0,0,0,0,0,0,0,3752,10116.7,0,0,1,-12.25,-43.75,-21.28,0.26,0.73,0.64
0,0,0,0,0,0,0,3774,10115.1,0,0,1,-13.44,-40.88,-16.31,0.32,0.73,0.62
0,0,0,0,0,0,0,3789,10115.1,0,0,1,-14.35,-37.24,-14.63,0.29,0.84,0.56
0,0,0,0,0,0,0,3805,10115.1,0,0,1,-6.3,-38.01,-16.87,0.3,0.86,0.55
0,0,0,0,0,0,0,3827,10115.1,0,0,1,2.8,-37.94,-16.66,0.32,0.8,0.59
0,0,0,0,0,0,0,3842,10114.7,0,0,1,7.84,-38.5,-13.65,0.34,0.72,0.63
0,0,0,0,0,0,0,3849,10113.7,0,0,1,5.74,-39.41,-11.48,0.35,0.74,0.61
0,0,0,0,0,0,0,3872,10114.7,0,0,1,6.51,-42.28,-9.73,0.37,0.7,0.61
0,0,0,0,0,0,0,3887,10114.1,0,0,1,6.44,-43.68,-9.45,0.33,0.72,0.62
0,0,0,0,0,0,0,3909,10115.1,0,0,1,7,-45.01,-11.62,0.31,0.77,0.61
0,0,0,0,0,0,0,3924,10110.1,0,0,1,3.99,-42.63,-15.47,0.37,0.8,0.59
0,0,0,0,0,0,0,3946,10114.1,0,0,1,2.73,-38.92,-18.76,0.38,0.77,0.58
0,0,0,0,0,0,0,3969,10115.4,0,0,1,2.17,-34.37,-19.46,0.38,0.79,0.53
0,0,0,0,0,0,0,3992,10115.1,0,0,1,3.01,-33.95,-16.45,0.39,0.75,0.53
0,0,0,0,0,0,0,4014,10115.1,0,0,1,1.19,-39.48,-11.97,0.37,0.71,0.57
0,0,0,0,0,0,0,4037,10114.1,0,0,1,-13.09,-42.42,-2.87,0.35,0.65,0.58
0,0,0,0,0,0,0,4059,10113.4,0,0,1,-10.08,-36.26,0.28,0.3,0.79,0.59
0,0,0,0,0,0,0,4074,10112.7,0,0,1,-17.01,-27.86,-2.87,0.32,0.77,0.57
0,0,0,0,0,0,0,4089,10114.1,0,0,1,-17.85,-19.74,-5.46,0.32,0.78,0.57
0,0,0,0,0,0,0,4104,10113.4,0,0,1,-15.33,-16.03,-7.84,0.35,0.81,0.55
0,0,0,0,0,0,0,4119,10113.7,0,0,1,-11.83,-16.1,-7.63,0.4,0.83,0.53
0,0,0,0,0,0,0,4149,10114.1,0,0,1,-2.45,-19.39,-4.76,0.39,0.81,0.55
0,0,0,0,0,0,0,4165,10114.1,0,0,1,-0.84,-17.71,-6.79,0.36,0.77,0.57
0,0,0,0,0,0,0,4187,10114.1,0,0,1,4.27,-13.3,-11.27,0.37,0.8,0.57
0,0,0,0,0,0,0,4209,10113.1,0,0,1,24.36,-9.73,-13.58,0.38,0.85,0.53
0,0,0,0,0,0,0,4232,10114.1,0,0,1,51.38,1.68,-28.84,0.4,0.87,0.51
0,0,0,0,0,0,0,4254,10114.4,0,0,1,42.07,-0.28,-36.54,0.4,0.9,0.49
0,0,0,0,0,0,0,4278,10113.1,0,0,1,94.64,-16.59,-25.69,0.35,0.79,0.46
0,0,0,0,0,0,0,4292,10111.1,0,0,1,9.31,-10.99,-13.58,0.28,0.86,0.45
0,0,0,0,0,0,0,4314,10112.1,0,0,1,4.76,-10.22,-9.87,0.34,0.88,0.47
0,0,0,0,0,0,0,4337,10106.1,0,0,1,7.14,-10.36,-6.58,0.4,0.82,0.46
0,0,0,0,0,0,0,4351,10110.1,0,0,1,2.66,-14.07,-5.6,0.41,0.78,0.46
0,0,0,0,0,0,0,4367,10111.7,0,0,1,-2.03,-15.26,-5.39,0.37,0.78,0.46
0,0,0,0,0,0,0,4382,10105,0,0,1,-4.76,-14.07,-3.29,0.32,0.8,0.47
0,0,0,0,0,0,0,4404,10113.1,0,0,1,-4.69,-9.17,-1.4,0.3,0.83,0.47
0,0,0,0,0,0,0,4427,10113.1,0,0,1,-2.8,-5.74,1.61,0.4,0.8,0.45
0,0,0,0,0,0,0,4449,10114.4,0,0,1,-0.77,-8.33,3.22,0.38,0.84,0.44
0,0,0,0,0,0,0,4472,10113.1,0,0,1,-0.14,-7.14,1.12,0.26,0.87,0.48
0,0,0,0,0,0,0,4486,10114.1,0,0,1,4.69,-2.8,-3.22,0.35,0.89,0.37
0,0,0,0,0,0,0,4509,10115.1,0,0,1,22.33,0.21,-8.61,0.37,0.92,0.37
0,0,0,0,0,0,0,4531,10115.1,0,0,1,30.94,5.81,-10.15,0.26,0.92,0.52
0,0,0,0,0,0,0,4562,10115.4,0,0,1,24.85,6.79,-17.78,0.35,0.91,0.48
0,0,0,0,0,0,0,4569,10121.4,0,0,1,22.68,5.53,-20.3,0.41,0.85,0.43
0,0,0,0,0,0,0,4592,10116.1,0,0,1,21.14,5.18,-19.25,0.38,0.8,0.45
0,0,0,0,0,0,0,4607,10116.8,0,0,1,18.2,4.48,-15.26,0.36,0.8,0.44
0,0,0,0,0,0,0,4623,10115.4,0,0,1,14.84,3.71,-10.64,0.31,0.88,0.4
0,0,0,0,0,0,0,4652,10117.4,0,0,1,12.67,-0.42,-8.61,0.29,0.9,0.41
0,0,0,0,0,0,0,4667,10116.4,0,0,1,11.06,-3.5,-7.49,0.31,0.88,0.41
0,0,0,0,0,0,0,4689,10116.1,0,0,1,9.59,-4.97,-7.21,0.33,0.88,0.37
0,0,0,0,0,0,0,4712,10114.4,0,0,1,9.17,-8.33,-4.83,0.34,0.88,0.38
0,0,0,0,0,0,0,4727,10116.1,0,0,1,12.18,-5.46,0.77,0.25,0.92,0.43
0,0,0,0,0,0,0,4757,10115.4,0,0,1,12.11,3.01,0.56,0.25,0.87,0.47
0,0,0,0,0,0,0,4772,10114.4,0,0,1,8.33,8.47,-0.28,0.29,0.86,0.36
0,0,0,0,0,0,0,4794,10114.4,0,0,1,24.78,12.46,5.04,0.29,0.92,0.33
0,0,0,0,0,0,0,4816,10112.4,0,0,1,25.76,5.04,0.56,0.29,0.96,0.36
0,0,0,0,0,0,0,4832,10108.4,0,0,1,24.78,2.94,-2.94,0.3,0.96,0.38
0,0,0,0,0,0,0,4846,10111.4,0,0,1,25.48,5.04,-4.41,0.32,0.92,0.4
0,0,0,0,0,0,0,4862,10111.4,0,0,1,28.56,6.44,-3.22,0.29,0.9,0.41
0,0,0,0,0,0,0,4877,10111.4,0,0,1,29.19,12.67,-3.92,0.23,0.9,0.4
0,0,0,0,0,0,0,4899,10109.4,0,0,1,30.52,20.37,-5.39,0.21,0.91,0.35
0,0,0,0,0,0,0,4921,10110.7,0,0,1,29.33,22.4,-8.05,0.25,0.88,0.3
0,0,0,0,0,0,0,4945,10110.4,0,0,1,25.83,23.59,-2.94,0.27,0.79,0.33
0,0,0,0,0,0,0,4966,10108.4,0,0,1,18.69,25.13,8.19,0.25,0.79,0.31
0,0,0,0,0,0,0,4989,10110.4,0,0,1,16.87,24.71,11.41,0.21,0.92,0.28
0,0,0,0,0,0,0,5011,10111.1,0,0,1,14.84,22.4,6.58,0.28,0.93,0.3
0,0,0,0,0,0,0,5034,10112.4,0,0,1,12.11,19.67,4.76,0.34,0.9,0.3
0,0,0,0,0,0,0,5057,10111.4,0,0,1,10.15,19.18,6.37,0.29,0.91,0.32
0,0,0,0,0,0,0,5071,10111.4,0,0,1,8.19,24.15,5.46,0.26,0.89,0.35
0,0,0,0,0,0,0,5102,10111.4,0,0,1,7.63,27.44,4.13,0.24,0.93,0.33
0,0,0,0,0,0,0,5103,10108.7,0,0,1,9.94,29.4,3.57,0.2,0.99,0.32
0,0,0,0,0,0,0,5117,10111.4,0,0,1,14.98,34.3,3.5,0.19,0.98,0.35
0,0,0,0,0,0,0,5132,10112.4,0,0,1,18.34,40.88,4.13,0.23,0.95,0.34
0,0,0,0,0,0,0,5153,10111.4,0,0,1,14.49,44.73,0.28,0.27,0.93,0.28
0,0,0,0,0,0,0,5177,10112.4,0,0,1,-2.24,44.52,-9.52,0.26,0.89,0.33
0,0,0,0,0,0,0,5199,10110.4,0,0,1,9.03,47.53,0.7,0.22,0.92,0.36
0,0,0,0,0,0,0,5222,10112.4,0,0,1,11.9,46.76,3.29,0.26,0.96,0.29
0,0,0,0,0,0,0,5244,10111.7,0,0,1,15.96,39.62,-1.19,0.24,0.99,0.26
0,0,0,0,0,0,0,5274,10111.7,0,0,1,20.86,41.93,-0.63,0.24,0.87,0.38
0,0,0,0,0,0,0,5289,10111.1,0,0,1,13.93,51.8,1.05,0.24,0.88,0.35
0,0,0,0,0,0,0,5304,10112.4,0,0,1,8.96,56.14,1.82,0.24,0.92,0.29
0,0,0,0,0,0,0,5327,10108.7,0,0,1,14.42,55.44,2.17,0.25,0.93,0.28
0,0,0,0,0,0,0,5342,10111.4,0,0,1,22.82,49.77,1.12,0.25,0.97,0.25
0,0,0,0,0,0,0,5365,10112.7,0,0,1,24.15,42.21,-1.12,0.26,1.01,0.23
0,0,0,0,0,0,0,5372,10106.4,0,0,1,17.92,35.42,-1.82,0.24,1,0.28
0,0,0,0,0,0,0,5394,10112.7,0,0,1,12.81,35.56,-0.07,0.18,0.92,0.36
0,0,0,0,0,0,0,5418,10113.7,0,0,1,9.8,42.07,-0.91,0.18,0.95,0.27
0,0,0,0,0,0,0,5439,10113.7,0,0,1,18.13,38.29,-1.61,0.21,0.98,0.25
0,0,0,0,0,0,0,5461,10108.7,0,0,1,25.41,37.87,0,0.2,0.99,0.3
0,0,0,0,0,0,0,5484,10113.1,0,0,1,27.23,36.75,-1.61,0.22,0.93,0.29
0,0,0,0,0,0,0,5499,10113.7,0,0,1,19.53,30.45,-3.22,0.24,0.92,0.28
0,0,0,0,0,0,0,5521,10115.7,0,0,1,14.56,27.79,-2.17,0.18,0.97,0.25
0,0,0,0,0,0,0,5544,10113.7,0,0,1,15.68,25.83,-7.77,0.22,0.98,0.22
0,0,0,0,0,0,0,5566,10113.7,0,0,1,14.28,16.73,-8.4,0.22,0.93,0.21
0,0,0,0,0,0,0,5582,10109.7,0,0,1,10.08,12.04,-7.91,0.18,0.93,0.22
0,0,0,0,0,0,0,5596,10113.7,0,0,1,10.92,14.7,-5.32,0.13,0.95,0.21
0,0,0,0,0,0,0,5612,10113.1,0,0,1,13.51,17.64,-4.13,0.09,1.01,0.22
0,0,0,0,0,0,0,5634,10114.1,0,0,1,16.31,18.76,-6.51,0.11,1.02,0.23
0,0,0,0,0,0,0,5649,10114.7,0,0,1,20.16,17.22,-6.44,0.2,0.95,0.23
0,0,0,0,0,0,0,5671,10112.7,0,0,1,19.88,11.2,-0.49,0.22,0.92,0.19
0,0,0,0,0,0,0,5701,10111.7,0,0,1,22.47,9.52,10.15,0.15,0.92,0.21
0,0,0,0,0,0,0,5719,10112.7,0,0,1,7.21,7.21,6.72,0.08,0.91,0.27
0,0,0,0,0,0,0,5739,10110.7,0,0,1,4.06,14.14,9.31,0.05,0.94,0.25
0,0,0,0,0,0,0,5762,10110.4,0,0,1,-1.33,15.82,4.69,0.1,0.95,0.24
0,0,0,0,0,0,0,5785,10111.7,0,0,1,-5.18,15.82,1.82,0.16,0.93,0.24
0,0,0,0,0,0,0,5806,10111.7,0,0,1,-9.31,14.84,3.22,0.18,0.95,0.22
0,0,0,0,0,0,0,5821,10112.7,0,0,1,-25.41,8.19,-2.17,0.14,0.98,0.21
0,0,0,0,0,0,0,5836,10112.1,0,0,1,-27.93,6.37,-3.22,0.14,0.98,0.22
0,0,0,0,0,0,0,5851,10114.7,0,0,1,-26.39,2.03,-5.25,0.14,0.98,0.23
0,0,0,0,0,0,0,5867,10110.7,0,0,1,-33.39,-1.68,-10.71,0.11,0.95,0.25
0,0,0,0,0,0,0,5882,10110.1,0,0,1,-27.23,-1.96,-9.87,0.15,0.93,0.23
0,0,0,0,0,0,0,5904,10112.1,0,0,1,-33.81,-11.55,-12.95,0.27,0.88,0.2
0,0,0,0,0,0,0,5927,10114.7,0,0,1,-42.42,-33.25,-9.73,0.33,0.89,0.19
0,0,0,0,0,0,0,5949,10114.1,0,0,1,-45.57,-60.06,-8.4,0.32,0.91,0.19
0,0,0,0,0,0,0,5971,10115.1,0,0,1,-48.72,-78.54,-7.35,0.2,0.92,0.25
0,0,0,0,0,0,0,5994,10116.1,0,0,1,-48.44,-83.72,-9.45,0.09,0.96,0.3
0,0,0,0,0,0,0,6016,10116.1,0,0,1,-47.81,-84,-18.9,0.18,1.01,0.27
0,0,0,0,0,0,0,6040,10117.4,0,0,1,-49.35,-87.5,-25.69,0.27,0.91,0.35
0,0,0,0,0,0,0,6055,10117.1,0,0,1,-49.77,-90.23,-20.51,0.22,0.89,0.37
0,0,0,0,0,0,0,6076,10111.1,0,0,1,-46.62,-114.94,-1.4,0.26,0.93,0.33
0,0,0,0,0,0,0,6099,10115.7,0,0,1,-46.69,-101.29,-20.51,0.3,0.93,0.3
0,0,0,0,0,0,0,6106,10116.1,0,0,1,-43.68,-127.89,-21.84,0.33,0.95,0.31
0,0,0,0,0,0,0,6121,10116.8,0,0,1,-45.36,-126.98,-32.9,0.33,0.93,0.34
0,0,0,0,0,0,0,6144,10115.1,0,0,1,-46.34,-134.26,-29.75,0.34,0.9,0.42
0,0,0,0,0,0,0,6167,10115.1,0,0,1,-41.09,-140.35,-15.96,0.28,0.85,0.5
0,0,0,0,0,0,0,6189,10115.1,0,0,1,-38.15,-122.5,-9.31,0.22,0.9,0.45
0,0,0,0,0,0,0,6212,10117.8,0,0,1,-25.55,-114.94,1.12,0.15,0.93,0.46
0,0,0,0,0,0,0,6227,10114.4,0,0,1,-18.2,-100.03,2.31,0.12,0.99,0.46
0,0,0,0,0,0,0,6250,10115.1,0,0,1,-10.5,-85.82,-0.77,0.12,0.98,0.46
0,0,0,0,0,0,0,6273,10115.1,0,0,1,-5.95,-70.07,-2.45,0.25,0.92,0.42
0,0,0,0,0,0,0,6294,10115.1,0,0,1,-6.23,-63.28,-3.5,0.29,0.88,0.4
0,0,0,0,0,0,0,6324,10115.4,0,0,1,-11.2,-63.42,-6.44,0.31,0.84,0.4
0,0,0,0,0,0,0,6332,10116.4,0,0,1,-14.42,-63.56,-7.21,0.29,0.82,0.43
0,0,0,0,0,0,0,6347,10117.1,0,0,1,-12.53,-61.46,-4.27,0.27,0.84,0.44
0,0,0,0,0,0,0,6362,10114.4,0,0,1,-14.49,-57.61,-7.21,0.27,0.89,0.41
0,0,0,0,0,0,0,6384,10115.1,0,0,1,-15.54,-55.16,-13.79,0.28,0.92,0.41
0,0,0,0,0,0,0,6407,10113.1,0,0,1,-14.98,-52.99,-19.32,0.3,0.91,0.4
0,0,0,0,0,0,0,6422,10114.1,0,0,1,-13.51,-49.7,-19.39,0.32,0.9,0.39
0,0,0,0,0,0,0,6444,10114.1,0,0,1,-13.65,-47.11,-16.1,0.34,0.89,0.37
0,0,0,0,0,0,0,6467,10114.1,0,0,1,-12.67,-45.01,-13.23,0.3,0.91,0.35
0,0,0,0,0,0,0,6490,10114.1,0,0,1,-11.13,-43.47,-12.95,0.26,0.91,0.36
0,0,0,0,0,0,0,6512,10114.4,0,0,1,-10.43,-41.79,-14.07,0.27,0.9,0.37
0,0,0,0,0,0,0,6536,10113.1,0,0,1,-11.83,-40.53,-16.94,0.27,0.89,0.37
0,0,0,0,0,0,0,6556,10114.1,0,0,1,-10.99,-38.78,-17.64,0.25,0.92,0.37
0,0,0,0,0,0,0,6571,10116.4,0,0,1,-9.17,-36.96,-18.97,0.23,0.93,0.38
0,0,0,0,0,0,0,6587,10113.1,0,0,1,-7.49,-35.91,-22.12,0.23,0.94,0.38
0,0,0,0,0,0,0,6609,10114.1,0,0,1,-6.86,-36.26,-26.39,0.24,0.93,0.39
0,0,0,0,0,0,0,6624,10114.1,0,0,1,-7,-36.75,-29.4,0.25,0.91,0.4
0,0,0,0,0,0,0,6647,10114.4,0,0,1,-6.16,-37.24,-29.26,0.28,0.87,0.41
0,0,0,0,0,0,0,6662,10114.4,0,0,1,-8.19,-38.71,-26.67,0.3,0.85,0.42
0,0,0,0,0,0,0,6685,10114.4,0,0,1,-11.34,-41.23,-22.89,0.28,0.85,0.42
0,0,0,0,0,0,0,6708,10113.4,0,0,1,-11.9,-40.53,-19.53,0.24,0.88,0.43
0,0,0,0,0,0,0,6729,10116.4,0,0,1,-10.43,-37.59,-17.5,0.22,0.89,0.43
0,0,0,0,0,0,0,6752,10114.1,0,0,1,-10.5,-33.39,-16.45,0.22,0.89,0.44
0,0,0,0,0,0,0,6775,10114.4,0,0,1,-10.08,-28,-14,0.23,0.87,0.45
0,0,0,0,0,0,0,6804,10115.4,0,0,1,-9.31,-22.82,-9.66,0.24,0.87,0.43
0,0,0,0,0,0,0,6819,10113.1,0,0,1,-6.93,-18.76,-5.74,0.26,0.88,0.42
0,0,0,0,0,0,0,6834,10117.4,0,0,1,-5.46,-17.01,-3.5,0.26,0.89,0.42
0,0,0,0,0,0,0,6849,10114.4,0,0,1,-4.27,-15.05,-2.24,0.26,0.9,0.41
0,0,0,0,0,0,0,6864,10113.7,0,0,1,-2.31,-13.51,-1.26,0.25,0.9,0.4
0,0,0,0,0,0,0,6879,10115.4,0,0,1,-1.96,-11.2,-1.47,0.25,0.91,0.39
0,0,0,0,0,0,0,6903,10115.4,0,0,1,-1.26,-8.12,-1.82,0.27,0.91,0.37
0,0,0,0,0,0,0,6924,10114.4,0,0,1,-0.35,-6.58,-1.54,0.29,0.9,0.36
0,0,0,0,0,0,0,6946,10115.1,0,0,1,1.05,-6.93,0.56,0.3,0.9,0.37
0,0,0,0,0,0,0,6969,10115.4,0,0,1,1.61,-7.42,2.31,0.29,0.89,0.37
0,0,0,0,0,0,0,6992,10110.1,0,0,1,0.91,-6.23,2.73,0.27,0.9,0.37
0,0,0,0,0,0,0,7014,10114.4,0,0,1,1.33,-3.71,2.94,0.26,0.91,0.36
0,0,0,0,0,0,0,7029,10114.4,0,0,1,1.47,-2.38,2.94,0.27,0.9,0.37
0,0,0,0,0,0,0,7052,10115.4,0,0,1,1.47,-1.68,3.78,0.28,0.89,0.37
0,0,0,0,0,0,0,7074,10115.4,0,0,1,2.1,-0.98,6.23,0.29,0.89,0.37
0,0,0,0,0,0,0,7089,10116.4,0,0,1,2.03,0.7,8.33,0.27,0.9,0.36
0,0,0,0,0,0,0,7105,10115.8,0,0,1,2.24,1.61,8.26,0.28,0.91,0.35
0,0,0,0,0,0,0,7120,10114.4,0,0,1,2.24,1.4,6.93,0.29,0.92,0.34
0,0,0,0,0,0,0,7141,10115.1,0,0,1,2.8,0.49,5.11,0.3,0.92,0.34
0,0,0,0,0,0,0,7167,10115.4,0,0,1,3.43,0.14,5.32,0.3,0.9,0.34
0,0,0,0,0,0,0,7186,10115.4,0,0,1,2.87,0.84,6.16,0.3,0.9,0.34
0,0,0,0,0,0,0,7209,10116.4,0,0,1,2.45,1.12,4.97,0.3,0.91,0.33
0,0,0,0,0,0,0,7224,10115.8,0,0,1,2.38,0.07,2.66,0.3,0.92,0.33
0,0,0,0,0,0,0,7247,10115.4,0,0,1,2.38,0.21,1.4,0.29,0.91,0.34
0,0,0,0,0,0,0,7269,10115.4,0,0,1,1.96,1.82,1.75,0.29,0.89,0.34
0,0,0,0,0,0,0,7292,10116.4,0,0,1,1.19,1.54,2.17,0.29,0.9,0.34
0,0,0,0,0,0,0,7314,10114.7,0,0,1,0.56,0.49,1.89,0.29,0.91,0.34
0,0,0,0,0,0,0,7330,10115.4,0,0,1,0.35,0.42,2.1,0.29,0.91,0.34
0,0,0,0,0,0,0,7345,10116.4,0,0,1,0.21,1.19,1.82,0.28,0.91,0.34
0,0,0,0,0,0,0,7359,10116.8,0,0,1,0.28,1.75,0.49,0.28,0.92,0.34
0,0,0,0,0,0,0,7382,10115.8,0,0,1,0.49,0.77,-1.82,0.29,0.92,0.33
0,0,0,0,0,0,0,7396,10113.7,0,0,1,0.14,-0.77,-3.15,0.29,0.91,0.34
0,0,0,0,0,0,0,7420,10116.8,0,0,1,-0.28,-0.7,-2.17,0.28,0.89,0.35
0,0,0,0,0,0,0,7441,10116.8,0,0,1,-1.89,0,-0.84,0.28,0.89,0.35
0,0,0,0,0,0,0,7464,10116.8,0,0,1,-2.31,-0.07,-0.28,0.28,0.91,0.34
0,0,0,0,0,0,0,7486,10116.8,0,0,1,-1.75,-0.77,0,0.28,0.9,0.34
0,0,0,0,0,0,0,7508,10117.8,0,0,1,-1.96,-1.19,1.82,0.29,0.89,0.35
0,0,0,0,0,0,0,7531,10118.8,0,0,1,-2.87,-1.47,3.15,0.28,0.89,0.36
0,0,0,0,0,0,0,7547,10116.4,0,0,1,-2.45,-1.26,5.25,0.28,0.89,0.36
0,0,0,0,0,0,0,7569,10116.1,0,0,1,-1.61,-0.63,6.37,0.27,0.9,0.35
0,0,0,0,0,0,0,7591,10116.8,0,0,1,-1.47,-0.35,5.67,0.27,0.91,0.35
0,0,0,0,0,0,0,7606,10116.8,0,0,1,-1.05,0.07,4.97,0.28,0.91,0.35
0,0,0,0,0,0,0,7621,10117.1,0,0,1,-0.84,0.42,4.69,0.28,0.9,0.36
0,0,0,0,0,0,0,7644,10116.8,0,0,1,-1.05,1.26,5.25,0.27,0.91,0.37
0,0,0,0,0,0,0,7674,10115.8,0,0,1,-1.4,2.31,4.83,0.27,0.91,0.37
0,0,0,0,0,0,0,7690,10116.4,0,0,1,-1.19,3.01,3.08,0.28,0.91,0.36
0,0,0,0,0,0,0,7706,10118.8,0,0,1,-0.35,3.92,2.52,0.28,0.91,0.36
0,0,0,0,0,0,0,7727,10114.7,0,0,1,0.49,4.13,2.8,0.28,0.91,0.36
0,0,0,0,0,0,0,7750,10116.8,0,0,1,1.4,4.69,3.78,0.28,0.9,0.37
0,0,0,0,0,0,0,7771,10116.1,0,0,1,1.75,5.18,3.78,0.28,0.9,0.37
0,0,0,0,0,0,0,7794,10118.1,0,0,1,1.54,5.46,2.73,0.28,0.91,0.36
0,0,0,0,0,0,0,7816,10115.8,0,0,1,1.61,5.81,1.54,0.29,0.9,0.36
0,0,0,0,0,0,0,7839,10115.1,0,0,1,1.19,5.67,1.89,0.29,0.89,0.36
0,0,0,0,0,0,0,7846,10117.1,0,0,1,0.7,5.32,2.52,0.29,0.89,0.36
0,0,0,0,0,0,0,7869,10117.1,0,0,1,0.7,4.48,2.66,0.29,0.9,0.36
0,0,0,0,0,0,0,7885,10117.1,0,0,1,1.4,3.85,2.59,0.28,0.91,0.35
0,0,0,0,0,0,0,7914,10117.1,0,0,1,1.61,3.01,1.26,0.29,0.91,0.36
0,0,0,0,0,0,0,7929,10117.1,0,0,1,1.89,2.45,0.56,0.29,0.89,0.36
0,0,0,0,0,0,0,7944,10120.1,0,0,1,1.47,2.38,1.47,0.29,0.89,0.37
0,0,0,0,0,0,0,7969,10116.8,0,0,1,1.33,1.61,2.45,0.29,0.9,0.36
0,0,0,0,0,0,0,8004,10117.4,0,0,1,2.03,0.7,2.1,0.29,0.91,0.36
0,0,0,0,0,0,0,8011,10116.8,0,0,1,2.66,0.21,1.96,0.28,0.91,0.36
0,0,0,0,0,0,0,8034,10117.1,0,0,1,2.52,0.7,1.96,0.28,0.9,0.36
0,0,0,0,0,0,0,8057,10118.1,0,0,1,2.38,0.63,2.66,0.28,0.9,0.36
0,0,0,0,0,0,0,8071,10117.1,0,0,1,2.66,1.05,2.8,0.28,0.9,0.36
0,0,0,0,0,0,0,8093,10116.8,0,0,1,2.73,1.4,2.73,0.29,0.9,0.36
0,0,0,0,0,0,0,8109,10117.1,0,0,1,2.52,1.61,3.5,0.28,0.89,0.36
0,0,0,0,0,0,0,8125,10117.1,0,0,1,1.54,1.82,3.15,0.28,0.89,0.36
0,0,0,0,0,0,0,8147,10118.1,0,0,1,0.56,2.38,3.01,0.28,0.9,0.36
0,0,0,0,0,0,0,8162,10118.1,0,0,1,0.7,2.66,3.15,0.29,0.91,0.36
0,0,0,0,0,0,0,8191,10117.1,0,0,1,0.7,2.66,2.73,0.29,0.91,0.36
0,0,0,0,0,0,0,8214,10115.4,0,0,1,1.47,2.59,1.89,0.28,0.91,0.35
0,0,0,0,0,0,0,8229,10118.4,0,0,1,1.68,2.38,1.26,0.28,0.9,0.36
0,0,0,0,0,0,0,8252,10116.4,0,0,1,1.82,2.73,1.89,0.28,0.9,0.36
0,0,0,0,0,0,0,8274,10117.1,0,0,1,2.31,3.29,2.45,0.28,0.9,0.36
0,0,0,0,0,0,0,8296,10118.1,0,0,1,2.31,3.71,2.31,0.28,0.9,0.36
0,0,0,0,0,0,0,8319,10117.4,0,0,1,2.31,3.99,2.1,0.28,0.91,0.36
0,0,0,0,0,0,0,8334,10121.4,0,0,1,2.38,4.06,1.68,0.28,0.91,0.36
0,0,0,0,0,0,0,8350,10118.4,0,0,1,2.8,3.64,1.96,0.29,0.9,0.36
0,0,0,0,0,0,0,8372,10118.1,0,0,1,2.94,3.22,2.59,0.28,0.9,0.36
0,0,0,0,0,0,0,8379,10118.1,0,0,1,3.22,2.59,2.38,0.28,0.9,0.35
0,0,0,0,0,0,0,8409,10117.4,0,0,1,3.43,2.31,2.38,0.28,0.91,0.35
0,0,0,0,0,0,0,8432,10118.4,0,0,1,3.85,2.73,2.66,0.28,0.9,0.36
0,0,0,0,0,0,0,8455,10118.4,0,0,1,3.85,3.57,3.43,0.28,0.9,0.36
0,0,0,0,0,0,0,8469,10118.1,0,0,1,4.06,3.85,3.78,0.29,0.9,0.35
0,0,0,0,0,0,0,8492,10118.4,0,0,1,4.27,3.15,3.5,0.3,0.9,0.35
0,0,0,0,0,0,0,8515,10117.4,0,0,1,4.13,2.24,3.57,0.3,0.9,0.36
4.5166016,-0.023976747,-0.05278299,1.07E-04,0.21,0.93,0.34,18548,10128.5,0,0,3,-1.33,-3.36,1.05,0.21,0.93,0.34
3.5166016,-0.025976744,-0.060782995,-0.002893418,0.21,0.93,0.34,18586,10127.5,0,0,3,-1.47,-3.92,0.84,0.21,0.93,0.34
3.5166016,-0.018976744,-0.06378299,-0.002893418,0.21,0.93,0.34,18594,10127.5,0,0,3,-0.98,-4.13,0.84,0.21,0.93,0.34
3.8164062,-0.017976746,-0.06778299,-0.004893418,0.21,0.93,0.34,18616,10127.8,0,0,3,-0.91,-4.41,0.7,0.21,0.93,0.34
5.8164062,-0.020976745,-0.069782995,-0.004893418,0.2,0.93,0.35,18623,10129.8,0,0,3,-1.12,-4.55,0.7,0.2,0.93,0.35
2.5166016,-0.026976746,-0.06878299,-0.012893417,0.21,0.93,0.35,18639,10126.5,0,0,3,-1.54,-4.48,0.14,0.21,0.93,0.35
3.2167969,-0.032976747,-0.059782993,-0.014893417,0.21,0.92,0.34,18661,10127.2,0,0,3,-1.96,-3.85,0,0.21,0.92,0.34
3.5166016,-0.028976742,-0.054782994,-0.008893417,0.21,0.92,0.34,18686,10127.5,0,0,3,-1.68,-3.5,0.42,0.21,0.92,0.34
4.5166016,-0.024976745,-0.060782995,-0.002893418,0.21,0.92,0.34,18706,10128.5,0,0,3,-1.4,-3.92,0.84,0.21,0.92,0.34
3.8164062,-0.019976744,-0.069782995,1.07E-04,0.21,0.93,0.34,18737,10127.8,0,0,3,-1.05,-4.55,1.05,0.21,0.93,0.34
4.5166016,-0.008976745,-0.06278299,1.07E-04,0.21,0.93,0.35,18752,10128.5,0,0,3,-0.28,-4.06,1.05,0.21,0.93,0.35
1.5166016,-0.017976746,-0.054782994,-0.005893418,0.21,0.92,0.34,18773,10125.5,0,0,3,-0.91,-3.5,0.63,0.21,0.92,0.34
4.216797,-0.021976747,-0.056782994,-0.012893417,0.21,0.93,0.34,18805,10128.2,0,0,3,-1.19,-3.64,0.14,0.21,0.93,0.34
3.5166016,-0.023976747,-0.065782994,-0.020893417,0.21,0.93,0.34,18810,10127.5,0,0,3,-1.33,-4.27,-0.42,0.21,0.93,0.34
3.5166016,-0.032976747,-0.06778299,-0.029893417,0.2,0.92,0.34,18835,10127.5,0,0,3,-1.96,-4.41,-1.05,0.2,0.92,0.34
4.8164062,-0.038976748,-0.06478299,-0.032893416,0.21,0.92,0.34,18851,10128.8,0,0,3,-2.38,-4.2,-1.26,0.21,0.92,0.34
3.8164062,-0.043976746,-0.06778299,-0.028893419,0.21,0.92,0.34,18878,10127.8,0,0,3,-2.73,-4.41,-0.98,0.21,0.92,0.34
5.8164062,-0.04297675,-0.069782995,-0.021893417,0.2,0.92,0.34,18889,10129.8,0,0,3,-2.66,-4.55,-0.49,0.2,0.92,0.34
3.8164062,-0.034976743,-0.066782996,-0.007893417,0.2,0.92,0.35,18919,10127.8,0,0,3,-2.1,-4.34,0.49,0.2,0.92,0.35
3.8164062,-0.029976744,-0.056782994,-0.004893418,0.2,0.92,0.35,18942,10127.8,0,0,3,-1.75,-3.64,0.7,0.2,0.92,0.35
-0.18359375,-0.026976746,-0.054782994,-0.010893418,0.21,0.93,0.35,18954,10123.8,0,0,3,-1.54,-3.5,0.28,0.21,0.93,0.35
3.8164062,-0.026976746,-0.05178299,-0.010893418,0.2,0.92,0.35,18976,10127.8,0,0,3,-1.54,-3.29,0.28,0.2,0.92,0.35
3.5166016,-0.025976744,-0.047782995,-0.011893418,0.21,0.92,0.35,18998,10127.5,0,0,3,-1.47,-3.01,0.21,0.21,0.92,0.35
3.8164062,-0.026976746,-0.050782993,-0.008893417,0.21,0.92,0.35,19013,10127.8,0,0,3,-1.54,-3.22,0.42,0.21,0.92,0.35
3.8164062,-0.024976745,-0.059782993,1.07E-04,0.21,0.92,0.35,19036,10127.8,0,0,3,-1.4,-3.85,1.05,0.21,0.92,0.35
2.8164062,-0.008976745,-0.07278299,0.014106582,0.21,0.93,0.35,19059,10126.8,0,0,3,-0.28,-4.76,2.03,0.21,0.93,0.35
2.8164062,0.013023254,-0.069782995,0.032106582,0.2,0.92,0.35,19089,10126.8,0,0,3,1.26,-4.55,3.29,0.2,0.92,0.35
0.81640625,0.012023256,-0.066782996,0.025106583,0.2,0.92,0.35,19096,10124.8,0,0,3,1.19,-4.34,2.8,0.2,0.92,0.35
2.2167969,-0.002976745,-0.055782992,0.008106583,0.21,0.92,0.35,19111,10126.2,0,0,3,0.14,-3.57,1.61,0.21,0.92,0.35
3.2167969,-0.012976745,-0.047782995,0.003106582,0.21,0.92,0.35,19126,10127.2,0,0,3,-0.56,-3.01,1.26,0.21,0.92,0.35
2.8164062,-0.016976744,-0.041782994,-0.002893418,0.21,0.93,0.35,19149,10126.8,0,0,3,-0.84,-2.59,0.84,0.21,0.93,0.35
1.8164062,-0.022976745,-0.043782994,-8.93E-04,0.21,0.92,0.35,19178,10125.8,0,0,3,-1.26,-2.73,0.98,0.21,0.92,0.35
1.8164062,-0.033976745,-0.043782994,1.07E-04,0.21,0.91,0.35,19193,10125.8,0,0,3,-2.03,-2.73,1.05,0.21,0.91,0.35
2.2167969,-0.037976746,-0.043782994,0.003106582,0.21,0.93,0.35,19217,10126.2,0,0,3,-2.31,-2.73,1.26,0.21,0.93,0.35
1.8164062,-0.021976747,-0.050782993,0.006106583,0.22,0.92,0.35,19246,10125.8,0,0,3,-1.19,-3.22,1.47,0.22,0.92,0.35
2.2167969,-0.020976745,-0.06378299,0.001106584,0.22,0.92,0.35,19269,10126.2,0,0,3,-1.12,-4.13,1.12,0.22,0.92,0.35
1.2167969,-0.023976747,-0.07678299,0.004106584,0.22,0.92,0.35,19283,10125.2,0,0,3,-1.33,-5.04,1.33,0.22,0.92,0.35
1.2167969,-0.029976744,-0.08378299,0.003106582,0.22,0.92,0.35,19305,10125.2,0,0,3,-1.75,-5.53,1.26,0.22,0.92,0.35
1.5166016,-0.034976743,-0.08878299,-0.001893417,0.22,0.92,0.34,19321,10125.5,0,0,3,-2.1,-5.88,0.91,0.22,0.92,0.34
1.2167969,-0.041976746,-0.09278299,-8.93E-04,0.22,0.92,0.35,19343,10125.2,0,0,3,-2.59,-6.16,0.98,0.22,0.92,0.35
2.2167969,-0.046976745,-0.08978299,-0.004893418,0.22,0.92,0.35,19374,10126.2,0,0,3,-2.94,-5.95,0.7,0.22,0.92,0.35
1.8164062,-0.054976746,-0.09678299,-0.006893417,0.22,0.92,0.35,19382,10125.8,0,0,3,-3.5,-6.44,0.56,0.22,0.92,0.35
3.2167969,-0.057976745,-0.10778299,-0.015893416,0.23,0.92,0.35,19419,10127.2,0,0,3,-3.71,-7.21,-0.07,0.23,0.92,0.35
2.2167969,-0.061976746,-0.11878299,-0.014893417,0.22,0.92,0.35,19421,10126.2,0,0,3,-3.99,-7.98,0,0.22,0.92,0.35
3.2167969,-0.056976747,-0.128783,-0.007893417,0.22,0.92,0.36,19441,10127.2,0,0,3,-3.64,-8.68,0.49,0.22,0.92,0.36
2.5166016,-0.055976745,-0.13078299,-0.004893418,0.21,0.92,0.36,19471,10126.5,0,0,3,-3.57,-8.82,0.7,0.21,0.92,0.36
3.2167969,-0.048976745,-0.11478299,-0.006893417,0.21,0.93,0.36,19486,10127.2,0,0,3,-3.08,-7.7,0.56,0.21,0.93,0.36
4.5166016,-0.035976745,-0.09478299,-0.008893417,0.21,0.93,0.36,19508,10128.5,0,0,3,-2.17,-6.3,0.42,0.21,0.93,0.36
3.2167969,-0.026976746,-0.075782984,-0.014893417,0.21,0.92,0.36,19531,10127.2,0,0,3,-1.54,-4.97,0,0.21,0.92,0.36
2.5166016,-0.025976744,-0.061782993,-0.011893418,0.21,0.92,0.36,19553,10126.5,0,0,3,-1.47,-3.99,0.21,0.21,0.92,0.36
3.2167969,-0.018976744,-0.05278299,-0.004893418,0.22,0.92,0.36,19576,10127.2,0,0,3,-0.98,-3.36,0.7,0.22,0.92,0.36
4.5166016,-0.019976744,-0.05178299,-0.003893417,0.22,0.92,0.36,19593,10128.5,0,0,3,-1.05,-3.29,0.77,0.22,0.92,0.36
4.216797,-0.020976745,-0.054782994,-0.003893417,0.22,0.92,0.36,19613,10128.2,0,0,3,-1.12,-3.5,0.77,0.22,0.92,0.36
3.8164062,-0.020976745,-0.05278299,-0.001893417,0.22,0.92,0.35,19629,10127.8,0,0,3,-1.12,-3.36,0.91,0.22,0.92,0.35
4.5166016,-0.024976745,-0.048782993,0.003106582,0.22,0.91,0.35,19651,10128.5,0,0,3,-1.4,-3.08,1.26,0.22,0.91,0.35
3.5166016,-0.026976746,-0.047782995,0.002106584,0.22,0.92,0.36,19666,10127.5,0,0,3,-1.54,-3.01,1.19,0.22,0.92,0.36
4.216797,-0.027976744,-0.053782996,-0.008893417,0.23,0.91,0.35,19688,10128.2,0,0,3,-1.61,-3.43,0.42,0.23,0.91,0.35
2.5166016,-0.028976742,-0.06778299,-0.010893418,0.23,0.92,0.35,19711,10126.5,0,0,3,-1.68,-4.41,0.28,0.23,0.92,0.35
1.5166016,-0.023976747,-0.08478299,1.07E-04,0.23,0.92,0.35,19734,10125.5,0,0,3,-1.33,-5.6,1.05,0.23,0.92,0.35
0.51660156,-0.027976744,-0.09578299,0.021106582,0.23,0.91,0.36,19756,10124.5,0,0,3,-1.61,-6.37,2.52,0.23,0.91,0.36
0.51660156,-0.032976747,-0.10078298,0.027106583,0.23,0.91,0.36,19778,10124.5,0,0,3,-1.96,-6.72,2.94,0.23,0.91,0.36
0.51660156,-0.032976747,-0.09678299,0.031106584,0.22,0.92,0.36,19802,10124.5,0,0,3,-1.96,-6.44,3.22,0.22,0.92,0.36
-2.4833984,-0.023976747,-0.09078299,0.012106583,0.22,0.92,0.36,19823,10121.5,0,0,3,-1.33,-6.02,1.89,0.22,0.92,0.36
2.5166016,-0.029976744,-0.08378299,1.07E-04,0.22,0.92,0.36,19853,10126.5,0,0,3,-1.75,-5.53,1.05,0.22,0.92,0.36
1.5166016,-0.035976745,-0.08378299,-0.011893418,0.23,0.92,0.36,19860,10125.5,0,0,3,-2.17,-5.53,0.21,0.23,0.92,0.36
1.5166016,-0.040976744,-0.08578299,-0.012893417,0.23,0.92,0.35,19876,10125.5,0,0,3,-2.52,-5.67,0.14,0.23,0.92,0.35
1.5166016,-0.039976746,-0.09878299,-0.012893417,0.23,0.92,0.35,19898,10125.5,0,0,3,-2.45,-6.58,0.14,0.23,0.92,0.35
3.5166016,-0.047976747,-0.11078299,-0.013893417,0.23,0.91,0.36,19922,10127.5,0,0,3,-3.01,-7.42,0.07,0.23,0.91,0.36
3.5166016,-0.060976747,-0.131783,-0.016893417,0.24,0.91,0.35,19940,10127.5,0,0,3,-3.92,-8.89,-0.14,0.24,0.91,0.35
5.5166016,-0.059976745,-0.141783,-0.003893417,0.23,0.91,0.36,19959,10129.5,0,0,3,-3.85,-9.59,0.77,0.23,0.91,0.36
3.8164062,-0.054976746,-0.13678299,0.008106583,0.22,0.92,0.37,19981,10127.8,0,0,3,-3.5,-9.24,1.61,0.22,0.92,0.37
2.8164062,-0.051976744,-0.11778299,0.011106583,0.22,0.92,0.37,20003,10126.8,0,0,3,-3.29,-7.91,1.82,0.22,0.92,0.37
3.2167969,-0.041976746,-0.08378299,0.005106582,0.21,0.92,0.37,20026,10127.2,0,0,3,-2.59,-5.53,1.4,0.21,0.92,0.37
3.8164062,-0.033976745,-0.055782992,-0.002893418,0.22,0.92,0.37,20049,10127.8,0,0,3,-2.03,-3.57,0.84,0.22,0.92,0.37
3.8164062,-0.030976746,-0.046782993,-0.009893417,0.23,0.91,0.36,20071,10127.8,0,0,3,-1.82,-2.94,0.35,0.23,0.91,0.36
3.8164062,-0.036976747,-0.054782994,-0.003893417,0.24,0.91,0.36,20094,10127.8,0,0,3,-2.24,-3.5,0.77,0.24,0.91,0.36
2.8164062,-0.038976748,-0.060782995,0.008106583,0.23,0.91,0.36,20116,10126.8,0,0,3,-2.38,-3.92,1.61,0.23,0.91,0.36
3.8164062,-0.04297675,-0.06378299,0.008106583,0.23,0.91,0.36,20132,10127.8,0,0,3,-2.66,-4.13,1.61,0.23,0.91,0.36
3.8164062,-0.045976743,-0.06278299,0.005106582,0.23,0.91,0.36,20139,10127.8,0,0,3,-2.87,-4.06,1.4,0.23,0.91,0.36
3.8164062,-0.049976747,-0.055782992,-0.003893417,0.23,0.91,0.36,20183,10127.8,0,0,3,-3.15,-3.57,0.77,0.23,0.91,0.36
7.8164062,-0.046976745,-0.06378299,-0.005893418,0.23,0.91,0.36,20184,10131.8,0,0,3,-2.94,-4.13,0.63,0.23,0.91,0.36
3.8164062,-0.045976743,-0.07878299,0.001106584,0.24,0.91,0.37,20200,10127.8,0,0,3,-2.87,-5.18,1.12,0.24,0.91,0.37
4.216797,-0.054976746,-0.09378299,1.07E-04,0.24,0.91,0.37,20221,10128.2,0,0,3,-3.5,-6.23,1.05,0.24,0.91,0.37
2.8164062,-0.048976745,-0.09578299,1.07E-04,0.23,0.92,0.37,20244,10126.8,0,0,3,-3.08,-6.37,1.05,0.23,0.92,0.37
3.8164062,-0.04297675,-0.09278299,-0.002893418,0.23,0.92,0.37,20270,10127.8,0,0,3,-2.66,-6.16,0.84,0.23,0.92,0.37
7.8164062,-0.04297675,-0.091782995,-0.005893418,0.23,0.91,0.38,20297,10131.8,0,0,3,-2.66,-6.09,0.63,0.23,0.91,0.38
-0.18359375,-0.041976746,-0.09678299,-8.93E-04,0.24,0.91,0.37,20312,10123.8,0,0,3,-2.59,-6.44,0.98,0.24,0.91,0.37
5.216797,-0.034976743,-0.09878299,0.005106582,0.24,0.92,0.37,20334,10129.2,0,0,3,-2.1,-6.58,1.4,0.24,0.92,0.37
4.216797,-0.021976747,-0.09878299,-8.93E-04,0.24,0.92,0.37,20356,10128.2,0,0,3,-1.19,-6.58,0.98,0.24,0.92,0.37
3.2167969,-0.016976744,-0.09978299,-0.014893417,0.24,0.91,0.37,20371,10127.2,0,0,3,-0.84,-6.65,0,0.24,0.91,0.37
3.8164062,-0.014976745,-0.09978299,-0.027893417,0.24,0.91,0.37,20386,10127.8,0,0,3,-0.7,-6.65,-0.91,0.24,0.91,0.37
4.216797,-0.016976744,-0.09278299,-0.027893417,0.24,0.91,0.38,20438,10128.2,0,0,3,-0.84,-6.16,-0.91,0.24,0.91,0.38
3.8164062,-0.013976744,-0.08578299,-0.024893418,0.23,0.91,0.37,20439,10127.8,0,0,3,-0.63,-5.67,-0.7,0.23,0.91,0.37
4.8164062,-0.015976746,-0.08978299,-0.027893417,0.24,0.91,0.36,20453,10128.8,0,0,3,-0.77,-5.95,-0.91,0.24,0.91,0.36
4.216797,-0.022976745,-0.10478299,-0.03989342,0.25,0.91,0.36,20476,10128.2,0,0,3,-1.26,-7,-1.75,0.25,0.91,0.36
4.216797,-0.028976742,-0.113782994,-0.040893417,0.25,0.91,0.37,20499,10128.2,0,0,3,-1.68,-7.63,-1.82,0.25,0.91,0.37
5.8164062,-0.033976745,-0.11878299,-0.032893416,0.24,0.91,0.37,20521,10129.8,0,0,3,-2.03,-7.98,-1.26,0.24,0.91,0.37
7.216797,-0.028976742,-0.11878299,-0.034893416,0.24,0.91,0.37,20536,10131.2,0,0,3,-1.68,-7.98,-1.4,0.24,0.91,0.37
1.2167969,-0.024976745,-0.11578299,-0.040893417,0.24,0.91,0.37,20559,10125.2,0,0,3,-1.4,-7.77,-1.82,0.24,0.91,0.37
5.216797,-0.017976746,-0.11878299,-0.050893415,0.24,0.91,0.37,20581,10129.2,0,0,3,-0.91,-7.98,-2.52,0.24,0.91,0.37
4.8164062,-0.014976745,-0.125783,-0.054893415,0.24,0.91,0.37,20595,10128.8,0,0,3,-0.7,-8.47,-2.8,0.24,0.91,0.37
5.216797,-0.010976745,-0.12778299,-0.056893416,0.24,0.91,0.37,20612,10129.2,0,0,3,-0.42,-8.61,-2.94,0.24,0.91,0.37
2.8164062,-0.009976745,-0.123782985,-0.05289342,0.24,0.9,0.37,20633,10126.8,0,0,3,-0.35,-8.33,-2.66,0.24,0.9,0.37
5.216797,-0.014976745,-0.10878299,-0.034893416,0.23,0.9,0.38,20649,10129.2,0,0,3,-0.7,-7.28,-1.4,0.23,0.9,0.38
2.8164062,-0.013976744,-0.08278299,-0.023893416,0.23,0.91,0.37,20671,10126.8,0,0,3,-0.63,-5.46,-0.63,0.23,0.91,0.37
5.8164062,-0.006976745,-0.07378299,-0.025893416,0.24,0.92,0.37,20693,10129.8,0,0,3,-0.14,-4.83,-0.77,0.24,0.92,0.37
3.2167969,-0.003976745,-0.06278299,-0.033893418,0.24,0.91,0.37,20716,10127.2,0,0,3,0.07,-4.06,-1.33,0.24,0.91,0.37
3.5166016,-0.004976745,-0.054782994,-0.034893416,0.24,0.91,0.37,20739,10127.5,0,0,3,0,-3.5,-1.4,0.24,0.91,0.37
5.216797,-0.015976746,-0.06278299,-0.033893418,0.24,0.91,0.37,20761,10129.2,0,0,3,-0.77,-4.06,-1.33,0.24,0.91,0.37
4.216797,-0.012976745,-0.06378299,-0.032893416,0.24,0.91,0.36,20784,10128.2,0,0,3,-0.56,-4.13,-1.26,0.24,0.91,0.36
3.2167969,-0.007976744,-0.056782994,-0.026893416,0.23,0.91,0.37,20806,10127.2,0,0,3,-0.21,-3.64,-0.84,0.23,0.91,0.37
4.5166016,-0.009976745,-0.057782993,-0.029893417,0.24,0.91,0.36,20829,10128.5,0,0,3,-0.35,-3.71,-1.05,0.24,0.91,0.36
3.2167969,-0.017976746,-0.059782993,-0.036893416,0.24,0.91,0.36,20844,10127.2,0,0,3,-0.91,-3.85,-1.54,0.24,0.91,0.36
3.2167969,-0.024976745,-0.059782993,-0.035893418,0.25,0.91,0.36,20858,10127.2,0,0,3,-1.4,-3.85,-1.47,0.25,0.91,0.36
3.2167969,-0.025976744,-0.06778299,-0.028893419,0.25,0.91,0.36,20874,10127.2,0,0,3,-1.47,-4.41,-0.98,0.25,0.91,0.36
4.5166016,-0.020976745,-0.07478299,-0.019893417,0.24,0.91,0.36,20896,10128.5,0,0,3,-1.12,-4.9,-0.35,0.24,0.91,0.36
3.5166016,-0.015976746,-0.07078299,-0.025893416,0.23,0.91,0.36,20919,10127.5,0,0,3,-0.77,-4.62,-0.77,0.23,0.91,0.36
3.8164062,-0.012976745,-0.061782993,-0.029893417,0.23,0.91,0.36,20941,10127.8,0,0,3,-0.56,-3.99,-1.05,0.23,0.91,0.36
3.5166016,-0.018976744,-0.055782992,-0.035893418,0.25,0.91,0.36,20964,10127.5,0,0,3,-0.98,-3.57,-1.47,0.25,0.91,0.36
3.2167969,-0.027976744,-0.06878299,-0.032893416,0.24,0.91,0.36,20978,10127.2,0,0,3,-1.61,-4.48,-1.26,0.24,0.91,0.36
2.8164062,-0.028976742,-0.07678299,-0.025893416,0.23,0.92,0.36,21001,10126.8,0,0,3,-1.68,-5.04,-0.77,0.23,0.92,0.36
3.8164062,-0.026976746,-0.07478299,-0.031893417,0.23,0.91,0.37,21023,10127.8,0,0,3,-1.54,-4.9,-1.19,0.23,0.91,0.37
2.5166016,-0.028976742,-0.058782995,-0.034893416,0.23,0.91,0.37,21046,10126.5,0,0,3,-1.68,-3.78,-1.4,0.23,0.91,0.37
3.5166016,-0.027976744,-0.053782996,-0.030893419,0.23,0.91,0.37,21061,10127.5,0,0,3,-1.61,-3.43,-1.12,0.23,0.91,0.37
3.5166016,-0.018976744,-0.049782995,-0.024893418,0.23,0.91,0.37,21084,10127.5,0,0,3,-0.98,-3.15,-0.7,0.23,0.91,0.37
-1.4833984,-0.014976745,-0.05178299,-0.017893417,0.22,0.91,0.37,21098,10122.5,0,0,3,-0.7,-3.29,-0.21,0.22,0.91,0.37
4.5166016,-0.009976745,-0.041782994,-0.016893417,0.22,0.91,0.37,21121,10128.5,0,0,3,-0.35,-2.59,-0.14,0.22,0.91,0.37
5.216797,-0.005976745,-0.038782995,-0.016893417,0.23,0.92,0.37,21129,10129.2,0,0,3,-0.07,-2.38,-0.14,0.23,0.92,0.37
3.8164062,-0.006976745,-0.047782995,-0.025893416,0.24,0.92,0.36,21151,10127.8,0,0,3,-0.14,-3.01,-0.77,0.24,0.92,0.36
8.916992,-0.004976745,-0.053782996,-0.025893416,0.23,0.91,0.36,21174,10132.9,0,0,3,0,-3.43,-0.77,0.23,0.91,0.36
3.5166016,-0.016976744,-0.047782995,-0.022893418,0.23,0.91,0.37,21196,10127.5,0,0,3,-0.84,-3.01,-0.56,0.23,0.91,0.37
4.8164062,-0.027976744,-0.039782993,-0.010893418,0.23,0.91,0.37,21228,10128.8,0,0,3,-1.61,-2.45,0.28,0.23,0.91,0.37
3.8164062,-0.027976744,-0.037782993,-0.001893417,0.23,0.91,0.37,21233,10127.8,0,0,3,-1.61,-2.31,0.91,0.23,0.91,0.37
3.8164062,-0.016976744,-0.041782994,0.002106584,0.22,0.91,0.36,21256,10127.8,0,0,3,-0.84,-2.59,1.19,0.22,0.91,0.36
3.8164062,-0.029976744,-0.06278299,0.001106584,0.24,0.92,0.36,21278,10127.8,0,0,3,-1.75,-4.06,1.12,0.24,0.92,0.36
3.8164062,-0.013976744,-0.07978299,-0.001893417,0.24,0.9,0.36,21300,10127.8,0,0,3,-0.63,-5.25,0.91,0.24,0.9,0.36
2.5166016,-0.011976745,-0.09778299,0.004106584,0.25,0.9,0.35,21317,10126.5,0,0,3,-0.49,-6.51,1.33,0.25,0.9,0.35
3.2167969,-0.014976745,-0.12178298,0.005106582,0.25,0.9,0.35,21331,10127.2,0,0,3,-0.7,-8.19,1.4,0.25,0.9,0.35
1.8164062,-0.041976746,-0.14278299,-0.006893417,0.26,0.9,0.35,21353,10125.8,0,0,3,-2.59,-9.66,0.56,0.26,0.9,0.35
1.8164062,-0.06297674,-0.204783,-0.014893417,0.28,0.9,0.34,21368,10125.8,0,0,3,-4.06,-14,0,0.28,0.9,0.34
-0.18359375,-0.08197674,-0.27178302,-0.013893417,0.29,0.89,0.33,21385,10123.8,0,0,3,-5.39,-18.69,0.07,0.29,0.89,0.33
-2.4833984,-0.14497675,-0.356783,-0.043893415,0.3,0.89,0.31,21406,10121.5,0,0,3,-9.8,-24.64,-2.03,0.3,0.89,0.31
-7.1835938,-0.21497674,-0.454783,-0.053893417,0.3,0.87,0.32,21420,10116.8,0,0,3,-14.7,-31.5,-2.73,0.3,0.87,0.32
-10.183594,-0.27297676,-0.57278293,-0.029893417,0.3,0.85,0.33,21443,10113.8,0,0,3,-18.76,-39.76,-1.05,0.3,0.85,0.33
-14.183594,-0.34097674,-0.664783,-0.002893418,0.28,0.87,0.34,21465,10109.8,0,0,3,-23.52,-46.2,0.84,0.28,0.87,0.34
-16.283203,-0.36897674,-0.711783,0.019106586,0.27,0.89,0.36,21489,10107.7,0,0,3,-25.48,-49.49,2.38,0.27,0.89,0.36
-23.283203,-0.36497676,-0.66978294,0.017106585,0.25,0.9,0.4,21511,10100.7,0,0,3,-25.2,-46.55,2.24,0.25,0.9,0.4
-21.88379,-0.33997676,-0.589783,0.003106582,0.23,0.92,0.42,21535,10102.1,0,0,3,-23.45,-40.95,1.26,0.23,0.92,0.42
-20.283203,-0.30897677,-0.50678295,0.003106582,0.23,0.91,0.44,21556,10103.7,0,0,3,-21.28,-35.14,1.26,0.23,0.91,0.44
-21.283203,-0.27497673,-0.431783,0.004106584,0.24,0.92,0.44,21571,10102.7,0,0,3,-18.9,-29.89,1.33,0.24,0.92,0.44
-20.88379,-0.21997675,-0.35978302,0.006106583,0.24,0.93,0.44,21586,10103.1,0,0,3,-15.05,-24.85,1.47,0.24,0.93,0.44
-21.283203,-0.17897676,-0.286783,-0.009893417,0.24,0.92,0.44,21617,10102.7,0,0,3,-12.18,-19.74,0.35,0.24,0.92,0.44
-19.88379,-0.14297675,-0.233783,-0.027893417,0.25,0.91,0.43,21624,10104.1,0,0,3,-9.66,-16.03,-0.91,0.25,0.91,0.43
-20.583008,-0.13097675,-0.19578299,-0.038893417,0.26,0.9,0.43,21639,10103.4,0,0,3,-8.82,-13.37,-1.68,0.26,0.9,0.43
-20.283203,-0.101976745,-0.15278299,-0.038893417,0.26,0.9,0.42,21661,10103.7,0,0,3,-6.79,-10.36,-1.68,0.26,0.9,0.42
-24.983398,-0.07197674,-0.132783,-0.05289342,0.27,0.91,0.41,21683,10099,0,0,3,-4.69,-8.96,-2.66,0.27,0.91,0.41
-13.883789,-0.045976743,-0.11278299,-0.060893416,0.27,0.9,0.41,21698,10110.1,0,0,3,-2.87,-7.56,-3.22,0.27,0.9,0.41
-17.88379,-0.034976743,-0.08878299,-0.053893417,0.28,0.88,0.42,21721,10106.1,0,0,3,-2.1,-5.88,-2.73,0.28,0.88,0.42
-16.88379,-0.034976743,-0.06378299,-0.050893415,0.28,0.88,0.41,21744,10107.1,0,0,3,-2.1,-4.13,-2.52,0.28,0.88,0.41
-14.883789,-0.027976744,-0.07678299,-0.046893418,0.28,0.89,0.4,21766,10109.1,0,0,3,-1.61,-5.04,-2.24,0.28,0.89,0.4
-14.883789,-0.032976747,-0.08278299,-0.04589342,0.29,0.88,0.4,21788,10109.1,0,0,3,-1.96,-5.46,-2.17,0.29,0.88,0.4
-13.883789,-0.034976743,-0.07778299,-0.035893418,0.28,0.87,0.41,21810,10110.1,0,0,3,-2.1,-5.11,-1.47,0.28,0.87,0.41
-12.883789,-0.046976745,-0.08178299,-0.023893416,0.28,0.87,0.41,21818,10111.1,0,0,3,-2.94,-5.39,-0.63,0.28,0.87,0.41
-15.883789,-0.054976746,-0.08178299,-0.026893416,0.28,0.88,0.4,21850,10108.1,0,0,3,-3.5,-5.39,-0.84,0.28,0.88,0.4
-10.883789,-0.048976745,-0.09078299,-0.044893418,0.28,0.9,0.39,21855,10113.1,0,0,3,-3.08,-6.02,-2.1,0.28,0.9,0.39
-10.883789,-0.038976748,-0.10378299,-0.054893415,0.28,0.89,0.4,21871,10113.1,0,0,3,-2.38,-6.93,-2.8,0.28,0.89,0.4
-8.583008,-0.038976748,-0.11478299,-0.059893418,0.28,0.89,0.41,21886,10115.4,0,0,3,-2.38,-7.7,-3.15,0.28,0.89,0.41
-8.883789,-0.034976743,-0.11678299,-0.059893418,0.28,0.87,0.41,21908,10115.1,0,0,3,-2.1,-7.84,-3.15,0.28,0.87,0.41
-8.883789,-0.05397675,-0.11678299,-0.057893418,0.28,0.87,0.41,21935,10115.1,0,0,3,-3.43,-7.84,-3.01,0.28,0.87,0.41
-7.4833984,-0.061976746,-0.102782995,-0.044893418,0.27,0.89,0.41,21953,10116.5,0,0,3,-3.99,-6.86,-2.1,0.27,0.89,0.41
-6.883789,-0.047976747,-0.08378299,-0.044893418,0.26,0.89,0.4,21976,10117.1,0,0,3,-3.01,-5.53,-2.1,0.26,0.89,0.4
-5.1835938,-0.037976746,-0.07978299,-0.058893416,0.28,0.89,0.41,21991,10118.8,0,0,3,-2.31,-5.25,-3.08,0.28,0.89,0.41
-3.883789,-0.025976744,-0.08578299,-0.046893418,0.28,0.88,0.41,22013,10120.1,0,0,3,-1.47,-5.67,-2.24,0.28,0.88,0.41
-2.4833984,-0.012976745,-0.09378299,-0.020893417,0.28,0.88,0.41,22037,10121.5,0,0,3,-0.56,-6.23,-0.42,0.28,0.88,0.41
-0.88378906,-0.014976745,-0.09478299,-0.019893417,0.28,0.89,0.4,22051,10123.1,0,0,3,-0.7,-6.3,-0.35,0.28,0.89,0.4
-0.88378906,-0.016976744,-0.09978299,-0.024893418,0.28,0.89,0.4,22074,10123.1,0,0,3,-0.84,-6.65,-0.7,0.28,0.89,0.4
-1.4833984,-0.019976744,-0.09678299,-0.030893419,0.28,0.88,0.4,22088,10122.5,0,0,3,-1.05,-6.44,-1.12,0.28,0.88,0.4
0.51660156,-0.025976744,-0.09078299,-0.029893417,0.27,0.88,0.4,22119,10124.5,0,0,3,-1.47,-6.02,-1.05,0.27,0.88,0.4
2.2167969,-0.029976744,-0.09378299,-0.023893416,0.28,0.88,0.4,22120,10126.2,0,0,3,-1.75,-6.23,-0.63,0.28,0.88,0.4
3.5166016,-0.035976745,-0.11078299,-0.023893416,0.28,0.88,0.4,22134,10127.5,0,0,3,-2.17,-7.42,-0.63,0.28,0.88,0.4
4.5166016,-0.033976745,-0.12778299,-0.024893418,0.28,0.89,0.4,22156,10128.5,0,0,3,-2.03,-8.61,-0.7,0.28,0.89,0.4
7.5166016,-0.031976745,-0.14278299,-0.03989342,0.28,0.89,0.4,22179,10131.5,0,0,3,-1.89,-9.66,-1.75,0.28,0.89,0.4
10.216797,-0.025976744,-0.14678298,-0.04189342,0.28,0.89,0.4,22201,10134.2,0,0,3,-1.47,-9.94,-1.89,0.28,0.89,0.4
13.516602,-0.016976744,-0.14678298,-0.043893415,0.28,0.88,0.41,22224,10137.5,0,0,3,-0.84,-9.94,-2.03,0.28,0.88,0.41
12.516602,-0.020976745,-0.14478299,-0.036893416,0.28,0.88,0.41,22246,10136.5,0,0,3,-1.12,-9.8,-1.54,0.28,0.88,0.41
14.916992,-0.013976744,-0.153783,-0.023893416,0.28,0.89,0.4,22269,10138.9,0,0,3,-0.63,-10.43,-0.63,0.28,0.89,0.4
17.61621,-0.004976745,-0.14378299,-0.019893417,0.28,0.88,0.41,22290,10141.6,0,0,3,0,-9.73,-0.35,0.28,0.88,0.41
17.61621,-0.009976745,-0.141783,-0.020893417,0.28,0.88,0.41,22306,10141.6,0,0,3,-0.35,-9.59,-0.42,0.28,0.88,0.41
17.61621,-0.017976746,-0.132783,-0.025893416,0.28,0.88,0.4,22320,10141.6,0,0,3,-0.91,-8.96,-0.77,0.28,0.88,0.4
18.916992,-0.018976744,-0.131783,-0.023893416,0.28,0.88,0.41,22335,10142.9,0,0,3,-0.98,-8.89,-0.63,0.28,0.88,0.41
21.61621,-0.014976745,-0.12078299,-0.008893417,0.28,0.88,0.41,22366,10145.6,0,0,3,-0.7,-8.12,0.42,0.28,0.88,0.41
18.61621,-0.013976744,-0.11078299,1.07E-04,0.28,0.89,0.41,22373,10142.6,0,0,3,-0.63,-7.42,1.05,0.28,0.89,0.41
19.61621,-9.77E-04,-0.10878299,0.005106582,0.28,0.89,0.4,22389,10143.6,0,0,3,0.28,-7.28,1.4,0.28,0.89,0.4
18.216797,0.009023256,-0.09278299,-0.002893418,0.27,0.9,0.4,22419,10142.2,0,0,3,0.98,-6.16,0.84,0.27,0.9,0.4
18.916992,0.013023254,-0.06278299,-0.009893417,0.27,0.88,0.41,22426,10142.9,0,0,3,1.26,-4.06,0.35,0.27,0.88,0.41
17.916992,-0.001976745,-0.033782993,-0.012893417,0.28,0.88,0.41,22449,10141.9,0,0,3,0.21,-2.03,0.14,0.28,0.88,0.41
18.916992,-0.001976745,-0.033782993,-0.013893417,0.28,0.9,0.4,22471,10142.9,0,0,3,0.21,-2.03,0.07,0.28,0.9,0.4
18.61621,0.023023255,-0.025782991,-0.013893417,0.28,0.9,0.41,22493,10142.6,0,0,3,1.96,-1.47,0.07,0.28,0.9,0.41
18.916992,0.035023253,0.002217008,-0.014893417,0.28,0.89,0.41,22515,10142.9,0,0,3,2.8,0.49,0,0.28,0.89,0.41
17.916992,0.041023254,0.024217006,-0.022893418,0.27,0.9,0.41,22538,10141.9,0,0,3,3.22,2.03,-0.56,0.27,0.9,0.41
17.916992,0.048023254,0.041217007,-0.021893417,0.27,0.89,0.41,22553,10141.9,0,0,3,3.71,3.22,-0.49,0.27,0.89,0.41
17.916992,0.062023256,0.056217007,-0.013893417,0.27,0.89,0.4,22569,10141.9,0,0,3,4.69,4.27,0.07,0.27,0.89,0.4
19.916992,0.07302326,0.07921701,-0.011893418,0.26,0.9,0.4,22585,10143.9,0,0,3,5.46,5.88,0.21,0.26,0.9,0.4
16.916992,0.08002326,0.09921701,-0.011893418,0.26,0.9,0.4,22605,10140.9,0,0,3,5.95,7.28,0.21,0.26,0.9,0.4
15.616211,0.097023256,0.11621702,-0.017893417,0.26,0.9,0.4,22620,10139.6,0,0,3,7.14,8.47,-0.21,0.26,0.9,0.4
15.916992,0.10302326,0.13621701,-0.016893417,0.26,0.9,0.4,22635,10139.9,0,0,3,7.56,9.87,-0.14,0.26,0.9,0.4
15.916992,0.10502326,0.162217,-0.006893417,0.26,0.89,0.4,22658,10139.9,0,0,3,7.7,11.69,0.56,0.26,0.89,0.4
15.916992,0.10502326,0.17321701,1.07E-04,0.27,0.89,0.39,22681,10139.9,0,0,3,7.7,12.46,1.05,0.27,0.89,0.39
14.916992,0.10602326,0.155217,-0.003893417,0.28,0.89,0.38,22703,10138.9,0,0,3,7.77,11.2,0.77,0.28,0.89,0.38
14.516602,0.10402326,0.139217,1.07E-04,0.27,0.89,0.38,22718,10138.5,0,0,3,7.63,10.08,1.05,0.27,0.89,0.38
14.516602,0.097023256,0.140217,0.011106583,0.26,0.89,0.39,22741,10138.5,0,0,3,7.14,10.15,1.82,0.26,0.89,0.39
14.916992,0.09102325,0.13821702,0.007106583,0.26,0.9,0.38,22763,10138.9,0,0,3,6.72,10.01,1.54,0.26,0.9,0.38
13.216797,0.08702326,0.13521701,-8.93E-04,0.26,0.9,0.38,22786,10137.2,0,0,3,6.44,9.8,0.98,0.26,0.9,0.38
13.916992,0.086023256,0.139217,0.002106584,0.26,0.9,0.39,22801,10137.9,0,0,3,6.37,10.08,1.19,0.26,0.9,0.39
14.216797,0.08402326,0.14821701,0.009106581,0.25,0.89,0.39,22817,10138.2,0,0,3,6.23,10.71,1.68,0.25,0.89,0.39
13.916992,0.08202326,0.154217,0.016106583,0.25,0.89,0.39,22839,10137.9,0,0,3,6.09,11.13,2.17,0.25,0.89,0.39
14.216797,0.08102326,0.15621702,0.014106582,0.25,0.9,0.39,22870,10138.2,0,0,3,6.02,11.27,2.03,0.25,0.9,0.39
7.216797,0.078023255,0.155217,0.010106583,0.25,0.91,0.38,22871,10131.2,0,0,3,5.81,11.2,1.75,0.25,0.91,0.38
12.916992,0.08202326,0.162217,0.008106583,0.25,0.9,0.38,22891,10136.9,0,0,3,6.09,11.69,1.61,0.25,0.9,0.38
13.516602,0.08802326,0.17121701,0.018106584,0.25,0.89,0.38,22905,10137.5,0,0,3,6.51,12.32,2.31,0.25,0.89,0.38
13.216797,0.089023255,0.16421701,0.030106585,0.25,0.9,0.38,22928,10137.2,0,0,3,6.58,11.83,3.15,0.25,0.9,0.38
12.216797,0.08802326,0.146217,0.038106583,0.26,0.9,0.38,22951,10136.2,0,0,3,6.51,10.57,3.71,0.26,0.9,0.38
11.216797,0.078023255,0.122217014,0.034106586,0.26,0.9,0.37,22973,10135.2,0,0,3,5.81,8.89,3.43,0.26,0.9,0.37
10.216797,0.06802326,0.114217006,0.03310658,0.27,0.89,0.37,22990,10134.2,0,0,3,5.11,8.33,3.36,0.27,0.89,0.37
9.216797,0.054023255,0.10921701,0.046106584,0.26,0.89,0.37,23012,10133.2,0,0,3,4.13,7.98,4.27,0.26,0.89,0.37
10.916992,0.047023255,0.09221701,0.051106583,0.26,0.9,0.37,23034,10134.9,0,0,3,3.64,6.79,4.62,0.26,0.9,0.37
8.916992,0.050023254,0.08121701,0.052106585,0.26,0.9,0.37,23049,10132.9,0,0,3,3.85,6.02,4.69,0.26,0.9,0.37
9.516602,0.049023256,0.07521701,0.05610658,0.26,0.89,0.37,23071,10133.5,0,0,3,3.78,5.6,4.97,0.26,0.89,0.37
7.216797,0.049023256,0.082217015,0.06310658,0.25,0.9,0.38,23085,10131.2,0,0,3,3.78,6.09,5.46,0.25,0.9,0.38
4.8164062,0.049023256,0.08721701,0.067106575,0.25,0.91,0.37,23101,10128.8,0,0,3,3.78,6.44,5.74,0.25,0.91,0.37
0.21679688,0.051023256,0.091217004,0.06310658,0.26,0.9,0.37,23116,10124.2,0,0,3,3.92,6.72,5.46,0.26,0.9,0.37
1.2167969,0.053023253,0.102217,0.06310658,0.25,0.91,0.37,23131,10125.2,0,0,3,4.06,7.49,5.46,0.25,0.91,0.37
-0.88378906,0.050023254,0.11721701,0.06510658,0.25,0.91,0.37,23146,10123.1,0,0,3,3.85,8.54,5.6,0.25,0.91,0.37
-2.4833984,0.046023253,0.124217,0.06310658,0.25,0.9,0.37,23169,10121.5,0,0,3,3.57,9.03,5.46,0.25,0.9,0.37
-3.883789,0.042023253,0.119217016,0.06510658,0.26,0.9,0.37,23184,10120.1,0,0,3,3.29,8.68,5.6,0.26,0.9,0.37
-9.583008,0.040023256,0.112217,0.07310658,0.26,0.9,0.37,23199,10114.4,0,0,3,3.15,8.19,6.16,0.26,0.9,0.37
-7.4833984,0.039023254,0.104217015,0.08110657,0.26,0.91,0.37,23221,10116.5,0,0,3,3.08,7.63,6.72,0.26,0.91,0.37
-6.883789,0.040023256,0.09821701,0.08710658,0.26,0.91,0.37,23228,10117.1,0,0,3,3.15,7.21,7.14,0.26,0.91,0.37
-12.583008,0.03602325,0.10021701,0.083106585,0.25,0.92,0.37,23243,10111.4,0,0,3,2.87,7.35,6.86,0.25,0.92,0.37
-8.583008,0.040023256,0.10321701,0.07510658,0.26,0.91,0.37,23266,10115.4,0,0,3,3.15,7.56,6.3,0.26,0.91,0.37
-7.4833984,0.041023254,0.10321701,0.062106583,0.26,0.91,0.37,23281,10116.5,0,0,3,3.22,7.56,5.39,0.26,0.91,0.37
-7.4833984,0.04302325,0.102217,0.055106584,0.26,0.91,0.37,23296,10116.5,0,0,3,3.36,7.49,4.9,0.26,0.91,0.37
-7.4833984,0.04302325,0.102217,0.05710658,0.26,0.9,0.37,23311,10116.5,0,0,3,3.36,7.49,5.04,0.26,0.9,0.37
-7.4833984,0.044023257,0.10121701,0.05710658,0.26,0.9,0.37,23326,10116.5,0,0,3,3.43,7.42,5.04,0.26,0.9,0.37
-6.4833984,0.049023256,0.10621701,0.05710658,0.25,0.91,0.36,23340,10117.5,0,0,3,3.78,7.77,5.04,0.25,0.91,0.36
-6.883789,0.055023253,0.102217,0.052106585,0.26,0.92,0.36,23363,10117.1,0,0,3,4.2,7.49,4.69,0.26,0.92,0.36
-5.4833984,0.06302326,0.10021701,0.034106586,0.26,0.91,0.36,23378,10118.5,0,0,3,4.76,7.35,3.43,0.26,0.91,0.36
-6.4833984,0.06502326,0.10021701,0.031106584,0.26,0.91,0.36,23393,10117.5,0,0,3,4.9,7.35,3.22,0.26,0.91,0.36
-6.4833984,0.062023256,0.10321701,0.034106586,0.26,0.9,0.37,23416,10117.5,0,0,3,4.69,7.56,3.43,0.26,0.9,0.37
-6.1835938,0.059023257,0.10621701,0.039106585,0.26,0.9,0.36,23423,10117.8,0,0,3,4.48,7.77,3.78,0.26,0.9,0.36
-5.4833984,0.055023253,0.10121701,0.038106583,0.26,0.91,0.36,23442,10118.5,0,0,3,4.2,7.42,3.71,0.26,0.91,0.36
-1.1835938,0.056023255,0.09921701,0.030106585,0.25,0.91,0.36,23453,10122.8,0,0,3,4.27,7.28,3.15,0.25,0.91,0.36
-4.4833984,0.057023257,0.10021701,0.028106585,0.25,0.91,0.36,23476,10119.5,0,0,3,4.34,7.35,3.01,0.25,0.91,0.36
-4.4833984,0.054023255,0.104217015,0.042106584,0.25,0.9,0.37,23492,10119.5,0,0,3,4.13,7.63,3.99,0.25,0.9,0.37
-2.1835938,0.045023255,0.112217,0.05010659,0.25,0.9,0.37,23505,10121.8,0,0,3,3.5,8.19,4.55,0.25,0.9,0.37
-2.1835938,0.048023254,0.11821701,0.060106587,0.25,0.91,0.36,23525,10121.8,0,0,3,3.71,8.61,5.25,0.25,0.91,0.36
-3.1835938,0.056023255,0.12021701,0.055106584,0.24,0.92,0.36,23535,10120.8,0,0,3,4.27,8.75,4.9,0.24,0.92,0.36
-2.1835938,0.059023257,0.119217016,0.041106585,0.25,0.92,0.36,23551,10121.8,0,0,3,4.48,8.68,3.92,0.25,0.92,0.36
-1.4833984,0.062023256,0.122217014,0.03310658,0.25,0.91,0.37,23574,10122.5,0,0,3,4.69,8.89,3.36,0.25,0.91,0.37
-0.18359375,0.056023255,0.13121702,0.037106585,0.26,0.9,0.37,23588,10123.8,0,0,3,4.27,9.52,3.64,0.26,0.9,0.37
-0.18359375,0.053023253,0.14321701,0.05610658,0.13,0.9,0.37,23603,10123.8,0,0,3,4.06,10.36,4.97,0.13,0.9,0.37
-0.88378906,0.06002326,0.15321702,0.06910658,0.24,0.91,0.37,23628,10123.1,0,0,3,4.55,11.06,5.88,0.24,0.91,0.37
0.81640625,0.07402326,0.16521701,0.07610658,0.24,0.92,0.36,23633,10124.8,0,0,3,5.53,11.9,6.37,0.24,0.92,0.36
1.8164062,0.089023255,0.18621701,0.07010658,0.23,0.92,0.37,23648,10125.8,0,0,3,6.58,13.37,5.95,0.23,0.92,0.37
1.8164062,0.10202325,0.21921702,0.06410658,0.24,0.91,0.37,23671,10125.8,0,0,3,7.49,15.68,5.53,0.24,0.91,0.37
2.8164062,0.11202325,0.24221702,0.05610658,0.24,0.91,0.36,23686,10126.8,0,0,3,8.19,17.29,4.97,0.24,0.91,0.36
3.2167969,0.115023255,0.246217,0.05010659,0.25,0.91,0.36,23701,10127.2,0,0,3,8.4,17.57,4.55,0.25,0.91,0.36
6.216797,0.11702326,0.24321702,0.059106585,0.25,0.91,0.35,23732,10130.2,0,0,3,8.54,17.36,5.18,0.25,0.91,0.35
5.8164062,0.123023264,0.24221702,0.07410658,0.25,0.91,0.36,23738,10129.8,0,0,3,8.96,17.29,6.23,0.25,0.91,0.36
7.216797,0.12702325,0.252217,0.08810658,0.23,0.91,0.36,23753,10131.2,0,0,3,9.24,17.99,7.21,0.23,0.91,0.36
8.216797,0.123023264,0.277217,0.10310658,0.23,0.9,0.37,23760,10132.2,0,0,3,8.96,19.74,8.26,0.23,0.9,0.37
9.216797,0.12102326,0.306217,0.11110658,0.23,0.91,0.37,23784,10133.2,0,0,3,8.82,21.77,8.82,0.23,0.91,0.37
9.216797,0.12902325,0.344217,0.13410659,0.22,0.91,0.37,23799,10133.2,0,0,3,9.38,24.43,10.43,0.22,0.91,0.37
12.216797,0.15802325,0.40821698,0.16710658,0.2,0.92,0.39,23822,10136.2,0,0,3,11.41,28.91,12.74,0.2,0.92,0.39
13.216797,0.19802324,0.518217,0.21510659,0.19,0.9,0.43,23843,10137.2,0,0,3,14.21,36.61,16.1,0.19,0.9,0.43
15.216797,0.22502325,0.673217,0.29110658,0.19,0.88,0.47,23845,10139.2,0,0,3,16.1,47.46,21.42,0.19,0.88,0.47
15.616211,0.24102324,0.856217,0.3741066,0.16,0.9,0.48,23858,10139.6,0,0,3,17.22,60.27,27.23,0.16,0.9,0.48
16.216797,0.28102326,1.054217,0.4331066,0.14,0.94,0.47,23883,10140.2,0,0,3,20.02,74.13,31.36,0.14,0.94,0.47
17.216797,0.35202324,1.243217,0.47410658,0.15,0.96,0.44,23896,10141.2,0,0,3,24.99,87.36,34.23,0.15,0.96,0.44
17.216797,0.43002325,1.3972169,0.4931066,0.18,0.94,0.44,23911,10141.2,0,0,3,30.45,98.14,35.56,0.18,0.94,0.44
20.61621,0.7610232,1.526217,0.51510656,0.2,0.93,0.45,23926,10144.6,0,0,3,53.62,107.17,37.1,0.2,0.93,0.45
17.216797,0.59602326,1.718217,0.5801066,0.2,0.91,0.47,23949,10141.2,0,0,3,42.07,120.61,41.65,0.2,0.91,0.47
17.216797,0.62402326,1.8262169,0.5781066,0.23,0.88,0.44,23978,10141.2,0,0,3,44.03,128.17,41.51,0.23,0.88,0.44
17.61621,0.5810233,1.7982169,0.4851066,0.3,0.85,0.4,23993,10141.6,0,0,3,41.02,126.21,35,0.3,0.85,0.4
21.216797,0.54702324,1.7092171,0.4441066,0.34,0.86,0.35,24016,10145.2,0,0,3,38.64,119.98,32.13,0.34,0.86,0.35
16.61621,0.54502326,1.662217,0.5141066,0.35,0.87,0.32,24031,10140.6,0,0,3,38.5,116.69,37.03,0.35,0.87,0.32
15.616211,0.55402327,1.6262169,0.5831066,0.34,0.88,0.31,24053,10139.6,0,0,3,39.13,114.17,41.86,0.34,0.88,0.31
15.216797,0.54102325,1.577217,0.6311066,0.33,0.87,0.32,24070,10139.2,0,0,3,38.22,110.74,45.22,0.33,0.87,0.32
15.616211,0.49402326,1.4972169,0.62610656,0.33,0.86,0.32,24083,10139.6,0,0,3,34.93,105.14,44.87,0.33,0.86,0.32
13.916992,0.42702326,1.393217,0.5821066,0.33,0.85,0.33,24106,10137.9,0,0,3,30.24,97.86,41.79,0.33,0.85,0.33
19.61621,0.32002324,1.288217,0.5451066,0.34,0.85,0.33,24121,10143.6,0,0,3,22.75,90.51,39.2,0.34,0.85,0.33
17.61621,0.24902326,1.176217,0.51510656,0.35,0.89,0.31,24128,10141.6,0,0,3,17.78,82.67,37.1,0.35,0.89,0.31
14.616211,0.18702324,1.0222169,0.46410656,0.34,0.93,0.29,24151,10138.6,0,0,3,13.44,71.89,33.53,0.34,0.93,0.29
14.216797,0.17302325,0.862217,0.40510657,0.33,0.93,0.28,24181,10138.2,0,0,3,12.46,60.69,29.4,0.33,0.93,0.28
14.616211,0.15102325,0.699217,0.3571066,0.33,0.92,0.28,24195,10138.6,0,0,3,10.92,49.28,26.04,0.33,0.92,0.28
13.516602,0.13402325,0.584217,0.3341066,0.31,0.93,0.28,24226,10137.5,0,0,3,9.73,41.23,24.43,0.31,0.93,0.28
13.516602,0.13102326,0.494217,0.3111066,0.3,0.92,0.28,24241,10137.5,0,0,3,9.52,34.93,22.82,0.3,0.92,0.28
15.616211,0.12002326,0.409217,0.2791066,0.29,0.91,0.29,24263,10139.6,0,0,3,8.75,28.98,20.58,0.29,0.91,0.29
14.616211,0.08402326,0.325217,0.24410656,0.29,0.9,0.3,24286,10138.6,0,0,3,6.23,23.1,18.13,0.29,0.9,0.3
14.216797,0.049023256,0.259217,0.22210659,0.29,0.9,0.31,24320,10138.2,0,0,3,3.78,18.48,16.59,0.29,0.9,0.31
13.216797,0.03602325,0.23121701,0.22210659,0.29,0.91,0.32,24323,10137.2,0,0,3,2.87,16.52,16.59,0.29,0.91,0.32
13.516602,0.031023253,0.22521701,0.22410658,0.28,0.91,0.32,24338,10137.5,0,0,3,2.52,16.1,16.73,0.28,0.91,0.32
13.916992,0.024023253,0.22321701,0.21510659,0.27,0.91,0.33,24353,10137.9,0,0,3,2.03,15.96,16.1,0.27,0.91,0.33
13.916992,0.010023255,0.21521701,0.19510658,0.28,0.9,0.34,24368,10137.9,0,0,3,1.05,15.4,14.7,0.28,0.9,0.34
14.916992,-0.009976745,0.20021701,0.16410658,0.29,0.91,0.35,24383,10138.9,0,0,3,-0.35,14.35,12.53,0.29,0.91,0.35
12.916992,-0.034976743,0.18121701,0.14810659,0.3,0.9,0.35,24406,10136.9,0,0,3,-2.1,13.02,11.41,0.3,0.9,0.35
13.516602,-0.040976744,0.16721702,0.15110658,0.32,0.9,0.35,24429,10137.5,0,0,3,-2.52,12.04,11.62,0.32,0.9,0.35
13.916992,-0.051976744,0.14121701,0.15810658,0.32,0.9,0.35,24451,10137.9,0,0,3,-3.29,10.22,12.11,0.32,0.9,0.35
13.916992,-0.048976745,0.11721701,0.15810658,0.31,0.91,0.35,24474,10137.9,0,0,3,-3.08,8.54,12.11,0.31,0.91,0.35
14.916992,-0.025976744,0.091217004,0.13310659,0.3,0.92,0.35,24495,10138.9,0,0,3,-1.47,6.72,10.36,0.3,0.92,0.35
14.216797,0.003023256,0.077217005,0.10710658,0.31,0.91,0.35,24510,10138.2,0,0,3,0.56,5.74,8.54,0.31,0.91,0.35
11.916992,0.005023255,0.06721701,0.09910658,0.32,0.89,0.36,24540,10135.9,0,0,3,0.7,5.04,7.98,0.32,0.89,0.36
13.916992,-0.009976745,0.053217005,0.08610658,0.32,0.9,0.36,24548,10137.9,0,0,3,-0.35,4.06,7.07,0.32,0.9,0.36
15.916992,-0.019976744,0.027217008,0.07710658,0.32,0.91,0.35,24570,10139.9,0,0,3,-1.05,2.24,6.44,0.32,0.91,0.35
15.216797,-0.007976744,0.013217007,0.067106575,0.31,0.91,0.34,24586,10139.2,0,0,3,-0.21,1.26,5.74,0.31,0.91,0.34
13.916992,0.011023256,0.007217007,0.045106582,0.3,0.92,0.34,24601,10137.9,0,0,3,1.12,0.84,4.2,0.3,0.92,0.34
11.916992,0.023023255,0.009217008,0.023106586,0.3,0.9,0.35,24619,10135.9,0,0,3,1.96,0.98,2.66,0.3,0.9,0.35
14.216797,0.019023255,0.007217007,0.003106582,0.3,0.89,0.35,24631,10138.2,0,0,3,1.68,0.84,1.26,0.3,0.89,0.35
13.216797,-9.77E-04,-7.83E-04,-0.008893417,0.31,0.89,0.36,24653,10137.2,0,0,3,0.28,0.28,0.42,0.31,0.89,0.36
13.216797,-0.015976746,-0.017782994,-0.007893417,0.29,0.89,0.36,24676,10137.2,0,0,3,-0.77,-0.91,0.49,0.29,0.89,0.36
13.216797,-0.013976744,-0.017782994,-0.009893417,0.29,0.89,0.35,24699,10137.2,0,0,3,-0.63,-0.91,0.35,0.29,0.89,0.35
13.516602,-0.010976745,-0.017782994,-0.005893418,0.29,0.91,0.36,24720,10137.5,0,0,3,-0.42,-0.91,0.63,0.29,0.91,0.36
11.216797,-0.006976745,-7.83E-04,0.001106584,0.28,0.9,0.37,24743,10135.2,0,0,3,-0.14,0.28,1.12,0.28,0.9,0.37
10.216797,-0.012976745,0.015217007,0.004106584,0.28,0.89,0.38,24766,10134.2,0,0,3,-0.56,1.4,1.33,0.28,0.89,0.38
11.516602,-0.024976745,0.035217006,0.017106585,0.28,0.88,0.37,24788,10135.5,0,0,3,-1.4,2.8,2.24,0.28,0.88,0.37
12.216797,-0.019976744,0.056217007,0.038106583,0.27,0.89,0.37,24803,10136.2,0,0,3,-1.05,4.27,3.71,0.27,0.89,0.37
12.216797,2.33E-05,0.09021701,0.05710658,0.27,0.9,0.38,24818,10136.2,0,0,3,0.35,6.65,5.04,0.27,0.9,0.38
12.916992,0.014023257,0.114217006,0.06610658,0.27,0.89,0.38,24841,10136.9,0,0,3,1.33,8.33,5.67,0.27,0.89,0.38
11.916992,0.018023256,0.140217,0.07710658,0.27,0.89,0.38,24851,10135.9,0,0,3,1.61,10.15,6.44,0.27,0.89,0.38
13.216797,0.009023256,0.15621702,0.08210658,0.29,0.89,0.37,24863,10137.2,0,0,3,0.98,11.27,6.79,0.29,0.89,0.37
11.516602,0.004023255,0.152217,0.07710658,0.29,0.89,0.36,24901,10135.5,0,0,3,0.63,10.99,6.44,0.29,0.89,0.36
11.216797,0.007023254,0.13521701,0.07610658,0.31,0.9,0.36,24902,10135.2,0,0,3,0.84,9.8,6.37,0.31,0.9,0.36
10.216797,0.021023255,0.102217,0.08210658,0.32,0.9,0.35,24923,10134.2,0,0,3,1.82,7.49,6.79,0.32,0.9,0.35
12.216797,0.017023254,0.07021701,0.08010658,0.32,0.89,0.36,24945,10136.2,0,0,3,1.54,5.25,6.65,0.32,0.89,0.36
10.216797,-9.77E-04,0.036217004,0.06110659,0.32,0.9,0.36,24968,10134.2,0,0,3,0.28,2.87,5.32,0.32,0.9,0.36
12.516602,2.33E-05,-0.001782993,0.042106584,0.31,0.91,0.35,24983,10136.5,0,0,3,0.35,0.21,3.99,0.31,0.91,0.35
11.516602,0.007023254,-0.025782991,0.019106586,0.31,0.9,0.36,25005,10135.5,0,0,3,0.84,-1.47,2.38,0.31,0.9,0.36
11.516602,-0.007976744,-0.037782993,0.008106583,0.31,0.88,0.37,25028,10135.5,0,0,3,-0.21,-2.31,1.61,0.31,0.88,0.37
10.516602,-0.040976744,-0.041782994,0.013106584,0.31,0.88,0.37,25051,10134.5,0,0,3,-2.52,-2.59,1.96,0.31,0.88,0.37
11.516602,-0.049976747,-0.050782993,0.018106584,0.31,0.89,0.36,25067,10135.5,0,0,3,-3.15,-3.22,2.31,0.31,0.89,0.36
11.516602,-0.047976747,-0.06478299,0.018106584,0.31,0.9,0.36,25089,10135.5,0,0,3,-3.01,-4.2,2.31,0.31,0.9,0.36
11.916992,-0.036976747,-0.06878299,0.019106586,0.3,0.9,0.36,25104,10135.9,0,0,3,-2.24,-4.48,2.38,0.3,0.9,0.36
10.216797,-0.029976744,-0.07078299,0.015106582,0.3,0.89,0.36,25118,10134.2,0,0,3,-1.75,-4.62,2.1,0.3,0.89,0.36
12.916992,-0.04297675,-0.07678299,0.010106583,0.31,0.88,0.37,25134,10136.9,0,0,3,-2.66,-5.04,1.75,0.31,0.88,0.37
11.516602,-0.061976746,-0.08978299,0.022106584,0.33,0.87,0.37,25148,10135.5,0,0,3,-3.99,-5.95,2.59,0.33,0.87,0.37
10.516602,-0.07797674,-0.10578299,0.037106585,0.33,0.87,0.37,25167,10134.5,0,0,3,-5.11,-7.07,3.64,0.33,0.87,0.37
11.916992,-0.08597674,-0.12078299,0.06310658,0.32,0.87,0.37,25178,10135.9,0,0,3,-5.67,-8.12,5.46,0.32,0.87,0.37
13.916992,-0.08997674,-0.132783,0.07710658,0.32,0.88,0.37,25201,10137.9,0,0,3,-5.95,-8.96,6.44,0.32,0.88,0.37
11.916992,-0.09697674,-0.13778299,0.083106585,0.31,0.88,0.37,25216,10135.9,0,0,3,-6.44,-9.31,6.86,0.31,0.88,0.37
10.916992,-0.09297674,-0.13378298,0.07810658,0.31,0.89,0.37,25231,10134.9,0,0,3,-6.16,-9.03,6.51,0.31,0.89,0.37
16.916992,-0.08897674,-0.125783,0.072106585,0.3,0.89,0.38,25246,10140.9,0,0,3,-5.88,-8.47,6.09,0.3,0.89,0.38
11.916992,-0.08097675,-0.10578299,0.072106585,0.31,0.89,0.38,25260,10135.9,0,0,3,-5.32,-7.07,6.09,0.31,0.89,0.38
9.916992,-0.07097674,-0.08178299,0.07410658,0.31,0.88,0.39,25276,10133.9,0,0,3,-4.62,-5.39,6.23,0.31,0.88,0.39
9.916992,-0.064976744,-0.05178299,0.08010658,0.31,0.88,0.39,25298,10133.9,0,0,3,-4.2,-3.29,6.65,0.31,0.88,0.39
10.916992,-0.06297674,-0.019782992,0.10210657,0.31,0.88,0.39,25319,10134.9,0,0,3,-4.06,-1.05,8.19,0.31,0.88,0.39
11.916992,-0.054976746,0.003217008,0.10310658,0.29,0.9,0.39,25335,10135.9,0,0,3,-3.5,0.56,8.26,0.29,0.9,0.39
10.916992,-0.027976744,0.035217006,0.07810658,0.29,0.9,0.39,25343,10134.9,0,0,3,-1.61,2.8,6.51,0.29,0.9,0.39
11.216797,-0.006976745,0.06021701,0.055106584,0.31,0.9,0.4,25358,10135.2,0,0,3,-0.14,4.55,4.9,0.31,0.9,0.4
10.916992,0.002023256,0.08621701,0.027106583,0.33,0.89,0.39,25373,10134.9,0,0,3,0.49,6.37,2.94,0.33,0.89,0.39
12.216797,0.003023256,0.104217015,0.015106582,0.34,0.87,0.39,25388,10136.2,0,0,3,0.56,7.63,2.1,0.34,0.87,0.39
14.916992,-0.005976745,0.10121701,0.023106586,0.35,0.86,0.38,25411,10138.9,0,0,3,-0.07,7.42,2.66,0.35,0.86,0.38
12.216797,-0.005976745,0.091217004,0.047106586,0.34,0.87,0.39,25425,10136.2,0,0,3,-0.07,6.72,4.34,0.34,0.87,0.39
11.516602,-9.77E-04,0.08321701,0.06810658,0.33,0.86,0.39,25441,10135.5,0,0,3,0.28,6.16,5.81,0.33,0.86,0.39
11.216797,-0.004976745,0.09021701,0.08510658,0.33,0.87,0.39,25455,10135.2,0,0,3,0,6.65,7,0.33,0.87,0.39
11.216797,-0.010976745,0.09921701,0.083106585,0.32,0.87,0.39,25471,10135.2,0,0,3,-0.42,7.28,6.86,0.32,0.87,0.39
13.616211,-0.006976745,0.102217,0.06810658,0.33,0.88,0.39,25485,10137.6,0,0,3,-0.14,7.49,5.81,0.33,0.88,0.39
11.216797,0.005023255,0.10521701,0.067106575,0.34,0.88,0.38,25516,10135.2,0,0,3,0.7,7.7,5.74,0.34,0.88,0.38
11.216797,0.008023256,0.10121701,0.06810658,0.34,0.87,0.39,25523,10135.2,0,0,3,0.91,7.42,5.81,0.34,0.87,0.39
10.216797,0.025023255,0.10921701,0.08110657,0.36,0.84,0.37,25539,10134.2,0,0,3,2.1,7.98,6.72,0.36,0.84,0.37
10.216797,0.026023258,0.11721701,0.12710658,0.35,0.85,0.4,25554,10134.2,0,0,3,2.17,8.54,9.94,0.35,0.85,0.4
11.516602,-0.006976745,0.11621702,0.14110659,0.36,0.83,0.41,25568,10135.5,0,0,3,-0.14,8.47,10.92,0.36,0.83,0.41
12.616211,-0.043976746,0.10621701,0.17110659,0.38,0.86,0.38,25590,10136.6,0,0,3,-2.73,7.77,13.02,0.38,0.86,0.38
11.516602,-0.049976747,0.091217004,0.1871066,0.34,0.9,0.36,25613,10135.5,0,0,3,-3.15,6.72,14.14,0.34,0.9,0.36
11.916992,-0.04297675,0.056217007,0.15610659,0.31,0.91,0.34,25622,10135.9,0,0,3,-2.66,4.27,11.97,0.31,0.91,0.34
4.5166016,-0.046976745,0.014217009,0.083106585,0.3,0.9,0.35,25636,10128.5,0,0,3,-2.94,1.33,6.86,0.3,0.9,0.35
11.516602,-0.068976745,-0.020782992,0.026106581,0.31,0.87,0.39,25652,10135.5,0,0,3,-4.48,-1.12,2.87,0.31,0.87,0.39
11.516602,-0.12097674,-0.033782993,0.009106581,0.32,0.85,0.42,25666,10135.5,0,0,3,-8.12,-2.03,1.68,0.32,0.85,0.42
11.516602,-0.14597675,-0.027782992,0.043106582,0.33,0.83,0.43,25681,10135.5,0,0,3,-9.87,-1.61,4.06,0.33,0.83,0.43
12.616211,-0.16397674,-0.007782992,0.108106576,0.33,0.82,0.42,25703,10136.6,0,0,3,-11.13,-0.21,8.61,0.33,0.82,0.42
5.5166016,-0.16797675,0.001217007,0.14110659,0.31,0.85,0.42,25718,10129.5,0,0,3,-11.41,0.42,10.92,0.31,0.85,0.42
11.516602,-0.14897674,0.004217007,0.1351066,0.32,0.88,0.41,25733,10135.5,0,0,3,-10.08,0.63,10.5,0.32,0.88,0.41
13.216797,-0.12197673,0.008217008,0.11610658,0.34,0.88,0.41,25748,10137.2,0,0,3,-8.19,0.91,9.17,0.34,0.88,0.41
10.516602,-0.10297675,0.016217008,0.09510658,0.36,0.86,0.42,25763,10134.5,0,0,3,-6.86,1.47,7.7,0.36,0.86,0.42
9.516602,-0.09397674,0.02221701,0.09310658,0.39,0.83,0.42,25778,10133.5,0,0,3,-6.23,1.89,7.56,0.39,0.83,0.42
10.516602,-0.083976746,0.018217009,0.11710658,0.39,0.85,0.41,25801,10134.5,0,0,3,-5.53,1.61,9.24,0.39,0.85,0.41
11.216797,-0.064976744,0.002217008,0.13110659,0.38,0.86,0.41,25818,10135.2,0,0,3,-4.2,0.49,10.22,0.38,0.86,0.41
11.516602,-0.054976746,-0.018782992,0.13010658,0.37,0.86,0.42,25831,10135.5,0,0,3,-3.5,-0.98,10.15,0.37,0.86,0.42
13.216797,-0.06697675,-0.041782994,0.11710658,0.37,0.84,0.42,25846,10137.2,0,0,3,-4.34,-2.59,9.24,0.37,0.84,0.42
11.916992,-0.09197675,-0.048782993,0.10510658,0.37,0.82,0.42,25861,10135.9,0,0,3,-6.09,-3.08,8.4,0.37,0.82,0.42
10.216797,-0.12297674,-0.06278299,0.10710658,0.38,0.82,0.42,25875,10134.2,0,0,3,-8.26,-4.06,8.54,0.38,0.82,0.42
9.916992,-0.16297676,-0.091782995,0.113106586,0.36,0.82,0.41,25901,10133.9,0,0,3,-11.06,-6.09,8.96,0.36,0.82,0.41
9.516602,-0.17797674,-0.11678299,0.113106586,0.34,0.86,0.4,25914,10133.5,0,0,3,-12.11,-7.84,8.96,0.34,0.86,0.4
9.916992,-0.13097675,-0.131783,0.08510658,0.34,0.91,0.4,25928,10133.9,0,0,3,-8.82,-8.89,7,0.34,0.91,0.4
9.216797,-0.057976745,-0.12778299,0.037106585,0.35,0.92,0.41,25943,10133.2,0,0,3,-3.71,-8.61,3.64,0.35,0.92,0.41
9.516602,0.027023256,-0.10778299,-0.030893419,0.37,0.89,0.43,25966,10133.5,0,0,3,2.24,-7.21,-1.12,0.37,0.89,0.43
8.916992,0.10502326,-0.09878299,-0.10989342,0.37,0.92,0.41,25990,10132.9,0,0,3,7.7,-6.58,-6.65,0.37,0.92,0.41
8.916992,0.17302325,-0.10978299,-0.17989342,0.41,0.89,0.42,26010,10132.9,0,0,3,12.46,-7.35,-11.55,0.41,0.89,0.42
9.216797,0.19502325,-0.11078299,-0.20489341,0.41,0.85,0.43,26033,10133.2,0,0,3,14,-7.42,-13.3,0.41,0.85,0.43
9.916992,0.18802325,-0.10478299,-0.20389341,0.4,0.85,0.42,26056,10133.9,0,0,3,13.51,-7,-13.23,0.4,0.85,0.42
7.916992,0.18202326,-0.10178299,-0.20889342,0.37,0.87,0.4,26063,10131.9,0,0,3,13.09,-6.79,-13.58,0.37,0.87,0.4
7.916992,0.18102325,-0.11978299,-0.24389343,0.38,0.87,0.4,26078,10131.9,0,0,3,13.02,-8.05,-16.03,0.38,0.87,0.4
8.916992,0.17902325,-0.125783,-0.27589342,0.38,0.86,0.4,26093,10132.9,0,0,3,12.88,-8.47,-18.27,0.38,0.86,0.4
5.216797,0.15602326,-0.11978299,-0.2878934,0.38,0.84,0.4,26124,10129.2,0,0,3,11.27,-8.05,-19.11,0.38,0.84,0.4
7.916992,0.12502326,-0.11678299,-0.2788934,0.37,0.84,0.39,26131,10131.9,0,0,3,9.1,-7.84,-18.48,0.37,0.84,0.39
7.216797,0.11002326,-0.12278299,-0.25989342,0.35,0.86,0.39,26146,10131.2,0,0,3,8.05,-8.26,-17.15,0.35,0.86,0.39
7.216797,0.10102326,-0.140783,-0.24389343,0.34,0.86,0.39,26168,10131.2,0,0,3,7.42,-9.52,-16.03,0.34,0.86,0.39
8.216797,0.07402326,-0.147783,-0.24389343,0.33,0.85,0.39,26190,10132.2,0,0,3,5.53,-10.01,-16.03,0.33,0.85,0.39
8.216797,0.044023257,-0.14578299,-0.24589342,0.33,0.86,0.39,26205,10132.2,0,0,3,3.43,-9.87,-16.17,0.33,0.86,0.39
7.216797,0.027023256,-0.15778299,-0.24389343,0.34,0.87,0.38,26228,10131.2,0,0,3,2.24,-10.71,-16.03,0.34,0.87,0.38
5.5166016,0.030023254,-0.17078298,-0.21889341,0.34,0.87,0.37,26252,10129.5,0,0,3,2.45,-11.62,-14.28,0.34,0.87,0.37
7.216797,0.042023253,-0.16778299,-0.19289342,0.33,0.89,0.36,26273,10131.2,0,0,3,3.29,-11.41,-12.46,0.33,0.89,0.36
9.516602,0.058023255,-0.17178299,-0.20389341,0.31,0.91,0.35,26303,10133.5,0,0,3,4.41,-11.69,-13.23,0.31,0.91,0.35
7.216797,0.055023253,-0.17378299,-0.2398934,0.31,0.89,0.36,26318,10131.2,0,0,3,4.2,-11.83,-15.75,0.31,0.89,0.36
9.516602,0.033023257,-0.17378299,-0.25589344,0.31,0.87,0.37,26340,10133.5,0,0,3,2.66,-11.83,-16.87,0.31,0.87,0.37
7.5166016,0.002023256,-0.17278299,-0.24489342,0.31,0.85,0.37,26348,10131.5,0,0,3,0.49,-11.76,-16.1,0.31,0.85,0.37
7.5166016,-0.029976744,-0.17978299,-0.22589342,0.3,0.87,0.37,26371,10131.5,0,0,3,-1.75,-12.25,-14.77,0.3,0.87,0.37
7.916992,-0.031976745,-0.19278298,-0.20089342,0.29,0.89,0.36,26378,10131.9,0,0,3,-1.89,-13.16,-13.02,0.29,0.89,0.36
8.516602,-0.013976744,-0.20378299,-0.18689342,0.29,0.92,0.34,26401,10132.5,0,0,3,-0.63,-13.93,-12.04,0.29,0.92,0.34
8.216797,0.018023256,-0.19378299,-0.19089341,0.27,0.91,0.34,26423,10132.2,0,0,3,1.61,-13.23,-12.32,0.27,0.91,0.34
9.516602,0.020023257,-0.178783,-0.22189341,0.26,0.89,0.35,26446,10133.5,0,0,3,1.75,-12.18,-14.49,0.26,0.89,0.35
9.916992,0.006023255,-0.165783,-0.22389342,0.26,0.89,0.35,26461,10133.9,0,0,3,0.77,-11.27,-14.63,0.26,0.89,0.35
8.516602,0.009023256,-0.16778299,-0.19189341,0.26,0.9,0.34,26484,10132.5,0,0,3,0.98,-11.41,-12.39,0.26,0.9,0.34
8.216797,0.026023258,-0.17478299,-0.15589342,0.27,0.91,0.33,26506,10132.2,0,0,3,2.17,-11.9,-9.87,0.27,0.91,0.33
7.916992,0.048023254,-0.16878298,-0.12289342,0.28,0.89,0.34,26528,10131.9,0,0,3,3.71,-11.48,-7.56,0.28,0.89,0.34
7.916992,0.017023254,-0.16378298,-0.09989342,0.29,0.88,0.37,26552,10131.9,0,0,3,1.54,-11.13,-5.95,0.29,0.88,0.37
6.916992,-0.036976747,-0.17078298,-0.101893425,0.28,0.89,0.37,26566,10130.9,0,0,3,-2.24,-11.62,-6.09,0.28,0.89,0.37
6.216797,-0.08697674,-0.175783,-0.11689342,0.27,0.89,0.38,26581,10130.2,0,0,3,-5.74,-11.97,-7.14,0.27,0.89,0.38
5.916992,-0.11497674,-0.18678299,-0.14289342,0.27,0.9,0.37,26595,10129.9,0,0,3,-7.7,-12.74,-8.96,0.27,0.9,0.37
5.916992,-0.12497674,-0.198783,-0.15789342,0.28,0.9,0.37,26610,10129.9,0,0,3,-8.4,-13.58,-10.01,0.28,0.9,0.37
4.216797,-0.10997674,-0.21178299,-0.15589342,0.28,0.92,0.36,26634,10128.2,0,0,3,-7.35,-14.49,-9.87,0.28,0.92,0.36
3.8164062,-0.07697674,-0.222783,-0.1438934,0.28,0.94,0.35,26648,10127.8,0,0,3,-5.04,-15.26,-9.03,0.28,0.94,0.35
3.8164062,-0.049976747,-0.22978298,-0.15189342,0.24,0.92,0.37,26678,10127.8,0,0,3,-3.15,-15.75,-9.59,0.24,0.92,0.37
3.8164062,-0.07497674,-0.22778298,-0.19089341,0.21,0.89,0.4,26686,10127.8,0,0,3,-4.9,-15.61,-12.32,0.21,0.89,0.4
3.5166016,-0.08597674,-0.20978299,-0.19189341,0.22,0.91,0.38,26709,10127.5,0,0,3,-5.67,-14.35,-12.39,0.22,0.91,0.38
3.8164062,-0.037976746,-0.19278298,-0.15789342,0.24,0.93,0.37,26732,10127.8,0,0,3,-2.31,-13.16,-10.01,0.24,0.93,0.37
1.8164062,0.017023254,-0.175783,-0.096893415,0.24,0.92,0.37,26753,10125.8,0,0,3,1.54,-11.97,-5.74,0.24,0.92,0.37
2.8164062,0.041023254,-0.15178299,-0.038893417,0.25,0.89,0.37,26775,10126.8,0,0,3,3.22,-10.29,-1.68,0.25,0.89,0.37
1.8164062,0.031023253,-0.12278299,0.004106584,0.26,0.88,0.37,26801,10125.8,0,0,3,2.52,-8.26,1.33,0.26,0.88,0.37
0.21679688,0.016023256,-0.10878299,0.024106584,0.26,0.87,0.37,26813,10124.2,0,0,3,1.47,-7.28,2.73,0.26,0.87,0.37
1.2167969,-0.005976745,-0.09878299,0.031106584,0.26,0.87,0.37,26828,10125.2,0,0,3,-0.07,-6.58,3.22,0.26,0.87,0.37
2.2167969,-0.025976744,-0.08778299,0.017106585,0.26,0.88,0.37,26843,10126.2,0,0,3,-1.47,-5.81,2.24,0.26,0.88,0.37
0.81640625,-0.045976743,-0.07678299,0.003106582,0.26,0.89,0.37,26858,10124.8,0,0,3,-2.87,-5.04,1.26,0.26,0.89,0.37
4.216797,-0.044976745,-0.05278299,-0.002893418,0.27,0.91,0.36,26873,10128.2,0,0,3,-2.8,-3.36,0.84,0.27,0.91,0.36
1.2167969,-0.017976746,-0.012782993,0.013106584,0.27,0.93,0.36,26895,10125.2,0,0,3,-0.91,-0.56,1.96,0.27,0.93,0.36
1.2167969,0.026023258,0.038217008,0.036106583,0.26,0.96,0.36,26918,10125.2,0,0,3,2.17,3.01,3.57,0.26,0.96,0.36
0.81640625,0.058023255,0.07021701,0.029106583,0.24,0.96,0.35,26933,10124.8,0,0,3,4.41,5.25,3.08,0.24,0.96,0.35
1.5166016,0.07202326,0.08921701,-0.015893416,0.25,0.93,0.34,26956,10125.5,0,0,3,5.39,6.58,-0.07,0.25,0.93,0.34
1.2167969,0.08002326,0.093217015,-0.04189342,0.26,0.92,0.33,26978,10125.2,0,0,3,5.95,6.86,-1.89,0.26,0.92,0.33
0.21679688,0.09002326,0.07821701,-0.030893419,0.26,0.91,0.32,27001,10124.2,0,0,3,6.65,5.81,-1.12,0.26,0.91,0.32
-0.7832031,0.08802326,0.052217007,-0.021893417,0.26,0.88,0.33,27023,10123.2,0,0,3,6.51,3.99,-0.49,0.26,0.88,0.33
0.81640625,0.07302326,0.029217009,-0.013893417,0.27,0.89,0.32,27060,10124.8,0,0,3,5.46,2.38,0.07,0.27,0.89,0.32
0.51660156,0.062023256,0.005217007,-0.005893418,0.28,0.92,0.31,27062,10124.5,0,0,3,4.69,0.7,0.63,0.28,0.92,0.31
1.2167969,0.06002326,-0.014782992,0.003106582,0.28,0.93,0.3,27084,10125.2,0,0,3,4.55,-0.7,1.26,0.28,0.93,0.3
2.5166016,0.06802326,-0.035782993,0.009106581,0.27,0.94,0.3,27091,10126.5,0,0,3,5.11,-2.17,1.68,0.27,0.94,0.3
0.51660156,0.07102326,-0.047782995,0.008106583,0.26,0.94,0.31,27128,10124.5,0,0,3,5.32,-3.01,1.61,0.26,0.94,0.31
1.5166016,0.06602325,-0.039782993,0.004106584,0.25,0.92,0.32,27129,10125.5,0,0,3,4.97,-2.45,1.33,0.25,0.92,0.32
1.5166016,0.044023257,-0.030782994,-0.014893417,0.24,0.91,0.33,27143,10125.5,0,0,3,3.43,-1.82,0,0.24,0.91,0.33
0.51660156,0.024023253,-0.027782992,-0.040893417,0.24,0.93,0.32,27166,10124.5,0,0,3,2.03,-1.61,-1.82,0.24,0.93,0.32
1.2167969,0.028023254,-0.031782992,-0.055893414,0.25,0.94,0.31,27203,10125.2,0,0,3,2.31,-1.89,-2.87,0.25,0.94,0.31
0.51660156,0.049023256,-0.035782993,-0.053893417,0.25,0.93,0.31,27204,10124.5,0,0,3,3.78,-2.17,-2.73,0.25,0.93,0.31
0.81640625,0.054023255,-0.04078299,-0.04189342,0.25,0.91,0.32,27226,10124.8,0,0,3,4.13,-2.52,-1.89,0.25,0.91,0.32
1.8164062,0.040023256,-0.04078299,-0.020893417,0.24,0.9,0.33,27249,10125.8,0,0,3,3.15,-2.52,-0.42,0.24,0.9,0.33
1.5166016,0.026023258,-0.039782993,-0.004893418,0.24,0.92,0.32,27270,10125.5,0,0,3,2.17,-2.45,0.7,0.24,0.92,0.32
-1.4833984,0.024023253,-0.039782993,-0.009893417,0.24,0.93,0.32,27293,10122.5,0,0,3,2.03,-2.45,0.35,0.24,0.93,0.32
3.8164062,0.024023253,-0.032782994,-0.020893417,0.24,0.93,0.32,27316,10127.8,0,0,3,2.03,-1.96,-0.42,0.24,0.93,0.32
2.8164062,0.025023255,-0.031782992,-0.029893417,0.24,0.92,0.32,27331,10126.8,0,0,3,2.1,-1.89,-1.05,0.24,0.92,0.32
3.8164062,0.024023253,-0.033782993,-0.033893418,0.24,0.92,0.32,27345,10127.8,0,0,3,2.03,-2.03,-1.33,0.24,0.92,0.32
4.916992,0.022023257,-0.041782994,-0.038893417,0.24,0.92,0.32,27360,10128.9,0,0,3,1.89,-2.59,-1.68,0.24,0.92,0.32
4.5166016,0.031023253,-0.043782994,-0.030893419,0.24,0.92,0.33,27375,10128.5,0,0,3,2.52,-2.73,-1.12,0.24,0.92,0.33
5.916992,0.039023254,-0.031782992,-0.013893417,0.24,0.92,0.33,27405,10129.9,0,0,3,3.08,-1.89,0.07,0.24,0.92,0.33
4.916992,0.035023253,-0.017782994,0.001106584,0.24,0.92,0.33,27413,10128.9,0,0,3,2.8,-0.91,1.12,0.24,0.92,0.33
5.916992,0.027023256,-0.009782992,-0.001893417,0.23,0.93,0.33,27435,10129.9,0,0,3,2.24,-0.35,0.91,0.23,0.93,0.33
5.916992,0.013023254,-0.001782993,-0.017893417,0.24,0.91,0.33,27458,10129.9,0,0,3,1.26,0.21,-0.21,0.24,0.91,0.33
6.216797,0.002023256,0.010217007,-0.009893417,0.25,0.92,0.32,27481,10130.2,0,0,3,0.49,1.05,0.35,0.25,0.92,0.32
4.916992,0.008023256,0.009217008,0.005106582,0.24,0.93,0.32,27504,10128.9,0,0,3,0.91,0.98,1.4,0.24,0.93,0.32
4.916992,0.027023256,0.002217008,-0.002893418,0.24,0.94,0.31,27525,10128.9,0,0,3,2.24,0.49,0.84,0.24,0.94,0.31
5.216797,0.044023257,0.008217008,-0.022893418,0.24,0.93,0.32,27556,10129.2,0,0,3,3.43,0.91,-0.56,0.24,0.93,0.32
7.216797,0.04302325,0.018217009,-0.022893418,0.24,0.92,0.31,27571,10131.2,0,0,3,3.36,1.61,-0.56,0.24,0.92,0.31
6.916992,0.035023253,0.017217007,-0.016893417,0.24,0.92,0.31,27585,10130.9,0,0,3,2.8,1.54,-0.14,0.24,0.92,0.31
7.5166016,0.037023254,0.011217008,-0.015893416,0.23,0.93,0.3,27608,10131.5,0,0,3,2.94,1.12,-0.07,0.23,0.93,0.3
7.916992,0.042023253,0.005217007,-0.025893416,0.23,0.94,0.3,27616,10131.9,0,0,3,3.29,0.7,-0.77,0.23,0.94,0.3
7.916992,0.04302325,0.005217007,-0.03989342,0.24,0.94,0.31,27630,10131.9,0,0,3,3.36,0.7,-1.75,0.24,0.94,0.31
7.916992,0.042023253,0.015217007,-0.049893416,0.24,0.93,0.31,27653,10131.9,0,0,3,3.29,1.4,-2.45,0.24,0.93,0.31
7.216797,0.028023254,0.021217007,-0.043893415,0.24,0.91,0.31,27668,10131.2,0,0,3,2.31,1.82,-2.03,0.24,0.91,0.31
6.916992,0.010023255,0.012217009,-0.015893416,0.24,0.92,0.31,27691,10130.9,0,0,3,1.05,1.19,-0.07,0.24,0.92,0.31
8.216797,-0.001976745,-7.83E-04,-0.004893418,0.23,0.93,0.31,27713,10132.2,0,0,3,0.21,0.28,0.7,0.23,0.93,0.31
8.516602,-0.008976745,-0.003782992,-0.005893418,0.23,0.92,0.31,27736,10132.5,0,0,3,-0.28,0.07,0.63,0.23,0.92,0.31
8.216797,-0.021976747,-0.004782992,-0.003893417,0.24,0.92,0.31,27758,10132.2,0,0,3,-1.19,0,0.77,0.24,0.92,0.31
8.216797,-0.022976745,-0.012782993,-8.93E-04,0.23,0.93,0.31,27781,10132.2,0,0,3,-1.26,-0.56,0.98,0.23,0.93,0.31
7.216797,-0.007976744,-0.020782992,-0.006893417,0.23,0.94,0.31,27803,10131.2,0,0,3,-0.21,-1.12,0.56,0.23,0.94,0.31
3.5166016,0.003023256,-0.024782993,-0.019893417,0.24,0.93,0.31,27819,10127.5,0,0,3,0.56,-1.4,-0.35,0.24,0.93,0.31
7.216797,2.33E-05,-0.022782993,-0.025893416,0.24,0.92,0.32,27833,10131.2,0,0,3,0.35,-1.26,-0.77,0.24,0.92,0.32
7.5166016,-0.009976745,-0.023782995,-0.019893417,0.24,0.92,0.32,27848,10131.5,0,0,3,-0.35,-1.33,-0.35,0.24,0.92,0.32
7.5166016,-0.014976745,-0.026782993,-0.008893417,0.24,0.92,0.31,27863,10131.5,0,0,3,-0.7,-1.54,0.42,0.24,0.92,0.31
7.5166016,-0.010976745,-0.032782994,-0.004893418,0.24,0.93,0.31,27885,10131.5,0,0,3,-0.42,-1.96,0.7,0.24,0.93,0.31
2.2167969,-0.007976744,-0.029782992,0.004106584,0.23,0.94,0.31,27900,10126.2,0,0,3,-0.21,-1.75,1.33,0.23,0.94,0.31
7.5166016,-9.77E-04,-0.022782993,1.07E-04,0.22,0.94,0.31,27923,10131.5,0,0,3,0.28,-1.26,1.05,0.22,0.94,0.31
7.216797,0.001023255,-0.017782994,-0.014893417,0.23,0.93,0.32,27938,10131.2,0,0,3,0.42,-0.91,0,0.23,0.93,0.32
8.516602,-0.001976745,-0.011782993,-0.014893417,0.24,0.92,0.32,27968,10132.5,0,0,3,0.21,-0.49,0,0.24,0.92,0.32
7.5166016,-0.001976745,-0.010782993,-0.002893418,0.24,0.93,0.31,27983,10131.5,0,0,3,0.21,-0.42,0.84,0.24,0.93,0.31
6.216797,2.33E-05,-0.023782995,0.006106583,0.24,0.93,0.31,28021,10130.2,0,0,3,0.35,-1.33,1.47,0.24,0.93,0.31
7.916992,0.008023256,-0.03478299,-0.002893418,0.23,0.94,0.31,28028,10131.9,0,0,3,0.91,-2.1,0.84,0.23,0.94,0.31
8.516602,0.012023256,-0.036782995,-0.010893418,0.23,0.93,0.31,28051,10132.5,0,0,3,1.19,-2.24,0.28,0.23,0.93,0.31
8.516602,0.010023255,-0.033782993,-0.019893417,0.24,0.92,0.31,28067,10132.5,0,0,3,1.05,-2.03,-0.35,0.24,0.92,0.31
6.916992,0.007023254,-0.030782994,-0.016893417,0.24,0.93,0.32,28088,10130.9,0,0,3,0.84,-1.82,-0.14,0.24,0.93,0.32
5.916992,0.007023254,-0.026782993,-0.004893418,0.23,0.93,0.31,28103,10129.9,0,0,3,0.84,-1.54,0.7,0.23,0.93,0.31
8.516602,0.009023256,-0.029782992,-0.007893417,0.22,0.93,0.31,28125,10132.5,0,0,3,0.98,-1.75,0.49,0.22,0.93,0.31
6.5166016,0.010023255,-0.035782993,-0.014893417,0.23,0.94,0.31,28140,10130.5,0,0,3,1.05,-2.17,0,0.23,0.94,0.31
6.5166016,0.011023256,-0.02878299,-0.019893417,0.23,0.94,0.31,28148,10130.5,0,0,3,1.12,-1.68,-0.35,0.23,0.94,0.31
6.916992,0.019023255,-0.023782995,-0.018893417,0.23,0.93,0.31,28170,10130.9,0,0,3,1.68,-1.33,-0.28,0.23,0.93,0.31
6.216797,0.012023256,-0.023782995,-0.012893417,0.23,0.92,0.31,28208,10130.2,0,0,3,1.19,-1.33,0.14,0.23,0.92,0.31
7.916992,0.013023254,-0.032782994,-0.005893418,0.23,0.93,0.3,28209,10131.9,0,0,3,1.26,-1.96,0.63,0.23,0.93,0.3
3.5166016,0.013023254,-0.036782995,-0.008893417,0.23,0.94,0.3,28230,10127.5,0,0,3,1.26,-2.24,0.42,0.23,0.94,0.3
6.5166016,0.015023255,-0.032782994,-0.013893417,0.23,0.93,0.3,28253,10130.5,0,0,3,1.4,-1.96,0.07,0.23,0.93,0.3
6.916992,0.009023256,-0.030782994,-0.008893417,0.23,0.93,0.31,28284,10130.9,0,0,3,0.98,-1.82,0.42,0.23,0.93,0.31
7.916992,0.007023254,-0.031782992,-0.001893417,0.22,0.93,0.3,28298,10131.9,0,0,3,0.84,-1.89,0.91,0.22,0.93,0.3
7.916992,0.009023256,-0.033782993,-0.007893417,0.22,0.94,0.3,28313,10131.9,0,0,3,0.98,-2.03,0.49,0.22,0.94,0.3
7.916992,0.012023256,-0.030782994,-0.013893417,0.22,0.94,0.3,28328,10131.9,0,0,3,1.19,-1.82,0.07,0.22,0.94,0.3
5.916992,0.006023255,-0.023782995,-0.013893417,0.23,0.94,0.3,28351,10129.9,0,0,3,0.77,-1.33,0.07,0.23,0.94,0.3
11.916992,0.013023254,-0.015782993,-0.010893418,0.23,0.93,0.3,28367,10135.9,0,0,3,1.26,-0.77,0.28,0.23,0.93,0.3
11.216797,0.014023257,-0.015782993,0.002106584,0.23,0.93,0.31,28381,10135.2,0,0,3,1.33,-0.77,1.19,0.23,0.93,0.31
11.916992,0.004023255,-0.015782993,0.015106582,0.22,0.93,0.3,28395,10135.9,0,0,3,0.63,-0.77,2.1,0.22,0.93,0.3
11.916992,-0.009976745,-0.020782992,0.009106581,0.22,0.93,0.3,28411,10135.9,0,0,3,-0.35,-1.12,1.68,0.22,0.93,0.3
10.916992,-0.019976744,-0.018782992,0.005106582,0.23,0.93,0.3,28425,10134.9,0,0,3,-1.05,-0.98,1.4,0.23,0.93,0.3
11.916992,-0.018976744,-0.015782993,0.005106582,0.24,0.93,0.3,28451,10135.9,0,0,3,-0.98,-0.77,1.4,0.24,0.93,0.3
13.216797,-0.017976746,-0.020782992,0.006106583,0.24,0.94,0.29,28463,10137.2,0,0,3,-0.91,-1.12,1.47,0.24,0.94,0.29
6.916992,-0.005976745,-0.029782992,0.010106583,0.23,0.94,0.3,28478,10130.9,0,0,3,-0.07,-1.75,1.75,0.23,0.94,0.3
12.916992,0.005023255,-0.037782993,0.011106583,0.23,0.94,0.3,28493,10136.9,0,0,3,0.7,-2.31,1.82,0.23,0.94,0.3
12.916992,0.005023255,-0.039782993,-0.001893417,0.23,0.94,0.3,28508,10136.9,0,0,3,0.7,-2.45,0.91,0.23,0.94,0.3
12.916992,0.003023256,-0.037782993,-0.003893417,0.23,0.93,0.31,28523,10136.9,0,0,3,0.56,-2.31,0.77,0.23,0.93,0.31
12.616211,-9.77E-04,-0.027782992,-0.006893417,0.23,0.93,0.31,28538,10136.6,0,0,3,0.28,-1.61,0.56,0.23,0.93,0.31
9.916992,-0.006976745,-0.025782991,-0.005893418,0.23,0.93,0.31,28561,10133.9,0,0,3,-0.14,-1.47,0.63,0.23,0.93,0.31
13.216797,-0.003976745,-0.021782994,-0.004893418,0.23,0.94,0.3,28583,10137.2,0,0,3,0.07,-1.19,0.7,0.23,0.94,0.3
14.916992,0.003023256,-0.022782993,-0.009893417,0.22,0.94,0.3,28590,10138.9,0,0,3,0.56,-1.26,0.35,0.22,0.94,0.3
13.216797,0.005023255,-0.017782994,-0.016893417,0.22,0.94,0.31,28605,10137.2,0,0,3,0.7,-0.91,-0.14,0.22,0.94,0.31
13.216797,0.002023256,-0.009782992,-0.016893417,0.23,0.93,0.31,28620,10137.2,0,0,3,0.49,-0.35,-0.14,0.23,0.93,0.31
7.216797,-0.006976745,-0.007782992,-0.011893418,0.23,0.93,0.31,28636,10131.2,0,0,3,-0.14,-0.21,0.21,0.23,0.93,0.31
13.216797,-0.012976745,-0.006782993,-8.93E-04,0.23,0.92,0.3,28650,10137.2,0,0,3,-0.56,-0.14,0.98,0.23,0.92,0.3
14.216797,-0.017976746,-0.016782992,0.005106582,0.23,0.92,0.3,28673,10138.2,0,0,3,-0.91,-0.84,1.4,0.23,0.92,0.3
14.216797,-0.019976744,-0.020782992,0.008106583,0.23,0.93,0.3,28688,10138.2,0,0,3,-1.05,-1.12,1.61,0.23,0.93,0.3
14.216797,-0.025976744,-0.026782993,0.009106581,0.23,0.93,0.3,28704,10138.2,0,0,3,-1.47,-1.54,1.68,0.23,0.93,0.3
9.216797,-0.024976745,-0.02878299,0.006106583,0.23,0.94,0.3,28718,10133.2,0,0,3,-1.4,-1.68,1.47,0.23,0.94,0.3
13.216797,-0.015976746,-0.026782993,0.004106584,0.23,0.94,0.31,28741,10137.2,0,0,3,-0.77,-1.54,1.33,0.23,0.94,0.31
13.216797,-0.012976745,-0.021782994,0.002106584,0.23,0.93,0.31,28748,10137.2,0,0,3,-0.56,-1.19,1.19,0.23,0.93,0.31
14.216797,-0.015976746,-0.015782993,0.001106584,0.23,0.93,0.31,28771,10138.2,0,0,3,-0.77,-0.77,1.12,0.23,0.93,0.31
13.216797,-0.013976744,-0.010782993,1.07E-04,0.23,0.93,0.31,28786,10137.2,0,0,3,-0.63,-0.42,1.05,0.23,0.93,0.31
14.216797,-0.019976744,-0.009782992,-8.93E-04,0.23,0.93,0.31,28801,10138.2,0,0,3,-1.05,-0.35,0.98,0.23,0.93,0.31
12.616211,-0.031976745,-0.014782992,1.07E-04,0.23,0.93,0.31,28823,10136.6,0,0,3,-1.89,-0.7,1.05,0.23,0.93,0.31
14.216797,-0.032976747,-0.026782993,-0.001893417,0.24,0.93,0.3,28831,10138.2,0,0,3,-1.96,-1.54,0.91,0.24,0.93,0.3
13.616211,-0.026976746,-0.033782993,0.006106583,0.24,0.94,0.3,28854,10137.6,0,0,3,-1.54,-2.03,1.47,0.24,0.94,0.3
16.61621,-0.016976744,-0.043782994,0.005106582,0.23,0.95,0.3,28869,10140.6,0,0,3,-0.84,-2.73,1.4,0.23,0.95,0.3
14.216797,-0.008976745,-0.04578299,1.07E-04,0.22,0.94,0.31,28883,10138.2,0,0,3,-0.28,-2.87,1.05,0.22,0.94,0.31
14.616211,-0.009976745,-0.044782992,-0.009893417,0.22,0.93,0.31,28905,10138.6,0,0,3,-0.35,-2.8,0.35,0.22,0.93,0.31
13.616211,-0.018976744,-0.038782995,-0.012893417,0.23,0.93,0.31,28913,10137.6,0,0,3,-0.98,-2.38,0.14,0.23,0.93,0.31
14.616211,-0.020976745,-0.027782992,0.001106584,0.23,0.94,0.31,28941,10138.6,0,0,3,-1.12,-1.61,1.12,0.23,0.94,0.31
14.616211,-0.011976745,-0.025782991,0.007106583,0.23,0.94,0.3,28951,10138.6,0,0,3,-0.49,-1.47,1.54,0.23,0.94,0.3
15.616211,0.001023255,-0.02878299,0.008106583,0.23,0.94,0.31,28965,10139.6,0,0,3,0.42,-1.68,1.61,0.23,0.94,0.31
15.616211,0.013023254,-0.02878299,0.002106584,0.23,0.94,0.31,28981,10139.6,0,0,3,1.26,-1.68,1.19,0.23,0.94,0.31
16.61621,0.018023256,-0.020782992,-0.001893417,0.23,0.93,0.31,28996,10140.6,0,0,3,1.61,-1.12,0.91,0.23,0.93,0.31
15.616211,0.017023254,-0.007782992,-0.004893418,0.23,0.93,0.31,29011,10139.6,0,0,3,1.54,-0.21,0.7,0.23,0.93,0.31
15.616211,0.011023256,-7.83E-04,0.001106584,0.23,0.93,0.3,29033,10139.6,0,0,3,1.12,0.28,1.12,0.23,0.93,0.3
14.616211,0.008023256,-0.006782993,0.002106584,0.23,0.94,0.3,29048,10138.6,0,0,3,0.91,-0.14,1.19,0.23,0.94,0.3
13.616211,0.008023256,-0.010782993,-8.93E-04,0.23,0.94,0.3,29063,10137.6,0,0,3,0.91,-0.42,0.98,0.23,0.94,0.3
19.61621,0.005023255,-0.014782992,-0.005893418,0.23,0.93,0.3,29093,10143.6,0,0,3,0.7,-0.7,0.63,0.23,0.93,0.3
14.916992,-0.003976745,-0.014782992,-0.007893417,0.23,0.93,0.31,29100,10138.9,0,0,3,0.07,-0.7,0.49,0.23,0.93,0.31
14.916992,-0.007976744,-0.021782994,-0.008893417,0.23,0.92,0.3,29107,10138.9,0,0,3,-0.21,-1.19,0.42,0.23,0.92,0.3
14.616211,-0.011976745,-0.022782993,0.001106584,0.23,0.93,0.3,29132,10138.6,0,0,3,-0.49,-1.26,1.12,0.23,0.93,0.3
14.916992,-0.013976744,-0.025782991,0.004106584,0.23,0.93,0.3,29145,10138.9,0,0,3,-0.63,-1.47,1.33,0.23,0.93,0.3
13.616211,-0.008976745,-0.029782992,-0.003893417,0.23,0.94,0.3,29160,10137.6,0,0,3,-0.28,-1.75,0.77,0.23,0.94,0.3
14.916992,-0.008976745,-0.02878299,-0.009893417,0.23,0.93,0.31,29176,10138.9,0,0,3,-0.28,-1.68,0.35,0.23,0.93,0.31
14.616211,-0.011976745,-0.026782993,-0.008893417,0.23,0.93,0.31,29191,10138.6,0,0,3,-0.49,-1.54,0.42,0.23,0.93,0.31
18.61621,-0.011976745,-0.025782991,-0.005893418,0.23,0.93,0.31,29221,10142.6,0,0,3,-0.49,-1.47,0.63,0.23,0.93,0.31
14.916992,-0.008976745,-0.026782993,-0.003893417,0.23,0.94,0.3,29235,10138.9,0,0,3,-0.28,-1.54,0.77,0.23,0.94,0.3
15.616211,-0.008976745,-0.022782993,-0.007893417,0.23,0.93,0.31,29260,10139.6,0,0,3,-0.28,-1.26,0.49,0.23,0.93,0.31
14.916992,-0.008976745,-0.020782992,-0.008893417,0.23,0.93,0.31,29282,10138.9,0,0,3,-0.28,-1.12,0.42,0.23,0.93,0.31
14.916992,-0.017976746,-0.017782994,-0.009893417,0.22,0.93,0.31,29304,10138.9,0,0,3,-0.91,-0.91,0.35,0.22,0.93,0.31
15.916992,-0.014976745,-0.015782993,-0.003893417,0.23,0.93,0.3,29318,10139.9,0,0,3,-0.7,-0.77,0.77,0.23,0.93,0.3
15.916992,-0.009976745,-0.016782992,0.003106582,0.23,0.94,0.3,29333,10139.9,0,0,3,-0.35,-0.84,1.26,0.23,0.94,0.3
18.316406,-0.002976745,-0.021782994,0.002106584,0.23,0.95,0.3,29348,10142.3,0,0,3,0.14,-1.19,1.19,0.23,0.95,0.3
15.916992,0.003023256,-0.022782993,-8.93E-04,0.22,0.94,0.3,29363,10139.9,0,0,3,0.56,-1.26,0.98,0.22,0.94,0.3
16.61621,2.33E-05,-0.020782992,-0.007893417,0.22,0.93,0.31,29386,10140.6,0,0,3,0.35,-1.12,0.49,0.22,0.93,0.31
16.916992,-0.008976745,-0.016782992,-0.012893417,0.23,0.92,0.31,29393,10140.9,0,0,3,-0.28,-0.84,0.14,0.23,0.92,0.31
16.916992,-0.018976744,-0.008782992,-0.005893418,0.23,0.93,0.31,29423,10140.9,0,0,3,-0.98,-0.28,0.63,0.23,0.93,0.31
16.916992,-0.022976745,-0.011782993,0.005106582,0.23,0.93,0.31,29438,10140.9,0,0,3,-1.26,-0.49,1.4,0.23,0.93,0.31
15.916992,-0.018976744,-0.025782991,0.006106583,0.23,0.93,0.3,29468,10139.9,0,0,3,-0.98,-1.47,1.47,0.23,0.93,0.3
19.316406,-0.014976745,-0.029782992,-8.93E-04,0.23,0.94,0.31,29491,10143.3,0,0,3,-0.7,-1.75,0.98,0.23,0.94,0.31
16.216797,-0.015976746,-0.02878299,-0.008893417,0.23,0.93,0.31,29521,10140.2,0,0,3,-0.77,-1.68,0.42,0.23,0.93,0.31
16.216797,-0.018976744,-0.025782991,-0.006893417,0.23,0.93,0.31,29528,10140.2,0,0,3,-0.98,-1.47,0.56,0.23,0.93,0.31
16.216797,-0.025976744,-0.02878299,0.001106584,0.22,0.93,0.31,29551,10140.2,0,0,3,-1.47,-1.68,1.12,0.22,0.93,0.31
16.216797,-0.028976742,-0.030782994,0.001106584,0.23,0.93,0.31,29565,10140.2,0,0,3,-1.68,-1.82,1.12,0.23,0.93,0.31
17.61621,-0.029976744,-0.032782994,-0.004893418,0.23,0.93,0.31,29580,10141.6,0,0,3,-1.75,-1.96,0.7,0.23,0.93,0.31
16.216797,-0.031976745,-0.029782992,-0.002893418,0.23,0.94,0.31,29604,10140.2,0,0,3,-1.89,-1.75,0.84,0.23,0.94,0.31
15.916992,-0.026976746,-0.025782991,-0.001893417,0.23,0.93,0.31,29611,10139.9,0,0,3,-1.54,-1.47,0.91,0.23,0.93,0.31
15.216797,-0.024976745,-0.031782992,0.004106584,0.23,0.93,0.31,29641,10139.2,0,0,3,-1.4,-1.89,1.33,0.23,0.93,0.31
18.316406,-0.020976745,-0.03478299,0.005106582,0.23,0.93,0.31,29648,10142.3,0,0,3,-1.12,-2.1,1.4,0.23,0.93,0.31
15.216797,-0.010976745,-0.036782995,0.001106584,0.22,0.93,0.31,29671,10139.2,0,0,3,-0.42,-2.24,1.12,0.22,0.93,0.31
16.216797,-0.002976745,-0.033782993,0.001106584,0.22,0.93,0.32,29686,10140.2,0,0,3,0.14,-2.03,1.12,0.22,0.93,0.32
15.216797,-0.003976745,-0.022782993,0.007106583,0.23,0.92,0.32,29715,10139.2,0,0,3,0.07,-1.26,1.54,0.23,0.92,0.32
14.216797,-0.011976745,-0.021782994,0.012106583,0.23,0.92,0.32,29730,10138.2,0,0,3,-0.49,-1.19,1.89,0.23,0.92,0.32
9.516602,-0.020976745,-0.027782992,0.019106586,0.23,0.93,0.31,29753,10133.5,0,0,3,-1.12,-1.61,2.38,0.23,0.93,0.31
10.616211,-0.016976744,-0.033782993,0.014106582,0.23,0.94,0.31,29776,10134.6,0,0,3,-0.84,-2.03,2.03,0.23,0.94,0.31
9.916992,-0.013976744,-0.03478299,0.003106582,0.23,0.94,0.31,29798,10133.9,0,0,3,-0.63,-2.1,1.26,0.23,0.94,0.31
7.216797,-0.010976745,-0.02878299,-0.001893417,0.23,0.93,0.32,29813,10131.2,0,0,3,-0.42,-1.68,0.91,0.23,0.93,0.32
7.216797,-0.009976745,-0.021782994,-0.001893417,0.22,0.92,0.32,29828,10131.2,0,0,3,-0.35,-1.19,0.91,0.22,0.92,0.32
8.516602,-0.006976745,-0.012782993,0.007106583,0.22,0.94,0.32,29843,10132.5,0,0,3,-0.14,-0.56,1.54,0.22,0.94,0.32
7.916992,-0.008976745,-0.010782993,0.011106583,0.22,0.94,0.31,29858,10131.9,0,0,3,-0.28,-0.42,1.82,0.22,0.94,0.31
4.5166016,-0.009976745,-0.009782992,1.07E-04,0.22,0.94,0.31,29881,10128.5,0,0,3,-0.35,-0.35,1.05,0.22,0.94,0.31
8.216797,-0.011976745,-0.007782992,-0.011893418,0.23,0.93,0.31,29910,10132.2,0,0,3,-0.49,-0.21,0.21,0.23,0.93,0.31
7.5166016,-0.018976744,2.17E-04,-0.005893418,0.23,0.92,0.31,29917,10131.5,0,0,3,-0.98,0.35,0.63,0.23,0.92,0.31
8.216797,-0.015976746,-0.007782992,0.015106582,0.23,0.93,0.31,29933,10132.2,0,0,3,-0.77,-0.21,2.1,0.23,0.93,0.31
8.516602,-0.004976745,-0.027782992,0.020106584,0.23,0.94,0.31,29963,10132.5,0,0,3,0,-1.61,2.45,0.23,0.94,0.31
7.5166016,0.004023255,-0.031782992,0.009106581,0.22,0.94,0.31,29978,10131.5,0,0,3,0.63,-1.89,1.68,0.22,0.94,0.31
7.216797,0.006023255,-0.022782993,0.002106584,0.23,0.93,0.31,30000,10131.2,0,0,3,0.77,-1.26,1.19,0.23,0.93,0.31
8.516602,0.002023256,-0.015782993,0.011106583,0.23,0.93,0.32,30023,10132.5,0,0,3,0.49,-0.77,1.82,0.23,0.93,0.32
5.5166016,-0.002976745,-0.014782992,0.017106585,0.22,0.93,0.31,30046,10129.5,0,0,3,0.14,-0.7,2.24,0.22,0.93,0.31
7.916992,-0.012976745,-0.016782992,0.011106583,0.23,0.93,0.31,30068,10131.9,0,0,3,-0.56,-0.84,1.82,0.23,0.93,0.31
8.916992,-0.015976746,-0.013782992,0.011106583,0.23,0.93,0.31,30083,10132.9,0,0,3,-0.77,-0.63,1.82,0.23,0.93,0.31
10.916992,-0.016976744,-0.013782992,0.018106584,0.23,0.93,0.31,30106,10134.9,0,0,3,-0.84,-0.63,2.31,0.23,0.93,0.31
9.516602,-0.017976746,-0.016782992,0.020106584,0.23,0.93,0.31,30113,10133.5,0,0,3,-0.91,-0.84,2.45,0.23,0.93,0.31
9.216797,-0.011976745,-0.018782992,0.021106582,0.23,0.93,0.31,30128,10133.2,0,0,3,-0.49,-0.98,2.52,0.23,0.93,0.31
9.916992,-0.008976745,-0.023782995,0.013106584,0.23,0.94,0.31,30158,10133.9,0,0,3,-0.28,-1.33,1.96,0.23,0.94,0.31
9.516602,-0.002976745,-0.023782995,0.008106583,0.23,0.93,0.31,30173,10133.5,0,0,3,0.14,-1.33,1.61,0.23,0.93,0.31
9.916992,-0.008976745,-0.023782995,0.004106584,0.23,0.93,0.31,30188,10133.9,0,0,3,-0.28,-1.33,1.33,0.23,0.93,0.31
9.916992,-0.011976745,-0.020782992,0.011106583,0.24,0.93,0.31,30210,10133.9,0,0,3,-0.49,-1.12,1.82,0.24,0.93,0.31
12.916992,-0.013976744,-0.018782992,0.014106582,0.23,0.93,0.31,30233,10136.9,0,0,3,-0.63,-0.98,2.03,0.23,0.93,0.31
4.916992,-0.013976744,-0.018782992,0.010106583,0.23,0.94,0.31,30255,10128.9,0,0,3,-0.63,-0.98,1.75,0.23,0.94,0.31
10.916992,-0.009976745,-0.018782992,0.003106582,0.23,0.93,0.31,30278,10134.9,0,0,3,-0.35,-0.98,1.26,0.23,0.93,0.31
11.616211,-0.008976745,-0.018782992,-0.004893418,0.23,0.93,0.31,30293,10135.6,0,0,3,-0.28,-0.98,0.7,0.23,0.93,0.31
9.916992,-0.008976745,-0.019782992,-0.007893417,0.23,0.93,0.31,30315,10133.9,0,0,3,-0.28,-1.05,0.49,0.23,0.93,0.31
11.216797,-0.009976745,-0.024782993,-0.009893417,0.23,0.94,0.31,30338,10135.2,0,0,3,-0.35,-1.4,0.35,0.23,0.94,0.31
12.216797,-0.002976745,-0.029782992,-0.010893418,0.23,0.93,0.31,30353,10136.2,0,0,3,0.14,-1.75,0.28,0.23,0.93,0.31
10.216797,0.008023256,-0.02878299,-0.005893418,0.24,0.93,0.31,30368,10134.2,0,0,3,0.91,-1.68,0.63,0.24,0.93,0.31
10.916992,0.008023256,-0.026782993,-0.002893418,0.23,0.93,0.31,30383,10134.9,0,0,3,0.91,-1.54,0.84,0.23,0.93,0.31
12.616211,-0.004976745,-0.02878299,-0.004893418,0.23,0.93,0.32,30398,10136.6,0,0,3,0,-1.68,0.7,0.23,0.93,0.32
12.216797,-0.016976744,-0.027782992,-0.017893417,0.23,0.92,0.32,30421,10136.2,0,0,3,-0.84,-1.61,-0.21,0.23,0.92,0.32
11.216797,-0.022976745,-0.021782994,-0.010893418,0.24,0.93,0.32,30451,10135.2,0,0,3,-1.26,-1.19,0.28,0.24,0.93,0.32
12.216797,-0.019976744,-0.020782992,-8.93E-04,0.23,0.93,0.31,30473,10136.2,0,0,3,-1.05,-1.12,0.98,0.23,0.93,0.31
11.616211,-0.011976745,-0.026782993,-0.003893417,0.22,0.93,0.31,30489,10135.6,0,0,3,-0.49,-1.54,0.77,0.22,0.93,0.31
12.216797,-0.002976745,-0.024782993,-0.009893417,0.23,0.93,0.31,30511,10136.2,0,0,2,0.14,-1.4,0.35,0.23,0.93,0.31
13.616211,0.001023255,-0.014782992,-0.015893416,0.23,0.93,0.32,30534,10137.6,0,0,2,0.42,-0.7,-0.07,0.23,0.93,0.32
14.216797,0.001023255,-0.016782992,-0.011893418,0.23,0.93,0.32,30549,10138.2,0,0,2,0.42,-0.84,0.21,0.23,0.93,0.32
18.316406,0.002023256,-0.021782994,-0.010893418,0.23,0.94,0.31,30586,10142.3,0,0,2,0.49,-1.19,0.28,0.23,0.94,0.31
13.616211,0.001023255,-0.026782993,-0.015893416,0.22,0.93,0.32,30587,10137.6,0,0,2,0.42,-1.54,-0.07,0.22,0.93,0.32
14.216797,-0.001976745,-0.033782993,-0.030893419,0.23,0.93,0.31,30601,10138.2,0,0,2,0.21,-2.03,-1.12,0.23,0.93,0.31
13.216797,0.002023256,-0.031782992,-0.028893419,0.23,0.93,0.31,30617,10137.2,0,0,2,0.49,-1.89,-0.98,0.23,0.93,0.31
14.616211,0.010023255,-0.030782994,-0.029893417,0.22,0.93,0.31,30630,10138.6,0,0,2,1.05,-1.82,-1.05,0.22,0.93,0.31
13.616211,0.016023256,-0.03478299,-0.026893416,0.22,0.93,0.31,30646,10137.6,0,0,2,1.47,-2.1,-0.84,0.22,0.93,0.31
13.616211,0.016023256,-0.03478299,-0.019893417,0.23,0.93,0.32,30675,10137.6,0,0,2,1.47,-2.1,-0.35,0.23,0.93,0.32
14.216797,0.015023255,-0.029782992,-0.007893417,0.22,0.93,0.31,30691,10138.2,0,0,2,1.4,-1.75,0.49,0.22,0.93,0.31
8.516602,0.014023257,-0.025782991,-0.006893417,0.22,0.93,0.31,30713,10132.5,0,0,2,1.33,-1.47,0.56,0.22,0.93,0.31
16.61621,0.013023254,-0.022782993,-0.008893417,0.22,0.93,0.31,30735,10140.6,0,0,2,1.26,-1.26,0.42,0.22,0.93,0.31
14.616211,0.007023254,-0.018782992,-0.010893418,0.22,0.93,0.31,30758,10138.6,0,0,2,0.84,-0.98,0.28,0.22,0.93,0.31
13.616211,0.005023255,-0.017782994,-0.011893418,0.22,0.93,0.31,30785,10137.6,0,0,2,0.7,-0.91,0.21,0.22,0.93,0.31
14.616211,0.010023255,-0.019782992,-0.012893417,0.22,0.94,0.31,30811,10138.6,0,0,2,1.05,-1.05,0.14,0.22,0.94,0.31
13.916992,0.010023255,-0.020782992,-0.012893417,0.22,0.93,0.31,30818,10137.9,0,0,2,1.05,-1.12,0.14,0.22,0.93,0.31
13.916992,0.007023254,-0.023782995,-0.008893417,0.22,0.93,0.31,30835,10137.9,0,0,2,0.84,-1.33,0.42,0.22,0.93,0.31
15.916992,0.003023256,-0.025782991,-0.002893418,0.23,0.93,0.31,30848,10139.9,0,0,2,0.56,-1.47,0.84,0.23,0.93,0.31
15.916992,0.001023255,-0.02878299,0.002106584,0.22,0.93,0.3,30862,10139.9,0,0,2,0.42,-1.68,1.19,0.22,0.93,0.3
14.616211,-9.77E-04,-0.037782993,-0.002893418,0.22,0.94,0.3,30885,10138.6,0,0,2,0.28,-2.31,0.84,0.22,0.94,0.3
13.616211,0.006023255,-0.036782995,-0.003893417,0.21,0.94,0.3,30893,10137.6,0,0,2,0.77,-2.24,0.77,0.21,0.94,0.3
15.216797,0.011023256,-0.031782992,-0.016893417,0.22,0.93,0.31,30916,10139.2,0,0,2,1.12,-1.89,-0.14,0.22,0.93,0.31
14.916992,0.004023255,-0.021782994,-0.005893418,0.22,0.92,0.31,30938,10138.9,0,0,2,0.63,-1.19,0.63,0.22,0.92,0.31
14.916992,-9.77E-04,-0.018782992,0.013106584,0.22,0.93,0.3,30960,10138.9,0,0,2,0.28,-0.98,1.96,0.22,0.93,0.3
14.916992,-0.003976745,-0.027782992,0.022106584,0.22,0.95,0.3,30983,10138.9,0,0,2,0.07,-1.61,2.59,0.22,0.95,0.3
14.916992,-0.005976745,-0.029782992,0.002106584,0.22,0.93,0.31,31006,10138.9,0,0,2,-0.07,-1.75,1.19,0.22,0.93,0.31
13.916992,-0.013976744,-0.021782994,-0.004893418,0.24,0.93,0.31,31028,10137.9,0,0,2,-0.63,-1.19,0.7,0.24,0.93,0.31
14.916992,-0.016976744,-0.021782994,0.009106581,0.23,0.93,0.3,31051,10138.9,0,0,2,-0.84,-1.19,1.68,0.23,0.93,0.3
15.216797,-0.010976745,-0.039782993,0.016106583,0.23,0.94,0.3,31073,10139.2,0,0,2,-0.42,-2.45,2.17,0.23,0.94,0.3
14.916992,-0.002976745,-0.043782994,0.011106583,0.22,0.94,0.31,31088,10138.9,0,0,2,0.14,-2.73,1.82,0.22,0.94,0.31
14.916992,-9.77E-04,-0.037782993,0.004106584,0.23,0.93,0.31,31111,10138.9,0,0,2,0.28,-2.31,1.33,0.23,0.93,0.31
9.216797,-0.002976745,-0.022782993,0.010106583,0.23,0.92,0.32,31118,10133.2,0,0,2,0.14,-1.26,1.75,0.23,0.92,0.32
12.916992,-0.008976745,-0.014782992,0.012106583,0.22,0.93,0.31,31134,10136.9,0,0,2,-0.28,-0.7,1.89,0.22,0.93,0.31
14.216797,-0.007976744,-0.016782992,0.011106583,0.23,0.94,0.31,31149,10138.2,0,0,2,-0.21,-0.84,1.82,0.23,0.94,0.31
14.216797,-9.77E-04,-0.013782992,0.008106583,0.23,0.94,0.31,31193,10138.2,0,0,2,0.28,-0.63,1.61,0.23,0.94,0.31
13.216797,-9.77E-04,-0.011782993,-0.006893417,0.23,0.93,0.31,31194,10137.2,0,0,2,0.28,-0.49,0.56,0.23,0.93,0.31
13.216797,-0.005976745,-0.011782993,-0.010893418,0.23,0.93,0.31,31238,10137.2,0,0,2,-0.07,-0.49,0.28,0.23,0.93,0.31
13.216797,-0.006976745,-0.021782994,-0.004893418,0.23,0.93,0.3,31239,10137.2,0,0,2,-0.14,-1.19,0.7,0.23,0.93,0.3
13.616211,-0.006976745,-0.030782994,-8.93E-04,0.23,0.93,0.31,31254,10137.6,0,0,2,-0.14,-1.82,0.98,0.23,0.93,0.31
13.216797,-0.006976745,-0.031782992,-0.005893418,0.22,0.93,0.3,31300,10137.2,0,0,2,-0.14,-1.89,0.63,0.22,0.93,0.3
13.216797,-0.006976745,-0.030782994,-0.001893417,0.22,0.93,0.31,31301,10137.2,0,0,2,-0.14,-1.82,0.91,0.22,0.93,0.31
14.616211,-0.003976745,-0.024782993,-8.93E-04,0.22,0.94,0.31,31321,10138.6,0,0,2,0.07,-1.4,0.98,0.22,0.94,0.31
15.616211,-0.005976745,-0.024782993,-0.006893417,0.22,0.93,0.31,31336,10139.6,0,0,2,-0.07,-1.4,0.56,0.22,0.93,0.31
13.216797,-0.009976745,-0.018782992,-0.005893418,0.22,0.93,0.31,31382,10137.2,0,0,2,-0.35,-0.98,0.63,0.22,0.93,0.31
13.616211,-0.011976745,-0.014782992,-0.002893418,0.22,0.93,0.31,31383,10137.6,0,0,2,-0.49,-0.7,0.84,0.22,0.93,0.31
13.616211,-0.011976745,-0.022782993,-8.93E-04,0.23,0.93,0.31,31388,10137.6,0,0,2,-0.49,-1.26,0.98,0.23,0.93,0.31
14.616211,-0.005976745,-0.030782994,-8.93E-04,0.23,0.94,0.31,31418,10138.6,0,0,2,-0.07,-1.82,0.98,0.23,0.94,0.31
13.616211,-0.001976745,-0.036782995,-0.001893417,0.23,0.94,0.31,31440,10137.6,0,0,2,0.21,-2.24,0.91,0.23,0.94,0.31
12.616211,0.001023255,-0.031782992,-8.93E-04,0.23,0.93,0.31,31456,10136.6,0,0,2,0.42,-1.89,0.98,0.23,0.93,0.31
18.61621,-0.001976745,-0.033782993,-0.003893417,0.22,0.93,0.31,31478,10142.6,0,0,2,0.21,-2.03,0.77,0.22,0.93,0.31
15.616211,-0.003976745,-0.036782995,-0.005893418,0.22,0.94,0.31,31493,10139.6,0,0,2,0.07,-2.24,0.63,0.22,0.94,0.31
13.616211,0.003023256,-0.033782993,-0.010893418,0.22,0.93,0.3,31515,10137.6,0,0,2,0.56,-2.03,0.28,0.22,0.93,0.3
13.616211,0.003023256,-0.03478299,-0.015893416,0.23,0.93,0.31,31538,10137.6,0,0,2,0.56,-2.1,-0.07,0.23,0.93,0.31
13.916992,0.002023256,-0.036782995,-0.006893417,0.22,0.93,0.3,31560,10137.9,0,0,2,0.49,-2.24,0.56,0.22,0.93,0.3
14.616211,0.010023255,-0.036782995,0.006106583,0.22,0.94,0.3,31575,10138.6,0,0,2,1.05,-2.24,1.47,0.22,0.94,0.3
13.916992,0.011023256,-0.03478299,0.005106582,0.22,0.94,0.3,31598,10137.9,0,0,2,1.12,-2.1,1.4,0.22,0.94,0.3
12.916992,0.008023256,-0.030782994,-0.003893417,0.21,0.93,0.31,31613,10136.9,0,0,2,0.91,-1.82,0.77,0.21,0.93,0.31
12.616211,-9.77E-04,-0.026782993,-0.012893417,0.22,0.93,0.3,31628,10136.6,0,0,2,0.28,-1.54,0.14,0.22,0.93,0.3
12.916992,-0.002976745,-0.020782992,-0.009893417,0.23,0.93,0.3,31642,10136.9,0,0,2,0.14,-1.12,0.35,0.23,0.93,0.3
14.916992,2.33E-05,-0.024782993,0.003106582,0.23,0.93,0.3,31682,10138.9,0,0,2,0.35,-1.4,1.26,0.23,0.93,0.3
14.216797,0.001023255,-0.03478299,0.012106583,0.23,0.93,0.3,31703,10138.2,0,0,2,0.42,-2.1,1.89,0.23,0.93,0.3
13.916992,2.33E-05,-0.03478299,0.012106583,0.22,0.94,0.3,31710,10137.9,0,0,2,0.35,-2.1,1.89,0.22,0.94,0.3
14.216797,0.002023256,-0.027782992,0.008106583,0.22,0.93,0.31,31734,10138.2,0,0,2,0.49,-1.61,1.61,0.22,0.93,0.31
13.916992,-0.004976745,-0.020782992,0.009106581,0.23,0.93,0.31,31763,10137.9,0,0,2,0,-1.12,1.68,0.23,0.93,0.31
10.216797,-0.013976744,-0.014782992,0.015106582,0.23,0.94,0.3,31778,10134.2,0,0,2,-0.63,-0.7,2.1,0.23,0.94,0.3
12.216797,-0.013976744,-0.015782993,0.006106583,0.22,0.94,0.3,31793,10136.2,0,0,2,-0.63,-0.77,1.47,0.22,0.94,0.3
12.616211,-0.010976745,-0.020782992,-0.003893417,0.23,0.94,0.3,31816,10136.6,0,0,2,-0.42,-1.12,0.77,0.23,0.94,0.3
13.916992,-0.007976744,-0.021782994,-0.008893417,0.23,0.94,0.3,31831,10137.9,0,0,2,-0.21,-1.19,0.42,0.23,0.94,0.3
12.216797,-0.004976745,-0.018782992,-0.008893417,0.23,0.93,0.3,31860,10136.2,0,0,2,0,-0.98,0.42,0.23,0.93,0.3
12.916992,-0.003976745,-0.022782993,-0.004893418,0.23,0.93,0.3,31876,10136.9,0,0,2,0.07,-1.26,0.7,0.23,0.93,0.3
13.216797,-0.005976745,-0.029782992,-0.002893418,0.22,0.93,0.31,31883,10137.2,0,0,2,-0.07,-1.75,0.84,0.22,0.93,0.31
15.616211,-0.005976745,-0.02878299,0.004106584,0.22,0.94,0.31,31898,10139.6,0,0,2,-0.07,-1.68,1.33,0.22,0.94,0.31
13.216797,-0.004976745,-0.025782991,0.007106583,0.22,0.93,0.31,31920,10137.2,0,0,2,0,-1.47,1.54,0.22,0.93,0.31
12.616211,-0.003976745,-0.019782992,0.003106582,0.22,0.93,0.31,31950,10136.6,0,0,2,0.07,-1.05,1.26,0.22,0.93,0.31
14.216797,-0.009976745,-0.016782992,0.004106584,0.22,0.93,0.31,31966,10138.2,0,0,2,-0.35,-0.84,1.33,0.22,0.93,0.31
12.216797,-0.007976744,-0.016782992,0.008106583,0.23,0.94,0.3,31988,10136.2,0,0,2,-0.21,-0.84,1.61,0.23,0.94,0.3
12.916992,-0.003976745,-0.020782992,0.006106583,0.23,0.94,0.3,32010,10136.9,0,0,2,0.07,-1.12,1.47,0.23,0.94,0.3
11.616211,-0.003976745,-0.023782995,0.004106584,0.23,0.93,0.3,32025,10135.6,0,0,2,0.07,-1.33,1.33,0.23,0.93,0.3
13.616211,-0.007976744,-0.024782993,0.012106583,0.23,0.93,0.3,32051,10137.6,0,0,2,-0.21,-1.4,1.89,0.23,0.93,0.3
13.616211,-0.006976745,-0.029782992,0.014106582,0.23,0.94,0.3,32071,10137.6,0,0,2,-0.14,-1.75,2.03,0.23,0.94,0.3
14.216797,-0.002976745,-0.033782993,0.008106583,0.23,0.94,0.3,32086,10138.2,0,0,2,0.14,-2.03,1.61,0.23,0.94,0.3
12.616211,-0.001976745,-0.031782992,0.005106582,0.23,0.94,0.3,32100,10136.6,0,0,2,0.21,-1.89,1.4,0.23,0.94,0.3
13.616211,-0.003976745,-0.02878299,0.003106582,0.23,0.94,0.3,32123,10137.6,0,0,2,0.07,-1.68,1.26,0.23,0.94,0.3
13.616211,-0.002976745,-0.026782993,-8.93E-04,0.23,0.93,0.3,32130,10137.6,0,0,2,0.14,-1.54,0.98,0.23,0.93,0.3
5.5166016,-0.004976745,-0.025782991,-8.93E-04,0.23,0.94,0.3,32153,10129.5,0,0,2,0,-1.47,0.98,0.23,0.94,0.3
12.616211,-0.004976745,-0.029782992,-0.004893418,0.23,0.94,0.3,32175,10136.6,0,0,2,0,-1.75,0.7,0.23,0.94,0.3
12.616211,-0.006976745,-0.032782994,-0.008893417,0.23,0.94,0.3,32191,10136.6,0,0,2,-0.14,-1.96,0.42,0.23,0.94,0.3
12.616211,-0.007976744,-0.032782994,-0.009893417,0.23,0.93,0.3,32213,10136.6,0,0,2,-0.21,-1.96,0.35,0.23,0.93,0.3
11.616211,-0.009976745,-0.029782992,-0.001893417,0.23,0.93,0.3,32235,10135.6,0,0,3,-0.35,-1.75,0.91,0.23,0.93,0.3
12.216797,-0.009976745,-0.031782992,-0.002893418,0.22,0.94,0.3,32258,10136.2,0,0,3,-0.35,-1.89,0.84,0.22,0.94,0.3
12.616211,-0.005976745,-0.03478299,-0.007893417,0.22,0.93,0.3,32288,10136.6,0,0,3,-0.07,-2.1,0.49,0.22,0.93,0.3
12.916992,-0.005976745,-0.036782995,-0.009893417,0.23,0.93,0.3,32310,10136.9,0,0,3,-0.07,-2.24,0.35,0.23,0.93,0.3
12.616211,-0.005976745,-0.039782993,-8.93E-04,0.22,0.93,0.3,32318,10136.6,0,0,3,-0.07,-2.45,0.98,0.22,0.93,0.3
12.916992,0.001023255,-0.035782993,0.010106583,0.22,0.94,0.3,32340,10136.9,0,0,3,0.42,-2.17,1.75,0.22,0.94,0.3
12.916992,0.005023255,-0.030782994,0.010106583,0.21,0.94,0.31,32355,10136.9,0,0,3,0.7,-1.82,1.75,0.21,0.94,0.31
13.916992,2.33E-05,-0.026782993,-0.003893417,0.22,0.94,0.31,32371,10137.9,0,0,3,0.35,-1.54,0.77,0.22,0.94,0.31
11.916992,-0.006976745,-0.016782992,-0.010893418,0.22,0.93,0.31,32386,10135.9,0,0,3,-0.14,-0.84,0.28,0.22,0.93,0.31
11.916992,-0.015976746,-0.007782992,-0.002893418,0.23,0.93,0.3,32408,10135.9,0,0,3,-0.77,-0.21,0.84,0.23,0.93,0.3
12.916992,-0.010976745,-0.016782992,0.011106583,0.23,0.94,0.3,32431,10136.9,0,0,3,-0.42,-0.84,1.82,0.23,0.94,0.3
12.916992,-0.006976745,-0.035782993,0.011106583,0.23,0.94,0.3,32461,10136.9,0,0,3,-0.14,-2.17,1.82,0.23,0.94,0.3
11.916992,0.001023255,-0.039782993,0.003106582,0.23,0.94,0.3,32468,10135.9,0,0,3,0.42,-2.45,1.26,0.23,0.94,0.3
13.916992,0.003023256,-0.030782994,0.005106582,0.23,0.93,0.31,32491,10137.9,0,0,3,0.56,-1.82,1.4,0.23,0.93,0.31
8.916992,-0.001976745,-0.019782992,0.005106582,0.23,0.93,0.31,32513,10132.9,0,0,3,0.21,-1.05,1.4,0.23,0.93,0.31
12.616211,-0.009976745,-0.016782992,0.005106582,0.23,0.94,0.3,32535,10136.6,0,0,3,-0.35,-0.84,1.4,0.23,0.94,0.3
13.616211,-0.009976745,-0.011782993,-8.93E-04,0.22,0.94,0.3,32558,10137.6,0,0,3,-0.35,-0.49,0.98,0.22,0.94,0.3
11.916992,-0.008976745,-0.015782993,-0.013893417,0.23,0.94,0.3,32573,10135.9,0,0,3,-0.28,-0.77,0.07,0.23,0.94,0.3
11.216797,-0.007976744,-0.018782992,-0.011893418,0.23,0.93,0.3,32588,10135.2,0,0,3,-0.21,-0.98,0.21,0.23,0.93,0.3
12.216797,-0.006976745,-0.025782991,-0.009893417,0.23,0.93,0.3,32610,10136.2,0,0,3,-0.14,-1.47,0.35,0.23,0.93,0.3
12.916992,-0.001976745,-0.031782992,-0.007893417,0.23,0.94,0.29,32618,10136.9,0,0,3,0.21,-1.89,0.49,0.23,0.94,0.29
8.216797,0.002023256,-0.038782995,-8.93E-04,0.22,0.93,0.3,32641,10132.2,0,0,3,0.49,-2.38,0.98,0.22,0.93,0.3
12.216797,0.001023255,-0.038782995,-8.93E-04,0.22,0.93,0.3,32655,10136.2,0,0,3,0.42,-2.38,0.98,0.22,0.93,0.3
10.616211,-0.001976745,-0.029782992,0.002106584,0.22,0.93,0.31,32678,10134.6,0,0,3,0.21,-1.75,1.19,0.22,0.93,0.31
10.216797,2.33E-05,-0.019782992,-0.001893417,0.22,0.94,0.3,32701,10134.2,0,0,3,0.35,-1.05,0.91,0.22,0.94,0.3
11.216797,-0.002976745,-0.013782992,-0.008893417,0.23,0.94,0.3,32722,10135.2,0,0,3,0.14,-0.63,0.42,0.23,0.94,0.3
12.216797,-0.004976745,-0.016782992,-0.008893417,0.23,0.94,0.3,32738,10136.2,0,0,3,0,-0.84,0.42,0.23,0.94,0.3
11.216797,-0.011976745,-0.023782995,-0.006893417,0.23,0.93,0.3,32760,10135.2,0,0,3,-0.49,-1.33,0.56,0.23,0.93,0.3
12.216797,-0.016976744,-0.029782992,-0.005893418,0.23,0.93,0.3,32784,10136.2,0,0,3,-0.84,-1.75,0.63,0.23,0.93,0.3
11.216797,-0.010976745,-0.03478299,-0.004893418,0.22,0.94,0.3,32805,10135.2,0,0,3,-0.42,-2.1,0.7,0.22,0.94,0.3
11.216797,-0.009976745,-0.033782993,-0.001893417,0.23,0.93,0.3,32828,10135.2,0,0,3,-0.35,-2.03,0.91,0.23,0.93,0.3
12.216797,-0.009976745,-0.036782995,0.001106584,0.22,0.93,0.3,32843,10136.2,0,0,3,-0.35,-2.24,1.12,0.22,0.93,0.3
12.216797,-0.011976745,-0.032782994,0.005106582,0.22,0.93,0.3,32858,10136.2,0,0,3,-0.49,-1.96,1.4,0.22,0.93,0.3
12.616211,-0.010976745,-0.033782993,0.003106582,0.23,0.94,0.3,32881,10136.6,0,0,3,-0.42,-2.03,1.26,0.23,0.94,0.3
10.916992,-0.010976745,-0.033782993,1.07E-04,0.22,0.94,0.3,32887,10134.9,0,0,3,-0.42,-2.03,1.05,0.22,0.94,0.3
11.616211,-0.007976744,-0.029782992,-8.93E-04,0.22,0.93,0.3,32911,10135.6,0,0,3,-0.21,-1.75,0.98,0.22,0.93,0.3
14.616211,-0.010976745,-0.024782993,0.003106582,0.23,0.93,0.31,32934,10138.6,0,0,3,-0.42,-1.4,1.26,0.23,0.93,0.31
10.916992,-0.011976745,-0.024782993,0.009106581,0.22,0.94,0.3,32955,10134.9,0,0,3,-0.49,-1.4,1.68,0.22,0.94,0.3
11.216797,-0.005976745,-0.023782995,0.008106583,0.22,0.94,0.3,32978,10135.2,0,0,3,-0.07,-1.33,1.61,0.22,0.94,0.3
10.616211,-0.003976745,-0.023782995,-8.93E-04,0.23,0.94,0.3,33001,10134.6,0,0,3,0.07,-1.33,0.98,0.23,0.94,0.3
10.616211,-0.003976745,-0.020782992,-0.004893418,0.22,0.93,0.3,33032,10134.6,0,0,3,0.07,-1.12,0.7,0.22,0.93,0.3
10.616211,-0.007976744,-0.025782991,-0.001893417,0.23,0.93,0.3,33045,10134.6,0,0,3,-0.21,-1.47,0.91,0.23,0.93,0.3
12.916992,-0.007976744,-0.029782992,0.009106581,0.22,0.94,0.3,33060,10136.9,0,0,3,-0.21,-1.75,1.68,0.22,0.94,0.3
10.916992,0.003023256,-0.035782993,0.016106583,0.23,0.94,0.3,33083,10134.9,0,0,3,0.56,-2.17,2.17,0.23,0.94,0.3
11.216797,0.001023255,-0.031782992,0.013106584,0.22,0.94,0.3,33106,10135.2,0,0,3,0.42,-1.89,1.96,0.22,0.94,0.3
11.616211,-0.009976745,-0.031782992,-0.001893417,0.22,0.93,0.3,33121,10135.6,0,0,3,-0.35,-1.89,0.91,0.22,0.93,0.3
7.916992,-0.016976744,-0.020782992,1.07E-04,0.23,0.93,0.3,33143,10131.9,0,0,3,-0.84,-1.12,1.05,0.23,0.93,0.3
10.916992,-0.019976744,-0.016782992,0.007106583,0.23,0.94,0.29,33158,10134.9,0,0,3,-1.05,-0.84,1.54,0.23,0.94,0.29
11.916992,-0.008976745,-0.025782991,0.015106582,0.23,0.94,0.3,33187,10135.9,0,0,3,-0.28,-1.47,2.1,0.23,0.94,0.3
11.616211,0.001023255,-0.03478299,0.007106583,0.23,0.94,0.3,33218,10135.6,0,0,3,0.42,-2.1,1.54,0.23,0.94,0.3
11.616211,0.003023256,-0.026782993,1.07E-04,0.23,0.93,0.3,33233,10135.6,0,0,3,0.56,-1.54,1.05,0.23,0.93,0.3
10.916992,-0.003976745,-0.019782992,0.005106582,0.23,0.93,0.31,33255,10134.9,0,0,3,0.07,-1.05,1.4,0.23,0.93,0.31
10.916992,-0.007976744,-0.018782992,0.007106583,0.23,0.94,0.3,33270,10134.9,0,0,3,-0.21,-0.98,1.54,0.23,0.94,0.3
10.916992,-0.008976745,-0.015782993,0.006106583,0.23,0.94,0.3,33300,10134.9,0,0,3,-0.28,-0.77,1.47,0.23,0.94,0.3
11.216797,-0.007976744,-0.013782992,-0.006893417,0.23,0.94,0.3,33315,10135.2,0,0,3,-0.21,-0.63,0.56,0.23,0.94,0.3
9.216797,-0.015976746,-0.017782994,-0.012893417,0.23,0.93,0.3,33341,10133.2,0,0,3,-0.77,-0.91,0.14,0.23,0.93,0.3
10.216797,-0.010976745,-0.029782992,-0.007893417,0.23,0.94,0.29,33360,10134.2,0,0,3,-0.42,-1.75,0.49,0.23,0.94,0.29
10.916992,-9.77E-04,-0.039782993,-0.004893418,0.23,0.94,0.3,33375,10134.9,0,0,3,0.28,-2.45,0.7,0.23,0.94,0.3
11.216797,0.004023255,-0.042782996,-0.006893417,0.22,0.93,0.3,33391,10135.2,0,0,3,0.63,-2.66,0.56,0.22,0.93,0.3
11.616211,2.33E-05,-0.036782995,-0.008893417,0.22,0.93,0.3,33421,10135.6,0,0,3,0.35,-2.24,0.42,0.22,0.93,0.3
11.216797,-0.009976745,-0.027782992,-0.004893418,0.22,0.93,0.3,33436,10135.2,0,0,3,-0.35,-1.61,0.7,0.22,0.93,0.3
10.216797,-0.021976747,-0.026782993,0.002106584,0.22,0.93,0.3,33458,10134.2,0,0,3,-1.19,-1.54,1.19,0.22,0.93,0.3
10.216797,-0.023976747,-0.023782995,0.009106581,0.22,0.94,0.3,33473,10134.2,0,0,3,-1.33,-1.33,1.68,0.22,0.94,0.3
10.216797,-0.020976745,-0.023782995,0.009106581,0.23,0.93,0.3,33495,10134.2,0,0,3,-1.12,-1.33,1.68,0.23,0.93,0.3
11.216797,-0.025976744,-0.023782995,0.010106583,0.23,0.93,0.3,33533,10135.2,0,0,3,-1.47,-1.33,1.75,0.23,0.93,0.3
8.216797,-0.028976742,-0.029782992,0.008106583,0.23,0.94,0.3,33540,10132.2,0,0,3,-1.68,-1.75,1.61,0.23,0.94,0.3
12.216797,-0.023976747,-0.030782994,0.007106583,0.23,0.94,0.31,33563,10136.2,0,0,3,-1.33,-1.82,1.54,0.23,0.94,0.31
6.216797,-0.020976745,-0.030782994,0.006106583,0.23,0.93,0.3,33586,10130.2,0,0,3,-1.12,-1.82,1.47,0.23,0.93,0.3
10.616211,-0.017976746,-0.029782992,0.004106584,0.23,0.93,0.31,33616,10134.6,0,0,3,-0.91,-1.75,1.33,0.23,0.93,0.31
10.916992,-0.015976746,-0.029782992,0.001106584,0.23,0.93,0.31,33623,10134.9,0,0,3,-0.77,-1.75,1.12,0.23,0.93,0.31
11.616211,-0.013976744,-0.025782991,0.001106584,0.23,0.94,0.31,33638,10135.6,0,0,3,-0.63,-1.47,1.12,0.23,0.94,0.31
10.616211,-0.008976745,-0.020782992,1.07E-04,0.23,0.93,0.31,33660,10134.6,0,0,3,-0.28,-1.12,1.05,0.23,0.93,0.31
10.616211,-0.006976745,-0.021782994,0.005106582,0.23,0.93,0.31,33683,10134.6,0,0,3,-0.14,-1.19,1.4,0.23,0.93,0.31
10.616211,-0.003976745,-0.024782993,0.005106582,0.23,0.93,0.31,33705,10134.6,0,0,3,0.07,-1.4,1.4,0.23,0.93,0.31
11.216797,-0.002976745,-0.024782993,0.003106582,0.23,0.94,0.31,33735,10135.2,0,0,3,0.14,-1.4,1.26,0.23,0.94,0.31
10.916992,0.002023256,-0.022782993,-0.001893417,0.23,0.93,0.3,33750,10134.9,0,0,3,0.49,-1.26,0.91,0.23,0.93,0.3
9.616211,0.002023256,-0.019782992,-0.006893417,0.23,0.93,0.31,33765,10133.6,0,0,3,0.49,-1.05,0.56,0.23,0.93,0.31
10.616211,2.33E-05,-0.020782992,-8.93E-04,0.23,0.94,0.3,33789,10134.6,0,0,3,0.35,-1.12,0.98,0.23,0.94,0.3
9.616211,0.014023257,-0.020782992,-8.93E-04,0.23,0.94,0.3,33810,10133.6,0,0,3,1.33,-1.12,0.98,0.23,0.94,0.3
9.916992,0.012023256,-0.021782994,-8.93E-04,0.23,0.94,0.3,33833,10133.9,0,0,3,1.19,-1.19,0.98,0.23,0.94,0.3
9.916992,2.33E-05,-0.020782992,-0.010893418,0.22,0.93,0.31,33855,10133.9,0,0,3,0.35,-1.12,0.28,0.22,0.93,0.31
9.916992,-0.007976744,-0.018782992,-0.009893417,0.23,0.93,0.3,33871,10133.9,0,0,3,-0.21,-0.98,0.35,0.23,0.93,0.3
10.916992,-0.008976745,-0.020782992,-0.005893418,0.23,0.94,0.3,33886,10134.9,0,0,3,-0.28,-1.12,0.63,0.23,0.94,0.3
10.616211,-0.009976745,-0.025782991,-0.002893418,0.23,0.94,0.29,33900,10134.6,0,0,3,-0.35,-1.47,0.84,0.23,0.94,0.29
12.916992,-0.005976745,-0.03478299,-0.003893417,0.23,0.94,0.3,33923,10136.9,0,0,3,-0.07,-2.1,0.77,0.23,0.94,0.3
13.916992,-0.008976745,-0.032782994,-0.004893418,0.24,0.94,0.3,33953,10137.9,0,0,3,-0.28,-1.96,0.7,0.24,0.94,0.3
14.916992,-0.008976745,-0.027782992,-0.009893417,0.23,0.93,0.3,33968,10138.9,0,0,3,-0.28,-1.61,0.35,0.23,0.93,0.3
16.916992,-9.77E-04,-0.02878299,-0.014893417,0.22,0.93,0.29,33990,10140.9,0,0,3,0.28,-1.68,0,0.22,0.93,0.29
15.916992,0.001023255,-0.035782993,-0.018893417,0.23,0.93,0.3,34012,10139.9,0,0,3,0.42,-2.17,-0.28,0.23,0.93,0.3
17.916992,-0.006976745,-0.037782993,-0.015893416,0.23,0.92,0.3,34035,10141.9,0,0,3,-0.14,-2.31,-0.07,0.23,0.92,0.3
15.916992,-0.016976744,-0.050782993,-0.005893418,0.23,0.92,0.31,34050,10139.9,0,0,3,-0.84,-3.22,0.63,0.23,0.92,0.31
13.916992,-0.021976747,-0.056782994,0.010106583,0.23,0.93,0.31,34073,10137.9,0,0,3,-1.19,-3.64,1.75,0.23,0.93,0.31
14.216797,-0.014976745,-0.059782993,0.020106584,0.23,0.94,0.31,34095,10138.2,0,0,3,-0.7,-3.85,2.45,0.23,0.94,0.31
13.916992,-0.006976745,-0.057782993,0.020106584,0.22,0.94,0.31,34110,10137.9,0,0,3,-0.14,-3.71,2.45,0.22,0.94,0.31
12.216797,2.33E-05,-0.048782993,0.015106582,0.22,0.94,0.31,34125,10136.2,0,0,3,0.35,-3.08,2.1,0.22,0.94,0.31
12.916992,0.002023256,-0.037782993,0.008106583,0.23,0.93,0.31,34149,10136.9,0,0,3,0.49,-2.31,1.61,0.23,0.93,0.31
12.916992,-9.77E-04,-0.023782995,0.003106582,0.22,0.93,0.31,34165,10136.9,0,0,3,0.28,-1.33,1.26,0.22,0.93,0.31
11.916992,0.002023256,-0.017782994,-8.93E-04,0.23,0.94,0.3,34185,10135.9,0,0,3,0.49,-0.91,0.98,0.23,0.94,0.3
10.916992,2.33E-05,-0.013782992,-0.001893417,0.23,0.93,0.3,34208,10134.9,0,0,3,0.35,-0.63,0.91,0.23,0.93,0.3
14.216797,-0.004976745,-0.006782993,0.004106584,0.23,0.93,0.3,34230,10138.2,0,0,3,0,-0.14,1.33,0.23,0.93,0.3
