Pressure_Rel,GyroX_Rel,GyroY_Rel,GyroZ_Rel,AccX_Rel,AccY_Rel,AccZ_Rel,Timestamp,Pressure_abs,HeartRate,Oxygen,Status,GyroX,GyroY,GyroZ,AccX,AccY,AccZ
0.0,0.0,0.0,0.0,0.0,0.0,0.0,4199,10082.50,0,0,2,-0.28,-1.54,-0.21,0.39,0.83,0.43
0.0,0.0,0.0,0.0,0.0,0.0,0.0,4214,10081.50,0,0,2,-0.77,-1.19,-0.35,0.39,0.84,0.42
0.0,0.0,0.0,0.0,0.0,0.0,0.0,4235,10082.50,0,0,2,-0.77,-1.12,-0.49,0.39,0.84,0.42
0.0,0.0,0.0,0.0,0.0,0.0,0.0,4243,10082.50,0,0,2,-0.14,-1.12,-0.63,0.39,0.84,0.42
0.0,0.0,0.0,0.0,0.0,0.0,0.0,4258,10081.50,0,0,2,0.00,-1.40,-0.63,0.39,0.84,0.42
0.0,0.0,0.0,0.0,0.0,0.0,0.0,4282,10081.50,0,0,2,0.00,-1.75,-0.56,0.39,0.84,0.42
0.0,0.0,0.0,0.0,0.0,0.0,0.0,4296,10081.80,0,0,2,0.07,-1.75,-0.70,0.39,0.83,0.42
0.0,0.0,0.0,0.0,0.0,0.0,0.0,4310,10082.50,0,0,2,-0.21,-1.68,-0.56,0.38,0.83,0.43
0.0,0.0,0.0,0.0,0.0,0.0,0.0,4325,10081.50,0,0,2,-0.35,-1.26,-0.35,0.38,0.83,0.42
0.0,0.0,0.0,0.0,0.0,0.0,0.0,4341,10082.50,0,0,2,-0.28,-0.77,-0.28,0.38,0.83,0.42
0.0,0.0,0.0,0.0,0.0,0.0,0.0,4364,10082.50,0,0,2,-0.63,-0.56,-0.21,0.38,0.84,0.42
0.0,0.0,0.0,0.0,0.0,0.0,0.0,4379,10082.50,0,0,3,-0.91,-0.70,-0.35,0.38,0.83,0.42
0.0,0.0,0.0,0.0,0.0,0.0,0.0,4401,10082.80,0,0,3,-1.61,-1.12,-0.07,0.39,0.84,0.42
0.0,0.0,0.0,0.0,0.0,0.0,0.0,4423,10082.80,0,0,3,-1.47,-1.68,-0.07,0.38,0.84,0.42
0.0,0.0,0.0,0.0,0.0,0.0,0.0,4446,10081.80,0,0,3,-1.40,-2.10,0.14,0.38,0.83,0.43
0.0,0.0,0.0,0.0,0.0,0.0,0.0,4468,10081.80,0,0,3,-1.47,-1.68,0.42,0.38,0.83,0.43
0.0,0.0,0.0,0.0,0.0,0.0,0.0,4491,10082.50,0,0,3,-1.05,-1.33,0.91,0.38,0.83,0.43
0.0,0.0,0.0,0.0,0.0,0.0,0.0,4514,10082.50,0,0,3,-0.91,-1.33,1.05,0.38,0.84,0.43
0.0,0.0,0.0,0.0,0.0,0.0,0.0,4529,10081.80,0,0,3,-0.84,-0.98,0.91,0.38,0.84,0.43
0.0,0.0,0.0,0.0,0.0,0.0,0.0,4543,10083.50,0,0,3,-0.77,-0.77,0.63,0.38,0.84,0.43
0.0,0.0,0.0,0.0,0.0,0.0,0.0,4558,10082.20,0,0,3,-0.56,-0.84,0.14,0.38,0.84,0.43
0.0,0.0,0.0,0.0,0.0,0.0,0.0,4574,10082.80,0,0,3,-0.28,-1.12,0.14,0.38,0.84,0.43
0.0,0.0,0.0,0.0,0.0,0.0,0.0,4597,10084.90,0,0,3,-0.14,-1.40,0.56,0.38,0.83,0.43
0.0,0.0,0.0,0.0,0.0,0.0,0.0,4619,10081.80,0,0,3,-0.28,-1.54,1.12,0.38,0.83,0.43
0.0,0.0,0.0,0.0,0.0,0.0,0.0,4642,10082.50,0,0,3,-0.14,-1.61,1.19,0.38,0.84,0.43
0.0,0.0,0.0,0.0,0.0,0.0,0.0,4664,10082.20,0,0,3,0.42,-1.54,0.98,0.38,0.84,0.42
0.0,0.0,0.0,0.0,0.0,0.0,0.0,4686,10083.20,0,0,3,0.42,-1.61,1.54,0.39,0.83,0.43
0.0,0.0,0.0,0.0,0.0,0.0,0.0,4709,10084.20,0,0,3,-0.42,-2.45,2.17,0.40,0.82,0.43
0.0,0.0,0.0,0.0,0.0,0.0,0.0,4723,10084.20,0,0,3,-0.98,-3.01,2.31,0.39,0.83,0.43
15.791016,0.0071872585,0.012457522,0.015021237,0.32,0.87,0.41,14758,10110.00,0,0,2,0.21,-1.19,1.33,0.32,0.87,0.41
11.691406,0.005187259,0.008457523,0.013021236,0.33,0.86,0.41,14784,10105.90,0,0,2,0.07,-1.47,1.19,0.33,0.86,0.41
14.491211,0.004187259,0.0074575227,0.017021235,0.33,0.87,0.41,14800,10108.70,0,0,2,0.00,-1.54,1.47,0.33,0.87,0.41
15.791016,0.008187259,0.0064575225,0.017021235,0.32,0.87,0.41,14810,10110.00,0,0,2,0.28,-1.61,1.47,0.32,0.87,0.41
15.791016,0.011187259,0.0074575227,0.016021235,0.32,0.87,0.41,14833,10110.00,0,0,2,0.49,-1.54,1.40,0.32,0.87,0.41
16.09082,0.010187259,0.010457521,0.014021235,0.32,0.87,0.41,14848,10110.30,0,0,2,0.42,-1.33,1.26,0.32,0.87,0.41
15.791016,0.012187259,0.016457522,0.0050212345,0.32,0.86,0.41,14879,10110.00,0,0,2,0.56,-0.91,0.63,0.32,0.86,0.41
16.791016,0.0021872588,0.015457522,0.0020212345,0.33,0.86,0.41,14893,10111.00,0,0,2,-0.14,-0.98,0.42,0.33,0.86,0.41
16.791016,-8.12741E-4,0.012457522,0.009021236,0.33,0.87,0.41,14909,10111.00,0,0,2,-0.35,-1.19,0.91,0.33,0.87,0.41
15.791016,1.872587E-4,0.009457523,0.014021235,0.33,0.87,0.41,14931,10110.00,0,0,2,-0.28,-1.40,1.26,0.33,0.87,0.41
15.791016,0.006187259,0.004457522,0.013021236,0.33,0.86,0.41,14953,10110.00,0,0,2,0.14,-1.75,1.19,0.33,0.86,0.41
14.791016,0.010187259,0.0014575217,0.010021236,0.32,0.86,0.41,14976,10109.00,0,0,2,0.42,-1.96,0.98,0.32,0.86,0.41
15.791016,0.005187259,0.0014575217,0.011021234,0.33,0.86,0.41,15001,10110.00,0,0,2,0.07,-1.96,1.05,0.33,0.86,0.41
15.09082,0.004187259,0.003457522,0.019021235,0.33,0.86,0.41,15028,10109.30,0,0,2,0.00,-1.82,1.61,0.33,0.86,0.41
18.191406,0.004187259,0.010457521,0.013021236,0.32,0.87,0.41,15035,10112.40,0,0,2,0.00,-1.33,1.19,0.32,0.87,0.41
11.09082,0.005187259,0.012457522,0.009021236,0.32,0.87,0.41,15058,10105.30,0,0,2,0.07,-1.19,0.91,0.32,0.87,0.41
13.791016,-0.0018127407,0.011457523,0.003021235,0.33,0.86,0.41,15074,10108.00,0,0,2,-0.42,-1.26,0.49,0.33,0.86,0.41
15.390625,-0.00781274,0.010457521,0.007021235,0.33,0.86,0.41,15088,10109.60,0,0,2,-0.84,-1.33,0.77,0.33,0.86,0.41
10.09082,-0.011812742,0.003457522,0.022021236,0.33,0.86,0.41,15111,10104.30,0,0,2,-1.12,-1.82,1.82,0.33,0.86,0.41
18.191406,-0.009812742,4.575234E-4,0.022021236,0.33,0.87,0.41,15135,10112.40,0,0,2,-0.98,-2.03,1.82,0.33,0.87,0.41
15.09082,-0.0048127407,-0.002542479,0.015021237,0.33,0.87,0.41,15162,10109.30,0,0,2,-0.63,-2.24,1.33,0.33,0.87,0.41
14.09082,0.0021872588,-0.0015424788,0.007021235,0.33,0.87,0.41,15171,10108.30,0,0,2,-0.14,-2.17,0.77,0.33,0.87,0.41
13.09082,0.0011872591,-5.424768E-4,0.010021236,0.33,0.86,0.42,15193,10107.30,0,0,2,-0.21,-2.10,0.98,0.33,0.86,0.42
14.390625,-0.0018127407,0.003457522,0.013021236,0.32,0.86,0.42,15218,10108.60,0,0,2,-0.42,-1.82,1.19,0.32,0.86,0.42
13.09082,-0.0048127407,0.003457522,0.010021236,0.32,0.86,0.42,15238,10107.30,0,0,2,-0.63,-1.82,0.98,0.32,0.86,0.42
13.390625,-0.005812741,0.0074575227,0.011021234,0.33,0.87,0.42,15260,10107.60,0,0,2,-0.70,-1.54,1.05,0.33,0.87,0.42
14.09082,-0.0038127415,0.015457522,0.016021235,0.33,0.87,0.41,15283,10108.30,0,0,2,-0.56,-0.98,1.40,0.33,0.87,0.41
13.390625,1.872587E-4,0.015457522,0.019021235,0.33,0.86,0.42,15305,10107.60,0,0,2,-0.28,-0.98,1.61,0.33,0.86,0.42
13.390625,-0.0018127407,0.014457523,0.021021236,0.33,0.86,0.42,15320,10107.60,0,0,2,-0.42,-1.05,1.75,0.33,0.86,0.42
14.09082,-0.0018127407,0.011457523,0.020021234,0.33,0.86,0.42,15336,10108.30,0,0,2,-0.42,-1.26,1.68,0.33,0.86,0.42
13.390625,0.0021872588,0.010457521,0.026021235,0.33,0.87,0.41,15358,10107.60,0,0,2,-0.14,-1.33,2.10,0.33,0.87,0.41
13.390625,0.0031872587,0.008457523,0.020021234,0.33,0.86,0.42,15387,10107.60,0,0,2,-0.07,-1.47,1.68,0.33,0.86,0.42
14.390625,0.0021872588,0.005457524,0.020021234,0.33,0.87,0.41,15400,10108.60,0,0,2,-0.14,-1.68,1.68,0.33,0.87,0.41
13.390625,0.006187259,0.008457523,0.023021236,0.33,0.86,0.41,15418,10107.60,0,0,2,0.14,-1.47,1.89,0.33,0.86,0.41
13.390625,0.008187259,0.011457523,0.021021236,0.32,0.87,0.42,15451,10107.60,0,0,2,0.28,-1.26,1.75,0.32,0.87,0.42
14.390625,0.0031872587,0.011457523,0.012021236,0.32,0.87,0.41,15463,10108.60,0,0,2,-0.07,-1.26,1.12,0.32,0.87,0.41
12.390625,0.0011872591,0.012457522,0.0050212345,0.33,0.86,0.41,15486,10106.60,0,0,2,-0.21,-1.19,0.63,0.33,0.86,0.41
12.390625,-0.0028127413,0.008457523,0.011021234,0.34,0.86,0.41,15500,10106.60,0,0,3,-0.49,-1.47,1.05,0.34,0.86,0.41
12.691406,1.872587E-4,0.003457522,0.017021235,0.33,0.87,0.42,15523,10106.90,0,0,3,-0.28,-1.82,1.47,0.33,0.87,0.42
11.09082,0.0071872585,-5.424768E-4,0.020021234,0.33,0.87,0.42,15546,10105.30,0,0,3,0.21,-2.10,1.68,0.33,0.87,0.42
12.390625,0.012187259,0.005457524,0.019021235,0.33,0.86,0.42,15569,10106.60,0,0,3,0.56,-1.68,1.61,0.33,0.86,0.42
11.691406,0.015187259,0.010457521,0.020021234,0.33,0.86,0.42,15583,10105.90,0,0,3,0.77,-1.33,1.68,0.33,0.86,0.42
11.691406,0.009187259,0.017457522,0.021021236,0.33,0.86,0.42,15605,10105.90,0,0,3,0.35,-0.84,1.75,0.33,0.86,0.42
12.691406,0.0071872585,0.024457522,0.019021235,0.33,0.87,0.41,15628,10106.90,0,0,3,0.21,-0.35,1.61,0.33,0.87,0.41
14.791016,0.006187259,0.022457521,0.013021236,0.33,0.86,0.41,15651,10109.00,0,0,3,0.14,-0.49,1.19,0.33,0.86,0.41
12.691406,-0.0018127407,0.017457522,0.012021236,0.33,0.86,0.41,15673,10106.90,0,0,3,-0.42,-0.84,1.12,0.33,0.86,0.41
12.09082,-0.008812741,0.013457522,0.023021236,0.33,0.86,0.41,15696,10106.30,0,0,3,-0.91,-1.12,1.89,0.33,0.86,0.41
13.791016,-0.009812742,0.010457521,0.021021236,0.33,0.87,0.41,15718,10108.00,0,0,3,-0.98,-1.33,1.75,0.33,0.87,0.41
13.791016,-0.00781274,0.0064575225,0.012021236,0.33,0.87,0.41,15740,10108.00,0,0,3,-0.84,-1.61,1.12,0.33,0.87,0.41
13.791016,-0.0028127413,0.0064575225,0.0050212345,0.33,0.87,0.41,15755,10108.00,0,0,3,-0.49,-1.61,0.63,0.33,0.87,0.41
15.09082,1.872587E-4,0.005457524,-9.787653E-4,0.33,0.87,0.41,15785,10109.30,0,0,3,-0.28,-1.68,0.21,0.33,0.87,0.41
13.791016,0.0031872587,0.003457522,-9.787653E-4,0.33,0.86,0.41,15801,10108.00,0,0,3,-0.07,-1.82,0.21,0.33,0.86,0.41
14.09082,0.0031872587,0.0024575219,-0.001978765,0.33,0.86,0.41,15815,10108.30,0,0,3,-0.07,-1.89,0.14,0.33,0.86,0.41
14.09082,0.0011872591,0.0074575227,0.0010212348,0.33,0.86,0.42,15830,10108.30,0,0,3,-0.21,-1.54,0.35,0.33,0.86,0.42
14.791016,-8.12741E-4,0.0074575227,0.0060212347,0.33,0.86,0.41,15853,10109.00,0,0,3,-0.35,-1.54,0.70,0.33,0.86,0.41
14.791016,0.0021872588,0.0064575225,0.015021237,0.33,0.86,0.41,15875,10109.00,0,0,3,-0.14,-1.61,1.33,0.33,0.86,0.41
15.09082,0.0021872588,0.0014575217,0.019021235,0.33,0.86,0.41,15897,10109.30,0,0,3,-0.14,-1.96,1.61,0.33,0.86,0.41
12.09082,0.0031872587,0.0014575217,0.019021235,0.33,0.86,0.41,15920,10106.30,0,0,3,-0.07,-1.96,1.61,0.33,0.86,0.41
14.791016,0.004187259,4.575234E-4,0.020021234,0.33,0.86,0.41,15943,10109.00,0,0,3,0.00,-2.03,1.68,0.33,0.86,0.41
15.791016,0.0031872587,0.0024575219,0.021021236,0.33,0.86,0.41,15966,10110.00,0,0,3,-0.07,-1.89,1.75,0.33,0.86,0.41
17.09082,-0.0028127413,0.004457522,0.020021234,0.33,0.87,0.41,15988,10111.30,0,0,3,-0.49,-1.75,1.68,0.33,0.87,0.41
15.09082,-8.12741E-4,4.575234E-4,0.017021235,0.33,0.87,0.41,16010,10109.30,0,0,3,-0.35,-2.03,1.47,0.33,0.87,0.41
15.09082,0.0021872588,4.575234E-4,0.015021237,0.33,0.87,0.41,16025,10109.30,0,0,3,-0.14,-2.03,1.33,0.33,0.87,0.41
14.09082,0.0021872588,0.0014575217,0.013021236,0.33,0.86,0.41,16048,10108.30,0,0,3,-0.14,-1.96,1.19,0.33,0.86,0.41
13.390625,-0.0028127413,0.005457524,0.012021236,0.33,0.86,0.41,16071,10107.60,0,0,3,-0.49,-1.68,1.12,0.33,0.86,0.41
16.09082,-0.009812742,0.005457524,0.009021236,0.33,0.86,0.41,16086,10110.30,0,0,3,-0.98,-1.68,0.91,0.33,0.86,0.41
14.09082,-0.009812742,0.004457522,0.0060212347,0.34,0.87,0.41,16108,10108.30,0,0,3,-0.98,-1.75,0.70,0.34,0.87,0.41
15.09082,-8.12741E-4,0.004457522,0.007021235,0.33,0.87,0.41,16123,10109.30,0,0,3,-0.35,-1.75,0.77,0.33,0.87,0.41
15.09082,0.0011872591,0.0024575219,0.011021234,0.33,0.86,0.41,16160,10109.30,0,0,3,-0.21,-1.89,1.05,0.33,0.86,0.41
14.09082,0.0021872588,0.004457522,0.008021234,0.33,0.86,0.41,16175,10108.30,0,0,3,-0.14,-1.75,0.84,0.33,0.86,0.41
15.390625,-8.12741E-4,0.0074575227,0.0010212348,0.33,0.86,0.42,16190,10109.60,0,0,3,-0.35,-1.54,0.35,0.33,0.86,0.42
15.09082,-0.0018127407,0.010457521,2.1235086E-5,0.33,0.86,0.41,16213,10109.30,0,0,3,-0.42,-1.33,0.28,0.33,0.86,0.41
13.09082,0.0031872587,0.015457522,0.0040212353,0.33,0.86,0.42,16235,10107.30,0,0,3,-0.07,-0.98,0.56,0.33,0.86,0.42
15.390625,-0.0028127413,0.015457522,0.0050212345,0.33,0.85,0.42,16258,10109.60,0,0,3,-0.49,-0.98,0.63,0.33,0.85,0.42
15.09082,-0.011812742,0.017457522,0.014021235,0.34,0.86,0.42,16281,10109.30,0,0,3,-1.12,-0.84,1.26,0.34,0.86,0.42
10.390625,-0.010812741,0.016457522,0.015021237,0.33,0.87,0.41,16303,10104.60,0,0,3,-1.05,-0.91,1.33,0.33,0.87,0.41
14.09082,-0.006812741,0.013457522,0.0050212345,0.33,0.87,0.42,16325,10108.30,0,0,3,-0.77,-1.12,0.63,0.33,0.87,0.42
15.09082,-0.0018127407,0.013457522,-0.001978765,0.33,0.86,0.41,16341,10109.30,0,0,3,-0.42,-1.12,0.14,0.33,0.86,0.41
14.390625,-8.12741E-4,0.014457523,2.1235086E-5,0.33,0.86,0.42,16363,10108.60,0,0,3,-0.35,-1.05,0.28,0.33,0.86,0.42
13.390625,0.0011872591,0.016457522,0.008021234,0.33,0.86,0.42,16385,10107.60,0,0,3,-0.21,-0.91,0.84,0.33,0.86,0.42
14.09082,-8.12741E-4,0.022457521,0.012021236,0.33,0.86,0.42,16400,10108.30,0,0,3,-0.35,-0.49,1.12,0.33,0.86,0.42
12.390625,0.006187259,0.026457522,0.011021234,0.33,0.86,0.42,16423,10106.60,0,0,3,0.14,-0.21,1.05,0.33,0.86,0.42
11.390625,0.0071872585,0.029457523,0.011021234,0.33,0.86,0.42,16446,10105.60,0,0,3,0.21,0.00,1.05,0.33,0.86,0.42
10.390625,0.005187259,0.03145752,0.016021235,0.34,0.86,0.42,16467,10104.60,0,0,3,0.07,0.14,1.40,0.34,0.86,0.42
12.390625,0.0031872587,0.03345752,0.025021235,0.33,0.85,0.42,16490,10106.60,0,0,3,-0.07,0.28,2.03,0.33,0.85,0.42
9.390625,-0.005812741,0.026457522,0.020021234,0.34,0.87,0.42,16513,10103.60,0,0,3,-0.70,-0.21,1.68,0.34,0.87,0.42
9.691406,0.0011872591,0.0074575227,0.014021235,0.35,0.87,0.42,16535,10103.90,0,0,3,-0.21,-1.54,1.26,0.35,0.87,0.42
8.390625,0.012187259,-0.020542478,0.011021234,0.35,0.88,0.42,16557,10102.60,0,0,3,0.56,-3.50,1.05,0.35,0.88,0.42
7.6914062,0.03218726,-0.044542477,0.009021236,0.34,0.89,0.42,16572,10101.90,0,0,3,1.96,-5.18,0.91,0.34,0.89,0.42
7.2910156,0.05118726,-0.05654248,0.0010212348,0.34,0.88,0.43,16588,10101.50,0,0,3,3.29,-6.02,0.35,0.34,0.88,0.43
7.6914062,0.07918726,-0.048542477,-9.787653E-4,0.33,0.87,0.44,16611,10101.90,0,0,3,5.25,-5.46,0.21,0.33,0.87,0.44
7.6914062,0.09118726,-0.02654248,-0.008978765,0.33,0.87,0.45,16633,10101.90,0,0,3,6.09,-3.92,-0.35,0.33,0.87,0.45
7.991211,0.10818726,0.008457523,0.25102124,0.33,0.87,0.45,16655,10102.20,0,0,3,7.28,-1.47,17.85,0.33,0.87,0.45
6.991211,0.12818727,0.036457524,-0.001978765,0.33,0.87,0.45,16678,10101.20,0,0,3,8.68,0.49,0.14,0.33,0.87,0.45
6.6914062,0.15818726,0.062457524,-9.787653E-4,0.32,0.87,0.45,16694,10100.90,0,0,3,10.78,2.31,0.21,0.32,0.87,0.45
6.6914062,0.17918725,0.09345753,0.012021236,0.33,0.85,0.45,16716,10100.90,0,0,3,12.25,4.48,1.12,0.33,0.85,0.45
6.6914062,0.20418726,0.14745753,0.052021235,0.32,0.84,0.45,16738,10100.90,0,0,3,14.00,8.26,3.92,0.32,0.84,0.45
5.6914062,0.22518726,0.21145752,0.09102123,0.33,0.84,0.44,16760,10099.90,0,0,3,15.47,12.74,6.65,0.33,0.84,0.44
5.6914062,0.24418725,0.2564575,0.10902123,0.33,0.85,0.43,16783,10099.90,0,0,3,16.80,15.89,7.91,0.33,0.85,0.43
5.991211,0.25918725,0.27745754,0.11002123,0.34,0.86,0.41,16806,10100.20,0,0,3,17.85,17.36,7.98,0.34,0.86,0.41
4.5908203,0.26318723,0.26445752,0.111021236,0.36,0.86,0.4,16821,10098.80,0,0,3,18.13,16.45,8.05,0.36,0.86,0.40
5.991211,0.25818726,0.22945753,0.10902123,0.37,0.86,0.4,16835,10100.20,0,0,3,17.78,14.00,7.91,0.37,0.86,0.40
5.991211,0.24818726,0.18745753,0.12702124,0.36,0.87,0.4,16857,10100.20,0,0,3,17.08,11.06,9.17,0.36,0.87,0.40
4.991211,0.25818726,0.16445751,0.14302124,0.35,0.88,0.4,16880,10099.20,0,0,3,17.78,9.45,10.29,0.35,0.88,0.40
4.5908203,0.27618727,0.16345753,0.14202124,0.34,0.87,0.39,16903,10098.80,0,0,3,19.04,9.38,10.22,0.34,0.87,0.39
4.5908203,0.28118724,0.15945753,0.13302125,0.34,0.87,0.38,16925,10098.80,0,0,3,19.39,9.10,9.59,0.34,0.87,0.38
3.5908203,0.27118728,0.13745752,0.12302124,0.35,0.87,0.37,16948,10097.80,0,0,3,18.69,7.56,8.89,0.35,0.87,0.37
3.991211,0.26618725,0.12345752,0.13702124,0.35,0.88,0.36,16970,10098.20,0,0,3,18.34,6.58,9.87,0.35,0.88,0.36
2.2910156,0.26618725,0.12645753,0.16502124,0.34,0.87,0.36,16993,10096.50,0,0,3,18.34,6.79,11.83,0.34,0.87,0.36
5.991211,0.26818725,0.15645753,0.17702124,0.31,0.87,0.37,17015,10100.20,0,0,3,18.48,8.89,12.67,0.31,0.87,0.37
5.991211,0.26518726,0.20145753,0.17402124,0.31,0.88,0.35,17034,10100.20,0,0,3,18.27,12.04,12.46,0.31,0.88,0.35
4.991211,0.26418728,0.24245752,0.16502124,0.33,0.89,0.34,17053,10099.20,0,0,3,18.20,14.91,11.83,0.33,0.89,0.34
3.991211,0.26318723,0.25745752,0.15602124,0.34,0.88,0.33,17075,10098.20,0,0,3,18.13,15.96,11.20,0.34,0.88,0.33
5.2910156,0.26018727,0.26445752,0.15502124,0.35,0.88,0.33,17090,10099.50,0,0,3,17.92,16.45,11.13,0.35,0.88,0.33
5.2910156,0.25618726,0.27345753,0.17002125,0.34,0.89,0.33,17106,10099.50,0,0,3,17.64,17.08,12.18,0.34,0.89,0.33
5.991211,0.26618725,0.2994575,0.18202125,0.34,0.9,0.32,17128,10100.20,0,0,3,18.34,18.90,13.02,0.34,0.90,0.32
2.890625,0.28618726,0.3434575,0.18402123,0.33,0.91,0.32,17151,10097.10,0,0,3,19.74,21.98,13.16,0.33,0.91,0.32
4.991211,0.31518728,0.41745752,0.18702124,0.32,0.91,0.33,17173,10099.20,0,0,3,21.77,27.16,13.37,0.32,0.91,0.33
5.2910156,0.35418725,0.51845753,0.20002124,0.3,0.92,0.33,17196,10099.50,0,0,3,24.50,34.23,14.28,0.30,0.92,0.33
4.2910156,0.41118726,0.6974575,0.23202124,0.28,0.92,0.36,17218,10098.50,0,0,3,28.49,46.76,16.52,0.28,0.92,0.36
6.2910156,0.46718726,0.91145754,0.26302126,0.27,0.93,0.36,17240,10100.50,0,0,3,32.41,61.74,18.69,0.27,0.93,0.36
7.2910156,0.5311873,1.1324576,0.27202123,0.26,0.94,0.33,17255,10101.50,0,0,3,36.89,77.21,19.32,0.26,0.94,0.33
0.19140625,0.59518725,1.3604575,0.26102123,0.25,0.95,0.34,17279,10094.40,0,0,3,41.37,93.17,18.55,0.25,0.95,0.34
5.2910156,0.6731873,1.6774576,0.28102124,0.22,0.95,0.36,17301,10099.50,0,0,3,46.83,115.36,19.95,0.22,0.95,0.36
4.5908203,0.7401873,1.9424577,0.32102123,0.22,0.92,0.39,17323,10098.80,0,0,3,51.52,133.91,22.75,0.22,0.92,0.39
4.2910156,0.7881873,2.2214577,0.37702125,0.23,0.9,0.41,17337,10098.50,0,0,3,54.88,153.44,26.67,0.23,0.90,0.41
5.2910156,0.83418727,2.5404577,0.42102125,0.24,0.9,0.4,17361,10099.50,0,0,3,58.10,175.77,29.75,0.24,0.90,0.40
6.2910156,0.89018726,2.7884576,0.45602125,0.27,0.9,0.4,17376,10100.50,0,0,3,62.02,193.13,32.20,0.27,0.90,0.40
3.2910156,0.95518726,2.9984577,0.4890212,0.31,0.88,0.4,17399,10097.50,0,0,3,66.57,207.83,34.51,0.31,0.88,0.40
6.2910156,0.96418726,3.0774577,0.49702123,0.36,0.87,0.38,17421,10100.50,0,0,3,67.20,213.36,35.07,0.36,0.87,0.38
6.991211,0.93318725,3.0704575,0.49002126,0.37,0.89,0.37,17442,10101.20,0,0,3,65.03,212.87,34.58,0.37,0.89,0.37
5.2910156,0.93318725,2.9834576,0.43502122,0.38,0.91,0.31,17465,10099.50,0,0,3,65.03,206.78,30.73,0.38,0.91,0.31
8.291016,0.9131873,2.7844577,0.36702123,0.42,0.89,0.29,17487,10102.50,0,0,3,63.63,192.85,25.97,0.42,0.89,0.29
7.6914062,0.9131873,2.5934575,0.38802126,0.41,0.89,0.3,17510,10101.90,0,0,3,63.63,179.48,27.44,0.41,0.89,0.30
11.390625,0.9251873,2.4724574,0.46302122,0.37,0.89,0.31,17540,10105.60,0,0,3,64.47,171.01,32.69,0.37,0.89,0.31
10.390625,0.89018726,2.3524575,0.5070212,0.35,0.87,0.3,17556,10104.60,0,0,3,62.02,162.61,35.77,0.35,0.87,0.30
11.390625,0.8571873,2.2894576,0.54502124,0.31,0.87,0.32,17571,10105.60,0,0,3,59.71,158.20,38.43,0.31,0.87,0.32
13.390625,0.8151873,2.2584577,0.5610212,0.27,0.88,0.34,17601,10107.60,0,0,3,56.77,156.03,39.55,0.27,0.88,0.34
14.691406,0.7521873,2.2604575,0.5460212,0.26,0.87,0.35,17608,10108.90,0,0,3,52.36,156.17,38.50,0.26,0.87,0.35
15.791016,0.6671873,2.2724576,0.5240212,0.27,0.86,0.34,17630,10110.00,0,0,3,46.41,157.01,36.96,0.27,0.86,0.34
12.691406,0.6041873,2.2964575,0.5420212,0.28,0.87,0.31,17653,10106.90,0,0,3,42.00,158.69,38.22,0.28,0.87,0.31
23.890625,0.52118725,2.2774575,0.5430212,0.3,0.87,0.31,17675,10118.10,0,0,3,36.19,157.36,38.29,0.30,0.87,0.31
18.791016,0.43518725,2.2004576,0.50802124,0.3,0.89,0.28,17698,10113.00,0,0,3,30.17,151.97,35.84,0.30,0.89,0.28
18.791016,0.37818727,2.0834575,0.47402123,0.3,0.89,0.28,17713,10113.00,0,0,3,26.18,143.78,33.46,0.30,0.89,0.28
21.791016,0.31318724,1.9554577,0.43602124,0.31,0.9,0.26,17735,10116.00,0,0,3,21.63,134.82,30.80,0.31,0.90,0.26
22.791016,0.23018725,1.7564576,0.37802124,0.32,0.9,0.24,17757,10117.00,0,0,3,15.82,120.89,26.74,0.32,0.90,0.24
21.791016,0.16418725,1.5414575,0.33802125,0.33,0.91,0.22,17781,10116.00,0,0,3,11.20,105.84,23.94,0.33,0.91,0.22
21.49121,0.09418726,1.2884575,0.30702126,0.32,0.91,0.22,17817,10115.70,0,0,3,6.30,88.13,21.77,0.32,0.91,0.22
22.791016,0.052187257,1.0894575,0.28202125,0.31,0.94,0.23,17818,10117.00,0,0,3,3.36,74.20,20.02,0.31,0.94,0.23
23.890625,0.029187258,0.9054575,0.25102124,0.3,0.95,0.24,17832,10118.10,0,0,3,1.75,61.32,17.85,0.30,0.95,0.24
21.791016,0.020187259,0.6924575,0.21102124,0.27,0.98,0.25,17855,10116.00,0,0,3,1.12,46.41,15.05,0.27,0.98,0.25
22.791016,0.05618726,0.55045754,0.17402124,0.22,1.0,0.29,17878,10117.00,0,0,3,3.64,36.47,12.46,0.22,1.00,0.29
20.791016,0.09618726,0.5004575,0.12402124,0.19,1.0,0.32,17900,10115.00,0,0,3,6.44,32.97,8.96,0.19,1.00,0.32
20.791016,0.14018726,0.51145756,0.09502123,0.17,0.99,0.34,17923,10115.00,0,0,3,9.52,33.74,6.93,0.17,0.99,0.34
20.791016,0.18218726,0.5694575,0.07502124,0.15,0.97,0.35,17945,10115.00,0,0,3,12.46,37.80,5.53,0.15,0.97,0.35
21.791016,0.18618725,0.62345755,0.05402123,0.17,0.94,0.34,17975,10116.00,0,0,3,12.74,41.58,4.06,0.17,0.94,0.34
20.791016,0.15318726,0.6454575,0.07102124,0.18,0.9,0.34,17990,10115.00,0,0,3,10.43,43.12,5.25,0.18,0.90,0.34
21.09082,0.09118726,0.6544575,0.13702124,0.21,0.85,0.34,18013,10115.30,0,0,3,6.09,43.75,9.87,0.21,0.85,0.34
20.09082,-0.043812737,0.5914575,0.21302123,0.24,0.83,0.31,18035,10114.30,0,0,3,-3.36,39.34,15.19,0.24,0.83,0.31
20.09082,-0.14281274,0.4944575,0.27702123,0.23,0.91,0.27,18050,10114.30,0,0,3,-10.29,32.55,19.67,0.23,0.91,0.27
20.09082,-0.13181275,0.42245752,0.30402124,0.22,1.0,0.24,18080,10114.30,0,0,3,-9.52,27.51,21.56,0.22,1.00,0.24
19.09082,-0.069812745,0.3374575,0.28102124,0.22,1.07,0.2,18087,10113.30,0,0,3,-5.18,21.56,19.95,0.22,1.07,0.20
22.191406,0.04918726,0.18045752,0.15002124,0.22,1.15,0.13,18110,10116.40,0,0,3,3.15,10.57,10.78,0.22,1.15,0.13
21.09082,0.20718725,0.021457523,-0.010978766,0.21,1.11,0.15,18133,10115.30,0,0,3,14.21,-0.56,-0.49,0.21,1.11,0.15
23.191406,0.28718725,-0.09954247,-0.12897876,0.19,1.0,0.26,18163,10117.40,0,0,3,19.81,-9.03,-8.75,0.19,1.00,0.26
20.791016,0.26918724,-0.12854248,-0.17197876,0.18,0.9,0.35,18178,10115.00,0,0,3,18.55,-11.06,-11.76,0.18,0.90,0.35
21.49121,0.16018726,-0.08554248,-0.12697875,0.16,0.83,0.41,18193,10115.70,0,0,3,10.92,-8.05,-8.61,0.16,0.83,0.41
21.09082,0.05018726,0.003457522,0.0020212345,0.16,0.83,0.42,18223,10115.30,0,0,3,3.22,-1.82,0.42,0.16,0.83,0.42
22.191406,-0.033812743,0.09145752,0.118021235,0.18,0.87,0.38,18237,10116.40,0,0,3,-2.66,4.34,8.54,0.18,0.87,0.38
19.09082,-0.073812746,0.13145752,0.19502124,0.21,0.91,0.31,18267,10113.30,0,0,3,-5.46,7.14,13.93,0.21,0.91,0.31
20.09082,-0.05481274,0.14645751,0.22202124,0.22,0.95,0.27,18282,10114.30,0,0,3,-4.13,8.19,15.82,0.22,0.95,0.27
21.09082,0.0021872588,0.15245752,0.18602124,0.23,0.98,0.26,18313,10115.30,0,0,3,-0.14,8.61,13.30,0.23,0.98,0.26
20.49121,0.02118726,0.13245752,0.11902123,0.24,0.99,0.26,18320,10114.70,0,0,3,1.19,7.21,8.61,0.24,0.99,0.26
20.09082,-0.005812741,0.07545752,0.056021232,0.25,0.97,0.25,18335,10114.30,0,0,3,-0.70,3.22,4.20,0.25,0.97,0.25
21.09082,0.009187259,0.0064575225,-0.027978763,0.24,0.98,0.23,18357,10115.30,0,0,3,0.35,-1.61,-1.68,0.24,0.98,0.23
23.191406,-0.02481274,-0.09754248,-0.07897877,0.2,1.02,0.27,18380,10117.40,0,0,3,-2.03,-8.89,-5.25,0.20,1.02,0.27
18.390625,-0.033812743,-0.15454248,-0.13397877,0.17,0.96,0.3,18403,10112.60,0,0,3,-2.66,-12.88,-9.10,0.17,0.96,0.30
23.49121,-0.00781274,-0.13354248,-0.13097876,0.14,0.94,0.32,18425,10117.70,0,0,3,-0.84,-11.41,-8.89,0.14,0.94,0.32
23.191406,0.011187259,-0.04154247,-0.07997877,0.13,0.92,0.32,18450,10117.40,0,0,3,0.49,-4.97,-5.32,0.13,0.92,0.32
24.191406,0.04118726,0.025457522,-0.019978765,0.13,0.91,0.32,18464,10118.40,0,0,3,2.59,-0.28,-1.12,0.13,0.91,0.32
23.49121,0.04618726,0.084457524,0.032021232,0.15,0.91,0.33,18485,10117.70,0,0,3,2.94,3.85,2.52,0.15,0.91,0.33
18.390625,0.05718726,0.12845752,0.07502124,0.19,0.91,0.3,18507,10112.60,0,0,3,3.71,6.93,5.53,0.19,0.91,0.30
24.49121,0.03518726,0.13345753,0.09802123,0.2,0.92,0.26,18530,10118.70,0,0,3,2.17,7.28,7.14,0.20,0.92,0.26
24.890625,-0.033812743,0.096457526,0.096021235,0.21,0.94,0.29,18552,10119.10,0,0,3,-2.66,4.69,7.00,0.21,0.94,0.29
21.49121,-0.01581274,0.07545752,0.08602124,0.22,0.94,0.28,18568,10115.70,0,0,3,-1.40,3.22,6.30,0.22,0.94,0.28
17.791016,-0.033812743,0.054457523,0.06902123,0.22,0.92,0.29,18582,10112.00,0,0,3,-2.66,1.75,5.11,0.22,0.92,0.29
21.49121,-0.09381275,0.04245752,0.06502123,0.22,0.93,0.31,18613,10115.70,0,0,3,-6.86,0.91,4.83,0.22,0.93,0.31
23.49121,-0.099812746,0.05345752,0.060021237,0.2,0.95,0.32,18627,10117.70,0,0,3,-7.28,1.68,4.48,0.20,0.95,0.32
21.49121,-0.09181274,0.06945752,0.038021233,0.2,0.96,0.31,18650,10115.70,0,0,3,-6.72,2.80,2.94,0.20,0.96,0.31
15.691406,-0.08381274,0.07545752,0.016021235,0.22,0.95,0.31,18672,10109.90,0,0,3,-6.16,3.22,1.40,0.22,0.95,0.31
18.791016,-0.069812745,0.074457526,0.0050212345,0.21,0.96,0.3,18695,10113.00,0,0,3,-5.18,3.15,0.63,0.21,0.96,0.30
19.09082,-0.027812742,0.06545752,2.1235086E-5,0.22,0.97,0.3,18717,10113.30,0,0,3,-2.24,2.52,0.28,0.22,0.97,0.30
20.791016,0.009187259,0.04445752,0.0020212345,0.23,0.94,0.3,18740,10115.00,0,0,3,0.35,1.05,0.42,0.23,0.94,0.30
20.09082,0.03018726,0.023457523,0.015021237,0.23,0.95,0.3,18755,10114.30,0,0,3,1.82,-0.42,1.33,0.23,0.95,0.30
21.791016,0.04318726,4.575234E-4,0.030021237,0.22,0.95,0.29,18777,10116.00,0,0,3,2.73,-2.03,2.38,0.22,0.95,0.29
21.791016,0.03618726,-0.037542477,0.018021235,0.22,0.94,0.29,18799,10116.00,0,0,3,2.24,-4.69,1.54,0.22,0.94,0.29
23.49121,0.028187256,-0.05254247,0.016021235,0.22,0.93,0.29,18823,10117.70,0,0,3,1.68,-5.74,1.40,0.22,0.93,0.29
17.390625,0.023187261,-0.054542474,0.027021237,0.21,0.92,0.31,18842,10111.60,0,0,3,1.33,-5.88,2.17,0.21,0.92,0.31
23.791016,0.010187259,-0.040542476,0.051021233,0.21,0.93,0.3,18860,10118.00,0,0,3,0.42,-4.90,3.85,0.21,0.93,0.30
24.890625,-0.00781274,-0.037542477,0.053021234,0.2,0.93,0.29,18875,10119.10,0,0,3,-0.84,-4.69,3.99,0.20,0.93,0.29
25.49121,-0.016812742,-0.04554248,0.041021235,0.21,0.94,0.28,18898,10119.70,0,0,3,-1.47,-5.25,3.15,0.21,0.94,0.28
24.791016,-0.016812742,-0.053542472,0.032021232,0.22,0.94,0.28,18928,10119.00,0,0,3,-1.47,-5.81,2.52,0.22,0.94,0.28
23.791016,-0.01981274,-0.061542474,0.024021236,0.22,0.93,0.29,18942,10118.00,0,0,3,-1.68,-6.37,1.96,0.22,0.93,0.29
23.791016,-0.03581274,-0.07154248,0.018021235,0.21,0.94,0.29,18968,10118.00,0,0,3,-2.80,-7.07,1.54,0.21,0.94,0.29
23.791016,-0.03081274,-0.06754248,0.009021236,0.2,0.95,0.3,18988,10118.00,0,0,3,-2.45,-6.79,0.91,0.20,0.95,0.30
23.191406,-0.01981274,-0.05654248,-0.008978765,0.21,0.95,0.31,19011,10117.40,0,0,3,-1.68,-6.02,-0.35,0.21,0.95,0.31
23.791016,-0.036812738,-0.047542475,-0.024978764,0.23,0.93,0.31,19035,10118.00,0,0,3,-2.87,-5.39,-1.47,0.23,0.93,0.31
26.890625,-0.059812743,-0.061542474,-0.023978764,0.23,0.93,0.3,19055,10121.10,0,0,3,-4.48,-6.37,-1.40,0.23,0.93,0.30
24.49121,-0.05881274,-0.09054247,-0.029978765,0.23,0.95,0.29,19070,10118.70,0,0,3,-4.41,-8.40,-1.82,0.23,0.95,0.29
23.791016,-0.051812742,-0.122542486,-0.04197877,0.23,0.95,0.28,19088,10118.00,0,0,3,-3.92,-10.64,-2.66,0.23,0.95,0.28
23.791016,-0.05381274,-0.16554247,-0.058978766,0.23,0.94,0.3,19100,10118.00,0,0,3,-4.06,-13.65,-3.85,0.23,0.94,0.30
24.890625,-0.059812743,-0.19254248,-0.06797877,0.23,0.94,0.3,19138,10119.10,0,0,3,-4.48,-15.54,-4.48,0.23,0.94,0.30
24.191406,-0.05681274,-0.21554247,-0.072978765,0.22,0.96,0.3,19149,10118.40,0,0,3,-4.27,-17.15,-4.83,0.22,0.96,0.30
24.791016,-0.040812742,-0.23154248,-0.09597877,0.21,0.95,0.31,19162,10119.00,0,0,3,-3.15,-18.27,-6.44,0.21,0.95,0.31
24.191406,-0.02481274,-0.21654247,-0.10697877,0.2,0.94,0.33,19183,10118.40,0,0,3,-2.03,-17.22,-7.21,0.20,0.94,0.33
25.191406,-0.016812742,-0.17354247,-0.10197877,0.2,0.93,0.34,19205,10119.40,0,0,3,-1.47,-14.21,-6.86,0.20,0.93,0.34
25.191406,-0.027812742,-0.14854248,-0.094978765,0.21,0.92,0.34,19228,10119.40,0,0,3,-2.24,-12.46,-6.37,0.21,0.92,0.34
26.890625,-0.05081274,-0.14754248,-0.07197877,0.23,0.91,0.34,19257,10121.10,0,0,3,-3.85,-12.39,-4.76,0.23,0.91,0.34
24.191406,-0.05681274,-0.13654247,-0.025978765,0.23,0.91,0.35,19272,10118.40,0,0,3,-4.27,-11.62,-1.54,0.23,0.91,0.35
25.191406,-0.07281274,-0.13154249,0.025021235,0.24,0.88,0.36,19295,10119.40,0,0,3,-5.39,-11.27,2.03,0.24,0.88,0.36
25.191406,-0.13981274,-0.13854247,0.08202124,0.25,0.84,0.39,19318,10119.40,0,0,3,-10.08,-11.76,6.02,0.25,0.84,0.39
25.191406,-0.21281274,-0.14954247,0.11502123,0.27,0.81,0.4,19333,10119.40,0,0,3,-15.19,-12.53,8.33,0.27,0.81,0.40
25.49121,-0.30581275,-0.18454246,0.15002124,0.29,0.83,0.37,19348,10119.70,0,0,3,-21.70,-14.98,10.78,0.29,0.83,0.37
25.191406,-0.36981276,-0.3105425,0.12002124,0.31,0.96,0.26,19370,10119.40,0,0,3,-26.18,-23.80,8.68,0.31,0.96,0.26
25.49121,-0.32581276,-0.54654247,-0.015978765,0.35,1.03,0.2,19400,10119.70,0,0,3,-23.10,-40.32,-0.84,0.35,1.03,0.20
25.191406,-0.20781274,-0.8065425,-0.16497877,0.37,1.08,0.18,19423,10119.40,0,0,3,-14.84,-58.52,-11.27,0.37,1.08,0.18
25.49121,-0.12381275,-1.1895424,-0.37197876,0.36,1.12,0.16,19445,10119.70,0,0,3,-8.96,-85.33,-25.76,0.36,1.12,0.16
25.191406,-0.12881275,-1.6355425,-0.6639788,0.38,1.07,0.17,19460,10119.40,0,0,3,-9.31,-116.55,-46.20,0.38,1.07,0.17
26.191406,-0.24681273,-2.1585424,-0.9479788,0.43,0.91,0.25,19483,10120.40,0,0,3,-17.57,-153.16,-66.08,0.43,0.91,0.25
30.59082,-0.44981274,-2.5545425,-1.0549787,0.44,0.78,0.31,19497,10124.80,0,0,3,-31.78,-180.88,-73.57,0.44,0.78,0.31
27.191406,-0.69181275,-2.8765423,-1.0619787,0.43,0.71,0.37,19520,10121.40,0,0,3,-48.72,-203.42,-74.06,0.43,0.71,0.37
26.890625,-0.91581273,-3.1175423,-0.97797877,0.4,0.7,0.41,19543,10121.10,0,0,3,-64.40,-220.29,-68.18,0.40,0.70,0.41
27.49121,-1.0638129,-3.2555423,-0.89697874,0.38,0.7,0.43,19557,10121.70,0,0,3,-74.76,-229.95,-62.51,0.38,0.70,0.43
20.49121,-1.1808127,-3.3535423,-0.8049788,0.37,0.71,0.45,19572,10114.70,0,0,3,-82.95,-236.81,-56.07,0.37,0.71,0.45
28.191406,-1.2828127,-3.4175422,-0.6869788,0.37,0.71,0.48,19595,10122.40,0,0,3,-90.09,-241.29,-47.81,0.37,0.71,0.48
28.59082,-1.3928127,-3.4575424,-0.5079788,0.36,0.73,0.52,19617,10122.80,0,0,3,-97.79,-244.09,-35.28,0.36,0.73,0.52
28.59082,-1.5158128,-3.4415424,-0.33097875,0.37,0.72,0.56,19640,10122.80,0,0,3,-106.40,-242.97,-22.89,0.37,0.72,0.56
28.59082,-1.5918128,-3.4125426,-0.17897876,0.34,0.8,0.52,19656,10122.80,0,0,3,-111.72,-240.94,-12.25,0.34,0.80,0.52
28.59082,-1.5618128,-3.3245425,-0.13097876,0.32,0.83,0.52,19678,10122.80,0,0,3,-109.62,-234.78,-8.89,0.32,0.83,0.52
24.49121,-1.4778128,-3.1855426,-0.13497876,0.32,0.86,0.55,19700,10118.70,0,0,3,-103.74,-225.05,-9.17,0.32,0.86,0.55
33.59082,-1.3668128,-3.0085425,-0.23197876,0.29,0.96,0.52,19723,10127.80,0,0,3,-95.97,-212.66,-15.96,0.29,0.96,0.52
31.191406,-1.1848128,-2.7765424,-0.38597876,0.28,1.0,0.5,19745,10125.40,0,0,3,-83.23,-196.42,-26.74,0.28,1.00,0.50
30.890625,-0.9468127,-2.5115423,-0.6179788,0.24,1.08,0.45,19775,10125.10,0,0,3,-66.57,-177.87,-42.98,0.24,1.08,0.45
28.890625,-0.5738127,-2.1695423,-0.9059788,0.2,1.2,0.37,19790,10123.10,0,0,3,-40.46,-153.93,-63.14,0.20,1.20,0.37
28.59082,-0.16281274,-1.9265424,-1.1499788,0.27,1.18,0.39,19805,10122.80,0,0,3,-11.69,-136.92,-80.22,0.27,1.18,0.39
26.890625,0.16918726,-1.6935425,-1.3519788,0.35,1.11,0.43,19820,10121.10,0,0,3,11.55,-120.61,-94.36,0.35,1.11,0.43
27.890625,0.33818725,-1.5235424,-1.4599787,0.43,0.94,0.5,19834,10122.10,0,0,3,23.38,-108.71,-101.92,0.43,0.94,0.50
27.890625,0.32518724,-1.3685424,-1.3739787,0.46,0.78,0.51,19858,10122.10,0,0,3,22.47,-97.86,-95.90,0.46,0.78,0.51
27.890625,0.19918725,-1.2645425,-1.0659786,0.43,0.71,0.47,19880,10122.10,0,0,3,13.65,-90.58,-74.34,0.43,0.71,0.47
24.791016,0.06118726,-1.1425425,-0.7439788,0.36,0.69,0.43,19902,10119.00,0,0,3,3.99,-82.04,-51.80,0.36,0.69,0.43
26.890625,-0.09181274,-1.0345424,-0.42197877,0.31,0.69,0.38,19925,10121.10,0,0,3,-6.72,-74.48,-29.26,0.31,0.69,0.38
28.49121,-0.27881274,-0.9455425,-0.14197876,0.3,0.7,0.36,19947,10122.70,0,0,3,-19.81,-68.25,-9.66,0.30,0.70,0.36
27.890625,-0.44081274,-0.8675425,0.111021236,0.3,0.73,0.35,19970,10122.10,0,0,3,-31.15,-62.79,8.05,0.30,0.73,0.35
27.890625,-0.5798127,-0.7935425,0.32602125,0.3,0.76,0.33,19985,10122.10,0,0,3,-40.88,-57.61,23.10,0.30,0.76,0.33
29.890625,-0.5998127,-0.6915425,0.47002125,0.25,0.91,0.27,20008,10124.10,0,0,3,-42.28,-50.47,33.18,0.25,0.91,0.27
21.791016,-0.5058127,-0.5915425,0.44502124,0.26,0.93,0.32,20031,10116.00,0,0,3,-35.70,-43.47,31.43,0.26,0.93,0.32
26.890625,-0.45281273,-0.4675425,0.37902123,0.33,0.92,0.36,20052,10121.10,0,0,3,-31.99,-34.79,26.81,0.33,0.92,0.36
29.191406,-0.41081274,-0.3585425,0.32502124,0.35,0.94,0.35,20067,10123.40,0,0,3,-29.05,-27.16,23.03,0.35,0.94,0.35
33.890625,-0.33481273,-0.2625425,0.26702124,0.33,1.0,0.31,20090,10128.10,0,0,3,-23.73,-20.44,18.97,0.33,1.00,0.31
27.890625,-0.17181274,-0.17754248,0.10602123,0.36,1.02,0.3,20116,10122.10,0,0,3,-12.32,-14.49,7.70,0.36,1.02,0.30
26.191406,0.0021872588,-0.09254248,-0.051978763,0.38,1.01,0.3,20135,10120.40,0,0,3,-0.14,-8.54,-3.36,0.38,1.01,0.30
29.191406,0.13718726,-0.040542476,-0.21297877,0.41,0.99,0.31,20151,10123.40,0,0,3,9.31,-4.90,-14.63,0.41,0.99,0.31
27.49121,0.23218726,-0.01954248,-0.30597875,0.45,0.94,0.31,20173,10121.70,0,0,3,15.96,-3.43,-21.14,0.45,0.94,0.31
29.191406,0.28218725,-0.027542477,-0.29597875,0.46,0.89,0.29,20195,10123.40,0,0,3,19.46,-3.99,-20.44,0.46,0.89,0.29
27.890625,0.27818727,-0.04654248,-0.23197876,0.45,0.83,0.28,20218,10122.10,0,0,3,19.18,-5.32,-15.96,0.45,0.83,0.28
29.191406,0.21818724,-0.07254247,-0.14597875,0.44,0.81,0.27,20241,10123.40,0,0,3,14.98,-7.14,-9.94,0.44,0.81,0.27
29.191406,0.13918725,-0.08954247,-0.047978766,0.41,0.82,0.26,20263,10123.40,0,0,3,9.45,-8.33,-3.08,0.41,0.82,0.26
28.191406,0.06718726,-0.09054247,0.024021236,0.37,0.86,0.25,20285,10122.40,0,0,3,4.41,-8.40,1.96,0.37,0.86,0.25
28.49121,0.03618726,-0.05654248,0.056021232,0.34,0.87,0.25,20307,10122.70,0,0,3,2.24,-6.02,4.20,0.34,0.87,0.25
29.191406,0.027187258,0.005457524,0.09002123,0.34,0.85,0.27,20322,10123.40,0,0,3,1.61,-1.68,6.58,0.34,0.85,0.27
29.59082,0.019187259,0.07745752,0.13602124,0.33,0.88,0.29,20345,10123.80,0,0,3,1.05,3.36,9.80,0.33,0.88,0.29
28.890625,0.023187261,0.17745753,0.14202124,0.33,0.92,0.3,20360,10123.10,0,0,3,1.33,10.36,10.22,0.33,0.92,0.30
29.191406,0.03918726,0.26045752,0.10102123,0.33,0.95,0.31,20390,10123.40,0,0,3,2.45,16.17,7.35,0.33,0.95,0.31
31.191406,0.077187255,0.3674575,0.06102124,0.31,0.97,0.32,20405,10125.40,0,0,3,5.11,23.66,4.55,0.31,0.97,0.32
29.59082,0.16918726,0.5424575,0.036021233,0.29,0.98,0.34,20427,10123.80,0,0,3,11.55,35.91,2.80,0.29,0.98,0.34
30.59082,0.30118728,0.7584575,0.040021233,0.26,0.95,0.38,20457,10124.80,0,0,3,20.79,51.03,3.08,0.26,0.95,0.38
28.191406,0.41718724,1.0344576,0.08702123,0.23,0.92,0.4,20465,10122.40,0,0,3,28.91,70.35,6.37,0.23,0.92,0.40
28.49121,0.52118725,1.4014575,0.12802124,0.2,0.93,0.44,20488,10122.70,0,0,3,36.19,96.04,9.24,0.20,0.93,0.44
27.49121,0.6021873,1.7374575,0.113021225,0.21,0.95,0.44,20525,10121.70,0,0,3,41.86,119.56,8.19,0.21,0.95,0.44
27.49121,0.65918726,2.0494576,0.10902123,0.24,0.92,0.44,20534,10121.70,0,0,3,45.85,141.40,7.91,0.24,0.92,0.44
27.191406,0.71018726,2.3084576,0.13702124,0.29,0.88,0.43,20555,10121.40,0,0,3,49.42,159.53,9.87,0.29,0.88,0.43
28.191406,0.70518726,2.4294577,0.12502123,0.32,0.88,0.42,20570,10122.40,0,0,3,49.07,168.00,9.03,0.32,0.88,0.42
26.191406,0.65918726,2.4714577,0.096021235,0.36,0.87,0.4,20585,10120.40,0,0,3,45.85,170.94,7.00,0.36,0.87,0.40
27.49121,0.6141873,2.4974575,0.111021236,0.37,0.88,0.37,20610,10121.70,0,0,3,42.70,172.76,8.05,0.37,0.88,0.37
28.49121,0.60318726,2.4604576,0.13702124,0.38,0.87,0.35,20632,10122.70,0,0,3,41.93,170.17,9.87,0.38,0.87,0.35
30.59082,0.5831873,2.3574576,0.17602125,0.39,0.85,0.35,20653,10124.80,0,0,3,40.53,162.96,12.60,0.39,0.85,0.35
27.890625,0.52018726,2.2274575,0.21502124,0.38,0.85,0.34,20676,10122.10,0,0,3,36.12,153.86,15.33,0.38,0.85,0.34
28.890625,0.44418725,2.0574577,0.22902124,0.38,0.87,0.32,20698,10123.10,0,0,3,30.80,141.96,16.31,0.38,0.87,0.32
29.59082,0.36918724,1.8244576,0.21502124,0.37,0.88,0.3,20720,10123.80,0,0,3,25.55,125.65,15.33,0.37,0.88,0.30
29.59082,0.30818728,1.6144575,0.21002123,0.35,0.9,0.28,20735,10123.80,0,0,3,21.28,110.95,14.98,0.35,0.90,0.28
28.890625,0.26718727,1.3814576,0.17702124,0.35,0.92,0.26,20758,10123.10,0,0,3,18.41,94.64,12.67,0.35,0.92,0.26
31.59082,0.23218726,1.1284575,0.11902123,0.34,0.92,0.27,20783,10125.80,0,0,3,15.96,76.93,8.61,0.34,0.92,0.27
25.49121,0.20218726,0.89345753,0.09002123,0.32,0.92,0.27,20802,10119.70,0,0,3,13.86,60.48,6.58,0.32,0.92,0.27
29.890625,0.18218726,0.7414575,0.08802123,0.3,0.91,0.27,20818,10124.10,0,0,3,12.46,49.84,6.44,0.30,0.91,0.27
30.890625,0.17018725,0.5964575,0.100021236,0.28,0.91,0.27,20833,10125.10,0,0,3,11.62,39.69,7.28,0.28,0.91,0.27
29.890625,0.16518727,0.46145752,0.11202123,0.25,0.93,0.27,20855,10124.10,0,0,3,11.27,30.24,8.12,0.25,0.93,0.27
28.890625,0.15918726,0.34545752,0.113021225,0.24,0.93,0.28,20878,10123.10,0,0,3,10.85,22.12,8.19,0.24,0.93,0.28
28.890625,0.15218726,0.24045753,0.10502124,0.24,0.93,0.29,20900,10123.10,0,0,3,10.36,14.77,7.63,0.24,0.93,0.29
23.791016,0.13118726,0.16345753,0.11902123,0.23,0.92,0.3,20922,10118.00,0,0,3,8.89,9.38,8.61,0.23,0.92,0.30
27.49121,0.12718725,0.13745752,0.15802124,0.22,0.92,0.31,20945,10121.70,0,0,3,8.61,7.56,11.34,0.22,0.92,0.31
28.191406,0.13218726,0.13345753,0.18702124,0.21,0.93,0.3,20968,10122.40,0,0,3,8.96,7.28,13.37,0.21,0.93,0.30
26.191406,0.14818725,0.14445752,0.18902124,0.2,0.94,0.3,20990,10120.40,0,0,3,10.08,8.05,13.51,0.20,0.94,0.30
24.791016,0.16118725,0.17245753,0.17702124,0.21,0.94,0.3,21013,10119.00,0,0,3,10.99,10.01,12.67,0.21,0.94,0.30
24.09082,0.16918726,0.20345753,0.16202123,0.23,0.95,0.3,21030,10118.30,0,0,3,11.55,12.18,11.62,0.23,0.95,0.30
22.09082,0.16918726,0.23445752,0.14402124,0.24,0.96,0.3,21050,10116.30,0,0,3,11.55,14.35,10.36,0.24,0.96,0.30
20.791016,0.18018726,0.24745753,0.11502123,0.24,0.97,0.29,21065,10115.00,0,0,3,12.32,15.26,8.33,0.24,0.97,0.29
19.791016,0.20818725,0.2654575,0.08002123,0.24,0.99,0.29,21087,10114.00,0,0,3,14.28,16.52,5.88,0.24,0.99,0.29
20.791016,0.24818726,0.27345753,0.010021236,0.24,1.0,0.28,21102,10115.00,0,0,3,17.08,17.08,0.98,0.24,1.00,0.28
19.09082,0.30218726,0.25945753,-0.08297877,0.23,1.04,0.26,21133,10113.30,0,0,3,20.86,16.10,-5.53,0.23,1.04,0.26
17.691406,0.42118725,0.24445753,-0.22597876,0.23,1.08,0.26,21149,10111.90,0,0,3,29.19,15.05,-15.54,0.23,1.08,0.26
18.09082,0.53418726,0.24045753,-0.35597876,0.23,1.06,0.26,21170,10112.30,0,0,3,37.10,14.77,-24.64,0.23,1.06,0.26
18.09082,0.6251873,0.23745753,-0.47597876,0.23,1.02,0.25,21193,10112.30,0,0,3,43.47,14.56,-33.04,0.23,1.02,0.25
17.09082,0.6641873,0.21945752,-0.54397875,0.21,0.99,0.23,21215,10111.30,0,0,3,46.20,13.30,-37.80,0.21,0.99,0.23
17.390625,0.70518726,0.20645753,-0.5889788,0.18,0.99,0.22,21245,10111.60,0,0,3,49.07,12.39,-40.95,0.18,0.99,0.22
17.390625,0.7161873,0.20145753,-0.5839788,0.18,0.96,0.21,21260,10111.60,0,0,3,49.84,12.04,-40.60,0.18,0.96,0.21
17.09082,0.6621873,0.19845752,-0.5249788,0.17,0.9,0.19,21277,10111.30,0,0,3,46.06,11.83,-36.47,0.17,0.90,0.19
15.991211,0.5601873,0.18345752,-0.43097875,0.15,0.89,0.17,21298,10110.20,0,0,3,38.92,10.78,-29.89,0.15,0.89,0.17
15.991211,0.43918726,0.14045753,-0.35897878,0.13,0.9,0.14,21319,10110.20,0,0,3,30.45,7.77,-24.85,0.13,0.90,0.14
17.09082,0.35618725,0.10445753,-0.31297874,0.12,0.9,0.13,21335,10111.30,0,0,3,24.64,5.25,-21.63,0.12,0.90,0.13
17.09082,0.26518726,0.062457524,-0.25797877,0.11,0.92,0.11,21357,10111.30,0,0,3,18.27,2.31,-17.78,0.11,0.92,0.11
15.991211,0.20218726,0.03845752,-0.20097876,0.09,0.94,0.1,21380,10110.20,0,0,3,13.86,0.63,-13.79,0.09,0.94,0.10
17.390625,0.15418726,0.026457522,-0.15297876,0.08,0.96,0.1,21404,10111.60,0,0,3,10.50,-0.21,-10.43,0.08,0.96,0.10
16.390625,0.09818725,0.011457523,-0.12997876,0.07,0.96,0.1,21425,10110.60,0,0,3,6.58,-1.26,-8.82,0.07,0.96,0.10
16.691406,0.04318726,-0.013542479,-0.109978765,0.08,0.96,0.11,21448,10110.90,0,0,3,2.73,-3.01,-7.42,0.08,0.96,0.11
17.390625,-8.12741E-4,-0.028542476,-0.08997877,0.08,0.96,0.1,21470,10111.60,0,0,3,-0.35,-4.06,-6.02,0.08,0.96,0.10
16.390625,-0.02181274,-0.044542477,-0.07397877,0.07,0.98,0.11,21485,10110.60,0,0,3,-1.82,-5.18,-4.90,0.07,0.98,0.11
15.991211,-0.03581274,-0.05654248,-0.058978766,0.06,0.99,0.11,21507,10110.20,0,0,3,-2.80,-6.02,-3.85,0.06,0.99,0.11
16.691406,-0.03981274,-0.058542475,-0.046978768,0.06,0.99,0.12,21537,10110.90,0,0,3,-3.08,-6.16,-3.01,0.06,0.99,0.12
17.390625,-0.036812738,-0.048542477,-0.036978766,0.06,0.99,0.13,21561,10111.60,0,0,3,-2.87,-5.46,-2.31,0.06,0.99,0.13
16.691406,-0.03081274,-0.039542474,-0.025978765,0.06,0.99,0.13,21568,10110.90,0,0,3,-2.45,-4.83,-1.54,0.06,0.99,0.13
16.691406,-0.027812742,-0.02654248,-0.005978765,0.05,0.99,0.14,21583,10110.90,0,0,3,-2.24,-3.92,-0.14,0.05,0.99,0.14
16.99121,-0.036812738,-0.01954248,0.0050212345,0.06,0.98,0.14,21598,10111.20,0,0,3,-2.87,-3.43,0.63,0.06,0.98,0.14
10.59082,-0.04881274,-0.012542477,0.021021236,0.06,1.0,0.13,21620,10104.80,0,0,3,-3.71,-2.94,1.75,0.06,1.00,0.13
16.691406,-0.04581274,-0.016542478,0.017021235,0.06,1.01,0.12,21650,10110.90,0,0,3,-3.50,-3.22,1.47,0.06,1.01,0.12
18.09082,-0.03081274,-0.024542479,0.007021235,0.06,1.0,0.11,21665,10112.30,0,0,3,-2.45,-3.78,0.77,0.06,1.00,0.11
17.691406,-0.018812742,-0.02654248,-0.002978765,0.06,1.0,0.12,21687,10111.90,0,0,3,-1.61,-3.92,0.07,0.06,1.00,0.12
18.691406,-0.02481274,-0.037542477,-0.008978765,0.06,1.0,0.12,21710,10112.90,0,0,3,-2.03,-4.69,-0.35,0.06,1.00,0.12
19.691406,-0.02481274,-0.044542477,-0.007978765,0.05,1.01,0.12,21733,10113.90,0,0,3,-2.03,-5.18,-0.28,0.05,1.01,0.12
20.390625,-0.011812742,-0.047542475,-0.005978765,0.05,1.0,0.12,21755,10114.60,0,0,3,-1.12,-5.39,-0.14,0.05,1.00,0.12
17.390625,-0.0028127413,-0.05254247,-0.0049787653,0.06,0.99,0.11,21777,10111.60,0,0,3,-0.49,-5.74,-0.07,0.06,0.99,0.11
19.691406,0.0011872591,-0.05654248,0.0050212345,0.05,0.99,0.12,21799,10113.90,0,0,3,-0.21,-6.02,0.63,0.05,0.99,0.12
20.791016,0.0071872585,-0.06054248,0.009021236,0.06,1.0,0.12,21815,10115.00,0,0,3,0.21,-6.30,0.91,0.06,1.00,0.12
22.09082,0.005187259,-0.06854248,0.011021234,0.06,1.0,0.13,21830,10116.30,0,0,3,0.07,-6.86,1.05,0.06,1.00,0.13
21.791016,0.006187259,-0.06754248,0.009021236,0.06,0.99,0.12,21852,10116.00,0,0,3,0.14,-6.79,0.91,0.06,0.99,0.12
20.791016,0.0011872591,-0.06654247,0.016021235,0.06,0.99,0.13,21867,10115.00,0,0,3,-0.21,-6.72,1.40,0.06,0.99,0.13
22.09082,-0.008812741,-0.06654247,0.032021232,0.06,1.0,0.13,21889,10116.30,0,0,3,-0.91,-6.72,2.52,0.06,1.00,0.13
21.791016,-0.005812741,-0.065542474,0.04402123,0.05,1.01,0.13,21913,10116.00,0,0,3,-0.70,-6.65,3.36,0.05,1.01,0.13
25.09082,0.016187258,-0.054542474,0.053021234,0.05,1.0,0.13,21940,10119.30,0,0,3,0.84,-5.88,3.99,0.05,1.00,0.13
22.791016,0.028187256,-0.044542477,0.06102124,0.06,1.0,0.14,21951,10117.00,0,0,3,1.68,-5.18,4.55,0.06,1.00,0.14
24.09082,0.03018726,-0.033542477,0.077021234,0.07,0.99,0.14,21980,10118.30,0,0,3,1.82,-4.41,5.67,0.07,0.99,0.14
25.49121,0.027187258,-0.03154248,0.09002123,0.07,0.99,0.13,21995,10119.70,0,0,3,1.61,-4.27,6.58,0.07,0.99,0.13
25.09082,0.029187258,-0.030542476,0.09502123,0.07,1.0,0.13,22017,10119.30,0,0,3,1.75,-4.20,6.93,0.07,1.00,0.13
27.191406,0.04018726,-0.024542479,0.08702123,0.07,1.0,0.13,22040,10121.40,0,0,3,2.52,-3.78,6.37,0.07,1.00,0.13
28.191406,0.04718726,-0.013542479,0.07502124,0.07,1.0,0.12,22062,10122.40,0,0,3,3.01,-3.01,5.53,0.07,1.00,0.12
33.191406,0.04618726,-0.006542476,0.063021235,0.08,1.0,0.13,22078,10127.40,0,0,3,2.94,-2.52,4.69,0.08,1.00,0.13
30.191406,0.03818726,-0.0015424788,0.051021233,0.07,1.0,0.13,22099,10124.40,0,0,3,2.38,-2.17,3.85,0.07,1.00,0.13
29.191406,0.027187258,-5.424768E-4,0.031021236,0.08,0.99,0.12,22115,10123.40,0,0,3,1.61,-2.10,2.45,0.08,0.99,0.12
30.890625,0.011187259,-5.424768E-4,0.017021235,0.08,0.99,0.13,22138,10125.10,0,0,3,0.49,-2.10,1.47,0.08,0.99,0.13
30.890625,-0.008812741,-5.424768E-4,0.015021237,0.09,0.99,0.13,22160,10125.10,0,0,3,-0.91,-2.10,1.33,0.09,0.99,0.13
33.191406,-0.012812742,-5.424768E-4,0.021021236,0.09,0.99,0.12,22174,10127.40,0,0,3,-1.19,-2.10,1.75,0.09,0.99,0.12
35.291016,-0.01381274,4.575234E-4,0.025021235,0.08,0.99,0.12,22197,10129.50,0,0,3,-1.26,-2.03,2.03,0.08,0.99,0.12
37.291016,-0.008812741,0.0074575227,0.028021237,0.08,0.99,0.13,22219,10131.50,0,0,3,-0.91,-1.54,2.24,0.08,0.99,0.13
37.291016,-0.005812741,0.023457523,0.036021233,0.08,0.99,0.13,22243,10131.50,0,0,3,-0.70,-0.42,2.80,0.08,0.99,0.13
38.291016,-0.006812741,0.040457524,0.041021235,0.09,0.99,0.13,22265,10132.50,0,0,3,-0.77,0.77,3.15,0.09,0.99,0.13
38.59082,-0.012812742,0.056457523,0.038021233,0.08,1.0,0.13,22287,10132.80,0,0,3,-1.19,1.89,2.94,0.08,1.00,0.13
39.291016,-0.022812743,0.066457525,0.021021236,0.08,1.0,0.13,22309,10133.50,0,0,3,-1.89,2.59,1.75,0.08,1.00,0.13
42.691406,-0.03481274,0.074457526,0.010021236,0.08,1.0,0.13,22325,10136.90,0,0,3,-2.73,3.15,0.98,0.08,1.00,0.13
39.691406,-0.03781274,0.08345752,0.0040212353,0.08,1.0,0.13,22340,10133.90,0,0,3,-2.94,3.78,0.56,0.08,1.00,0.13
40.691406,-0.027812742,0.095457524,-9.787653E-4,0.08,1.0,0.12,22366,10134.90,0,0,3,-2.24,4.62,0.21,0.08,1.00,0.12
40.291016,-0.010812741,0.103457525,-0.0049787653,0.08,1.0,0.12,22389,10134.50,0,0,3,-1.05,5.18,-0.07,0.08,1.00,0.12
40.291016,1.872587E-4,0.10145752,-0.015978765,0.08,1.01,0.12,22407,10134.50,0,0,3,-0.28,5.04,-0.84,0.08,1.01,0.12
39.99121,-8.12741E-4,0.09445753,-0.023978764,0.08,0.99,0.13,22433,10134.20,0,0,3,-0.35,4.55,-1.40,0.08,0.99,0.13
40.691406,-0.016812742,0.09745753,-0.019978765,0.08,0.98,0.13,22457,10134.90,0,0,3,-1.47,4.76,-1.12,0.08,0.98,0.13
40.691406,-0.03181274,0.103457525,-0.002978765,0.08,0.98,0.13,22490,10134.90,0,0,3,-2.52,5.18,0.07,0.08,0.98,0.13
41.691406,-0.044812743,0.107457526,0.024021236,0.08,0.97,0.13,22492,10135.90,0,0,3,-3.43,5.46,1.96,0.08,0.97,0.13
39.691406,-0.065812744,0.10145752,0.053021234,0.08,0.98,0.14,22515,10133.90,0,0,3,-4.90,5.04,3.99,0.08,0.98,0.14
40.691406,-0.07581274,0.088457525,0.06802123,0.08,0.99,0.13,22535,10134.90,0,0,3,-5.60,4.13,5.04,0.08,0.99,0.13
40.99121,-0.07981274,0.06445752,0.058021236,0.09,1.0,0.13,22557,10135.20,0,0,3,-5.88,2.45,4.34,0.09,1.00,0.13
41.99121,-0.07481275,0.043457523,0.052021235,0.09,1.0,0.14,22573,10136.20,0,0,3,-5.53,0.98,3.92,0.09,1.00,0.14
39.99121,-0.07281274,0.023457523,0.042021234,0.09,1.0,0.14,22587,10134.20,0,0,3,-5.39,-0.42,3.22,0.09,1.00,0.14
34.890625,-0.06181274,4.575234E-4,0.04402123,0.09,0.99,0.14,22610,10129.10,0,0,3,-4.62,-2.03,3.36,0.09,0.99,0.14
43.99121,-0.051812742,-0.021542476,0.041021235,0.08,1.01,0.14,22632,10138.20,0,0,3,-3.92,-3.57,3.15,0.08,1.01,0.14
41.291016,-0.03481274,-0.036542475,0.027021237,0.08,1.01,0.15,22655,10135.50,0,0,3,-2.73,-4.62,2.17,0.08,1.01,0.15
39.99121,-0.00781274,-0.039542474,0.017021235,0.08,1.0,0.15,22684,10134.20,0,0,3,-0.84,-4.83,1.47,0.08,1.00,0.15
38.59082,0.0071872585,-0.032542482,0.012021236,0.08,1.0,0.15,22700,10132.80,0,0,3,0.21,-4.34,1.12,0.08,1.00,0.15
39.691406,0.006187259,-0.025542477,0.016021235,0.08,0.99,0.16,22722,10133.90,0,0,3,0.14,-3.85,1.40,0.08,0.99,0.16
42.291016,0.0011872591,-0.011542475,0.029021235,0.08,0.99,0.15,22746,10136.50,0,0,3,-0.21,-2.87,2.31,0.08,0.99,0.15
40.291016,0.0031872587,-0.007542478,0.03702123,0.08,0.99,0.14,22768,10134.50,0,0,3,-0.07,-2.59,2.87,0.08,0.99,0.14
39.99121,0.0011872591,-0.012542477,0.03702123,0.08,0.99,0.14,22797,10134.20,0,0,3,-0.21,-2.94,2.87,0.08,0.99,0.14
39.99121,-0.00781274,-0.020542478,0.041021235,0.08,0.98,0.14,22812,10134.20,0,0,3,-0.84,-3.50,3.15,0.08,0.98,0.14
39.99121,-0.020812742,-0.024542479,0.04402123,0.09,0.98,0.14,22827,10134.20,0,0,3,-1.75,-3.78,3.36,0.09,0.98,0.14
40.291016,-0.029812742,-0.023542477,0.052021235,0.08,0.99,0.14,22850,10134.50,0,0,3,-2.38,-3.71,3.92,0.08,0.99,0.14
41.99121,-0.027812742,-0.017542476,0.055021234,0.08,0.99,0.14,22865,10136.20,0,0,3,-2.24,-3.29,4.13,0.08,0.99,0.14
40.99121,-0.018812742,-0.006542476,0.06902123,0.09,0.99,0.14,22887,10135.20,0,0,3,-1.61,-2.52,5.11,0.09,0.99,0.14
41.291016,-0.016812742,0.005457524,0.07602123,0.08,0.99,0.15,22910,10135.50,0,0,3,-1.47,-1.68,5.60,0.08,0.99,0.15
40.291016,-0.02481274,0.012457522,0.074021235,0.08,0.99,0.15,22932,10134.50,0,0,3,-2.03,-1.19,5.46,0.08,0.99,0.15
40.291016,-0.036812738,0.018457523,0.06402124,0.1,0.99,0.15,22947,10134.50,0,0,3,-2.87,-0.77,4.76,0.10,0.99,0.15
40.291016,-0.04181274,0.015457522,0.06102124,0.11,0.99,0.15,22969,10134.50,0,0,3,-3.22,-0.98,4.55,0.11,0.99,0.15
38.99121,-0.04981274,-5.424768E-4,0.070021234,0.11,0.98,0.15,22992,10133.20,0,0,3,-3.78,-2.10,5.18,0.11,0.98,0.15
39.291016,-0.051812742,-0.010542477,0.08002123,0.11,0.99,0.15,23015,10133.50,0,0,3,-3.92,-2.80,5.88,0.11,0.99,0.15
40.291016,-0.044812743,-0.018542474,0.09502123,0.11,1.0,0.15,23037,10134.50,0,0,3,-3.43,-3.36,6.93,0.11,1.00,0.15
38.291016,-0.03981274,-0.01954248,0.09502123,0.11,1.0,0.16,23060,10132.50,0,0,3,-3.08,-3.43,6.93,0.11,1.00,0.16
39.291016,-0.044812743,-0.013542479,0.089021236,0.11,0.98,0.16,23076,10133.50,0,0,3,-3.43,-3.01,6.51,0.11,0.98,0.16
40.291016,-0.04581274,-0.0015424788,0.08302124,0.11,0.98,0.16,23090,10134.50,0,0,3,-3.50,-2.17,6.09,0.11,0.98,0.16
40.291016,-0.04881274,0.009457523,0.07802123,0.11,0.99,0.15,23113,10134.50,0,0,3,-3.71,-1.40,5.74,0.11,0.99,0.15
38.291016,-0.05381274,0.015457522,0.07602123,0.12,0.98,0.16,23135,10132.50,0,0,3,-4.06,-0.98,5.60,0.12,0.98,0.16
39.291016,-0.057812743,0.014457523,0.070021234,0.12,0.99,0.16,23158,10133.50,0,0,3,-4.34,-1.05,5.18,0.12,0.99,0.16
38.99121,-0.059812743,0.010457521,0.062021233,0.12,0.98,0.16,23180,10133.20,0,0,3,-4.48,-1.33,4.62,0.12,0.98,0.16
38.291016,-0.05881274,4.575234E-4,0.051021233,0.12,0.99,0.16,23203,10132.50,0,0,3,-4.41,-2.03,3.85,0.12,0.99,0.16
38.59082,-0.04681274,-0.009542478,0.04402123,0.14,0.99,0.16,23218,10132.80,0,0,3,-3.57,-2.73,3.36,0.14,0.99,0.16
39.59082,-0.04881274,-0.023542477,0.041021235,0.14,0.98,0.17,23239,10133.80,0,0,3,-3.71,-3.71,3.15,0.14,0.98,0.17
39.59082,-0.043812737,-0.03854248,0.041021235,0.14,0.98,0.17,23275,10133.80,0,0,3,-3.36,-4.76,3.15,0.14,0.98,0.17
38.59082,-0.044812743,-0.04654248,0.039021235,0.13,0.98,0.17,23285,10132.80,0,0,3,-3.43,-5.32,3.01,0.13,0.98,0.17
38.59082,-0.043812737,-0.04654248,0.032021232,0.12,0.99,0.18,23308,10132.80,0,0,3,-3.36,-5.32,2.52,0.12,0.99,0.18
38.59082,-0.040812742,-0.040542476,0.031021236,0.12,0.98,0.18,23323,10132.80,0,0,3,-3.15,-4.90,2.45,0.12,0.98,0.18
37.99121,-0.036812738,-0.03154248,0.032021232,0.13,0.98,0.18,23338,10132.20,0,0,3,-2.87,-4.27,2.52,0.13,0.98,0.18
39.59082,-0.03281274,-0.018542474,0.036021233,0.14,0.98,0.18,23360,10133.80,0,0,3,-2.59,-3.36,2.80,0.14,0.98,0.18
35.59082,-0.036812738,-0.014542477,0.035021234,0.12,0.99,0.18,23383,10129.80,0,0,3,-2.87,-3.08,2.73,0.12,0.99,0.18
38.291016,-0.033812743,-0.007542478,0.036021233,0.13,0.98,0.18,23405,10132.50,0,0,3,-2.66,-2.59,2.80,0.13,0.98,0.18
37.890625,-0.02481274,4.575234E-4,0.036021233,0.13,0.99,0.18,23428,10132.10,0,0,3,-2.03,-2.03,2.80,0.13,0.99,0.18
37.59082,-0.009812742,0.013457522,0.033021234,0.12,0.99,0.18,23450,10131.80,0,0,3,-0.98,-1.12,2.59,0.12,0.99,0.18
37.59082,-0.005812741,0.020457523,0.017021235,0.12,0.98,0.18,23480,10131.80,0,0,3,-0.70,-0.63,1.47,0.12,0.98,0.18
37.59082,-0.009812742,0.025457522,0.007021235,0.13,0.98,0.18,23495,10131.80,0,0,3,-0.98,-0.28,0.77,0.13,0.98,0.18
36.890625,-0.020812742,0.021457523,-9.787653E-4,0.14,0.98,0.18,23511,10131.10,0,0,3,-1.75,-0.56,0.21,0.14,0.98,0.18
35.291016,-0.03181274,0.008457523,0.0050212345,0.14,0.98,0.18,23540,10129.50,0,0,3,-2.52,-1.47,0.63,0.14,0.98,0.18
35.59082,-0.029812742,4.575234E-4,0.014021235,0.14,0.97,0.19,23554,10129.80,0,0,3,-2.38,-2.03,1.26,0.14,0.97,0.19
33.890625,-0.03481274,-0.009542478,0.007021235,0.13,0.98,0.19,23569,10128.10,0,0,3,-2.73,-2.73,0.77,0.13,0.98,0.19
30.49121,-0.03981274,-0.012542477,0.0060212347,0.13,0.98,0.19,23599,10124.70,0,0,3,-3.08,-2.94,0.70,0.13,0.98,0.19
33.59082,-0.04781274,-0.018542474,0.0020212345,0.13,0.98,0.19,23607,10127.80,0,0,3,-3.64,-3.36,0.42,0.13,0.98,0.19
30.890625,-0.03981274,-0.011542475,0.0050212345,0.12,0.99,0.19,23630,10125.10,0,0,3,-3.08,-2.87,0.63,0.12,0.99,0.19
32.890625,-0.02881274,0.0074575227,0.0050212345,0.12,0.98,0.19,23652,10127.10,0,0,3,-2.31,-1.54,0.63,0.12,0.98,0.19
31.49121,-0.02481274,0.017457522,0.007021235,0.12,0.98,0.2,23674,10125.70,0,0,3,-2.03,-0.84,0.77,0.12,0.98,0.20
30.191406,-0.03081274,0.028457522,0.016021235,0.12,0.98,0.19,23697,10124.40,0,0,3,-2.45,-0.07,1.40,0.12,0.98,0.19
28.791016,-0.03081274,0.036457524,0.029021235,0.13,0.98,0.19,23720,10123.00,0,0,3,-2.45,0.49,2.31,0.13,0.98,0.19
28.791016,-0.03081274,0.03845752,0.03702123,0.13,0.98,0.2,23742,10123.00,0,0,3,-2.45,0.63,2.87,0.13,0.98,0.20
29.191406,-0.025812741,0.03845752,0.041021235,0.13,0.98,0.2,23780,10123.40,0,0,3,-2.10,0.63,3.15,0.13,0.98,0.20
27.791016,-0.01381274,0.040457524,0.040021233,0.13,0.99,0.19,23787,10122.00,0,0,3,-1.26,0.77,3.08,0.13,0.99,0.19
27.49121,-0.0028127413,0.039457522,0.035021234,0.13,0.99,0.19,23804,10121.70,0,0,3,-0.49,0.70,2.73,0.13,0.99,0.19
26.791016,0.006187259,0.03845752,0.032021232,0.13,0.99,0.19,23832,10121.00,0,0,3,0.14,0.63,2.52,0.13,0.99,0.19
29.191406,0.0131872585,0.037457522,0.029021235,0.13,0.98,0.2,23847,10123.40,0,0,3,0.63,0.56,2.31,0.13,0.98,0.20
25.791016,0.016187258,0.03545752,0.026021235,0.13,0.99,0.19,23863,10120.00,0,0,3,0.84,0.42,2.10,0.13,0.99,0.19
27.09082,0.022187259,0.03345752,0.026021235,0.13,0.98,0.19,23884,10121.30,0,0,3,1.26,0.28,2.10,0.13,0.98,0.19
31.191406,0.022187259,0.034457523,0.024021236,0.13,0.98,0.19,23907,10125.40,0,0,3,1.26,0.35,1.96,0.13,0.98,0.19
26.49121,0.023187261,0.03545752,0.030021237,0.13,0.98,0.19,23922,10120.70,0,0,3,1.33,0.42,2.38,0.13,0.98,0.19
27.09082,0.02618726,0.043457523,0.034021236,0.13,0.98,0.19,23953,10121.30,0,0,3,1.54,0.98,2.66,0.13,0.98,0.19
28.191406,0.028187256,0.04245752,0.033021234,0.13,0.98,0.19,23975,10122.40,0,0,3,1.68,0.91,2.59,0.13,0.98,0.19
27.09082,0.03018726,0.043457523,0.032021232,0.13,0.98,0.19,23990,10121.30,0,0,3,1.82,0.98,2.52,0.13,0.98,0.19
28.191406,0.03018726,0.039457522,0.021021236,0.13,0.98,0.19,24020,10122.40,0,0,3,1.82,0.70,1.75,0.13,0.98,0.19
27.791016,0.029187258,0.036457524,0.024021236,0.13,0.98,0.19,24034,10122.00,0,0,3,1.75,0.49,1.96,0.13,0.98,0.19
24.791016,0.02618726,0.036457524,0.026021235,0.13,0.98,0.18,24057,10119.00,0,0,3,1.54,0.49,2.10,0.13,0.98,0.18
27.09082,0.028187256,0.03345752,0.033021234,0.13,0.98,0.18,24080,10121.30,0,0,3,1.68,0.28,2.59,0.13,0.98,0.18
26.49121,0.028187256,0.027457522,0.031021236,0.13,0.99,0.18,24087,10120.70,0,0,3,1.68,-0.14,2.45,0.13,0.99,0.18
27.49121,0.025187258,0.025457522,0.018021235,0.13,0.98,0.19,24110,10121.70,0,0,3,1.47,-0.28,1.54,0.13,0.98,0.19
26.49121,0.009187259,0.024457522,0.007021235,0.14,0.97,0.19,24132,10120.70,0,0,3,0.35,-0.35,0.77,0.14,0.97,0.19
31.191406,0.0071872585,0.029457523,0.011021234,0.14,0.98,0.18,24154,10125.40,0,0,3,0.21,0.00,1.05,0.14,0.98,0.18
27.49121,0.016187258,0.034457523,0.029021235,0.14,0.98,0.17,24177,10121.70,0,0,3,0.84,0.35,2.31,0.14,0.98,0.17
26.09082,0.01718726,0.023457523,0.023021236,0.14,0.98,0.18,24192,10120.30,0,0,3,0.91,-0.42,1.89,0.14,0.98,0.18
26.49121,0.009187259,0.014457523,0.008021234,0.14,0.98,0.18,24222,10120.70,0,0,3,0.35,-1.05,0.84,0.14,0.98,0.18
27.49121,-8.12741E-4,0.010457521,-0.001978765,0.14,0.98,0.18,24239,10121.70,0,0,3,-0.35,-1.33,0.14,0.14,0.98,0.18
27.49121,0.0021872588,0.015457522,0.0040212353,0.14,0.97,0.18,24259,10121.70,0,0,3,-0.14,-0.98,0.56,0.14,0.97,0.18
27.49121,0.0011872591,0.010457521,0.021021236,0.14,0.98,0.18,24282,10121.70,0,0,3,-0.21,-1.33,1.75,0.14,0.98,0.18
28.49121,0.004187259,0.010457521,0.025021235,0.13,0.98,0.18,24298,10122.70,0,0,3,0.00,-1.33,2.03,0.13,0.98,0.18
27.49121,-8.12741E-4,0.0064575225,0.019021235,0.14,0.98,0.18,24312,10121.70,0,0,3,-0.35,-1.61,1.61,0.14,0.98,0.18
26.09082,-0.0038127415,4.575234E-4,0.008021234,0.14,0.98,0.18,24335,10120.30,0,0,3,-0.56,-2.03,0.84,0.14,0.98,0.18
25.390625,-0.008812741,4.575234E-4,0.009021236,0.14,0.98,0.18,24349,10119.60,0,0,3,-0.91,-2.03,0.91,0.14,0.98,0.18
27.791016,-0.00781274,-5.424768E-4,0.017021235,0.14,0.98,0.18,24372,10122.00,0,0,3,-0.84,-2.10,1.47,0.14,0.98,0.18
27.791016,-0.006812741,-0.0055424776,0.027021237,0.14,0.98,0.18,24387,10122.00,0,0,3,-0.77,-2.45,2.17,0.14,0.98,0.18
26.791016,-0.009812742,-0.012542477,0.033021234,0.13,0.98,0.18,24409,10121.00,0,0,3,-0.98,-2.94,2.59,0.13,0.98,0.18
30.49121,-0.006812741,-0.00854248,0.026021235,0.13,0.98,0.18,24440,10124.70,0,0,3,-0.77,-2.66,2.10,0.13,0.98,0.18
28.191406,0.0011872591,-0.0015424788,0.020021234,0.13,0.98,0.18,24456,10122.40,0,0,3,-0.21,-2.17,1.68,0.13,0.98,0.18
29.791016,0.0021872588,0.0064575225,0.019021235,0.14,0.98,0.18,24478,10124.00,0,0,3,-0.14,-1.61,1.61,0.14,0.98,0.18
29.791016,1.872587E-4,0.009457523,0.019021235,0.14,0.98,0.18,24500,10124.00,0,0,3,-0.28,-1.40,1.61,0.14,0.98,0.18
29.791016,-0.0048127407,0.008457523,0.024021236,0.14,0.98,0.18,24515,10124.00,0,0,3,-0.63,-1.47,1.96,0.14,0.98,0.18
28.791016,-0.008812741,0.0064575225,0.034021236,0.14,0.98,0.18,24530,10123.00,0,0,3,-0.91,-1.61,2.66,0.14,0.98,0.18
34.890625,-0.01781274,0.0014575217,0.031021236,0.14,0.98,0.19,24545,10129.10,0,0,3,-1.54,-1.96,2.45,0.14,0.98,0.19
30.49121,-0.01981274,0.004457522,0.027021237,0.14,0.97,0.18,24560,10124.70,0,0,3,-1.68,-1.75,2.17,0.14,0.97,0.18
31.890625,-0.02181274,0.010457521,0.029021235,0.14,0.98,0.18,24582,10126.10,0,0,3,-1.82,-1.33,2.31,0.14,0.98,0.18
32.191406,-0.020812742,0.010457521,0.022021236,0.14,0.98,0.18,24605,10126.40,0,0,3,-1.75,-1.33,1.82,0.14,0.98,0.18
33.191406,-0.01781274,0.011457523,0.017021235,0.14,0.98,0.19,24619,10127.40,0,0,3,-1.54,-1.26,1.47,0.14,0.98,0.19
34.191406,-0.014812742,0.011457523,0.009021236,0.14,0.98,0.19,24634,10128.40,0,0,3,-1.33,-1.26,0.91,0.14,0.98,0.19
34.890625,-0.01581274,0.015457522,0.0060212347,0.14,0.98,0.19,24657,10129.10,0,0,3,-1.40,-0.98,0.70,0.14,0.98,0.19
36.191406,-0.01381274,0.020457523,0.0050212345,0.14,0.98,0.19,24680,10130.40,0,0,3,-1.26,-0.63,0.63,0.14,0.98,0.19
34.890625,-0.01581274,0.020457523,0.008021234,0.14,0.98,0.19,24702,10129.10,0,0,3,-1.40,-0.63,0.84,0.14,0.98,0.19
36.59082,-0.01581274,0.022457521,0.010021236,0.14,0.98,0.19,24724,10130.80,0,0,3,-1.40,-0.49,0.98,0.14,0.98,0.19
38.291016,-0.014812742,0.023457523,0.013021236,0.14,0.98,0.19,24747,10132.50,0,0,3,-1.33,-0.42,1.19,0.14,0.98,0.19
39.291016,-0.01581274,0.025457522,0.011021234,0.14,0.97,0.19,24769,10133.50,0,0,3,-1.40,-0.28,1.05,0.14,0.97,0.19
40.291016,-0.012812742,0.027457522,0.011021234,0.14,0.97,0.19,24784,10134.50,0,0,3,-1.19,-0.14,1.05,0.14,0.97,0.19
41.291016,-0.012812742,0.026457522,0.011021234,0.14,0.98,0.2,24799,10135.50,0,0,3,-1.19,-0.21,1.05,0.14,0.98,0.20
41.291016,-0.010812741,0.026457522,0.020021234,0.14,0.98,0.2,24815,10135.50,0,0,3,-1.05,-0.21,1.68,0.14,0.98,0.20
40.291016,-0.0028127413,0.028457522,0.029021235,0.14,0.98,0.2,24831,10134.50,0,0,3,-0.49,-0.07,2.31,0.14,0.98,0.20
42.291016,0.0021872588,0.023457523,0.030021237,0.14,0.98,0.2,24853,10136.50,0,0,3,-0.14,-0.42,2.38,0.14,0.98,0.20
42.291016,0.0031872587,0.024457522,0.031021236,0.14,0.98,0.19,24868,10136.50,0,0,2,-0.07,-0.35,2.45,0.14,0.98,0.19
42.291016,-0.0018127407,0.021457523,0.015021237,0.14,0.98,0.2,24890,10136.50,0,0,2,-0.42,-0.56,1.33,0.14,0.98,0.20
47.390625,-0.0048127407,0.016457522,0.009021236,0.15,0.98,0.2,24920,10141.60,0,0,2,-0.63,-0.91,0.91,0.15,0.98,0.20
42.691406,-0.0028127413,0.014457523,0.008021234,0.15,0.98,0.19,24935,10136.90,0,0,2,-0.49,-1.05,0.84,0.15,0.98,0.19
43.291016,0.004187259,0.0074575227,0.015021237,0.15,0.97,0.2,24957,10137.50,0,0,2,0.00,-1.54,1.33,0.15,0.97,0.20
43.291016,0.005187259,0.0014575217,0.017021235,0.14,0.97,0.2,24987,10137.50,0,0,2,0.07,-1.96,1.47,0.14,0.97,0.20
43.291016,0.0071872585,0.003457522,0.018021235,0.15,0.98,0.2,25002,10137.50,0,0,2,0.21,-1.82,1.54,0.15,0.98,0.20
43.291016,0.005187259,0.0024575219,0.016021235,0.14,0.98,0.2,25018,10137.50,0,0,2,0.07,-1.89,1.40,0.14,0.98,0.20
44.291016,0.006187259,0.0024575219,0.012021236,0.14,0.98,0.2,25033,10138.50,0,0,2,0.14,-1.89,1.12,0.14,0.98,0.20
43.691406,0.008187259,0.003457522,0.011021234,0.15,0.98,0.2,25047,10137.90,0,0,2,0.28,-1.82,1.05,0.15,0.98,0.20
44.691406,0.011187259,0.008457523,0.013021236,0.15,0.99,0.2,25064,10138.90,0,0,2,0.49,-1.47,1.19,0.15,0.99,0.20
43.99121,0.015187259,0.0074575227,0.013021236,0.15,0.98,0.2,25078,10138.20,0,0,2,0.77,-1.54,1.19,0.15,0.98,0.20
44.291016,0.009187259,0.0074575227,0.010021236,0.15,0.98,0.2,25100,10138.50,0,0,2,0.35,-1.54,0.98,0.15,0.98,0.20
43.691406,-8.12741E-4,0.0024575219,0.009021236,0.15,0.98,0.2,25122,10137.90,0,0,2,-0.35,-1.89,0.91,0.15,0.98,0.20
43.291016,0.0021872588,-0.0015424788,0.010021236,0.15,0.98,0.19,25138,10137.50,0,0,2,-0.14,-2.17,0.98,0.15,0.98,0.19
43.691406,0.0131872585,-0.006542476,2.1235086E-5,0.14,0.99,0.19,25159,10137.90,0,0,2,0.63,-2.52,0.28,0.14,0.99,0.19
43.691406,0.02118726,-0.0055424776,-0.009978765,0.14,0.98,0.2,25182,10137.90,0,0,2,1.19,-2.45,-0.42,0.14,0.98,0.20
43.99121,0.015187259,-0.00854248,-0.010978766,0.15,0.97,0.2,25205,10138.20,0,0,2,0.77,-2.66,-0.49,0.15,0.97,0.20
43.691406,0.016187258,-0.0045424793,-0.002978765,0.14,0.98,0.2,25227,10137.90,0,0,2,0.84,-2.38,0.07,0.14,0.98,0.20
44.691406,0.018187258,-0.0045424793,0.0020212345,0.14,0.98,0.19,25257,10138.90,0,0,2,0.98,-2.38,0.42,0.14,0.98,0.19
43.291016,0.018187258,-0.0035424773,2.1235086E-5,0.14,0.98,0.19,25273,10137.50,0,0,2,0.98,-2.31,0.28,0.14,0.98,0.19
44.691406,0.023187261,0.003457522,-9.787653E-4,0.14,0.98,0.19,25287,10138.90,0,0,2,1.33,-1.82,0.21,0.14,0.98,0.19
43.691406,0.023187261,0.0064575225,-0.002978765,0.14,0.98,0.19,25310,10137.90,0,0,2,1.33,-1.61,0.07,0.14,0.98,0.19
43.691406,0.023187261,0.005457524,-0.005978765,0.14,0.98,0.19,25317,10137.90,0,0,2,1.33,-1.68,-0.14,0.14,0.98,0.19
44.291016,0.022187259,0.0074575227,-9.787653E-4,0.14,0.98,0.19,25333,10138.50,0,0,2,1.26,-1.54,0.21,0.14,0.98,0.19
44.691406,0.022187259,0.003457522,0.0020212345,0.14,0.98,0.18,25354,10138.90,0,0,2,1.26,-1.82,0.42,0.14,0.98,0.18
41.59082,0.023187261,0.0014575217,0.0050212345,0.14,0.98,0.19,25378,10135.80,0,0,2,1.33,-1.96,0.63,0.14,0.98,0.19
43.691406,0.016187258,-0.002542479,0.0050212345,0.14,0.98,0.19,25399,10137.90,0,0,2,0.84,-2.24,0.63,0.14,0.98,0.19
43.291016,0.012187259,-5.424768E-4,-0.001978765,0.14,0.98,0.18,25422,10137.50,0,0,2,0.56,-2.10,0.14,0.14,0.98,0.18
37.890625,0.009187259,0.004457522,2.1235086E-5,0.14,0.98,0.18,25445,10132.10,0,0,2,0.35,-1.75,0.28,0.14,0.98,0.18
45.99121,0.008187259,0.0064575225,0.0020212345,0.14,0.98,0.18,25475,10140.20,0,0,2,0.28,-1.61,0.42,0.14,0.98,0.18
44.291016,0.008187259,0.010457521,0.0060212347,0.14,0.98,0.18,25483,10138.50,0,0,2,0.28,-1.33,0.70,0.14,0.98,0.18
43.99121,0.0021872588,0.011457523,0.007021235,0.14,0.98,0.18,25505,10138.20,0,0,2,-0.14,-1.26,0.77,0.14,0.98,0.18
43.99121,-0.005812741,0.011457523,0.007021235,0.14,0.98,0.19,25528,10138.20,0,0,2,-0.70,-1.26,0.77,0.14,0.98,0.19
47.390625,-0.010812741,0.010457521,0.011021234,0.14,0.98,0.18,25543,10141.60,0,0,2,-1.05,-1.33,1.05,0.14,0.98,0.18
43.99121,-0.012812742,0.012457522,0.016021235,0.14,0.98,0.18,25564,10138.20,0,0,2,-1.19,-1.19,1.40,0.14,0.98,0.18
42.99121,-0.012812742,0.009457523,0.024021236,0.14,0.98,0.18,25572,10137.20,0,0,2,-1.19,-1.40,1.96,0.14,0.98,0.18
41.291016,-0.01381274,0.004457522,0.025021235,0.14,0.98,0.19,25595,10135.50,0,0,2,-1.26,-1.75,2.03,0.14,0.98,0.19
43.291016,-0.01781274,0.004457522,0.020021234,0.14,0.98,0.19,25602,10137.50,0,0,2,-1.54,-1.75,1.68,0.14,0.98,0.19
42.291016,-0.027812742,0.010457521,0.012021236,0.14,0.98,0.19,25625,10136.50,0,0,2,-2.24,-1.33,1.12,0.14,0.98,0.19
43.99121,-0.02181274,0.016457522,0.008021234,0.14,0.98,0.18,25647,10138.20,0,0,2,-1.82,-0.91,0.84,0.14,0.98,0.18
42.99121,-0.01381274,0.016457522,0.010021236,0.14,0.98,0.19,25670,10137.20,0,0,2,-1.26,-0.91,0.98,0.14,0.98,0.19
43.291016,-0.008812741,0.015457522,0.014021235,0.14,0.98,0.19,25692,10137.50,0,0,3,-0.91,-0.98,1.26,0.14,0.98,0.19
43.291016,-0.005812741,0.014457523,0.016021235,0.14,0.98,0.19,25714,10137.50,0,0,3,-0.70,-1.05,1.40,0.14,0.98,0.19
43.291016,-0.006812741,0.022457521,0.021021236,0.14,0.98,0.19,25737,10137.50,0,0,3,-0.77,-0.49,1.75,0.14,0.98,0.19
42.99121,-0.006812741,0.03145752,0.017021235,0.14,0.97,0.2,25759,10137.20,0,0,3,-0.77,0.14,1.47,0.14,0.97,0.20
43.291016,-0.008812741,0.037457522,0.019021235,0.14,0.98,0.19,25774,10137.50,0,0,3,-0.91,0.56,1.61,0.14,0.98,0.19
42.291016,-0.011812742,0.03845752,0.017021235,0.14,0.98,0.19,25790,10136.50,0,0,3,-1.12,0.63,1.47,0.14,0.98,0.19
41.99121,-0.011812742,0.036457524,0.013021236,0.14,0.97,0.19,25805,10136.20,0,0,3,-1.12,0.49,1.19,0.14,0.97,0.19
41.59082,-0.018812742,0.032457523,0.008021234,0.15,0.98,0.19,25820,10135.80,0,0,3,-1.61,0.21,0.84,0.15,0.98,0.19
40.291016,-0.026812743,0.028457522,0.008021234,0.15,0.98,0.2,25834,10134.50,0,0,3,-2.17,-0.07,0.84,0.15,0.98,0.20
42.291016,-0.026812743,0.021457523,0.012021236,0.15,0.98,0.19,25857,10136.50,0,0,3,-2.17,-0.56,1.12,0.15,0.98,0.19
40.99121,-0.023812741,0.014457523,0.012021236,0.15,0.98,0.19,25880,10135.20,0,0,3,-1.96,-1.05,1.12,0.15,0.98,0.19
42.291016,-0.02181274,0.0074575227,0.011021234,0.14,0.98,0.2,25902,10136.50,0,0,3,-1.82,-1.54,1.05,0.14,0.98,0.20
41.59082,-0.01981274,0.0024575219,0.003021235,0.14,0.98,0.2,25925,10135.80,0,0,3,-1.68,-1.89,0.49,0.14,0.98,0.20
41.59082,-0.014812742,0.005457524,2.1235086E-5,0.14,0.98,0.2,25949,10135.80,0,0,3,-1.33,-1.68,0.28,0.14,0.98,0.20
40.59082,-0.006812741,0.005457524,-0.0049787653,0.14,0.98,0.2,25972,10134.80,0,0,3,-0.77,-1.68,-0.07,0.14,0.98,0.20
40.291016,-0.0038127415,0.008457523,-0.002978765,0.14,0.97,0.2,25992,10134.50,0,0,3,-0.56,-1.47,0.07,0.14,0.97,0.20
40.291016,-0.0028127413,0.0074575227,-0.005978765,0.14,0.97,0.2,26015,10134.50,0,0,3,-0.49,-1.54,-0.14,0.14,0.97,0.20
37.59082,-0.010812741,0.003457522,-0.003978765,0.14,0.97,0.2,26029,10131.80,0,0,3,-1.05,-1.82,0.00,0.14,0.97,0.20
38.59082,-0.011812742,0.0014575217,0.0020212345,0.14,0.98,0.2,26045,10132.80,0,0,3,-1.12,-1.96,0.42,0.14,0.98,0.20
36.890625,-0.01381274,-0.0015424788,0.007021235,0.14,0.98,0.2,26060,10131.10,0,0,3,-1.26,-2.17,0.77,0.14,0.98,0.20
37.191406,-0.00781274,-0.0015424788,0.012021236,0.14,0.98,0.2,26075,10131.40,0,0,3,-0.84,-2.17,1.12,0.14,0.98,0.20
36.59082,-0.005812741,-0.002542479,0.012021236,0.14,0.98,0.2,26098,10130.80,0,0,3,-0.70,-2.24,1.12,0.14,0.98,0.20
36.59082,-0.0048127407,-0.00854248,0.007021235,0.14,0.98,0.2,26113,10130.80,0,0,3,-0.63,-2.66,0.77,0.14,0.98,0.20
35.49121,-0.0048127407,-0.0035424773,0.017021235,0.14,0.98,0.2,26135,10129.70,0,0,3,-0.63,-2.31,1.47,0.14,0.98,0.20
35.49121,-0.0038127415,-0.0015424788,0.024021236,0.14,0.98,0.2,26157,10129.70,0,0,3,-0.56,-2.17,1.96,0.14,0.98,0.20
33.49121,-0.008812741,0.0024575219,0.021021236,0.14,0.98,0.2,26180,10127.70,0,0,3,-0.91,-1.89,1.75,0.14,0.98,0.20
33.49121,-0.010812741,0.005457524,0.009021236,0.14,0.98,0.2,26194,10127.70,0,0,3,-1.05,-1.68,0.91,0.14,0.98,0.20
34.49121,-0.009812742,0.008457523,0.0060212347,0.14,0.98,0.2,26217,10128.70,0,0,3,-0.98,-1.47,0.70,0.14,0.98,0.20
33.890625,-0.005812741,0.005457524,0.0060212347,0.14,0.98,0.2,26239,10128.10,0,0,3,-0.70,-1.68,0.70,0.14,0.98,0.20
34.49121,-8.12741E-4,4.575234E-4,0.014021235,0.15,0.98,0.2,26263,10128.70,0,0,3,-0.35,-2.03,1.26,0.15,0.98,0.20
35.49121,0.0071872585,4.575234E-4,0.021021236,0.14,0.98,0.2,26285,10129.70,0,0,3,0.21,-2.03,1.75,0.14,0.98,0.20
32.49121,0.006187259,-5.424768E-4,0.022021236,0.14,0.98,0.2,26307,10126.70,0,0,3,0.14,-2.10,1.82,0.14,0.98,0.20
33.49121,0.0071872585,-0.0015424788,0.014021235,0.14,0.98,0.21,26330,10127.70,0,0,3,0.21,-2.17,1.26,0.14,0.98,0.21
32.791016,0.0021872588,0.004457522,0.0050212345,0.14,0.98,0.2,26345,10127.00,0,0,3,-0.14,-1.75,0.63,0.14,0.98,0.20
37.890625,-8.12741E-4,0.013457522,0.009021236,0.14,0.98,0.2,26367,10132.10,0,0,3,-0.35,-1.12,0.91,0.14,0.98,0.20
33.49121,0.006187259,0.015457522,0.018021235,0.15,0.98,0.2,26389,10127.70,0,0,3,0.14,-0.98,1.54,0.15,0.98,0.20
32.791016,0.009187259,0.008457523,0.019021235,0.14,0.98,0.2,26405,10127.00,0,0,3,0.35,-1.47,1.61,0.14,0.98,0.20
32.791016,0.006187259,0.010457521,0.019021235,0.14,0.98,0.2,26427,10127.00,0,0,3,0.14,-1.33,1.61,0.14,0.98,0.20
33.890625,0.004187259,0.0074575227,0.015021237,0.14,0.98,0.2,26450,10128.10,0,0,3,0.00,-1.54,1.33,0.14,0.98,0.20
34.890625,0.0021872588,0.015457522,0.019021235,0.14,0.97,0.2,26481,10129.10,0,0,3,-0.14,-0.98,1.61,0.14,0.97,0.20
32.791016,0.0021872588,0.019457523,0.021021236,0.14,0.98,0.2,26495,10127.00,0,0,3,-0.14,-0.70,1.75,0.14,0.98,0.20
33.191406,-8.12741E-4,0.020457523,0.022021236,0.14,0.97,0.2,26524,10127.40,0,0,3,-0.35,-0.63,1.82,0.14,0.97,0.20
33.49121,-0.010812741,0.024457522,0.016021235,0.14,0.97,0.21,26539,10127.70,0,0,3,-1.05,-0.35,1.40,0.14,0.97,0.21
32.791016,-0.01781274,0.021457523,0.011021234,0.15,0.98,0.2,26562,10127.00,0,0,3,-1.54,-0.56,1.05,0.15,0.98,0.20
32.791016,-0.010812741,0.020457523,0.015021237,0.14,0.98,0.2,26577,10127.00,0,0,3,-1.05,-0.63,1.33,0.14,0.98,0.20
32.49121,-0.0018127407,0.012457522,0.013021236,0.14,0.98,0.2,26592,10126.70,0,0,3,-0.42,-1.19,1.19,0.14,0.98,0.20
32.791016,0.0021872588,0.011457523,0.020021234,0.14,0.98,0.21,26614,10127.00,0,0,3,-0.14,-1.26,1.68,0.14,0.98,0.21
34.890625,1.872587E-4,0.013457522,0.026021235,0.14,0.98,0.21,26637,10129.10,0,0,3,-0.28,-1.12,2.10,0.14,0.98,0.21
33.191406,0.0011872591,0.017457522,0.024021236,0.14,0.98,0.21,26652,10127.40,0,0,3,-0.21,-0.84,1.96,0.14,0.98,0.21
32.191406,0.010187259,0.024457522,0.026021235,0.14,0.98,0.21,26682,10126.40,0,0,3,0.42,-0.35,2.10,0.14,0.98,0.21
33.191406,0.014187259,0.03145752,0.023021236,0.14,0.98,0.21,26697,10127.40,0,0,3,0.70,0.14,1.89,0.14,0.98,0.21
32.791016,0.014187259,0.034457523,0.024021236,0.14,0.98,0.21,26720,10127.00,0,0,3,0.70,0.35,1.96,0.14,0.98,0.21
34.191406,0.019187259,0.039457522,0.027021237,0.15,0.98,0.2,26744,10128.40,0,0,3,1.05,0.70,2.17,0.15,0.98,0.20
34.191406,0.02118726,0.041457523,0.026021235,0.15,0.98,0.2,26765,10128.40,0,0,3,1.19,0.84,2.10,0.15,0.98,0.20
30.09082,0.02418726,0.03845752,0.029021235,0.15,0.97,0.2,26787,10124.30,0,0,3,1.40,0.63,2.31,0.15,0.97,0.20
32.791016,0.028187256,0.03345752,0.030021237,0.15,0.98,0.2,26809,10127.00,0,0,3,1.68,0.28,2.38,0.15,0.98,0.20
35.191406,0.029187258,0.032457523,0.031021236,0.15,0.98,0.2,26824,10129.40,0,0,3,1.75,0.21,2.45,0.15,0.98,0.20
34.890625,0.023187261,0.029457523,0.027021237,0.15,0.98,0.2,26841,10129.10,0,0,3,1.33,0.00,2.17,0.15,0.98,0.20
34.191406,0.018187258,0.03145752,0.017021235,0.15,0.97,0.2,26863,10128.40,0,0,3,0.98,0.14,1.47,0.15,0.97,0.20
35.191406,0.0131872585,0.028457522,0.020021234,0.15,0.98,0.2,26884,10129.40,0,0,3,0.63,-0.07,1.68,0.15,0.98,0.20
36.191406,0.011187259,0.023457523,0.016021235,0.15,0.98,0.2,26899,10130.40,0,0,3,0.49,-0.42,1.40,0.15,0.98,0.20
36.890625,0.016187258,0.019457523,0.014021235,0.15,0.98,0.19,26922,10131.10,0,0,3,0.84,-0.70,1.26,0.15,0.98,0.19
37.191406,0.016187258,0.013457522,0.007021235,0.15,0.98,0.19,26944,10131.40,0,0,3,0.84,-1.12,0.77,0.15,0.98,0.19
38.890625,0.009187259,0.009457523,0.0010212348,0.15,0.98,0.19,26967,10133.10,0,0,3,0.35,-1.40,0.35,0.15,0.98,0.19
39.291016,0.0021872588,0.005457524,-0.001978765,0.15,0.97,0.2,26990,10133.50,0,0,3,-0.14,-1.68,0.14,0.15,0.97,0.20
39.291016,-0.0018127407,0.005457524,0.0010212348,0.15,0.97,0.19,27013,10133.50,0,0,3,-0.42,-1.68,0.35,0.15,0.97,0.19
39.59082,-0.0018127407,0.005457524,0.0050212345,0.15,0.98,0.19,27041,10133.80,0,0,3,-0.42,-1.68,0.63,0.15,0.98,0.19
40.59082,0.0011872591,4.575234E-4,0.008021234,0.15,0.97,0.19,27058,10134.80,0,0,3,-0.21,-2.03,0.84,0.15,0.97,0.19
41.59082,0.004187259,-0.0035424773,0.0010212348,0.14,0.97,0.19,27072,10135.80,0,0,3,0.00,-2.31,0.35,0.14,0.97,0.19
41.59082,0.0021872588,-0.0045424793,0.0040212353,0.15,0.97,0.2,27094,10135.80,0,0,3,-0.14,-2.38,0.56,0.15,0.97,0.20
41.59082,-8.12741E-4,-0.0015424788,0.009021236,0.15,0.97,0.2,27102,10135.80,0,0,3,-0.35,-2.17,0.91,0.15,0.97,0.20
43.59082,-0.0038127415,-5.424768E-4,0.016021235,0.15,0.98,0.2,27124,10137.80,0,0,3,-0.56,-2.10,1.40,0.15,0.98,0.20
41.59082,-8.12741E-4,-0.0015424788,0.017021235,0.15,0.98,0.19,27147,10135.80,0,0,3,-0.35,-2.17,1.47,0.15,0.98,0.19
41.890625,1.872587E-4,-0.006542476,0.016021235,0.15,0.98,0.19,27169,10136.10,0,0,3,-0.28,-2.52,1.40,0.15,0.98,0.19
41.890625,-0.0018127407,-0.007542478,0.0020212345,0.15,0.98,0.2,27193,10136.10,0,0,3,-0.42,-2.59,0.42,0.15,0.98,0.20
40.59082,-0.008812741,-0.007542478,-0.005978765,0.15,0.98,0.2,27215,10134.80,0,0,3,-0.91,-2.59,-0.14,0.15,0.98,0.20
40.59082,-0.01381274,-0.009542478,-9.787653E-4,0.15,0.98,0.2,27230,10134.80,0,0,3,-1.26,-2.73,0.21,0.15,0.98,0.20
40.890625,-0.009812742,-0.015542479,2.1235086E-5,0.14,0.98,0.2,27252,10135.10,0,0,3,-0.98,-3.15,0.28,0.14,0.98,0.20
40.59082,-0.0028127413,-0.015542479,0.0010212348,0.14,0.98,0.2,27275,10134.80,0,0,3,-0.49,-3.15,0.35,0.14,0.98,0.20
40.890625,0.005187259,-0.015542479,-0.005978765,0.14,0.98,0.2,27297,10135.10,0,0,3,0.07,-3.15,-0.14,0.14,0.98,0.20
40.59082,0.0071872585,-0.012542477,-0.008978765,0.14,0.97,0.2,27312,10134.80,0,0,3,0.21,-2.94,-0.35,0.14,0.97,0.20
40.59082,0.005187259,-0.009542478,-0.008978765,0.14,0.97,0.2,27334,10134.80,0,0,3,0.07,-2.73,-0.35,0.14,0.97,0.20
39.890625,0.0011872591,-0.007542478,-9.787653E-4,0.14,0.97,0.21,27350,10134.10,0,0,3,-0.21,-2.59,0.21,0.14,0.97,0.21
40.890625,0.0011872591,-0.0055424776,0.009021236,0.14,0.98,0.2,27373,10135.10,0,0,3,-0.21,-2.45,0.91,0.14,0.98,0.20
40.59082,-8.12741E-4,-0.002542479,0.012021236,0.14,0.97,0.2,27402,10134.80,0,0,3,-0.35,-2.24,1.12,0.14,0.97,0.20
42.99121,0.0021872588,4.575234E-4,0.016021235,0.14,0.97,0.2,27417,10137.20,0,0,3,-0.14,-2.03,1.40,0.14,0.97,0.20
41.890625,0.010187259,0.009457523,0.016021235,0.14,0.98,0.2,27433,10136.10,0,0,3,0.42,-1.40,1.40,0.14,0.98,0.20
40.890625,0.012187259,0.012457522,0.018021235,0.14,0.97,0.2,27465,10135.10,0,0,3,0.56,-1.19,1.54,0.14,0.97,0.20
41.890625,0.014187259,0.013457522,0.017021235,0.15,0.97,0.2,27477,10136.10,0,0,3,0.70,-1.12,1.47,0.15,0.97,0.20
40.890625,0.006187259,0.016457522,0.021021236,0.15,0.97,0.2,27500,10135.10,0,0,3,0.14,-0.91,1.75,0.15,0.97,0.20
40.291016,0.0021872588,0.015457522,0.021021236,0.15,0.98,0.2,27530,10134.50,0,0,3,-0.14,-0.98,1.75,0.15,0.98,0.20
43.99121,0.008187259,0.020457523,0.022021236,0.15,0.97,0.2,27545,10138.20,0,0,3,0.28,-0.63,1.82,0.15,0.97,0.20
36.890625,0.011187259,0.023457523,0.023021236,0.15,0.98,0.2,27575,10131.10,0,0,3,0.49,-0.42,1.89,0.15,0.98,0.20
40.890625,0.012187259,0.024457522,0.024021236,0.15,0.99,0.2,27576,10135.10,0,0,3,0.56,-0.35,1.96,0.15,0.99,0.20
41.291016,0.011187259,0.021457523,0.015021237,0.15,0.98,0.2,27590,10135.50,0,0,3,0.49,-0.56,1.33,0.15,0.98,0.20
33.791016,0.009187259,0.025457522,0.012021236,0.15,0.98,0.2,27613,10128.00,0,0,3,0.35,-0.28,1.12,0.15,0.98,0.20
45.99121,0.006187259,0.026457522,0.008021234,0.15,0.98,0.2,27635,10140.20,0,0,3,0.14,-0.21,0.84,0.15,0.98,0.20
41.890625,0.0131872585,0.021457523,0.012021236,0.15,0.98,0.2,27657,10136.10,0,0,3,0.63,-0.56,1.12,0.15,0.98,0.20
40.890625,0.018187258,0.016457522,0.011021234,0.15,0.97,0.2,27681,10135.10,0,0,3,0.98,-0.91,1.05,0.15,0.97,0.20
41.890625,0.018187258,0.018457523,0.011021234,0.15,0.97,0.2,27709,10136.10,0,0,3,0.98,-0.77,1.05,0.15,0.97,0.20
40.890625,0.016187258,0.022457521,0.012021236,0.15,0.97,0.2,27725,10135.10,0,0,3,0.84,-0.49,1.12,0.15,0.97,0.20
41.291016,0.008187259,0.022457521,0.015021237,0.15,0.97,0.2,27748,10135.50,0,0,3,0.28,-0.49,1.33,0.15,0.97,0.20
39.890625,0.009187259,0.024457522,0.016021235,0.15,0.98,0.19,27762,10134.10,0,0,3,0.35,-0.35,1.40,0.15,0.98,0.19
41.291016,0.015187259,0.024457522,0.016021235,0.15,0.98,0.19,27784,10135.50,0,0,3,0.77,-0.35,1.40,0.15,0.98,0.19
41.890625,0.0131872585,0.023457523,0.0050212345,0.15,0.97,0.2,27807,10136.10,0,0,3,0.63,-0.42,0.63,0.15,0.97,0.20
41.291016,0.006187259,0.020457523,0.003021235,0.16,0.98,0.19,27822,10135.50,0,0,3,0.14,-0.63,0.49,0.16,0.98,0.19
40.291016,0.0011872591,0.024457522,0.007021235,0.15,0.97,0.19,27837,10134.50,0,0,3,-0.21,-0.35,0.77,0.15,0.97,0.19
42.291016,0.0021872588,0.017457522,0.013021236,0.15,0.98,0.19,27859,10136.50,0,0,3,-0.14,-0.84,1.19,0.15,0.98,0.19
41.291016,-8.12741E-4,0.0064575225,0.012021236,0.15,0.97,0.19,27883,10135.50,0,0,3,-0.35,-1.61,1.12,0.15,0.97,0.19
42.59082,0.004187259,0.003457522,0.009021236,0.15,0.98,0.19,27912,10136.80,0,0,3,0.00,-1.82,0.91,0.15,0.98,0.19
40.291016,0.009187259,0.004457522,0.0060212347,0.15,0.98,0.2,27927,10134.50,0,0,3,0.35,-1.75,0.70,0.15,0.98,0.20
41.291016,0.009187259,0.010457521,0.0060212347,0.15,0.97,0.2,27950,10135.50,0,0,3,0.35,-1.33,0.70,0.15,0.97,0.20
41.291016,0.0011872591,0.016457522,0.010021236,0.15,0.97,0.2,27972,10135.50,0,0,3,-0.21,-0.91,0.98,0.15,0.97,0.20
41.291016,-0.005812741,0.017457522,0.008021234,0.15,0.98,0.2,28004,10135.50,0,0,3,-0.70,-0.84,0.84,0.15,0.98,0.20
40.291016,-0.011812742,0.013457522,0.008021234,0.15,0.97,0.19,28009,10134.50,0,0,3,-1.12,-1.12,0.84,0.15,0.97,0.19
42.99121,-0.00781274,0.009457523,0.011021234,0.15,0.98,0.19,28039,10137.20,0,0,3,-0.84,-1.40,1.05,0.15,0.98,0.19
41.59082,1.872587E-4,0.003457522,0.007021235,0.15,0.98,0.19,28055,10135.80,0,0,3,-0.28,-1.82,0.77,0.15,0.98,0.19
40.890625,0.0021872588,4.575234E-4,0.0060212347,0.15,0.98,0.2,28070,10135.10,0,0,3,-0.14,-2.03,0.70,0.15,0.98,0.20
41.291016,0.0031872587,-0.0035424773,0.0040212353,0.15,0.97,0.2,28085,10135.50,0,0,3,-0.07,-2.31,0.56,0.15,0.97,0.20
42.59082,1.872587E-4,-0.0015424788,0.007021235,0.15,0.97,0.2,28114,10136.80,0,0,3,-0.28,-2.17,0.77,0.15,0.97,0.20
41.59082,-0.0018127407,0.003457522,0.018021235,0.14,0.97,0.2,28130,10135.80,0,0,3,-0.42,-1.82,1.54,0.14,0.97,0.20
41.59082,-0.0038127415,0.008457523,0.018021235,0.14,0.98,0.2,28152,10135.80,0,0,3,-0.56,-1.47,1.54,0.14,0.98,0.20
43.291016,-0.008812741,0.012457522,0.009021236,0.14,0.98,0.2,28175,10137.50,0,0,3,-0.91,-1.19,0.91,0.14,0.98,0.20
42.59082,-0.012812742,0.015457522,0.0010212348,0.15,0.98,0.2,28197,10136.80,0,0,3,-1.19,-0.98,0.35,0.15,0.98,0.20
41.291016,-0.011812742,0.015457522,0.0060212347,0.15,0.98,0.2,28220,10135.50,0,0,3,-1.12,-0.98,0.70,0.15,0.98,0.20
41.59082,-0.0038127415,0.0074575227,0.009021236,0.15,0.98,0.2,28242,10135.80,0,0,3,-0.56,-1.54,0.91,0.15,0.98,0.20
41.59082,0.0031872587,0.0014575217,0.010021236,0.15,0.98,0.2,28257,10135.80,0,0,3,-0.07,-1.96,0.98,0.15,0.98,0.20
41.291016,0.004187259,-5.424768E-4,0.010021236,0.15,0.97,0.2,28280,10135.50,0,0,3,0.00,-2.10,0.98,0.15,0.97,0.20
41.59082,0.0021872588,0.0014575217,0.016021235,0.15,0.97,0.2,28302,10135.80,0,0,3,-0.14,-1.96,1.40,0.15,0.97,0.20
41.291016,-0.0018127407,0.008457523,0.017021235,0.15,0.97,0.2,28324,10135.50,0,0,3,-0.42,-1.47,1.47,0.15,0.97,0.20
41.59082,1.872587E-4,0.010457521,0.017021235,0.15,0.98,0.2,28340,10135.80,0,0,3,-0.28,-1.33,1.47,0.15,0.98,0.20
41.59082,0.0071872585,0.016457522,0.016021235,0.15,0.98,0.2,28362,10135.80,0,0,3,0.21,-0.91,1.40,0.15,0.98,0.20
40.59082,0.006187259,0.019457523,0.007021235,0.15,0.98,0.2,28392,10134.80,0,0,3,0.14,-0.70,0.77,0.15,0.98,0.20
39.59082,-8.12741E-4,0.017457522,2.1235086E-5,0.15,0.98,0.2,28407,10133.80,0,0,3,-0.35,-0.84,0.28,0.15,0.98,0.20
42.291016,-0.0028127413,0.011457523,2.1235086E-5,0.15,0.98,0.19,28444,10136.50,0,0,3,-0.49,-1.26,0.28,0.15,0.98,0.19
41.890625,0.0011872591,-0.0015424788,-0.002978765,0.15,0.97,0.19,28452,10136.10,0,0,3,-0.21,-2.17,0.07,0.15,0.97,0.19
41.890625,1.872587E-4,-0.011542475,2.1235086E-5,0.15,0.97,0.2,28467,10136.10,0,0,3,-0.28,-2.87,0.28,0.15,0.97,0.20
41.59082,-8.12741E-4,-0.011542475,0.0060212347,0.15,0.98,0.2,28489,10135.80,0,0,3,-0.35,-2.87,0.70,0.15,0.98,0.20
41.890625,-0.0018127407,-0.0035424773,0.008021234,0.14,0.97,0.2,28513,10136.10,0,0,3,-0.42,-2.31,0.84,0.14,0.97,0.20
39.59082,-0.0038127415,0.005457524,0.008021234,0.15,0.98,0.2,28538,10133.80,0,0,3,-0.56,-1.68,0.84,0.15,0.98,0.20
41.890625,-0.005812741,0.010457521,0.007021235,0.14,0.98,0.2,28565,10136.10,0,0,3,-0.70,-1.33,0.77,0.14,0.98,0.20
41.59082,-8.12741E-4,0.016457522,0.0060212347,0.14,0.98,0.2,28573,10135.80,0,0,3,-0.35,-0.91,0.70,0.14,0.98,0.20
41.59082,0.0011872591,0.016457522,0.0050212345,0.15,0.98,0.2,28587,10135.80,0,0,3,-0.21,-0.91,0.63,0.15,0.98,0.20
43.59082,0.009187259,0.017457522,0.003021235,0.15,0.98,0.2,28611,10137.80,0,0,3,0.35,-0.84,0.49,0.15,0.98,0.20
41.890625,0.0011872591,0.015457522,0.0040212353,0.15,0.98,0.2,28640,10136.10,0,0,3,-0.21,-0.98,0.56,0.15,0.98,0.20
40.890625,-0.0038127415,0.011457523,0.0060212347,0.15,0.98,0.2,28655,10135.10,0,0,3,-0.56,-1.26,0.70,0.15,0.98,0.20
38.890625,0.0021872588,0.008457523,0.007021235,0.15,0.98,0.2,28677,10133.10,0,0,3,-0.14,-1.47,0.77,0.15,0.98,0.20
40.890625,0.0031872587,0.003457522,0.011021234,0.14,0.98,0.2,28692,10135.10,0,0,3,-0.07,-1.82,1.05,0.14,0.98,0.20
42.59082,0.25918725,0.003457522,2.1235086E-5,0.14,0.98,0.2,28715,10136.80,0,0,3,17.85,-1.82,0.28,0.14,0.98,0.20
42.890625,0.004187259,0.009457523,-0.016978765,0.14,0.98,0.2,28744,10137.10,0,0,3,0.00,-1.40,-0.91,0.14,0.98,0.20
41.890625,-0.0018127407,0.014457523,-0.019978765,0.14,0.97,0.2,28759,10136.10,0,0,3,-0.42,-1.05,-1.12,0.14,0.97,0.20
41.890625,-0.005812741,0.011457523,-0.003978765,0.15,0.97,0.2,28783,10136.10,0,0,3,-0.70,-1.26,0.00,0.15,0.97,0.20
37.191406,-0.0038127415,0.0074575227,0.010021236,0.14,0.97,0.2,28805,10131.40,0,0,3,-0.56,-1.54,0.98,0.14,0.97,0.20
43.99121,-0.0038127415,0.004457522,0.014021235,0.14,0.97,0.2,28820,10138.20,0,0,3,-0.56,-1.75,1.26,0.14,0.97,0.20
41.890625,0.0011872591,0.003457522,0.014021235,0.14,0.98,0.2,28835,10136.10,0,0,3,-0.21,-1.82,1.26,0.14,0.98,0.20
41.291016,0.006187259,0.009457523,0.016021235,0.14,0.98,0.2,28849,10135.50,0,0,3,0.14,-1.40,1.40,0.14,0.98,0.20
40.890625,0.006187259,0.011457523,0.013021236,0.14,0.97,0.2,28872,10135.10,0,0,3,0.14,-1.26,1.19,0.14,0.97,0.20
41.291016,1.872587E-4,0.018457523,0.014021235,0.14,0.98,0.2,28894,10135.50,0,0,3,-0.28,-0.77,1.26,0.14,0.98,0.20
43.291016,0.0031872587,0.021457523,0.011021234,0.14,0.98,0.2,28925,10137.50,0,0,3,-0.07,-0.56,1.05,0.14,0.98,0.20
43.291016,0.0011872591,0.016457522,0.0020212345,0.14,0.98,0.2,28939,10137.50,0,0,3,-0.21,-0.91,0.42,0.14,0.98,0.20
42.291016,1.872587E-4,0.014457523,0.0010212348,0.15,0.98,0.2,28961,10136.50,0,0,3,-0.28,-1.05,0.35,0.15,0.98,0.20
42.291016,0.0031872587,0.011457523,2.1235086E-5,0.15,0.98,0.2,28985,10136.50,0,0,3,-0.07,-1.26,0.28,0.15,0.98,0.20
42.291016,0.0031872587,0.004457522,0.0020212345,0.15,0.97,0.2,29007,10136.50,0,0,3,-0.07,-1.75,0.42,0.15,0.97,0.20
41.291016,0.0011872591,-0.002542479,0.009021236,0.14,0.98,0.2,29022,10135.50,0,0,3,-0.21,-2.24,0.91,0.14,0.98,0.20
42.291016,0.0031872587,-5.424768E-4,0.012021236,0.14,0.97,0.2,29045,10136.50,0,0,3,-0.07,-2.10,1.12,0.14,0.97,0.20
41.59082,0.0011872591,0.0024575219,0.014021235,0.14,0.97,0.2,29059,10135.80,0,0,3,-0.21,-1.89,1.26,0.14,0.97,0.20
41.291016,0.0031872587,0.0064575225,0.011021234,0.14,0.98,0.2,29082,10135.50,0,0,3,-0.07,-1.61,1.05,0.14,0.98,0.20
42.291016,0.005187259,0.009457523,0.0060212347,0.14,0.98,0.2,29098,10136.50,0,0,3,0.07,-1.40,0.70,0.14,0.98,0.20
42.291016,0.004187259,0.011457523,0.007021235,0.14,0.97,0.2,29119,10136.50,0,0,3,0.00,-1.26,0.77,0.14,0.97,0.20
42.291016,0.0071872585,0.013457522,0.014021235,0.14,0.98,0.2,29142,10136.50,0,0,3,0.21,-1.12,1.26,0.14,0.98,0.20
42.291016,0.005187259,0.0074575227,0.019021235,0.15,0.97,0.2,29157,10136.50,0,0,3,0.07,-1.54,1.61,0.15,0.97,0.20
43.291016,-0.0038127415,0.003457522,0.021021236,0.14,0.97,0.2,29179,10137.50,0,0,3,-0.56,-1.82,1.75,0.14,0.97,0.20
43.291016,-0.0028127413,0.0074575227,0.025021235,0.14,0.98,0.2,29201,10137.50,0,0,3,-0.49,-1.54,2.03,0.14,0.98,0.20
41.291016,0.0071872585,0.008457523,0.028021237,0.14,0.98,0.2,29232,10135.50,0,0,3,0.21,-1.47,2.24,0.14,0.98,0.20
42.59082,0.011187259,0.009457523,0.022021236,0.14,0.98,0.2,29247,10136.80,0,0,3,0.49,-1.40,1.82,0.14,0.98,0.20
42.291016,0.011187259,0.010457521,0.011021234,0.14,0.98,0.2,29270,10136.50,0,0,3,0.49,-1.33,1.05,0.14,0.98,0.20
42.291016,0.0031872587,0.016457522,0.0020212345,0.15,0.97,0.2,29292,10136.50,0,0,3,-0.07,-0.91,0.42,0.15,0.97,0.20
42.59082,-0.005812741,0.015457522,0.003021235,0.15,0.97,0.2,29314,10136.80,0,0,3,-0.70,-0.98,0.49,0.15,0.97,0.20
42.59082,-0.0038127415,0.010457521,0.016021235,0.15,0.98,0.2,29330,10136.80,0,0,3,-0.56,-1.33,1.40,0.15,0.98,0.20
41.59082,-8.12741E-4,0.0014575217,0.021021236,0.15,0.98,0.19,29345,10135.80,0,0,3,-0.35,-1.96,1.75,0.15,0.98,0.19
39.191406,0.006187259,-0.0045424793,0.021021236,0.15,0.98,0.2,29367,10133.40,0,0,3,0.14,-2.38,1.75,0.15,0.98,0.20
42.890625,0.008187259,0.003457522,0.019021235,0.15,0.97,0.2,29389,10137.10,0,0,3,0.28,-1.82,1.61,0.15,0.97,0.20
42.59082,0.0021872588,0.012457522,0.017021235,0.15,0.97,0.2,29412,10136.80,0,0,3,-0.14,-1.19,1.47,0.15,0.97,0.20
42.59082,-8.12741E-4,0.021457523,0.019021235,0.14,0.97,0.2,29434,10136.80,0,0,3,-0.35,-0.56,1.61,0.14,0.97,0.20
41.59082,0.0021872588,0.023457523,0.017021235,0.15,0.98,0.2,29450,10135.80,0,0,3,-0.14,-0.42,1.47,0.15,0.98,0.20
43.59082,0.0011872591,0.014457523,0.011021234,0.15,0.98,0.2,29472,10137.80,0,0,3,-0.21,-1.05,1.05,0.15,0.98,0.20
39.890625,-0.0038127415,0.013457522,0.012021236,0.15,0.98,0.2,29495,10134.10,0,0,3,-0.56,-1.12,1.12,0.15,0.98,0.20
42.59082,-0.0038127415,0.013457522,0.016021235,0.15,0.98,0.2,29525,10136.80,0,0,3,-0.56,-1.12,1.40,0.15,0.98,0.20
42.59082,1.872587E-4,0.011457523,0.018021235,0.15,0.98,0.2,29539,10136.80,0,0,3,-0.28,-1.26,1.54,0.15,0.98,0.20
42.59082,0.0021872588,0.010457521,0.014021235,0.14,0.98,0.2,29554,10136.80,0,0,3,-0.14,-1.33,1.26,0.14,0.98,0.20
42.59082,0.006187259,0.009457523,0.008021234,0.15,0.98,0.2,29569,10136.80,0,0,3,0.14,-1.40,0.84,0.15,0.98,0.20
43.291016,0.008187259,0.017457522,0.010021236,0.15,0.97,0.2,29600,10137.50,0,0,3,0.28,-0.84,0.98,0.15,0.97,0.20
42.59082,0.006187259,0.019457523,0.007021235,0.15,0.97,0.2,29607,10136.80,0,0,3,0.14,-0.70,0.77,0.15,0.97,0.20
42.59082,0.005187259,0.020457523,0.0060212347,0.15,0.98,0.2,29629,10136.80,0,0,3,0.07,-0.63,0.70,0.15,0.98,0.20
43.890625,0.0031872587,0.019457523,0.012021236,0.15,0.98,0.2,29645,10138.10,0,0,3,-0.07,-0.70,1.12,0.15,0.98,0.20
42.59082,0.0021872588,0.018457523,0.015021237,0.15,0.98,0.2,29667,10136.80,0,0,3,-0.14,-0.77,1.33,0.15,0.98,0.20
42.59082,0.004187259,0.015457522,0.014021235,0.15,0.98,0.2,29689,10136.80,0,0,3,0.00,-0.98,1.26,0.15,0.98,0.20
42.59082,0.0011872591,0.013457522,0.008021234,0.15,0.97,0.2,29719,10136.80,0,0,3,-0.21,-1.12,0.84,0.15,0.97,0.20
41.890625,0.0031872587,0.012457522,0.010021236,0.15,0.97,0.2,29734,10136.10,0,0,3,-0.07,-1.19,0.98,0.15,0.97,0.20
42.890625,0.009187259,0.013457522,0.020021234,0.15,0.97,0.2,29758,10137.10,0,0,3,0.35,-1.12,1.68,0.15,0.97,0.20
42.890625,0.0071872585,0.015457522,0.024021236,0.15,0.98,0.2,29781,10137.10,0,0,3,0.21,-0.98,1.96,0.15,0.98,0.20
42.59082,0.0031872587,0.018457523,0.017021235,0.14,0.98,0.21,29802,10136.80,0,0,3,-0.07,-0.77,1.47,0.14,0.98,0.21
42.890625,0.0011872591,0.021457523,0.012021236,0.15,0.98,0.2,29817,10137.10,0,0,3,-0.21,-0.56,1.12,0.15,0.98,0.20
42.890625,-0.0038127415,0.025457522,0.010021236,0.15,0.97,0.2,29832,10137.10,0,0,3,-0.56,-0.28,0.98,0.15,0.97,0.20
42.890625,-0.006812741,0.020457523,0.010021236,0.15,0.98,0.2,29854,10137.10,0,0,3,-0.77,-0.63,0.98,0.15,0.98,0.20
42.890625,-0.0018127407,0.014457523,0.013021236,0.15,0.98,0.2,29870,10137.10,0,0,3,-0.42,-1.05,1.19,0.15,0.98,0.20
41.890625,0.005187259,0.0064575225,0.010021236,0.15,0.98,0.2,29892,10136.10,0,0,3,0.07,-1.61,0.98,0.15,0.98,0.20
43.890625,0.008187259,0.004457522,0.008021234,0.15,0.97,0.2,29915,10138.10,0,0,3,0.28,-1.75,0.84,0.15,0.97,0.20
43.890625,0.005187259,0.009457523,0.013021236,0.15,0.97,0.2,29945,10138.10,0,0,3,0.07,-1.40,1.19,0.15,0.97,0.20
42.890625,-0.0028127413,0.012457522,0.015021237,0.15,0.97,0.2,29959,10137.10,0,0,3,-0.49,-1.19,1.33,0.15,0.97,0.20
41.890625,-0.005812741,0.014457523,0.014021235,0.15,0.98,0.2,29974,10136.10,0,0,3,-0.70,-1.05,1.26,0.15,0.98,0.20
43.890625,-0.0048127407,0.013457522,0.007021235,0.15,0.97,0.2,29997,10138.10,0,0,3,-0.63,-1.12,0.77,0.15,0.97,0.20
42.890625,-0.0038127415,0.010457521,2.1235086E-5,0.16,0.98,0.2,30019,10137.10,0,0,3,-0.56,-1.33,0.28,0.16,0.98,0.20
42.890625,0.0011872591,0.011457523,0.0050212345,0.16,0.98,0.2,30042,10137.10,0,0,3,-0.21,-1.26,0.63,0.16,0.98,0.20
41.890625,0.0011872591,0.0064575225,0.011021234,0.15,0.98,0.2,30072,10136.10,0,0,3,-0.21,-1.61,1.05,0.15,0.98,0.20
42.890625,0.0021872588,4.575234E-4,0.0060212347,0.15,0.98,0.2,30080,10137.10,0,0,3,-0.14,-2.03,0.70,0.15,0.98,0.20
44.291016,0.004187259,-0.002542479,0.009021236,0.15,0.97,0.2,30094,10138.50,0,0,3,0.00,-2.24,0.91,0.15,0.97,0.20
42.890625,0.004187259,-0.0035424773,0.0050212345,0.15,0.98,0.2,30117,10137.10,0,0,3,0.00,-2.31,0.63,0.15,0.98,0.20
43.291016,0.004187259,0.0024575219,0.008021234,0.15,0.98,0.2,30139,10137.50,0,0,3,0.00,-1.89,0.84,0.15,0.98,0.20
43.291016,0.006187259,0.010457521,0.007021235,0.15,0.98,0.2,30177,10137.50,0,0,3,0.14,-1.33,0.77,0.15,0.98,0.20
43.890625,1.872587E-4,0.010457521,0.0020212345,0.15,0.98,0.2,30184,10138.10,0,0,3,-0.28,-1.33,0.42,0.15,0.98,0.20
44.291016,-0.0028127413,0.008457523,-0.003978765,0.15,0.97,0.2,30199,10138.50,0,0,3,-0.49,-1.47,0.00,0.15,0.97,0.20
42.890625,-8.12741E-4,0.003457522,-0.005978765,0.15,0.97,0.2,30222,10137.10,0,0,3,-0.35,-1.82,-0.14,0.15,0.97,0.20
44.59082,-0.0048127407,-0.0015424788,0.0020212345,0.15,0.98,0.2,30244,10138.80,0,0,3,-0.63,-2.17,0.42,0.15,0.98,0.20
42.890625,1.872587E-4,-0.0045424793,0.008021234,0.15,0.97,0.2,30267,10137.10,0,0,3,-0.28,-2.38,0.84,0.15,0.97,0.20
44.99121,0.0011872591,-0.007542478,0.019021235,0.14,0.98,0.21,30290,10139.20,0,0,3,-0.21,-2.59,1.61,0.14,0.98,0.21
43.291016,-0.0028127413,-0.0035424773,0.011021234,0.14,0.98,0.2,30312,10137.50,0,0,3,-0.49,-2.31,1.05,0.14,0.98,0.20
43.291016,-0.0018127407,0.0014575217,0.0040212353,0.14,0.98,0.2,30335,10137.50,0,0,3,-0.42,-1.96,0.56,0.14,0.98,0.20
44.890625,-0.0038127415,0.011457523,-0.001978765,0.14,0.97,0.2,30342,10139.10,0,0,3,-0.56,-1.26,0.14,0.14,0.97,0.20
38.49121,-8.12741E-4,0.015457522,2.1235086E-5,0.15,0.98,0.21,30365,10132.70,0,0,3,-0.35,-0.98,0.28,0.15,0.98,0.21
43.291016,-0.0028127413,0.014457523,0.014021235,0.15,0.98,0.2,30387,10137.50,0,0,3,-0.49,-1.05,1.26,0.15,0.98,0.20
44.291016,1.872587E-4,0.004457522,0.018021235,0.15,0.98,0.2,30417,10138.50,0,0,3,-0.28,-1.75,1.54,0.15,0.98,0.20
43.291016,0.0031872587,0.004457522,0.014021235,0.15,0.98,0.2,30432,10137.50,0,0,3,-0.07,-1.75,1.26,0.15,0.98,0.20
46.291016,0.005187259,0.009457523,0.011021234,0.15,0.98,0.21,30455,10140.50,0,0,3,0.07,-1.40,1.05,0.15,0.98,0.21
39.191406,0.009187259,0.010457521,0.007021235,0.15,0.98,0.2,30478,10133.40,0,0,3,0.35,-1.33,0.77,0.15,0.98,0.20
42.890625,0.009187259,0.015457522,0.007021235,0.15,0.98,0.21,30500,10137.10,0,0,3,0.35,-0.98,0.77,0.15,0.98,0.21
44.291016,0.0021872588,0.015457522,0.003021235,0.15,0.97,0.2,30522,10138.50,0,0,3,-0.14,-0.98,0.49,0.15,0.97,0.20
44.59082,-0.005812741,0.014457523,-0.001978765,0.15,0.98,0.2,30544,10138.80,0,0,3,-0.70,-1.05,0.14,0.15,0.98,0.20
43.59082,-0.0028127413,0.014457523,0.0010212348,0.15,0.98,0.2,30559,10137.80,0,0,3,-0.49,-1.05,0.35,0.15,0.98,0.20
43.59082,0.006187259,0.013457522,0.0020212345,0.15,0.98,0.2,30574,10137.80,0,0,3,0.14,-1.12,0.42,0.15,0.98,0.20
43.59082,0.010187259,0.009457523,0.003021235,0.15,0.98,0.2,30590,10137.80,0,0,3,0.42,-1.40,0.49,0.15,0.98,0.20
43.291016,0.011187259,0.009457523,0.007021235,0.15,0.97,0.2,30612,10137.50,0,0,3,0.49,-1.40,0.77,0.15,0.97,0.20
43.291016,0.006187259,0.010457521,0.012021236,0.15,0.97,0.2,30634,10137.50,0,0,3,0.14,-1.33,1.12,0.15,0.97,0.20
45.291016,-0.0038127415,0.012457522,0.017021235,0.15,0.97,0.2,30657,10139.50,0,0,3,-0.56,-1.19,1.47,0.15,0.97,0.20
42.291016,-0.0048127407,0.017457522,0.013021236,0.15,0.98,0.2,30680,10136.50,0,0,3,-0.63,-0.84,1.19,0.15,0.98,0.20
44.99121,-0.0048127407,0.020457523,0.012021236,0.15,0.98,0.2,30702,10139.20,0,0,3,-0.63,-0.63,1.12,0.15,0.98,0.20
45.59082,-0.005812741,0.014457523,0.007021235,0.15,0.98,0.2,30717,10139.80,0,0,3,-0.70,-1.05,0.77,0.15,0.98,0.20
44.59082,-0.0048127407,0.014457523,0.0060212347,0.15,0.97,0.2,30740,10138.80,0,0,3,-0.63,-1.05,0.70,0.15,0.97,0.20
45.291016,1.872587E-4,0.008457523,-9.787653E-4,0.15,0.97,0.2,30778,10139.50,0,0,3,-0.28,-1.47,0.21,0.15,0.97,0.20
45.291016,0.006187259,0.003457522,0.009021236,0.15,0.97,0.2,30785,10139.50,0,0,3,0.14,-1.82,0.91,0.15,0.97,0.20
43.59082,0.009187259,0.0074575227,0.019021235,0.15,0.97,0.21,30807,10137.80,0,0,3,0.35,-1.54,1.61,0.15,0.97,0.21
43.890625,0.004187259,0.008457523,0.023021236,0.14,0.97,0.21,30822,10138.10,0,0,3,0.00,-1.47,1.89,0.14,0.97,0.21
43.59082,-8.12741E-4,0.011457523,0.011021234,0.14,0.98,0.21,30837,10137.80,0,0,3,-0.35,-1.26,1.05,0.14,0.98,0.21
43.59082,-0.009812742,0.013457522,-9.787653E-4,0.15,0.97,0.21,30860,10137.80,0,0,3,-0.98,-1.12,0.21,0.15,0.97,0.21
44.59082,-0.010812741,0.011457523,0.0010212348,0.16,0.98,0.2,30882,10138.80,0,0,3,-1.05,-1.26,0.35,0.16,0.98,0.20
45.59082,-0.0018127407,0.004457522,0.013021236,0.15,0.98,0.2,30912,10139.80,0,0,3,-0.42,-1.75,1.19,0.15,0.98,0.20
44.59082,0.004187259,-0.0045424793,0.021021236,0.15,0.97,0.21,30928,10138.80,0,0,3,0.00,-2.38,1.75,0.15,0.97,0.21
43.59082,0.008187259,-0.006542476,0.015021237,0.15,0.98,0.21,30949,10137.80,0,0,3,0.28,-2.52,1.33,0.15,0.98,0.21
44.59082,0.008187259,-0.006542476,0.010021236,0.15,0.98,0.21,30971,10138.80,0,0,3,0.28,-2.52,0.98,0.15,0.98,0.21
44.59082,0.010187259,0.0014575217,0.011021234,0.15,0.97,0.21,30995,10138.80,0,0,3,0.42,-1.96,1.05,0.15,0.97,0.21
44.59082,0.015187259,0.004457522,0.012021236,0.15,0.98,0.2,31017,10138.80,0,0,3,0.77,-1.75,1.12,0.15,0.98,0.20
41.890625,0.014187259,-0.0015424788,0.0010212348,0.15,0.98,0.2,31032,10136.10,0,0,3,0.70,-2.17,0.35,0.15,0.98,0.20
43.890625,0.014187259,-0.0035424773,-0.002978765,0.15,0.98,0.2,31055,10138.10,0,0,3,0.70,-2.31,0.07,0.15,0.98,0.20
43.890625,0.020187259,-0.006542476,-0.0049787653,0.15,0.98,0.2,31085,10138.10,0,0,3,1.12,-2.52,-0.07,0.15,0.98,0.20
44.59082,0.029187258,-0.0045424793,-0.005978765,0.15,0.98,0.19,31092,10138.80,0,0,3,1.75,-2.38,-0.14,0.15,0.98,0.19
47.691406,0.03518726,-0.0045424793,-9.787653E-4,0.15,0.98,0.2,31115,10141.90,0,0,3,2.17,-2.38,0.21,0.15,0.98,0.20
44.59082,0.03518726,-0.002542479,0.0050212345,0.14,0.97,0.2,31130,10138.80,0,0,3,2.17,-2.24,0.63,0.14,0.97,0.20
43.59082,0.03018726,4.575234E-4,0.011021234,0.14,0.97,0.19,31159,10137.80,0,0,3,1.82,-2.03,1.05,0.14,0.97,0.19
42.890625,0.019187259,0.003457522,0.010021236,0.14,0.97,0.19,31174,10137.10,0,0,3,1.05,-1.82,0.98,0.14,0.97,0.19
42.59082,0.010187259,0.003457522,0.0060212347,0.14,0.98,0.19,31196,10136.80,0,0,3,0.42,-1.82,0.70,0.14,0.98,0.19
43.890625,0.0031872587,0.0064575225,0.009021236,0.15,0.97,0.19,31219,10138.10,0,0,3,-0.07,-1.61,0.91,0.15,0.97,0.19
46.99121,-0.005812741,4.575234E-4,0.016021235,0.15,0.97,0.19,31242,10141.20,0,0,3,-0.70,-2.03,1.40,0.15,0.97,0.19
43.890625,-0.01981274,-0.006542476,0.011021234,0.14,0.98,0.19,31265,10138.10,0,0,3,-1.68,-2.52,1.05,0.14,0.98,0.19
44.890625,-0.025812741,-0.011542475,0.013021236,0.15,0.98,0.2,31297,10139.10,0,0,3,-2.10,-2.87,1.19,0.15,0.98,0.20
38.890625,-0.01981274,-0.0055424776,0.017021235,0.15,0.98,0.2,31301,10133.10,0,0,3,-1.68,-2.45,1.47,0.15,0.98,0.20
44.59082,-0.020812742,4.575234E-4,0.011021234,0.14,0.98,0.2,31324,10138.80,0,0,3,-1.75,-2.03,1.05,0.14,0.98,0.20
43.890625,-0.020812742,0.004457522,2.1235086E-5,0.14,0.98,0.2,31340,10138.10,0,0,3,-1.75,-1.75,0.28,0.14,0.98,0.20
43.890625,-0.014812742,0.018457523,-0.014978765,0.14,0.98,0.21,31363,10138.10,0,0,3,-1.33,-0.77,-0.77,0.14,0.98,0.21
44.890625,-0.014812742,0.030457523,-0.018978765,0.14,0.98,0.21,31392,10139.10,0,0,3,-1.33,0.07,-1.05,0.14,0.98,0.21
44.890625,-0.009812742,0.03345752,-0.012978764,0.15,0.98,0.2,31407,10139.10,0,0,3,-0.98,0.28,-0.63,0.15,0.98,0.20
44.890625,-0.0038127415,0.028457522,-0.008978765,0.15,0.98,0.2,31429,10139.10,0,0,3,-0.56,-0.07,-0.35,0.15,0.98,0.20
44.890625,0.0011872591,0.019457523,-0.006978765,0.15,0.98,0.2,31459,10139.10,0,0,3,-0.21,-0.70,-0.21,0.15,0.98,0.20
44.890625,0.0031872587,0.014457523,-0.007978765,0.14,0.98,0.21,31476,10139.10,0,0,3,-0.07,-1.05,-0.28,0.14,0.98,0.21
44.890625,0.0031872587,0.014457523,2.1235086E-5,0.14,0.97,0.2,31497,10139.10,0,0,3,-0.07,-1.05,0.28,0.14,0.97,0.20
45.291016,0.005187259,0.020457523,2.1235086E-5,0.14,0.98,0.2,31519,10139.50,0,0,3,0.07,-0.63,0.28,0.14,0.98,0.20
44.291016,0.004187259,0.022457521,-0.013978764,0.14,0.98,0.21,31542,10138.50,0,0,3,0.00,-0.49,-0.70,0.14,0.98,0.21
44.890625,0.005187259,0.019457523,-0.019978765,0.14,0.98,0.2,31557,10139.10,0,0,3,0.07,-0.70,-1.12,0.14,0.98,0.20
44.291016,0.0031872587,0.015457522,-0.014978765,0.14,0.98,0.2,31595,10138.50,0,0,3,-0.07,-0.98,-0.77,0.14,0.98,0.20
43.291016,0.006187259,0.011457523,-9.787653E-4,0.14,0.98,0.2,31596,10137.50,0,0,3,0.14,-1.26,0.21,0.14,0.98,0.20
43.890625,0.010187259,0.0024575219,0.0060212347,0.14,0.97,0.2,31617,10138.10,0,0,3,0.42,-1.89,0.70,0.14,0.97,0.20
43.890625,0.0131872585,4.575234E-4,0.010021236,0.14,0.97,0.2,31633,10138.10,0,0,3,0.63,-2.03,0.98,0.14,0.97,0.20
43.890625,0.014187259,0.0024575219,0.016021235,0.14,0.97,0.2,31654,10138.10,0,0,3,0.70,-1.89,1.40,0.14,0.97,0.20
45.291016,0.010187259,0.003457522,0.016021235,0.14,0.98,0.2,31680,10139.50,0,0,3,0.42,-1.82,1.40,0.14,0.98,0.20
44.291016,0.012187259,0.005457524,0.013021236,0.14,0.98,0.2,31699,10138.50,0,0,3,0.56,-1.68,1.19,0.14,0.98,0.20
45.291016,0.015187259,0.0024575219,0.012021236,0.14,0.98,0.2,31722,10139.50,0,0,3,0.77,-1.89,1.12,0.14,0.98,0.20
45.291016,0.019187259,-0.0015424788,0.015021237,0.14,0.97,0.2,31747,10139.50,0,0,3,1.05,-2.17,1.33,0.14,0.97,0.20
44.291016,0.01718726,-0.0055424776,0.021021236,0.14,0.98,0.2,31767,10138.50,0,0,3,0.91,-2.45,1.75,0.14,0.98,0.20
44.291016,0.015187259,-0.007542478,0.023021236,0.14,0.98,0.2,31789,10138.50,0,0,3,0.77,-2.59,1.89,0.14,0.98,0.20
44.291016,0.019187259,-0.0015424788,0.033021234,0.14,0.97,0.2,31804,10138.50,0,0,3,1.05,-2.17,2.59,0.14,0.97,0.20
45.291016,0.015187259,4.575234E-4,0.03702123,0.14,0.98,0.2,31827,10139.50,0,0,3,0.77,-2.03,2.87,0.14,0.98,0.20
46.291016,0.011187259,0.0024575219,0.029021235,0.13,0.98,0.2,31842,10140.50,0,0,3,0.49,-1.89,2.31,0.13,0.98,0.20
44.291016,0.0071872585,0.0074575227,0.017021235,0.14,0.98,0.2,31865,10138.50,0,0,3,0.21,-1.54,1.47,0.14,0.98,0.20
45.291016,0.0021872588,0.009457523,0.008021234,0.15,0.98,0.2,31880,10139.50,0,0,3,-0.14,-1.40,0.84,0.15,0.98,0.20
45.291016,0.0011872591,0.0074575227,0.017021235,0.15,0.97,0.19,31902,10139.50,0,0,3,-0.21,-1.54,1.47,0.15,0.97,0.19
46.291016,1.872587E-4,-0.0015424788,0.030021237,0.15,0.98,0.2,31925,10140.50,0,0,3,-0.28,-2.17,2.38,0.15,0.98,0.20
44.291016,1.872587E-4,-0.002542479,0.035021234,0.14,0.97,0.2,31947,10138.50,0,0,3,-0.28,-2.24,2.73,0.14,0.97,0.20
44.59082,0.0011872591,0.0024575219,0.032021232,0.15,0.97,0.2,31969,10138.80,0,0,3,-0.21,-1.89,2.52,0.15,0.97,0.20
45.291016,-0.0048127407,0.0074575227,0.024021236,0.14,0.97,0.2,31992,10139.50,0,0,3,-0.63,-1.54,1.96,0.14,0.97,0.20
45.291016,-0.005812741,0.014457523,0.021021236,0.15,0.98,0.2,32015,10139.50,0,0,3,-0.70,-1.05,1.75,0.15,0.98,0.20
45.59082,-0.005812741,0.018457523,0.021021236,0.15,0.98,0.2,32052,10139.80,0,0,3,-0.70,-0.77,1.75,0.15,0.98,0.20
45.291016,-0.00781274,0.022457521,0.015021237,0.15,0.97,0.2,32053,10139.50,0,0,3,-0.84,-0.49,1.33,0.15,0.97,0.20
44.59082,-0.010812741,0.014457523,0.010021236,0.15,0.98,0.2,32074,10138.80,0,0,3,-1.05,-1.05,0.98,0.15,0.98,0.20
44.59082,-0.009812742,0.012457522,0.011021234,0.15,0.98,0.2,32090,10138.80,0,0,3,-0.98,-1.19,1.05,0.15,0.98,0.20
44.291016,-0.0028127413,0.008457523,0.011021234,0.15,0.98,0.2,32112,10138.50,0,0,3,-0.49,-1.47,1.05,0.15,0.98,0.20
46.59082,-0.0028127413,0.0024575219,0.012021236,0.15,0.97,0.2,32131,10140.80,0,0,3,-0.49,-1.89,1.12,0.15,0.97,0.20
44.59082,-0.0038127415,0.003457522,0.018021235,0.15,0.97,0.2,32150,10138.80,0,0,3,-0.56,-1.82,1.54,0.15,0.97,0.20
45.59082,-0.00781274,0.0074575227,0.019021235,0.15,0.98,0.2,32172,10139.80,0,0,3,-0.84,-1.54,1.61,0.15,0.98,0.20
45.59082,-0.005812741,0.011457523,0.015021237,0.15,0.98,0.2,32187,10139.80,0,0,3,-0.70,-1.26,1.33,0.15,0.98,0.20
44.59082,-0.0028127413,0.011457523,0.009021236,0.15,0.98,0.2,32210,10138.80,0,0,3,-0.49,-1.26,0.91,0.15,0.98,0.20
45.291016,0.0021872588,0.009457523,0.0060212347,0.15,0.97,0.2,32232,10139.50,0,0,3,-0.14,-1.40,0.70,0.15,0.97,0.20
45.59082,-8.12741E-4,0.005457524,0.0040212353,0.15,0.98,0.2,32262,10139.80,0,0,3,-0.35,-1.68,0.56,0.15,0.98,0.20
42.59082,-0.0028127413,4.575234E-4,0.0040212353,0.15,0.98,0.2,32277,10136.80,0,0,3,-0.49,-2.03,0.56,0.15,0.98,0.20
44.59082,0.004187259,-5.424768E-4,0.009021236,0.15,0.97,0.2,32300,10138.80,0,0,3,0.00,-2.10,0.91,0.15,0.97,0.20
45.59082,0.0071872585,-5.424768E-4,0.015021237,0.14,0.98,0.2,32322,10139.80,0,0,3,0.21,-2.10,1.33,0.14,0.98,0.20
45.59082,0.005187259,-5.424768E-4,0.009021236,0.14,0.98,0.2,32336,10139.80,0,0,3,0.07,-2.10,0.91,0.14,0.98,0.20
44.59082,0.0031872587,0.005457524,0.0050212345,0.14,0.98,0.2,32374,10138.80,0,0,3,-0.07,-1.68,0.63,0.14,0.98,0.20
45.59082,-0.0018127407,0.008457523,-0.001978765,0.15,0.97,0.2,32375,10139.80,0,0,3,-0.42,-1.47,0.14,0.15,0.97,0.20
45.59082,-0.009812742,0.005457524,-9.787653E-4,0.15,0.97,0.2,32397,10139.80,0,0,3,-0.98,-1.68,0.21,0.15,0.97,0.20
47.291016,-0.008812741,4.575234E-4,0.010021236,0.15,0.97,0.2,32419,10141.50,0,0,3,-0.91,-2.03,0.98,0.15,0.97,0.20
45.890625,-0.0048127407,-0.0035424773,0.015021237,0.14,0.97,0.2,32441,10140.10,0,0,3,-0.63,-2.31,1.33,0.14,0.97,0.20
45.59082,-8.12741E-4,-0.002542479,0.014021235,0.14,0.97,0.2,32464,10139.80,0,0,3,-0.35,-2.24,1.26,0.14,0.97,0.20
45.59082,-0.0018127407,0.0024575219,0.011021234,0.15,0.97,0.21,32480,10139.80,0,0,3,-0.42,-1.89,1.05,0.15,0.97,0.21
45.59082,-0.006812741,0.008457523,0.009021236,0.15,0.98,0.21,32502,10139.80,0,0,3,-0.77,-1.47,0.91,0.15,0.98,0.21
47.59082,-0.00781274,0.014457523,0.007021235,0.14,0.97,0.2,32524,10141.80,0,0,3,-0.84,-1.05,0.77,0.14,0.97,0.20
44.890625,-0.01381274,0.014457523,0.0020212345,0.15,0.97,0.2,32547,10139.10,0,0,3,-1.26,-1.05,0.42,0.15,0.97,0.20
45.59082,-0.01381274,0.005457524,-0.001978765,0.15,0.98,0.2,32562,10139.80,0,0,3,-1.26,-1.68,0.14,0.15,0.98,0.20
47.99121,-0.006812741,0.004457522,0.0010212348,0.15,0.98,0.2,32589,10142.20,0,0,3,-0.77,-1.75,0.35,0.15,0.98,0.20
45.890625,-8.12741E-4,-5.424768E-4,0.007021235,0.15,0.97,0.2,32603,10140.10,0,0,3,-0.35,-2.10,0.77,0.15,0.97,0.20
45.59082,-0.0028127413,-0.002542479,0.013021236,0.15,0.97,0.21,32622,10139.80,0,0,3,-0.49,-2.24,1.19,0.15,0.97,0.21
45.59082,-0.0018127407,0.0014575217,0.023021236,0.14,0.97,0.21,32644,10139.80,0,0,3,-0.42,-1.96,1.89,0.14,0.97,0.21
45.59082,-0.0038127415,0.003457522,0.024021236,0.14,0.97,0.21,32660,10139.80,0,0,3,-0.56,-1.82,1.96,0.14,0.97,0.21
45.59082,1.872587E-4,0.0074575227,0.024021236,0.15,0.98,0.2,32689,10139.80,0,0,3,-0.28,-1.54,1.96,0.15,0.98,0.20
46.99121,0.005187259,0.018457523,0.020021234,0.15,0.98,0.21,32704,10141.20,0,0,3,0.07,-0.77,1.68,0.15,0.98,0.21
42.890625,0.0031872587,0.022457521,0.022021236,0.15,0.97,0.21,32727,10137.10,0,0,3,-0.07,-0.49,1.82,0.15,0.97,0.21
44.291016,-0.005812741,0.015457522,0.018021235,0.15,0.98,0.21,32749,10138.50,0,0,3,-0.70,-0.98,1.54,0.15,0.98,0.21
45.890625,-0.0028127413,0.009457523,0.015021237,0.15,0.98,0.2,32772,10140.10,0,0,3,-0.49,-1.40,1.33,0.15,0.98,0.20
45.890625,0.012187259,0.005457524,0.021021236,0.15,0.98,0.2,32798,10140.10,0,0,3,0.56,-1.68,1.75,0.15,0.98,0.20
46.59082,0.015187259,0.003457522,0.022021236,0.15,0.98,0.2,32810,10140.80,0,0,3,0.77,-1.82,1.82,0.15,0.98,0.20
44.59082,0.014187259,0.004457522,0.018021235,0.14,0.98,0.2,32825,10138.80,0,0,3,0.70,-1.75,1.54,0.14,0.98,0.20
45.890625,0.009187259,0.0074575227,0.009021236,0.15,0.97,0.21,32840,10140.10,0,0,3,0.35,-1.54,0.91,0.15,0.97,0.21
45.59082,-0.0018127407,0.013457522,0.0060212347,0.15,0.97,0.21,32862,10139.80,0,0,3,-0.42,-1.12,0.70,0.15,0.97,0.21
45.890625,-0.008812741,0.014457523,0.017021235,0.15,0.97,0.2,32884,10140.10,0,0,3,-0.91,-1.05,1.47,0.15,0.97,0.20
45.890625,-8.12741E-4,0.0074575227,0.027021237,0.16,0.98,0.2,32907,10140.10,0,0,3,-0.35,-1.54,2.17,0.16,0.98,0.20
51.99121,0.004187259,0.0014575217,0.034021236,0.15,0.97,0.2,32929,10146.20,0,0,3,0.00,-1.96,2.66,0.15,0.97,0.20
44.890625,0.0011872591,0.0024575219,0.036021233,0.15,0.97,0.21,32944,10139.10,0,0,3,-0.21,-1.89,2.80,0.15,0.97,0.21
46.59082,-0.012812742,0.004457522,0.029021235,0.15,0.97,0.21,32974,10140.80,0,0,3,-1.19,-1.75,2.31,0.15,0.97,0.21
45.890625,-0.014812742,0.008457523,0.023021236,0.15,0.98,0.2,32989,10140.10,0,0,3,-1.33,-1.47,1.89,0.15,0.98,0.20
45.59082,-0.005812741,0.012457522,0.016021235,0.15,0.99,0.2,33015,10139.80,0,0,3,-0.70,-1.19,1.40,0.15,0.99,0.20
46.99121,1.872587E-4,0.011457523,0.0010212348,0.16,0.98,0.21,33034,10141.20,0,0,3,-0.28,-1.26,0.35,0.16,0.98,0.21
42.890625,-0.0028127413,0.004457522,-0.003978765,0.16,0.98,0.2,33057,10137.10,0,0,3,-0.49,-1.75,0.00,0.16,0.98,0.20
45.890625,-0.0038127415,-0.002542479,-0.003978765,0.16,0.98,0.2,33072,10140.10,0,0,3,-0.56,-2.24,0.00,0.16,0.98,0.20
44.890625,1.872587E-4,-0.010542477,-0.003978765,0.15,0.98,0.2,33087,10139.10,0,0,3,-0.28,-2.80,0.00,0.15,0.98,0.20
45.291016,0.005187259,-0.014542477,2.1235086E-5,0.15,0.97,0.21,33110,10139.50,0,0,3,0.07,-3.08,0.28,0.15,0.97,0.21
45.890625,0.0071872585,-0.012542477,0.003021235,0.15,0.97,0.21,33132,10140.10,0,0,3,0.21,-2.94,0.49,0.15,0.97,0.21
45.890625,0.0021872588,-0.0055424776,0.0040212353,0.15,0.97,0.21,33154,10140.10,0,0,3,-0.14,-2.45,0.56,0.15,0.97,0.21
47.291016,-0.0048127407,0.003457522,0.0040212353,0.15,0.97,0.21,33176,10141.50,0,0,3,-0.63,-1.82,0.56,0.15,0.97,0.21
45.890625,-0.011812742,0.0064575225,0.0020212345,0.15,0.97,0.21,33200,10140.10,0,0,3,-1.12,-1.61,0.42,0.15,0.97,0.21
45.890625,-0.008812741,0.0014575217,2.1235086E-5,0.15,0.98,0.2,33222,10140.10,0,0,3,-0.91,-1.96,0.28,0.15,0.98,0.20
45.890625,-0.005812741,-0.010542477,-9.787653E-4,0.15,0.98,0.2,33237,10140.10,0,0,3,-0.70,-2.80,0.21,0.15,0.98,0.20
45.890625,0.0031872587,-0.01954248,0.007021235,0.15,0.97,0.2,33260,10140.10,0,0,3,-0.07,-3.43,0.77,0.15,0.97,0.20
47.291016,0.008187259,-0.023542477,0.023021236,0.15,0.97,0.21,33289,10141.50,0,0,3,0.28,-3.71,1.89,0.15,0.97,0.21
46.291016,-0.0018127407,-0.01954248,0.029021235,0.14,0.97,0.21,33304,10140.50,0,0,3,-0.42,-3.43,2.31,0.14,0.97,0.21
43.890625,-0.010812741,-0.010542477,0.021021236,0.14,0.97,0.21,33327,10138.10,0,0,3,-1.05,-2.80,1.75,0.14,0.97,0.21
46.291016,-0.01381274,-0.0035424773,0.011021234,0.14,0.97,0.21,33343,10140.50,0,0,3,-1.26,-2.31,1.05,0.14,0.97,0.21
46.291016,-0.011812742,-5.424768E-4,0.0040212353,0.15,0.98,0.21,33365,10140.50,0,0,3,-1.12,-2.10,0.56,0.15,0.98,0.21
46.291016,-0.0018127407,-5.424768E-4,0.014021235,0.16,0.97,0.2,33387,10140.50,0,0,3,-0.42,-2.10,1.26,0.16,0.97,0.20
47.291016,0.0011872591,-0.007542478,0.021021236,0.16,0.97,0.21,33409,10141.50,0,0,3,-0.21,-2.59,1.75,0.16,0.97,0.21
46.291016,-0.0028127413,-0.013542479,0.023021236,0.15,0.97,0.21,33424,10140.50,0,0,3,-0.49,-3.01,1.89,0.15,0.97,0.21
45.890625,-0.006812741,-0.011542475,0.023021236,0.15,0.98,0.21,33447,10140.10,0,0,3,-0.77,-2.87,1.89,0.15,0.98,0.21
47.59082,-0.0038127415,-0.007542478,0.019021235,0.16,0.97,0.21,33470,10141.80,0,0,3,-0.56,-2.59,1.61,0.16,0.97,0.21
45.291016,0.0021872588,-0.0045424793,0.018021235,0.16,0.98,0.21,33492,10139.50,0,0,3,-0.14,-2.38,1.54,0.16,0.98,0.21
46.59082,0.0031872587,0.0014575217,0.011021234,0.16,0.97,0.22,33515,10140.80,0,0,3,-0.07,-1.96,1.05,0.16,0.97,0.22
46.59082,0.0021872588,0.004457522,0.0060212347,0.16,0.98,0.21,33544,10140.80,0,0,3,-0.14,-1.75,0.70,0.16,0.98,0.21
49.291016,0.004187259,0.003457522,0.0040212353,0.16,0.98,0.21,33559,10143.50,0,0,3,0.00,-1.82,0.56,0.16,0.98,0.21
47.291016,0.009187259,-0.0015424788,2.1235086E-5,0.15,0.98,0.21,33575,10141.50,0,0,3,0.35,-2.17,0.28,0.15,0.98,0.21
47.291016,0.016187258,-5.424768E-4,-9.787653E-4,0.16,0.97,0.21,33590,10141.50,0,0,3,0.84,-2.10,0.21,0.16,0.97,0.21
46.291016,0.01718726,-0.002542479,-9.787653E-4,0.15,0.97,0.21,33605,10140.50,0,0,3,0.91,-2.24,0.21,0.15,0.97,0.21
45.291016,0.01718726,-0.002542479,2.1235086E-5,0.15,0.98,0.21,33627,10139.50,0,0,3,0.91,-2.24,0.28,0.15,0.98,0.21
47.99121,0.015187259,-5.424768E-4,0.0010212348,0.15,0.97,0.21,33649,10142.20,0,0,3,0.77,-2.10,0.35,0.15,0.97,0.21
46.291016,0.014187259,0.004457522,-0.003978765,0.15,0.97,0.21,33673,10140.50,0,0,3,0.70,-1.75,0.00,0.15,0.97,0.21
45.59082,0.0131872585,0.009457523,-0.008978765,0.15,0.97,0.2,33703,10139.80,0,0,3,0.63,-1.40,-0.35,0.15,0.97,0.20
46.59082,0.0131872585,0.009457523,-0.002978765,0.15,0.97,0.2,33717,10140.80,0,0,3,0.63,-1.40,0.07,0.15,0.97,0.20
46.291016,0.009187259,0.0064575225,0.009021236,0.15,0.97,0.21,33733,10140.50,0,0,3,0.35,-1.61,0.91,0.15,0.97,0.21
43.191406,0.011187259,0.005457524,0.026021235,0.15,0.97,0.2,33754,10137.40,0,0,3,0.49,-1.68,2.10,0.15,0.97,0.20
46.59082,0.011187259,0.009457523,0.033021234,0.15,0.97,0.2,33777,10140.80,0,0,3,0.49,-1.40,2.59,0.15,0.97,0.20
48.59082,0.009187259,0.012457522,0.024021236,0.14,0.98,0.2,33807,10142.80,0,0,3,0.35,-1.19,1.96,0.14,0.98,0.20
47.59082,0.011187259,0.019457523,0.012021236,0.15,0.97,0.2,33814,10141.80,0,0,3,0.49,-0.70,1.12,0.15,0.97,0.20
42.191406,0.009187259,0.021457523,0.003021235,0.15,0.97,0.2,33830,10136.40,0,0,3,0.35,-0.56,0.49,0.15,0.97,0.20
46.59082,0.005187259,0.023457523,0.008021234,0.16,0.97,0.2,33844,10140.80,0,0,3,0.07,-0.42,0.84,0.16,0.97,0.20
47.59082,0.0021872588,0.018457523,0.017021235,0.16,0.97,0.2,33867,10141.80,0,0,3,-0.14,-0.77,1.47,0.16,0.97,0.20
47.59082,-8.12741E-4,0.0074575227,0.025021235,0.16,0.97,0.2,33889,10141.80,0,0,3,-0.35,-1.54,2.03,0.16,0.97,0.20
47.59082,-0.0038127415,0.0014575217,0.024021236,0.16,0.97,0.2,33912,10141.80,0,0,3,-0.56,-1.96,1.96,0.16,0.97,0.20
46.59082,-0.0048127407,0.0014575217,0.013021236,0.15,0.98,0.2,33934,10140.80,0,0,3,-0.63,-1.96,1.19,0.15,0.98,0.20
47.59082,-0.0028127413,0.010457521,0.013021236,0.15,0.98,0.2,33964,10141.80,0,0,3,-0.49,-1.33,1.19,0.15,0.98,0.20
46.59082,0.004187259,0.017457522,0.007021235,0.15,0.98,0.2,33980,10140.80,0,0,3,0.00,-0.84,0.77,0.15,0.98,0.20
46.291016,-8.12741E-4,0.019457523,0.0020212345,0.15,0.97,0.2,34002,10140.50,0,0,3,-0.35,-0.70,0.42,0.15,0.97,0.20
46.59082,-0.006812741,0.018457523,0.0020212345,0.16,0.97,0.2,34024,10140.80,0,0,3,-0.77,-0.77,0.42,0.16,0.97,0.20
47.59082,-0.006812741,0.013457522,0.0050212345,0.16,0.98,0.2,34055,10141.80,0,0,3,-0.77,-1.12,0.63,0.16,0.98,0.20
46.59082,-0.005812741,0.008457523,0.0050212345,0.16,0.97,0.2,34070,10140.80,0,0,3,-0.70,-1.47,0.63,0.16,0.97,0.20
47.291016,-0.0038127415,0.0064575225,0.011021234,0.16,0.98,0.21,34078,10141.50,0,0,3,-0.56,-1.61,1.05,0.16,0.98,0.21
48.59082,-0.0048127407,0.0014575217,0.011021234,0.16,0.98,0.21,34092,10142.80,0,0,3,-0.63,-1.96,1.05,0.16,0.98,0.21
46.59082,-0.0028127413,0.003457522,0.018021235,0.15,0.97,0.21,34115,10140.80,0,0,3,-0.49,-1.82,1.54,0.15,0.97,0.21
46.890625,-0.0028127413,0.011457523,0.012021236,0.15,0.97,0.21,34136,10141.10,0,0,3,-0.49,-1.26,1.12,0.15,0.97,0.21
49.691406,0.0011872591,0.015457522,0.0010212348,0.15,0.97,0.21,34159,10143.90,0,0,3,-0.21,-0.98,0.35,0.15,0.97,0.21
46.59082,1.872587E-4,0.018457523,-0.0049787653,0.15,0.97,0.21,34175,10140.80,0,0,3,-0.28,-0.77,-0.07,0.15,0.97,0.21
47.59082,-0.005812741,0.016457522,-0.001978765,0.16,0.97,0.21,34197,10141.80,0,0,3,-0.70,-0.91,0.14,0.16,0.97,0.21
46.890625,-0.006812741,0.012457522,0.010021236,0.16,0.97,0.21,34220,10141.10,0,0,3,-0.77,-1.19,0.98,0.16,0.97,0.21
46.890625,-8.12741E-4,0.008457523,0.025021235,0.16,0.97,0.21,34241,10141.10,0,0,3,-0.35,-1.47,2.03,0.16,0.97,0.21
47.59082,-0.0028127413,0.003457522,0.023021236,0.15,0.98,0.21,34264,10141.80,0,0,3,-0.49,-1.82,1.89,0.15,0.98,0.21
47.59082,-0.0018127407,0.009457523,0.012021236,0.15,0.98,0.21,34287,10141.80,0,0,3,-0.42,-1.40,1.12,0.15,0.98,0.21
47.99121,-0.0028127413,0.021457523,0.0010212348,0.15,0.97,0.21,34309,10142.20,0,0,3,-0.49,-0.56,0.35,0.15,0.97,0.21
46.890625,-0.0038127415,0.023457523,0.0040212353,0.16,0.97,0.21,34332,10141.10,0,0,3,-0.56,-0.42,0.56,0.16,0.97,0.21
47.59082,-0.0018127407,0.019457523,0.009021236,0.16,0.97,0.21,34347,10141.80,0,0,3,-0.42,-0.70,0.91,0.16,0.97,0.21
46.59082,1.872587E-4,0.012457522,0.021021236,0.16,0.97,0.21,34369,10140.80,0,0,3,-0.28,-1.19,1.75,0.16,0.97,0.21
46.890625,0.0021872588,0.009457523,0.022021236,0.16,0.97,0.21,34392,10141.10,0,0,3,-0.14,-1.40,1.82,0.16,0.97,0.21
46.59082,-8.12741E-4,0.012457522,0.020021234,0.16,0.97,0.21,34414,10140.80,0,0,3,-0.35,-1.19,1.68,0.16,0.97,0.21
46.890625,0.0011872591,0.017457522,0.019021235,0.16,0.97,0.21,34430,10141.10,0,0,3,-0.21,-0.84,1.61,0.16,0.97,0.21
47.99121,0.005187259,0.019457523,0.011021234,0.15,0.98,0.21,34452,10142.20,0,0,3,0.07,-0.70,1.05,0.15,0.98,0.21
47.99121,0.009187259,0.017457522,0.0010212348,0.15,0.98,0.21,34475,10142.20,0,0,3,0.35,-0.84,0.35,0.15,0.98,0.21
47.99121,0.0131872585,0.016457522,2.1235086E-5,0.16,0.98,0.21,34505,10142.20,0,0,3,0.63,-0.91,0.28,0.16,0.98,0.21
47.99121,0.016187258,0.016457522,0.0010212348,0.16,0.97,0.21,34527,10142.20,0,0,3,0.84,-0.91,0.35,0.16,0.97,0.21
47.99121,0.015187259,0.011457523,0.007021235,0.16,0.97,0.21,34542,10142.20,0,0,3,0.77,-1.26,0.77,0.16,0.97,0.21
46.99121,0.011187259,0.0064575225,0.015021237,0.15,0.97,0.21,34557,10141.20,0,0,3,0.49,-1.61,1.33,0.15,0.97,0.21
47.99121,0.0131872585,0.0064575225,0.016021235,0.15,0.97,0.21,34580,10142.20,0,0,3,0.63,-1.61,1.40,0.15,0.97,0.21
49.99121,0.015187259,0.008457523,0.014021235,0.15,0.97,0.2,34595,10144.20,0,0,3,0.77,-1.47,1.26,0.15,0.97,0.20
46.59082,0.010187259,0.011457523,0.013021236,0.16,0.97,0.21,34618,10140.80,0,0,3,0.42,-1.26,1.19,0.16,0.97,0.21
47.99121,0.008187259,0.014457523,0.008021234,0.15,0.97,0.2,34654,10142.20,0,0,3,0.28,-1.05,0.84,0.15,0.97,0.20
47.99121,0.0011872591,0.016457522,0.012021236,0.15,0.98,0.21,34669,10142.20,0,0,3,-0.21,-0.91,1.12,0.15,0.98,0.21
47.59082,0.0011872591,0.010457521,0.014021235,0.16,0.98,0.21,34677,10141.80,0,0,3,-0.21,-1.33,1.26,0.16,0.98,0.21
47.99121,0.006187259,0.0074575227,0.022021236,0.17,0.97,0.2,34699,10142.20,0,0,3,0.14,-1.54,1.82,0.17,0.97,0.20
48.291016,0.0071872585,0.003457522,0.024021236,0.16,0.98,0.2,34721,10142.50,0,0,3,0.21,-1.82,1.96,0.16,0.98,0.20
45.59082,0.006187259,0.0014575217,0.012021236,0.15,0.98,0.2,34744,10139.80,0,0,3,0.14,-1.96,1.12,0.15,0.98,0.20
47.99121,0.004187259,0.0064575225,-0.001978765,0.15,0.97,0.21,34767,10142.20,0,0,3,0.00,-1.61,0.14,0.15,0.97,0.21
49.99121,0.0011872591,0.015457522,-9.787653E-4,0.16,0.97,0.21,34789,10144.20,0,0,3,-0.21,-0.98,0.21,0.16,0.97,0.21
47.59082,-0.0028127413,0.013457522,0.007021235,0.16,0.97,0.21,34811,10141.80,0,0,3,-0.49,-1.12,0.77,0.16,0.97,0.21
47.291016,-0.006812741,0.009457523,0.012021236,0.16,0.97,0.2,34827,10141.50,0,0,3,-0.77,-1.40,1.12,0.16,0.97,0.20
48.59082,-0.0048127407,0.0064575225,0.013021236,0.16,0.97,0.21,34842,10142.80,0,0,3,-0.63,-1.61,1.19,0.16,0.97,0.21
48.99121,-0.0038127415,0.005457524,0.016021235,0.16,0.97,0.21,34866,10143.20,0,0,3,-0.56,-1.68,1.40,0.16,0.97,0.21
48.291016,-0.00781274,0.004457522,0.014021235,0.15,0.98,0.21,34887,10142.50,0,0,3,-0.84,-1.75,1.26,0.15,0.98,0.21
46.291016,-0.006812741,-5.424768E-4,0.009021236,0.15,0.99,0.2,34909,10140.50,0,0,3,-0.77,-2.10,0.91,0.15,0.99,0.20
59.390625,-0.0028127413,0.0024575219,-0.001978765,0.15,0.99,0.21,34932,10153.60,0,0,3,-0.49,-1.89,0.14,0.15,0.99,0.21
57.691406,-8.12741E-4,0.009457523,-0.009978765,0.16,0.98,0.21,34947,10151.90,0,0,3,-0.35,-1.40,-0.42,0.16,0.98,0.21
59.390625,1.872587E-4,0.012457522,-0.008978765,0.16,0.97,0.21,34969,10153.60,0,0,3,-0.28,-1.19,-0.35,0.16,0.97,0.21
61.49121,-0.0038127415,0.009457523,-0.010978766,0.16,0.96,0.21,34991,10155.70,0,0,3,-0.56,-1.40,-0.49,0.16,0.96,0.21
60.49121,-0.006812741,0.008457523,-0.013978764,0.16,0.97,0.21,35014,10154.70,0,0,3,-0.77,-1.47,-0.70,0.16,0.97,0.21
62.49121,-0.01381274,0.0014575217,-0.014978765,0.16,0.97,0.21,35037,10156.70,0,0,3,-1.26,-1.96,-0.77,0.16,0.97,0.21
67.59082,-0.01381274,-0.0055424776,-0.013978764,0.16,0.97,0.21,35060,10161.80,0,0,3,-1.26,-2.45,-0.70,0.16,0.97,0.21
62.49121,-0.009812742,-0.0045424793,-0.012978764,0.16,0.97,0.21,35075,10156.70,0,0,3,-0.98,-2.38,-0.63,0.16,0.97,0.21
62.49121,-0.010812741,-0.009542478,-0.014978765,0.16,0.97,0.21,35090,10156.70,0,0,3,-1.05,-2.73,-0.77,0.16,0.97,0.21
62.49121,-0.01381274,-0.013542479,-0.021978764,0.16,0.97,0.22,35105,10156.70,0,0,3,-1.26,-3.01,-1.26,0.16,0.97,0.22
62.49121,-0.011812742,-0.017542476,-0.020978766,0.16,0.97,0.22,35134,10156.70,0,0,3,-1.12,-3.29,-1.19,0.16,0.97,0.22
59.390625,-0.01581274,-0.01954248,-0.018978765,0.15,0.97,0.21,35150,10153.60,0,0,3,-1.40,-3.43,-1.05,0.15,0.97,0.21
61.09082,-0.011812742,-0.021542476,-0.016978765,0.15,0.98,0.21,35172,10155.30,0,0,3,-1.12,-3.57,-0.91,0.15,0.98,0.21
61.09082,1.872587E-4,-0.016542478,-0.007978765,0.15,0.98,0.22,35194,10155.30,0,0,3,-0.28,-3.22,-0.28,0.15,0.98,0.22
59.791016,0.006187259,-0.013542479,-0.007978765,0.14,0.98,0.22,35217,10154.00,0,0,3,0.14,-3.01,-0.28,0.14,0.98,0.22
58.791016,0.011187259,-0.0045424793,-0.005978765,0.14,0.98,0.22,35232,10153.00,0,0,3,0.49,-2.38,-0.14,0.14,0.98,0.22
59.390625,0.009187259,0.0014575217,-0.009978765,0.15,0.97,0.22,35255,10153.60,0,0,3,0.35,-1.96,-0.42,0.15,0.97,0.22
59.791016,0.0071872585,0.0064575225,2.1235086E-5,0.15,0.98,0.21,35277,10154.00,0,0,3,0.21,-1.61,0.28,0.15,0.98,0.21
58.791016,0.008187259,0.004457522,0.008021234,0.15,0.97,0.21,35292,10153.00,0,0,3,0.28,-1.75,0.84,0.15,0.97,0.21
54.390625,0.014187259,0.0064575225,0.018021235,0.15,0.98,0.21,35314,10148.60,0,0,3,0.70,-1.61,1.54,0.15,0.98,0.21
59.390625,0.018187258,0.004457522,0.017021235,0.15,0.97,0.21,35330,10153.60,0,0,3,0.98,-1.75,1.47,0.15,0.97,0.21
58.390625,0.016187258,0.0024575219,0.011021234,0.15,0.97,0.21,35345,10152.60,0,0,3,0.84,-1.89,1.05,0.15,0.97,0.21
57.390625,0.010187259,0.004457522,0.011021234,0.15,0.97,0.21,35381,10151.60,0,0,3,0.42,-1.75,1.05,0.15,0.97,0.21
58.390625,0.0071872585,0.0024575219,0.0040212353,0.15,0.98,0.21,35389,10152.60,0,0,3,0.21,-1.89,0.56,0.15,0.98,0.21
60.09082,0.009187259,0.0024575219,-0.006978765,0.15,0.98,0.21,35404,10154.30,0,0,3,0.35,-1.89,-0.21,0.15,0.98,0.21
57.09082,0.0031872587,0.004457522,-0.015978765,0.15,0.97,0.21,35428,10151.30,0,0,3,-0.07,-1.75,-0.84,0.15,0.97,0.21
56.390625,-0.0018127407,0.011457523,-0.018978765,0.14,0.98,0.21,35450,10150.60,0,0,3,-0.42,-1.26,-1.05,0.14,0.98,0.21
56.691406,-0.006812741,0.015457522,-0.018978765,0.15,0.97,0.21,35472,10150.90,0,0,3,-0.77,-0.98,-1.05,0.15,0.97,0.21
56.691406,-0.008812741,0.020457523,-0.012978764,0.15,0.97,0.21,35494,10150.90,0,0,3,-0.91,-0.63,-0.63,0.15,0.97,0.21
56.390625,-0.010812741,0.023457523,-0.010978766,0.14,0.97,0.21,35524,10150.60,0,0,3,-1.05,-0.42,-0.49,0.14,0.97,0.21
55.691406,-0.010812741,0.020457523,-0.012978764,0.14,0.97,0.21,35533,10149.90,0,0,3,-1.05,-0.63,-0.63,0.14,0.97,0.21
55.691406,-0.00781274,0.023457523,-0.015978765,0.14,0.98,0.21,35546,10149.90,0,0,3,-0.84,-0.42,-0.84,0.14,0.98,0.21
55.390625,-0.00781274,0.028457522,-0.017978765,0.13,0.97,0.21,35562,10149.60,0,0,3,-0.84,-0.07,-0.98,0.13,0.97,0.21
55.691406,-0.011812742,0.032457523,-0.019978765,0.13,0.97,0.21,35585,10149.90,0,0,3,-1.12,0.21,-1.12,0.13,0.97,0.21
55.691406,-0.009812742,0.03545752,-0.020978766,0.13,0.97,0.21,35600,10149.90,0,0,3,-0.98,0.42,-1.19,0.13,0.97,0.21
55.691406,-0.01381274,0.03345752,-0.019978765,0.13,0.98,0.21,35622,10149.90,0,0,3,-1.26,0.28,-1.12,0.13,0.98,0.21
55.390625,-0.008812741,0.036457524,-0.015978765,0.13,0.97,0.21,35637,10149.60,0,0,3,-0.91,0.49,-0.84,0.13,0.97,0.21
56.691406,-0.0018127407,0.04445752,-0.002978765,0.13,0.98,0.21,35659,10150.90,0,0,3,-0.42,1.05,0.07,0.13,0.98,0.21
55.691406,0.004187259,0.047457524,0.0050212345,0.13,0.98,0.21,35682,10149.90,0,0,3,0.00,1.26,0.63,0.13,0.98,0.21
55.691406,0.005187259,0.05345752,0.009021236,0.12,0.98,0.21,35704,10149.90,0,0,3,0.07,1.68,0.91,0.12,0.98,0.21
55.691406,0.008187259,0.055457525,0.003021235,0.13,0.98,0.21,35727,10149.90,0,0,3,0.28,1.82,0.49,0.13,0.98,0.21
61.09082,0.010187259,0.058457524,0.0020212345,0.13,0.98,0.21,35750,10155.30,0,0,3,0.42,2.03,0.42,0.13,0.98,0.21
54.99121,0.010187259,0.05345752,0.015021237,0.14,0.97,0.21,35772,10149.20,0,0,3,0.42,1.68,1.33,0.14,0.97,0.21
54.691406,0.010187259,0.051457524,0.026021235,0.14,0.97,0.21,35787,10148.90,0,0,3,0.42,1.54,2.10,0.14,0.97,0.21
48.59082,0.0071872585,0.045457523,0.035021234,0.14,0.97,0.21,35802,10142.80,0,0,3,0.21,1.12,2.73,0.14,0.97,0.21
54.691406,-8.12741E-4,0.039457522,0.039021235,0.14,0.97,0.21,35825,10148.90,0,0,3,-0.35,0.70,3.01,0.14,0.97,0.21
54.390625,-0.0028127413,0.037457522,0.045021236,0.14,0.97,0.22,35832,10148.60,0,0,3,-0.49,0.56,3.43,0.14,0.97,0.22
53.99121,-0.0038127415,0.03345752,0.047021233,0.14,0.97,0.21,35853,10148.20,0,0,3,-0.56,0.28,3.57,0.14,0.97,0.21
51.99121,0.004187259,0.03145752,0.049021233,0.14,0.98,0.21,35869,10146.20,0,0,3,0.00,0.14,3.71,0.14,0.98,0.21
51.99121,0.009187259,0.028457522,0.046021234,0.14,0.97,0.21,35892,10146.20,0,0,3,0.35,-0.07,3.50,0.14,0.97,0.21
49.59082,0.008187259,0.03145752,0.042021234,0.15,0.97,0.21,35914,10143.80,0,0,3,0.28,0.14,3.22,0.15,0.97,0.21
