Pressure_Rel,GyroX_Rel,GyroY_Rel,GyroZ_Rel,AccX_Rel,AccY_Rel,AccZ_Rel,Timestamp,Pressure_abs,HeartRate,Oxygen,Status,GyroX,GyroY,GyroZ,AccX,AccY,AccZ
0.0,0.0,0.0,0.0,0.0,0.0,0.0,2632,10204.70,81,97,3,2.24,3.92,2.24,0.36,0.79,0.53
0.0,0.0,0.0,0.0,0.0,0.0,0.0,2661,10204.10,81,97,3,1.96,3.29,1.89,0.36,0.79,0.53
0.0,0.0,0.0,0.0,0.0,0.0,0.0,2664,10204.70,81,97,3,2.03,2.31,1.75,0.36,0.79,0.52
0.0,0.0,0.0,0.0,0.0,0.0,0.0,2683,10203.70,81,97,3,2.10,1.61,1.40,0.36,0.79,0.52
0.0,0.0,0.0,0.0,0.0,0.0,0.0,2699,10204.70,81,97,3,2.03,0.42,1.40,0.36,0.79,0.52
0.0,0.0,0.0,0.0,0.0,0.0,0.0,2714,10204.70,81,97,3,1.47,-1.19,0.56,0.36,0.78,0.52
0.0,0.0,0.0,0.0,0.0,0.0,0.0,2736,10203.10,81,97,3,0.98,-2.24,-0.14,0.37,0.78,0.52
0.0,0.0,0.0,0.0,0.0,0.0,0.0,2751,10204.70,81,97,3,0.56,-3.57,-0.42,0.37,0.78,0.52
0.0,0.0,0.0,0.0,0.0,0.0,0.0,2759,10204.10,81,97,3,-0.49,-4.97,-0.70,0.37,0.79,0.52
0.0,0.0,0.0,0.0,0.0,0.0,0.0,2774,10202.70,81,97,3,-0.21,-6.51,-1.89,0.37,0.80,0.51
0.0,0.0,0.0,0.0,0.0,0.0,0.0,2796,10203.10,0,97,3,0.14,-8.54,-3.08,0.37,0.80,0.52
0.0,0.0,0.0,0.0,0.0,0.0,0.0,2818,10203.70,0,97,3,-0.21,-10.36,-3.85,0.36,0.79,0.53
0.0,0.0,0.0,0.0,0.0,0.0,0.0,2841,10200.00,0,97,3,-0.14,-11.20,-5.04,0.36,0.79,0.53
0.0,0.0,0.0,0.0,0.0,0.0,0.0,2864,10202.70,0,97,3,-0.35,-12.04,-5.88,0.36,0.79,0.53
0.0,0.0,0.0,0.0,0.0,0.0,0.0,2879,10200.40,0,97,3,-0.14,-12.25,-5.81,0.36,0.80,0.53
0.0,0.0,0.0,0.0,0.0,0.0,0.0,2901,10201.10,0,97,3,0.56,-12.11,-5.74,0.36,0.79,0.53
0.0,0.0,0.0,0.0,0.0,0.0,0.0,2916,10202.10,0,97,3,0.42,-12.04,-5.46,0.35,0.78,0.53
0.0,0.0,0.0,0.0,0.0,0.0,0.0,2946,10204.10,0,97,3,-0.14,-11.55,-4.76,0.35,0.78,0.53
0.0,0.0,0.0,0.0,0.0,0.0,0.0,2954,10202.10,0,97,3,-0.56,-10.64,-4.06,0.34,0.78,0.53
0.0,0.0,0.0,0.0,0.0,0.0,0.0,2968,10201.10,0,97,3,-0.56,-9.52,-3.08,0.34,0.79,0.53
0.0,0.0,0.0,0.0,0.0,0.0,0.0,2998,10199.40,0,97,3,-0.98,-8.61,-2.59,0.34,0.79,0.53
0.0,0.0,0.0,0.0,0.0,0.0,0.0,2999,10201.40,0,97,3,-1.26,-7.56,-2.10,0.35,0.78,0.53
0.0,0.0,0.0,0.0,0.0,0.0,0.0,3029,10201.70,0,97,3,-1.61,-6.23,-0.98,0.35,0.78,0.54
0.0,0.0,0.0,0.0,0.0,0.0,0.0,3036,10195.00,0,97,3,-2.24,-4.55,0.07,0.34,0.77,0.53
0.0,0.0,0.0,0.0,0.0,0.0,0.0,3066,10201.40,0,97,3,-2.73,-2.94,0.91,0.34,0.79,0.53
0.0,0.0,0.0,0.0,0.0,0.0,0.0,3110,10200.00,0,97,3,-1.96,-2.17,0.84,0.35,0.79,0.53
0.0,0.0,0.0,0.0,0.0,0.0,0.0,3111,10200.40,0,97,3,-1.68,-1.89,1.33,0.36,0.79,0.53
0.0,0.0,0.0,0.0,0.0,0.0,0.0,3126,10201.40,0,97,3,-1.75,-2.17,2.10,0.36,0.79,0.53
0.0,0.0,0.0,0.0,0.0,0.0,0.0,3149,10200.70,0,97,3,-1.40,-2.24,2.24,0.36,0.79,0.53
0.0,0.0,0.0,0.0,0.0,0.0,0.0,3179,10199.40,0,97,3,-0.70,-1.96,2.45,0.36,0.79,0.53
0.0,0.0,0.0,0.0,0.0,0.0,0.0,3192,10200.40,0,97,3,-0.84,-2.10,2.52,0.36,0.79,0.53
0.0,0.0,0.0,0.0,0.0,0.0,0.0,3201,10200.40,0,97,3,-0.70,-2.03,2.59,0.36,0.79,0.53
0.0,0.0,0.0,0.0,0.0,0.0,0.0,3216,10200.70,0,97,3,-0.49,-2.03,2.66,0.36,0.79,0.53
0.0,0.0,0.0,0.0,0.0,0.0,0.0,3239,10200.40,0,97,3,-0.56,-1.89,2.52,0.36,0.79,0.53
0.0,0.0,0.0,0.0,0.0,0.0,0.0,3246,10199.40,0,97,3,-0.49,-1.54,2.59,0.36,0.79,0.53
0.0,0.0,0.0,0.0,0.0,0.0,0.0,3274,10197.40,0,97,3,-0.70,-1.26,2.38,0.36,0.79,0.53
0.0,0.0,0.0,0.0,0.0,0.0,0.0,3289,10199.70,0,97,3,-0.42,-1.05,1.40,0.36,0.79,0.53
0.0,0.0,0.0,0.0,0.0,0.0,0.0,3307,10199.40,0,97,3,-0.35,-0.63,0.70,0.36,0.79,0.53
0.0,0.0,0.0,0.0,0.0,0.0,0.0,3329,10198.70,0,97,3,-0.42,-0.70,0.49,0.36,0.79,0.53
0.0,0.0,0.0,0.0,0.0,0.0,0.0,3352,10196.70,0,97,3,0.00,-0.70,0.63,0.37,0.78,0.53
0.0,0.0,0.0,0.0,0.0,0.0,0.0,3374,10198.00,0,97,3,-0.21,-1.19,0.98,0.37,0.79,0.53
0.0,0.0,0.0,0.0,0.0,0.0,0.0,3396,10200.40,0,97,3,-0.28,-1.89,1.47,0.36,0.79,0.53
0.0,0.0,0.0,0.0,0.0,0.0,0.0,3411,10199.40,0,97,3,0.00,-2.17,1.40,0.35,0.79,0.53
0.0,0.0,0.0,0.0,0.0,0.0,0.0,3434,10198.70,0,97,3,0.21,-1.96,1.26,0.35,0.79,0.53
0.0,0.0,0.0,0.0,0.0,0.0,0.0,3448,10198.70,0,97,3,0.35,-1.61,1.05,0.36,0.78,0.54
0.0,0.0,0.0,0.0,0.0,0.0,0.0,3463,10199.70,0,97,3,0.00,-1.33,1.12,0.36,0.78,0.54
0.0,0.0,0.0,0.0,0.0,0.0,0.0,3479,10199.70,0,97,3,0.00,-0.98,1.54,0.36,0.79,0.54
0.0,0.0,0.0,0.0,0.0,0.0,0.0,3494,10201.10,0,97,3,0.63,-0.35,2.10,0.36,0.79,0.53
0.0,0.0,0.0,0.0,0.0,0.0,0.0,3510,10198.70,0,97,3,1.05,-0.21,2.17,0.36,0.79,0.53
0.0,0.0,0.0,0.0,0.0,0.0,0.0,3539,10198.00,0,97,3,1.47,0.07,1.89,0.35,0.79,0.53
0.0,0.0,0.0,0.0,0.0,0.0,0.0,3553,10199.40,0,97,3,1.75,0.07,1.82,0.36,0.79,0.53
0.0,0.0,0.0,0.0,0.0,0.0,0.0,3576,10198.70,0,97,3,2.17,0.28,2.03,0.36,0.79,0.53
0.0,0.0,0.0,0.0,0.0,0.0,0.0,3607,10198.70,0,97,3,2.38,0.63,2.73,0.36,0.78,0.53
0.0,0.0,0.0,0.0,0.0,0.0,0.0,3614,10198.70,0,97,3,2.45,1.26,2.80,0.35,0.79,0.53
0.0,0.0,0.0,0.0,0.0,0.0,0.0,3643,10197.00,0,97,3,2.80,1.89,2.73,0.36,0.79,0.53
0.0,0.0,0.0,0.0,0.0,0.0,0.0,3659,10203.10,0,97,3,2.94,2.10,2.45,0.36,0.78,0.53
0.0,0.0,0.0,0.0,0.0,0.0,0.0,3674,10200.00,0,97,3,2.59,1.89,2.17,0.36,0.79,0.53
0.0,0.0,0.0,0.0,0.0,0.0,0.0,3697,10200.00,0,97,3,2.38,1.54,2.24,0.36,0.80,0.52
0.0,0.0,0.0,0.0,0.0,0.0,0.0,3719,10198.40,0,97,3,2.59,1.05,1.96,0.36,0.80,0.52
0.0,0.0,0.0,0.0,0.0,0.0,0.0,3726,10201.10,0,97,3,3.08,0.91,1.89,0.36,0.79,0.52
0.0,0.0,0.0,0.0,0.0,0.0,0.0,3741,10200.00,0,97,3,3.36,0.49,1.82,0.36,0.79,0.52
0.0,0.0,0.0,0.0,0.0,0.0,0.0,3756,10200.40,0,97,3,3.29,0.14,1.96,0.36,0.79,0.52
0.0,0.0,0.0,0.0,0.0,0.0,0.0,3779,10201.10,0,97,3,3.08,0.21,2.31,0.36,0.79,0.52
0.0,0.0,0.0,0.0,0.0,0.0,0.0,3801,10202.10,0,97,3,3.15,-0.14,2.17,0.36,0.79,0.52
0.0,0.0,0.0,0.0,0.0,0.0,0.0,3824,10207.10,0,97,3,3.36,-0.42,2.03,0.35,0.80,0.52
0.0,0.0,0.0,0.0,0.0,0.0,0.0,3847,10202.10,0,97,3,3.29,-0.77,1.68,0.35,0.80,0.51
0.0,0.0,0.0,0.0,0.0,0.0,0.0,3862,10203.10,0,97,3,3.22,-0.91,1.05,0.34,0.80,0.51
0.0,0.0,0.0,0.0,0.0,0.0,0.0,3898,10204.10,0,97,3,3.22,-1.05,0.49,0.34,0.80,0.51
0.0,0.0,0.0,0.0,0.0,0.0,0.0,3906,10204.40,0,97,3,3.71,-1.12,0.00,0.34,0.81,0.50
0.0,0.0,0.0,0.0,0.0,0.0,0.0,3959,10204.40,0,97,3,4.20,-0.77,0.00,0.33,0.81,0.49
0.0,0.0,0.0,0.0,0.0,0.0,0.0,3960,10205.10,0,97,3,4.55,-0.42,0.00,0.34,0.81,0.48
0.0,0.0,0.0,0.0,0.0,0.0,0.0,3962,10204.80,0,97,3,5.04,-0.28,0.49,0.35,0.81,0.48
0.0,0.0,0.0,0.0,0.0,0.0,0.0,3982,10205.40,0,97,3,5.04,0.00,1.54,0.35,0.81,0.48
0.0,0.0,0.0,0.0,0.0,0.0,0.0,3989,10203.10,0,97,3,5.04,0.07,2.38,0.36,0.81,0.47
0.0,0.0,0.0,0.0,0.0,0.0,0.0,4004,10205.40,0,97,3,4.41,0.00,2.52,0.35,0.81,0.47
0.0,0.0,0.0,0.0,0.0,0.0,0.0,4026,10207.40,0,97,3,4.06,-0.14,2.10,0.35,0.80,0.47
0.0,0.0,0.0,0.0,0.0,0.0,0.0,4042,10205.40,0,97,3,2.73,-0.42,2.52,0.37,0.80,0.48
0.0,0.0,0.0,0.0,0.0,0.0,0.0,4072,10205.40,0,97,3,0.84,-1.61,2.73,0.39,0.78,0.49
0.0,0.0,0.0,0.0,0.0,0.0,0.0,4087,10205.40,0,97,3,-1.47,-4.48,3.15,0.40,0.77,0.50
0.0,0.0,0.0,0.0,0.0,0.0,0.0,4109,10204.40,0,97,3,-3.78,-8.12,2.73,0.40,0.78,0.50
0.0,0.0,0.0,0.0,0.0,0.0,0.0,4132,10205.40,0,97,3,-4.62,-11.83,1.54,0.41,0.78,0.51
0.0,0.0,0.0,0.0,0.0,0.0,0.0,4147,10205.40,0,97,3,-4.90,-15.26,0.35,0.41,0.79,0.52
0.0,0.0,0.0,0.0,0.0,0.0,0.0,4169,10206.40,0,97,3,-3.64,-16.94,0.91,0.41,0.79,0.52
0.0,0.0,0.0,0.0,0.0,0.0,0.0,4185,10200.40,0,97,3,-2.24,-17.57,2.10,0.40,0.80,0.51
0.0,0.0,0.0,0.0,0.0,0.0,0.0,4199,10204.40,0,97,3,-0.07,-17.01,3.29,0.39,0.80,0.51
0.0,0.0,0.0,0.0,0.0,0.0,0.0,4229,10205.80,0,97,3,1.40,-15.47,4.20,0.38,0.80,0.51
0.0,0.0,0.0,0.0,0.0,0.0,0.0,4236,10204.40,0,97,3,2.24,-13.86,4.69,0.37,0.81,0.51
0.0,0.0,0.0,0.0,0.0,0.0,0.0,4251,10205.80,0,97,3,3.43,-11.55,4.69,0.36,0.83,0.50
0.0,0.0,0.0,0.0,0.0,0.0,0.0,4267,10205.80,0,97,3,4.90,-9.10,4.20,0.35,0.83,0.50
0.0,0.0,0.0,0.0,0.0,0.0,0.0,4297,10203.40,0,97,3,6.16,-6.02,2.45,0.33,0.84,0.50
0.0,0.0,0.0,0.0,0.0,0.0,0.0,4312,10204.40,0,97,3,7.49,-2.17,1.82,0.32,0.84,0.49
0.0,0.0,0.0,0.0,0.0,0.0,0.0,4333,10203.10,0,97,3,9.03,1.40,1.61,0.31,0.83,0.48
0.0,0.0,0.0,0.0,0.0,0.0,0.0,4348,10203.70,0,97,3,10.29,4.69,2.87,0.32,0.82,0.48
0.0,0.0,0.0,0.0,0.0,0.0,0.0,4372,10204.80,0,97,3,10.71,7.63,4.27,0.31,0.82,0.48
0.0,0.0,0.0,0.0,0.0,0.0,0.0,4393,10203.70,0,97,3,11.13,9.73,6.02,0.32,0.81,0.48
0.0,0.0,0.0,0.0,0.0,0.0,0.0,4424,10205.80,0,97,3,11.48,11.41,8.12,0.35,0.79,0.48
0.0,0.0,0.0,0.0,0.0,0.0,0.0,4432,10203.70,0,97,3,11.13,11.62,10.15,0.36,0.78,0.49
0.0,0.0,0.0,0.0,0.0,0.0,0.0,4446,10203.40,0,97,3,10.01,11.69,12.18,0.37,0.76,0.50
0.0,0.0,0.0,0.0,0.0,0.0,0.0,4461,10203.70,0,97,3,8.75,11.69,14.28,0.37,0.78,0.50
0.0,0.0,0.0,0.0,0.0,0.0,0.0,4484,10204.80,0,97,3,8.19,12.18,15.33,0.37,0.79,0.50
0.0,0.0,0.0,0.0,0.0,0.0,0.0,4515,10201.70,0,97,3,7.77,12.60,15.61,0.37,0.79,0.51
0.0,0.0,0.0,0.0,0.0,0.0,0.0,4516,10204.80,0,97,3,7.28,13.16,15.75,0.38,0.79,0.52
0.0,0.0,0.0,0.0,0.0,0.0,0.0,4537,10206.40,0,97,3,6.09,14.14,15.19,0.38,0.79,0.52
0.0,0.0,0.0,0.0,0.0,0.0,0.0,4558,10205.80,0,97,3,5.74,15.19,14.07,0.38,0.79,0.51
0.0,0.0,0.0,0.0,0.0,0.0,0.0,4574,10204.80,0,97,3,5.67,16.03,13.09,0.39,0.79,0.51
0.0,0.0,0.0,0.0,0.0,0.0,0.0,4596,10204.80,0,97,3,4.20,16.31,13.93,0.40,0.77,0.51
0.0,0.0,0.0,0.0,0.0,0.0,0.0,4618,10207.10,0,97,3,3.29,16.87,15.26,0.41,0.77,0.51
0.0,0.0,0.0,0.0,0.0,0.0,0.0,4641,10204.80,0,97,3,2.94,17.36,16.52,0.41,0.77,0.51
0.0,0.0,0.0,0.0,0.0,0.0,0.0,4678,10204.10,0,97,3,2.45,17.22,16.52,0.41,0.77,0.50
0.0,0.0,0.0,0.0,0.0,0.0,0.0,4680,10204.80,0,97,3,1.68,16.80,16.87,0.42,0.77,0.50
0.0,0.0,0.0,0.0,0.0,0.0,0.0,4694,10205.10,0,97,3,0.56,15.89,16.80,0.42,0.78,0.51
0.0,0.0,0.0,0.0,0.0,0.0,0.0,4716,10204.10,0,97,3,-0.56,14.98,17.01,0.43,0.79,0.51
0.0,0.0,0.0,0.0,0.0,0.0,0.0,4731,10205.10,0,97,3,-0.84,14.07,17.01,0.43,0.79,0.50
0.0,0.0,0.0,0.0,0.0,0.0,0.0,4745,10205.10,0,97,3,-0.91,12.74,16.17,0.43,0.79,0.50
0.0,0.0,0.0,0.0,0.0,0.0,0.0,4761,10204.80,0,97,3,-0.07,11.34,15.05,0.43,0.79,0.49
0.0,0.0,0.0,0.0,0.0,0.0,0.0,4784,10204.10,0,97,3,1.33,10.43,14.21,0.43,0.78,0.49
0.0,0.0,0.0,0.0,0.0,0.0,0.0,4798,10206.10,0,97,3,1.82,9.24,12.74,0.43,0.78,0.50
0.0,0.0,0.0,0.0,0.0,0.0,0.0,4820,10205.40,0,97,3,1.47,8.26,11.90,0.44,0.78,0.50
0.0,0.0,0.0,0.0,0.0,0.0,0.0,4843,10205.10,0,97,3,1.05,7.07,11.20,0.44,0.79,0.50
0.0,0.0,0.0,0.0,0.0,0.0,0.0,4866,10204.40,0,97,3,0.84,5.46,10.43,0.45,0.79,0.50
0.0,0.0,0.0,0.0,0.0,0.0,0.0,4888,10204.10,0,97,3,1.12,4.13,9.59,0.44,0.78,0.50
0.0,0.0,0.0,0.0,0.0,0.0,0.0,4904,10205.10,0,97,3,0.35,2.59,7.84,0.43,0.78,0.50
0.0,0.0,0.0,0.0,0.0,0.0,0.0,4925,10204.40,0,97,3,0.14,2.17,6.37,0.43,0.79,0.50
0.0,0.0,0.0,0.0,0.0,0.0,0.0,4940,10203.70,0,97,3,0.07,1.47,4.69,0.43,0.79,0.49
0.0,0.0,0.0,0.0,0.0,0.0,0.0,4955,10204.40,0,97,3,0.70,1.33,3.78,0.43,0.79,0.49
0.0,0.0,0.0,0.0,0.0,0.0,0.0,4971,10205.10,0,97,3,1.33,0.77,3.50,0.43,0.78,0.49
0.0,0.0,0.0,0.0,0.0,0.0,0.0,4986,10205.40,0,97,3,1.19,0.35,3.36,0.43,0.77,0.49
0.0,0.0,0.0,0.0,0.0,0.0,0.0,5000,10204.40,0,97,3,0.91,-0.07,3.78,0.43,0.78,0.49
0.0,0.0,0.0,0.0,0.0,0.0,0.0,5024,10203.70,0,97,3,0.56,-0.49,4.13,0.43,0.78,0.49
0.0,0.0,0.0,0.0,0.0,0.0,0.0,5038,10205.40,0,97,3,0.42,-1.61,3.29,0.43,0.77,0.49
0.0,0.0,0.0,0.0,0.0,0.0,0.0,5061,10202.40,0,97,3,-0.07,-2.17,3.36,0.43,0.77,0.50
0.0,0.0,0.0,0.0,0.0,0.0,0.0,5083,10204.40,0,97,3,-0.35,-2.10,2.94,0.42,0.77,0.50
0.0,0.0,0.0,0.0,0.0,0.0,0.0,5128,10204.80,0,97,3,0.00,-1.54,2.03,0.42,0.78,0.50
0.0,0.0,0.0,0.0,0.0,0.0,0.0,5129,10205.80,0,97,3,0.14,-1.12,1.47,0.43,0.77,0.50
0.0,0.0,0.0,0.0,0.0,0.0,0.0,5151,10204.40,0,97,3,-0.49,-1.26,1.68,0.43,0.77,0.50
0.0,0.0,0.0,0.0,0.0,0.0,0.0,5166,10204.40,0,97,3,-0.84,-1.26,1.89,0.43,0.77,0.50
0.0,0.0,0.0,0.0,0.0,0.0,0.0,5188,10204.40,0,97,3,-1.12,-1.12,1.75,0.42,0.77,0.51
0.0,0.0,0.0,0.0,0.0,0.0,0.0,5203,10204.40,0,97,3,-1.54,-0.91,1.75,0.42,0.77,0.50
0.0,0.0,0.0,0.0,0.0,0.0,0.0,5218,10204.10,0,97,3,-1.40,-0.70,0.98,0.42,0.77,0.50
0.0,0.0,0.0,0.0,0.0,0.0,0.0,5233,10205.40,0,97,3,-1.40,-0.91,0.35,0.43,0.77,0.51
0.0,0.0,0.0,0.0,0.0,0.0,0.0,5256,10205.40,0,97,3,-1.19,-0.77,0.21,0.43,0.77,0.51
0.0,0.0,0.0,0.0,0.0,0.0,0.0,5272,10204.80,0,97,3,-1.33,-1.19,0.00,0.43,0.77,0.51
0.0,0.0,0.0,0.0,0.0,0.0,0.0,5286,10205.40,0,97,3,-1.19,-1.47,-0.28,0.43,0.77,0.52
0.0,0.0,0.0,0.0,0.0,0.0,0.0,5308,10206.40,0,97,3,-0.84,-0.77,-0.49,0.42,0.77,0.51
0.0,0.0,0.0,0.0,0.0,0.0,0.0,5338,10209.50,0,97,3,-0.98,-0.63,-1.12,0.43,0.77,0.52
0.0,0.0,0.0,0.0,0.0,0.0,0.0,5354,10205.80,0,0,3,-1.33,-0.98,-1.54,0.44,0.76,0.52
-2.9697266,-0.019136887,-0.0025817528,0.011382125,0.3,0.85,0.47,15404,10203.40,0,0,3,-1.61,-2.59,0.42,0.30,0.85,0.47
8.129883,-0.015136888,-0.0065817498,0.0123821255,0.31,0.85,0.47,15426,10214.50,0,0,3,-1.33,-2.87,0.49,0.31,0.85,0.47
3.4296875,-0.013136888,-0.010581754,0.017382124,0.3,0.84,0.47,15448,10209.80,0,0,3,-1.19,-3.15,0.84,0.30,0.84,0.47
5.129883,-0.009136887,-0.011581752,0.021382127,0.3,0.85,0.47,15470,10211.50,0,0,3,-0.91,-3.22,1.12,0.30,0.85,0.47
5.4296875,-0.0031368877,-0.010581754,0.026382126,0.31,0.85,0.47,15486,10211.80,0,0,3,-0.49,-3.15,1.47,0.31,0.85,0.47
10.229492,-0.002136887,-0.009581752,0.030382127,0.3,0.85,0.47,15507,10216.60,0,0,3,-0.42,-3.08,1.75,0.30,0.85,0.47
5.129883,8.6311274E-4,-0.0055817515,0.033382125,0.3,0.84,0.47,15515,10211.50,0,0,3,-0.21,-2.80,1.96,0.30,0.84,0.47
3.4296875,0.0028631124,-0.004581753,0.030382127,0.3,0.85,0.47,15530,10209.80,0,0,3,-0.07,-2.73,1.75,0.30,0.85,0.47
5.129883,-0.004136888,-0.0015817508,0.028382126,0.31,0.84,0.47,15555,10211.50,0,0,3,-0.56,-2.52,1.61,0.31,0.84,0.47
7.5302734,-0.009136887,-0.0015817508,0.030382127,0.31,0.85,0.47,15576,10213.90,0,0,3,-0.91,-2.52,1.75,0.31,0.85,0.47
1.4296875,-0.009136887,0.0024182461,0.035382126,0.31,0.85,0.47,15598,10207.80,0,0,3,-0.91,-2.24,2.10,0.31,0.85,0.47
5.830078,-0.002136887,0.0024182461,0.028382126,0.31,0.85,0.47,15613,10212.20,0,0,3,-0.42,-2.24,1.61,0.31,0.85,0.47
5.830078,0.0068631126,0.006418247,0.022382125,0.31,0.85,0.47,15640,10212.20,0,0,3,0.21,-1.96,1.19,0.31,0.85,0.47
6.5302734,0.007863113,0.0034182463,0.021382127,0.32,0.84,0.47,15658,10212.90,0,0,3,0.28,-2.17,1.12,0.32,0.84,0.47
6.5302734,0.0058631124,0.0044182483,0.028382126,0.32,0.84,0.47,15681,10212.90,0,0,3,0.14,-2.10,1.61,0.32,0.84,0.47
6.5302734,0.007863113,0.0054182485,0.035382126,0.32,0.84,0.47,15715,10212.90,0,0,3,0.28,-2.03,2.10,0.32,0.84,0.47
7.5302734,0.0068631126,0.008418247,0.032382127,0.32,0.84,0.47,15724,10213.90,0,0,3,0.21,-1.82,1.89,0.32,0.84,0.47
6.5302734,0.0058631124,0.015418246,0.034382124,0.31,0.85,0.47,15748,10212.90,0,0,3,0.14,-1.33,2.03,0.31,0.85,0.47
6.5302734,0.0068631126,0.021418247,0.033382125,0.31,0.85,0.46,15757,10212.90,0,0,3,0.21,-0.91,1.96,0.31,0.85,0.46
6.5302734,0.012863113,0.028418249,0.022382125,0.31,0.84,0.46,15781,10212.90,0,0,3,0.63,-0.42,1.19,0.31,0.84,0.46
7.5302734,-1.3688765E-4,0.026418246,0.017382124,0.32,0.84,0.47,15793,10213.90,0,0,3,-0.28,-0.56,0.84,0.32,0.84,0.47
7.830078,-0.013136888,0.021418247,0.010382125,0.32,0.85,0.46,15816,10214.20,0,0,3,-1.19,-0.91,0.35,0.32,0.85,0.46
6.830078,-0.012136888,0.017418247,0.0123821255,0.32,0.85,0.46,15840,10213.20,0,0,3,-1.12,-1.19,0.49,0.32,0.85,0.46
7.5302734,-0.009136887,0.017418247,0.0033821252,0.31,0.85,0.46,15857,10213.90,0,0,3,-0.91,-1.19,-0.14,0.31,0.85,0.46
2.8300781,-0.005136887,0.013418248,3.8212538E-4,0.32,0.85,0.47,15884,10209.20,0,0,3,-0.63,-1.47,-0.35,0.32,0.85,0.47
5.129883,-0.002136887,0.013418248,-0.001617875,0.31,0.85,0.47,15898,10211.50,0,0,3,-0.42,-1.47,-0.49,0.31,0.85,0.47
8.129883,-0.0011368874,0.016418248,0.0053821253,0.31,0.85,0.47,15921,10214.50,0,0,3,-0.35,-1.26,0.00,0.31,0.85,0.47
5.830078,-1.3688765E-4,0.023418248,0.0123821255,0.31,0.84,0.47,15943,10212.20,0,0,3,-0.28,-0.77,0.49,0.31,0.84,0.47
5.830078,0.0018631124,0.025418248,0.015382125,0.31,0.85,0.46,15959,10212.20,0,0,3,-0.14,-0.63,0.70,0.31,0.85,0.46
5.4296875,-1.3688765E-4,0.028418249,0.015382125,0.31,0.85,0.46,15981,10211.80,0,0,3,-0.28,-0.42,0.70,0.31,0.85,0.46
5.830078,0.0038631125,0.029418249,0.018382125,0.31,0.85,0.46,15995,10212.20,0,0,3,0.00,-0.35,0.91,0.31,0.85,0.46
6.830078,0.0018631124,0.026418246,0.015382125,0.31,0.85,0.46,16017,10213.20,0,0,3,-0.14,-0.56,0.70,0.31,0.85,0.46
-0.2705078,0.0058631124,0.025418248,0.0123821255,0.31,0.85,0.46,16033,10206.10,0,0,3,0.14,-0.63,0.49,0.31,0.85,0.46
6.129883,0.0068631126,0.019418247,0.008382125,0.31,0.85,0.46,16056,10212.50,0,0,3,0.21,-1.05,0.21,0.31,0.85,0.46
6.830078,0.0038631125,0.014418248,0.011382125,0.31,0.85,0.46,16071,10213.20,0,0,3,0.00,-1.40,0.42,0.31,0.85,0.46
4.4296875,0.0038631125,0.011418248,0.0123821255,0.31,0.85,0.46,16108,10210.80,0,0,3,0.00,-1.61,0.49,0.31,0.85,0.46
2.8300781,0.0038631125,0.012418248,0.0123821255,0.3,0.85,0.46,16115,10209.20,0,0,3,0.00,-1.54,0.49,0.30,0.85,0.46
5.4296875,8.6311274E-4,0.009418247,0.0063821254,0.31,0.85,0.46,16145,10211.80,0,0,3,-0.21,-1.75,0.07,0.31,0.85,0.46
5.4296875,0.0028631124,0.010418249,0.009382125,0.31,0.84,0.46,16161,10211.80,0,0,3,-0.07,-1.68,0.28,0.31,0.84,0.46
6.129883,0.0028631124,0.009418247,0.015382125,0.31,0.84,0.46,16182,10212.50,0,0,3,-0.07,-1.75,0.70,0.31,0.84,0.46
4.830078,0.0068631126,0.0054182485,0.019382127,0.31,0.85,0.46,16198,10211.20,0,0,3,0.21,-2.03,0.98,0.31,0.85,0.46
2.1298828,0.008863112,0.0034182463,0.024382126,0.31,0.84,0.46,16221,10208.50,0,0,3,0.35,-2.17,1.33,0.31,0.84,0.46
2.1298828,0.009863112,-0.0035817549,0.018382125,0.31,0.84,0.46,16243,10208.50,0,0,3,0.42,-2.66,0.91,0.31,0.84,0.46
1.1298828,0.014863113,-0.0035817549,0.027382124,0.31,0.84,0.47,16258,10207.50,0,0,3,0.77,-2.66,1.54,0.31,0.84,0.47
1.1298828,0.021863112,-5.817525E-4,0.041382123,0.32,0.84,0.47,16273,10207.50,0,0,3,1.26,-2.45,2.52,0.32,0.84,0.47
-1.9697266,0.019863114,0.011418248,0.058382124,0.31,0.85,0.47,16303,10204.40,0,0,3,1.12,-1.61,3.71,0.31,0.85,0.47
-5.669922,0.025863113,0.02241825,0.055382125,0.3,0.86,0.46,16318,10200.70,0,0,3,1.54,-0.84,3.50,0.30,0.86,0.46
-7.9697266,0.03286311,0.032418247,0.036382128,0.3,0.85,0.46,16340,10198.40,0,0,3,2.03,-0.14,2.17,0.30,0.85,0.46
-9.969727,0.024863113,0.037418246,0.030382127,0.31,0.84,0.46,16363,10196.40,0,0,3,1.47,0.21,1.75,0.31,0.84,0.46
-10.669922,0.007863113,0.03141825,0.030382127,0.31,0.84,0.46,16377,10195.70,0,0,3,0.28,-0.21,1.75,0.31,0.84,0.46
-11.669922,-0.0011368874,0.018418247,0.037382126,0.32,0.85,0.46,16400,10194.70,0,0,3,-0.35,-1.12,2.24,0.32,0.85,0.46
-10.669922,-1.3688765E-4,0.006418247,0.039382126,0.32,0.85,0.46,16422,10195.70,0,0,3,-0.28,-1.96,2.38,0.32,0.85,0.46
-11.669922,0.008863112,0.0014182478,0.038382124,0.31,0.85,0.46,16452,10194.70,0,0,3,0.35,-2.31,2.31,0.31,0.85,0.46
-13.669922,0.017863113,-0.0035817549,0.033382125,0.31,0.84,0.46,16467,10192.70,0,0,3,0.98,-2.66,1.96,0.31,0.84,0.46
-14.669922,0.018863112,-0.0035817549,0.035382126,0.31,0.84,0.47,16491,10191.70,0,0,3,1.05,-2.66,2.10,0.31,0.84,0.47
-13.0703125,0.018863112,0.0054182485,0.044382125,0.31,0.85,0.46,16498,10193.30,0,0,3,1.05,-2.03,2.73,0.31,0.85,0.46
-13.669922,0.018863112,0.009418247,0.040382124,0.31,0.85,0.46,16513,10192.70,0,0,3,1.05,-1.75,2.45,0.31,0.85,0.46
-13.669922,0.019863114,0.015418246,0.039382126,0.31,0.85,0.46,16528,10192.70,0,0,3,1.12,-1.33,2.38,0.31,0.85,0.46
-14.669922,0.023863113,0.02241825,0.038382124,0.32,0.85,0.46,16557,10191.70,0,0,3,1.40,-0.84,2.31,0.32,0.85,0.46
-13.370117,0.024863113,0.023418248,0.032382127,0.32,0.85,0.46,16573,10193.00,0,0,3,1.47,-0.77,1.89,0.32,0.85,0.46
-12.669922,0.028863113,0.027418248,0.031382125,0.31,0.84,0.46,16595,10193.70,0,0,3,1.75,-0.49,1.82,0.31,0.84,0.46
-11.370117,0.022863114,0.018418247,0.021382127,0.32,0.85,0.45,16618,10195.00,0,0,3,1.33,-1.12,1.12,0.32,0.85,0.45
-13.370117,0.015863111,0.014418248,0.025382124,0.32,0.85,0.45,16633,10193.00,0,0,3,0.84,-1.40,1.40,0.32,0.85,0.45
-12.669922,0.013863113,0.008418247,0.023382124,0.32,0.85,0.46,16655,10193.70,0,0,3,0.70,-1.82,1.26,0.32,0.85,0.46
-11.669922,0.011863112,0.009418247,0.017382124,0.31,0.85,0.46,16678,10194.70,0,0,3,0.56,-1.75,0.84,0.31,0.85,0.46
-12.669922,0.0058631124,0.016418248,0.015382125,0.31,0.84,0.46,16700,10193.70,0,0,3,0.14,-1.26,0.70,0.31,0.84,0.46
-11.370117,8.6311274E-4,0.024418248,0.019382127,0.31,0.85,0.46,16724,10195.00,0,0,3,-0.21,-0.70,0.98,0.31,0.85,0.46
-10.370117,0.0028631124,0.026418246,0.024382126,0.31,0.85,0.46,16738,10196.00,0,0,3,-0.07,-0.56,1.33,0.31,0.85,0.46
-10.969727,0.0068631126,0.027418248,0.026382126,0.31,0.85,0.46,16752,10195.40,0,0,3,0.21,-0.49,1.47,0.31,0.85,0.46
-9.370117,0.013863113,0.024418248,0.015382125,0.31,0.85,0.45,16768,10197.00,0,0,3,0.70,-0.70,0.70,0.31,0.85,0.45
-9.370117,0.015863111,0.018418247,0.016382124,0.31,0.85,0.45,16783,10197.00,0,0,3,0.84,-1.12,0.77,0.31,0.85,0.45
-8.370117,0.016863113,0.011418248,0.018382125,0.31,0.85,0.45,16805,10198.00,0,0,3,0.91,-1.61,0.91,0.31,0.85,0.45
-14.370117,0.008863112,0.008418247,0.022382125,0.31,0.85,0.45,16828,10192.00,0,0,3,0.35,-1.82,1.19,0.31,0.85,0.45
-7.9697266,0.012863113,0.012418248,0.011382125,0.3,0.86,0.45,16850,10198.40,0,0,3,0.63,-1.54,0.42,0.30,0.86,0.45
-3.5703125,0.013863113,0.009418247,-6.178743E-4,0.3,0.86,0.45,16873,10202.80,0,0,3,0.70,-1.75,-0.42,0.30,0.86,0.45
-1.2705078,0.012863113,0.0054182485,-0.0046178745,0.3,0.85,0.44,16888,10205.10,0,0,3,0.63,-2.03,-0.70,0.30,0.85,0.44
0.7294922,0.008863112,-5.817525E-4,-0.0036178743,0.3,0.86,0.44,16910,10207.10,0,0,3,0.35,-2.45,-0.63,0.30,0.86,0.44
4.830078,-0.002136887,-0.010581754,-0.0106178755,0.3,0.86,0.44,16941,10211.20,0,0,3,-0.42,-3.15,-1.12,0.30,0.86,0.44
10.830078,-0.005136887,-0.020581752,-0.0106178755,0.31,0.86,0.44,16956,10217.20,0,0,3,-0.63,-3.85,-1.12,0.31,0.86,0.44
12.9296875,-0.004136888,-0.029581755,-0.023617875,0.3,0.86,0.44,16978,10219.30,0,0,3,-0.56,-4.48,-2.03,0.30,0.86,0.44
12.9296875,-0.002136887,-0.041581757,-0.038617875,0.31,0.86,0.44,16992,10219.30,0,0,3,-0.42,-5.32,-3.08,0.31,0.86,0.44
16.229492,-0.0011368874,-0.04858175,-0.049617875,0.31,0.87,0.44,17008,10222.60,0,0,3,-0.35,-5.81,-3.85,0.31,0.87,0.44
16.229492,0.0048631127,-0.054581754,-0.050617877,0.31,0.87,0.44,17031,10222.60,0,0,3,0.07,-6.23,-3.92,0.31,0.87,0.44
17.229492,0.014863113,-0.05958175,-0.040617876,0.31,0.86,0.44,17046,10223.60,0,0,3,0.77,-6.58,-3.22,0.31,0.86,0.44
16.229492,0.017863113,-0.06058175,-0.026617877,0.3,0.87,0.43,17061,10222.60,0,0,3,0.98,-6.65,-2.24,0.30,0.87,0.43
18.229492,0.019863114,-0.062581755,-0.044617876,0.29,0.87,0.43,17083,10224.60,0,0,3,1.12,-6.79,-3.50,0.29,0.87,0.43
11.229492,0.010863112,-0.06458175,-0.07261787,0.3,0.85,0.43,17105,10217.60,0,0,3,0.49,-6.93,-5.46,0.30,0.85,0.43
22.330078,-0.0011368874,-0.058581755,-0.073617876,0.3,0.85,0.43,17128,10228.70,0,0,3,-0.35,-6.51,-5.53,0.30,0.85,0.43
16.629883,-0.014136886,-0.051581755,-0.060617875,0.3,0.84,0.43,17150,10223.00,0,0,3,-1.26,-6.02,-4.62,0.30,0.84,0.43
15.229492,-0.019136887,-0.036581747,-0.052617874,0.29,0.85,0.43,17172,10221.60,0,0,3,-1.61,-4.97,-4.06,0.29,0.85,0.43
16.229492,-0.022136888,-0.014581755,-0.051617876,0.28,0.87,0.43,17195,10222.60,0,0,3,-1.82,-3.43,-3.99,0.28,0.87,0.43
14.229492,-0.018136887,0.0054182485,-0.049617875,0.28,0.87,0.42,17211,10220.60,0,0,3,-1.54,-2.03,-3.85,0.28,0.87,0.42
14.530273,-0.017136887,0.028418249,-0.045617875,0.28,0.86,0.42,17233,10220.90,0,0,3,-1.47,-0.42,-3.57,0.28,0.86,0.42
13.229492,-0.013136888,0.047418248,-0.038617875,0.28,0.87,0.42,17248,10219.60,0,0,3,-1.19,0.91,-3.08,0.28,0.87,0.42
13.9296875,-0.013136888,0.07141825,-0.03261788,0.27,0.87,0.42,17263,10220.30,0,0,3,-1.19,2.59,-2.66,0.27,0.87,0.42
13.530273,-0.015136888,0.09741825,-0.031617876,0.27,0.87,0.41,17278,10219.90,0,0,3,-1.33,4.41,-2.59,0.27,0.87,0.41
12.530273,-0.015136888,0.14241825,-0.028617878,0.25,0.87,0.42,17301,10218.90,0,0,3,-1.33,7.56,-2.38,0.25,0.87,0.42
12.229492,-0.009136887,0.22241825,-0.0036178743,0.23,0.88,0.41,17323,10218.60,0,0,3,-0.91,13.16,-0.63,0.23,0.88,0.41
12.229492,0.014863113,0.30541825,0.008382125,0.23,0.88,0.41,17354,10218.60,0,0,3,0.77,18.97,0.21,0.23,0.88,0.41
13.530273,0.016863113,0.34841824,-0.014617874,0.25,0.87,0.4,17376,10219.90,0,0,3,0.91,21.98,-1.40,0.25,0.87,0.40
11.530273,-0.0061368872,0.32341826,-0.039617877,0.27,0.87,0.37,17383,10217.90,0,0,3,-0.70,20.23,-3.15,0.27,0.87,0.37
10.530273,-0.013136888,0.28041825,-0.035617873,0.27,0.88,0.36,17413,10216.90,0,0,3,-1.19,17.22,-2.87,0.27,0.88,0.36
11.229492,-0.010136887,0.24941826,-0.016617876,0.25,0.88,0.36,17428,10217.60,0,0,3,-0.98,15.05,-1.54,0.25,0.88,0.36
9.830078,-0.010136887,0.21541825,-0.012617874,0.25,0.86,0.37,17450,10216.20,0,0,3,-0.98,12.67,-1.26,0.25,0.86,0.37
9.129883,-0.023136888,0.17541826,-0.0036178743,0.25,0.86,0.38,17481,10215.50,0,0,3,-1.89,9.87,-0.63,0.25,0.86,0.38
8.530273,-0.031136887,0.15241826,0.016382124,0.26,0.86,0.39,17488,10214.90,0,0,3,-2.45,8.26,0.77,0.26,0.86,0.39
12.530273,-0.04813689,0.13441825,0.040382124,0.26,0.85,0.4,17503,10218.90,0,0,3,-3.64,7.00,2.45,0.26,0.85,0.40
8.530273,-0.05513689,0.11841825,0.059382126,0.25,0.85,0.41,17518,10214.90,0,0,3,-4.13,5.88,3.78,0.25,0.85,0.41
6.5302734,-0.05113689,0.12541825,0.066382125,0.25,0.86,0.43,17532,10212.90,0,0,3,-3.85,6.37,4.27,0.25,0.86,0.43
8.530273,-0.05813689,0.11641824,0.047382124,0.26,0.86,0.44,17555,10214.90,0,0,3,-4.34,5.74,2.94,0.26,0.86,0.44
4.4296875,-0.083136894,0.06841825,0.010382125,0.3,0.83,0.44,17578,10210.80,0,0,3,-6.09,2.38,0.35,0.30,0.83,0.44
8.830078,-0.12513688,0.008418247,0.026382126,0.32,0.81,0.48,17601,10215.20,0,0,3,-9.03,-1.82,1.47,0.32,0.81,0.48
6.830078,-0.14113688,-0.017581753,0.06938213,0.3,0.82,0.51,17616,10213.20,0,0,3,-10.15,-3.64,4.48,0.30,0.82,0.51
6.5302734,-0.1571369,-0.022581752,0.07538213,0.28,0.82,0.53,17639,10212.90,0,0,3,-11.27,-3.99,4.90,0.28,0.82,0.53
6.830078,-0.19413689,-0.065581754,0.045382123,0.31,0.81,0.54,17661,10213.20,0,0,3,-13.86,-7.00,2.80,0.31,0.81,0.54
5.830078,-0.24613689,-0.15358174,0.041382123,0.34,0.81,0.54,17683,10212.20,0,0,3,-17.50,-13.16,2.52,0.34,0.81,0.54
5.830078,-0.27313685,-0.25258175,0.06338213,0.35,0.81,0.55,17705,10212.20,0,0,3,-19.39,-20.09,4.06,0.35,0.81,0.55
4.830078,-0.2631369,-0.34558174,0.07938213,0.35,0.82,0.57,17728,10211.20,0,0,3,-18.69,-26.60,5.18,0.35,0.82,0.57
5.830078,-0.23013687,-0.38258174,0.099382125,0.34,0.82,0.59,17743,10212.20,0,0,3,-16.38,-29.19,6.58,0.34,0.82,0.59
3.8300781,-0.18513688,-0.37958175,0.13038212,0.32,0.82,0.62,17766,10210.20,0,0,3,-13.23,-28.98,8.75,0.32,0.82,0.62
2.4296875,-0.1481369,-0.35558173,0.15238212,0.3,0.82,0.63,17773,10208.80,0,0,3,-10.64,-27.30,10.29,0.30,0.82,0.63
2.8300781,-0.10013689,-0.31158173,0.15838212,0.29,0.83,0.64,17795,10209.20,0,0,3,-7.28,-24.22,10.71,0.29,0.83,0.64
-3.2705078,-0.04813689,-0.25758174,0.13638212,0.3,0.84,0.64,17817,10203.10,0,0,3,-3.64,-20.44,9.17,0.30,0.84,0.64
3.1298828,0.011863112,-0.19058174,0.13438211,0.32,0.82,0.64,17840,10209.50,0,0,3,0.56,-15.75,9.03,0.32,0.82,0.64
-3.2705078,0.068863116,-0.13158175,0.15838212,0.33,0.82,0.63,17862,10203.10,0,0,3,4.55,-11.62,10.71,0.33,0.82,0.63
-5.270508,0.111863114,-0.09058175,0.18238212,0.35,0.8,0.62,17877,10201.10,0,0,3,7.56,-8.75,12.39,0.35,0.80,0.62
-6.270508,0.12886311,-0.06358176,0.19538212,0.36,0.79,0.62,17908,10200.10,0,0,3,8.75,-6.86,13.30,0.36,0.79,0.62
-6.9697266,0.115863115,-0.057581753,0.19538212,0.37,0.79,0.61,17923,10199.40,0,0,3,7.84,-6.44,13.30,0.37,0.79,0.61
-7.9697266,0.11886311,-0.05658175,0.18138212,0.38,0.79,0.6,17945,10198.40,0,0,3,8.05,-6.37,12.32,0.38,0.79,0.60
-7.9697266,0.12886311,-0.04858175,0.17438212,0.38,0.79,0.59,17968,10198.40,0,0,3,8.75,-5.81,11.83,0.38,0.79,0.59
-6.9697266,0.13686311,-0.039581753,0.16338213,0.38,0.78,0.58,17990,10199.40,0,0,3,9.31,-5.18,11.06,0.38,0.78,0.58
-14.0703125,0.1388631,-0.033581756,0.15938212,0.38,0.79,0.57,18005,10192.30,0,0,3,9.45,-4.76,10.78,0.38,0.79,0.57
-9.969727,0.15286312,-0.014581755,0.15638211,0.37,0.8,0.57,18021,10196.40,0,0,3,10.43,-3.43,10.57,0.37,0.80,0.57
-9.969727,0.1708631,0.009418247,0.15638211,0.38,0.82,0.56,18036,10196.40,0,0,3,11.69,-1.75,10.57,0.38,0.82,0.56
-13.669922,0.17586312,0.021418247,0.13738212,0.38,0.83,0.54,18058,10192.70,0,0,3,12.04,-0.91,9.24,0.38,0.83,0.54
-8.969727,0.18686312,0.036418248,0.121382125,0.38,0.82,0.53,18080,10197.40,0,0,3,12.81,0.14,8.12,0.38,0.82,0.53
-9.969727,0.19486311,0.058418244,0.13838212,0.38,0.82,0.53,18095,10196.40,0,0,3,13.37,1.68,9.31,0.38,0.82,0.53
-7.669922,0.2078631,0.09941825,0.17438212,0.36,0.83,0.52,18117,10198.70,0,0,3,14.28,4.55,11.83,0.36,0.83,0.52
-8.669922,0.2438631,0.13641825,0.18738212,0.35,0.82,0.51,18140,10197.70,0,0,3,16.80,7.14,12.74,0.35,0.82,0.51
-9.669922,0.27286312,0.17941824,0.19338211,0.36,0.81,0.51,18163,10196.70,0,0,3,18.83,10.15,13.16,0.36,0.81,0.51
-8.669922,0.28986314,0.21241826,0.20438212,0.38,0.82,0.5,18185,10197.70,0,0,3,20.02,12.46,13.93,0.38,0.82,0.50
-7.669922,0.31186312,0.24141824,0.21838212,0.38,0.82,0.48,18207,10198.70,0,0,3,21.56,14.49,14.91,0.38,0.82,0.48
-8.669922,0.31986314,0.25341824,0.20038211,0.38,0.83,0.47,18223,10197.70,0,0,3,22.12,15.33,13.65,0.38,0.83,0.47
-9.669922,0.32086313,0.26041824,0.15938212,0.38,0.84,0.45,18245,10196.70,0,0,3,22.19,15.82,10.78,0.38,0.84,0.45
-7.669922,0.31986314,0.26041824,0.13038212,0.39,0.85,0.44,18260,10198.70,0,0,3,22.12,15.82,8.75,0.39,0.85,0.44
-7.669922,0.3058631,0.25441825,0.09238213,0.38,0.85,0.43,18283,10198.70,0,0,3,21.14,15.40,6.09,0.38,0.85,0.43
-8.370117,0.2418631,0.22241825,0.027382124,0.37,0.82,0.42,18298,10198.00,0,0,3,16.66,13.16,1.54,0.37,0.82,0.42
-4.270508,0.17586312,0.18541825,-0.021617875,0.35,0.82,0.41,18320,10202.10,0,0,3,12.04,10.57,-1.89,0.35,0.82,0.41
-7.270508,0.1268631,0.15641825,-0.042617872,0.34,0.84,0.38,18342,10199.10,0,0,3,8.61,8.54,-3.36,0.34,0.84,0.38
-6.270508,0.10686311,0.12341825,-0.054617874,0.34,0.84,0.37,18365,10200.10,0,0,3,7.21,6.23,-4.20,0.34,0.84,0.37
-6.669922,0.067863114,0.08441825,-0.054617874,0.35,0.8,0.37,18389,10199.70,0,0,3,4.48,3.50,-4.20,0.35,0.80,0.37
-5.270508,0.021863112,0.056418248,-0.019617874,0.36,0.79,0.39,18403,10201.10,0,0,3,1.26,1.54,-1.75,0.36,0.79,0.39
-3.5703125,-0.011136888,0.041418247,0.052382123,0.36,0.84,0.38,18424,10202.80,0,0,3,-1.05,0.49,3.29,0.36,0.84,0.38
-4.270508,0.0048631127,0.046418246,0.10338213,0.36,0.88,0.38,18462,10202.10,0,0,3,0.07,0.84,6.86,0.36,0.88,0.38
-1.9697266,0.033863112,0.06241825,0.118382126,0.36,0.89,0.37,18470,10204.40,0,0,3,2.10,1.96,7.91,0.36,0.89,0.37
-0.2705078,0.071863115,0.07641825,0.12538213,0.37,0.89,0.36,18485,10206.10,0,0,3,4.76,2.94,8.40,0.37,0.89,0.36
-0.2705078,0.099863105,0.09441824,0.13838212,0.38,0.86,0.36,18500,10206.10,0,0,3,6.72,4.20,9.31,0.38,0.86,0.36
1.7294922,0.10286311,0.106418245,0.15638211,0.4,0.84,0.37,18523,10208.10,0,0,3,6.93,5.04,10.57,0.40,0.84,0.37
2.8300781,0.09586311,0.10941825,0.17738213,0.39,0.85,0.37,18537,10209.20,0,0,3,6.44,5.25,12.04,0.39,0.85,0.37
3.8300781,0.08886311,0.117418244,0.16338213,0.37,0.87,0.37,18560,10210.20,0,0,3,5.95,5.81,11.06,0.37,0.87,0.37
6.830078,0.101863116,0.15441824,0.14038211,0.35,0.86,0.36,18583,10213.20,0,0,3,6.86,8.40,9.45,0.35,0.86,0.36
10.229492,0.10686311,0.19741824,0.11138213,0.34,0.83,0.36,18597,10216.60,0,0,3,7.21,11.41,7.42,0.34,0.83,0.36
12.229492,0.09586311,0.22941825,0.099382125,0.35,0.81,0.36,18621,10218.60,0,0,3,6.44,13.65,6.58,0.35,0.81,0.36
13.229492,0.093863115,0.26041824,0.12238212,0.36,0.83,0.36,18643,10219.60,0,0,3,6.30,15.82,8.19,0.36,0.83,0.36
14.229492,0.11386311,0.29841825,0.16638213,0.36,0.85,0.37,18665,10220.60,0,0,3,7.70,18.48,11.27,0.36,0.85,0.37
14.229492,0.13386312,0.34641826,0.20138213,0.35,0.86,0.38,18688,10220.60,0,0,3,9.10,21.84,13.72,0.35,0.86,0.38
15.229492,0.13186312,0.38141826,0.21038212,0.34,0.85,0.38,18710,10221.60,0,0,3,8.96,24.29,14.35,0.34,0.85,0.38
15.229492,0.12586312,0.42041826,0.20738213,0.34,0.85,0.4,18732,10221.60,0,0,3,8.54,27.02,14.14,0.34,0.85,0.40
15.229492,0.11386311,0.44941825,0.20838211,0.34,0.85,0.41,18747,10221.60,0,0,3,7.70,29.05,14.21,0.34,0.85,0.41
10.229492,0.10586311,0.47041827,0.19938213,0.35,0.87,0.41,18762,10216.60,0,0,3,7.14,30.52,13.58,0.35,0.87,0.41
14.229492,0.10586311,0.48541826,0.18738212,0.35,0.88,0.42,18777,10220.60,0,0,3,7.14,31.57,12.74,0.35,0.88,0.42
14.229492,0.101863116,0.49341828,0.17338212,0.37,0.88,0.44,18807,10220.60,0,0,3,6.86,32.13,11.76,0.37,0.88,0.44
13.229492,0.099863105,0.49541825,0.19238213,0.39,0.87,0.44,18838,10219.60,0,0,3,6.72,32.27,13.09,0.39,0.87,0.44
13.530273,0.12186311,0.4924183,0.22138213,0.39,0.87,0.43,18845,10219.90,0,0,3,8.26,32.06,15.12,0.39,0.87,0.43
13.530273,0.15186311,0.47641826,0.24438211,0.4,0.87,0.42,18868,10219.90,0,0,3,10.36,30.94,16.73,0.40,0.87,0.42
13.530273,0.18886311,0.46141824,0.27138212,0.41,0.87,0.42,18883,10219.90,0,0,3,12.95,29.89,18.62,0.41,0.87,0.42
14.530273,0.2208631,0.44641826,0.29738212,0.4,0.84,0.41,18905,10220.90,0,0,3,15.19,28.84,20.44,0.40,0.84,0.41
14.229492,0.2208631,0.40641826,0.2823821,0.39,0.82,0.4,18936,10220.60,0,0,3,15.19,26.04,19.39,0.39,0.82,0.40
18.629883,0.2138631,0.36241823,0.27338213,0.39,0.83,0.38,18951,10225.00,0,0,3,14.70,22.96,18.76,0.39,0.83,0.38
14.530273,0.22286311,0.30741826,0.24238212,0.38,0.85,0.36,18972,10220.90,0,0,3,15.33,19.11,16.59,0.38,0.85,0.36
13.229492,0.23086311,0.25441825,0.19938213,0.39,0.83,0.35,18988,10219.60,0,0,3,15.89,15.40,13.58,0.39,0.83,0.35
13.530273,0.2268631,0.18641827,0.17238212,0.39,0.83,0.36,19003,10219.90,0,0,3,15.61,10.64,11.69,0.39,0.83,0.36
14.530273,0.21686311,0.14641824,0.15738213,0.39,0.82,0.37,19017,10220.90,0,0,3,14.91,7.84,10.64,0.39,0.82,0.37
14.530273,0.17986311,0.103418246,0.13838212,0.38,0.84,0.38,19032,10220.90,0,0,3,12.32,4.83,9.31,0.38,0.84,0.38
12.530273,0.14486311,0.06441825,0.11538213,0.37,0.84,0.38,19048,10218.90,0,0,3,9.87,2.10,7.70,0.37,0.84,0.38
12.9296875,0.09286311,0.0044182483,0.06538212,0.38,0.83,0.38,19077,10219.30,0,0,3,6.23,-2.10,4.20,0.38,0.83,0.38
11.530273,0.05886311,-0.04558175,0.051382124,0.4,0.82,0.39,19092,10217.90,0,0,3,3.85,-5.60,3.22,0.40,0.82,0.39
11.530273,0.024863113,-0.08658176,0.06938213,0.4,0.83,0.4,19115,10217.90,0,0,3,1.47,-8.47,4.48,0.40,0.83,0.40
10.830078,0.0018631124,-0.121581756,0.06838213,0.39,0.84,0.41,19138,10217.20,0,0,3,-0.14,-10.92,4.41,0.39,0.84,0.41
10.830078,-0.0061368872,-0.15558174,0.054382127,0.39,0.84,0.42,19168,10217.20,0,0,3,-0.70,-13.30,3.43,0.39,0.84,0.42
9.830078,-0.009136887,-0.18358177,0.047382124,0.4,0.83,0.42,19183,10216.20,0,0,3,-0.91,-15.26,2.94,0.40,0.83,0.42
10.530273,-0.0011368874,-0.20558175,0.049382124,0.4,0.84,0.42,19204,10216.90,0,0,3,-0.35,-16.80,3.08,0.40,0.84,0.42
11.830078,0.0038631125,-0.22458172,0.057382125,0.4,0.84,0.42,19221,10218.20,0,0,3,0.00,-18.13,3.64,0.40,0.84,0.42
10.830078,-0.002136887,-0.24358174,0.051382124,0.4,0.84,0.42,19243,10217.20,0,0,3,-0.42,-19.46,3.22,0.40,0.84,0.42
9.830078,-0.011136888,-0.27158174,0.022382125,0.4,0.84,0.42,19258,10216.20,0,0,3,-1.05,-21.42,1.19,0.40,0.84,0.42
8.830078,-0.022136888,-0.30258176,-0.0036178743,0.41,0.84,0.41,19273,10215.20,0,0,3,-1.82,-23.59,-0.63,0.41,0.84,0.41
9.830078,-0.010136887,-0.32658175,-0.008617875,0.41,0.84,0.4,19295,10216.20,0,0,3,-0.98,-25.27,-0.98,0.41,0.84,0.40
9.229492,-0.002136887,-0.33458173,-6.178743E-4,0.4,0.82,0.41,19317,10215.60,0,0,3,-0.42,-25.83,-0.42,0.40,0.82,0.41
6.830078,-0.009136887,-0.32858175,3.8212538E-4,0.39,0.82,0.42,19340,10213.20,0,0,3,-0.91,-25.41,-0.35,0.39,0.82,0.42
9.830078,-0.03813689,-0.32858175,-0.030617874,0.38,0.83,0.41,19363,10216.20,0,0,3,-2.94,-25.41,-2.52,0.38,0.83,0.41
8.129883,-0.05013689,-0.31658173,-0.052617874,0.39,0.83,0.42,19386,10214.50,0,0,3,-3.78,-24.57,-4.06,0.39,0.83,0.42
8.129883,-0.05713689,-0.29258174,-0.055617876,0.39,0.83,0.42,19400,10214.50,0,0,3,-4.27,-22.89,-4.27,0.39,0.83,0.42
8.129883,-0.07713689,-0.28958175,-0.07161787,0.4,0.83,0.41,19422,10214.50,0,0,3,-5.67,-22.68,-5.39,0.40,0.83,0.41
7.129883,-0.11413689,-0.31158173,-0.10361788,0.42,0.83,0.4,19445,10213.50,0,0,3,-8.26,-24.22,-7.63,0.42,0.83,0.40
7.830078,-0.1461369,-0.35058177,-0.13261788,0.43,0.83,0.39,19468,10214.20,0,0,3,-10.50,-26.95,-9.66,0.43,0.83,0.39
7.129883,-0.16413689,-0.38058174,-0.14761788,0.43,0.83,0.39,19491,10213.50,0,0,3,-11.76,-29.05,-10.71,0.43,0.83,0.39
6.129883,-0.1821369,-0.40558174,-0.15461788,0.42,0.83,0.39,19505,10212.50,0,0,3,-13.02,-30.80,-11.20,0.42,0.83,0.39
6.129883,-0.19113688,-0.41858172,-0.16261788,0.41,0.83,0.39,19520,10212.50,0,0,3,-13.65,-31.71,-11.76,0.41,0.83,0.39
5.830078,-0.18413688,-0.41758174,-0.14961788,0.41,0.83,0.39,19543,10212.20,0,0,3,-13.16,-31.64,-10.85,0.41,0.83,0.39
5.129883,-0.1611369,-0.39158174,-0.12761788,0.4,0.83,0.4,19557,10211.50,0,0,3,-11.55,-29.82,-9.31,0.40,0.83,0.40
6.129883,-0.15213689,-0.35758176,-0.11161786,0.39,0.83,0.41,19580,10212.50,0,0,3,-10.92,-27.44,-8.19,0.39,0.83,0.41
4.129883,-0.1331369,-0.29358172,-0.09361787,0.39,0.85,0.39,19604,10210.50,0,0,3,-9.59,-22.96,-6.93,0.39,0.85,0.39
3.4296875,-0.10413689,-0.24458176,-0.09261788,0.39,0.86,0.39,19618,10209.80,0,0,3,-7.56,-19.53,-6.86,0.39,0.86,0.39
1.1298828,-0.07813688,-0.20658177,-0.09661787,0.41,0.87,0.38,19686,10207.50,0,0,3,-5.74,-16.87,-7.14,0.41,0.87,0.38
1.4296875,-0.04613689,-0.17958173,-0.073617876,0.43,0.86,0.38,19687,10207.80,0,0,3,-3.50,-14.98,-5.53,0.43,0.86,0.38
0.4296875,-0.019136887,-0.14358175,-0.03261788,0.43,0.86,0.38,19688,10206.80,0,0,3,-1.61,-12.46,-2.66,0.43,0.86,0.38
0.4296875,-0.002136887,-0.10358175,-0.006617874,0.41,0.87,0.37,19708,10206.80,0,0,3,-0.42,-9.66,-0.84,0.41,0.87,0.37
-1.5703125,0.029863114,-0.04858175,0.009382125,0.39,0.88,0.36,19730,10204.80,0,0,3,1.82,-5.81,0.28,0.39,0.88,0.36
-1.5703125,0.051863108,0.0054182485,0.010382125,0.38,0.87,0.36,19745,10204.80,0,0,3,3.36,-2.03,0.35,0.38,0.87,0.36
-2.5703125,0.07686311,0.06141825,0.025382124,0.39,0.86,0.37,19760,10203.80,0,0,3,5.11,1.89,1.40,0.39,0.86,0.37
-3.5703125,0.09586311,0.11341825,0.057382125,0.39,0.85,0.36,19779,10202.80,0,0,3,6.44,5.53,3.64,0.39,0.85,0.36
-5.9697266,0.09886311,0.17741826,0.07638212,0.4,0.84,0.35,19798,10200.40,0,0,3,6.65,10.01,4.97,0.40,0.84,0.35
-4.270508,0.085863106,0.20441824,0.07838213,0.41,0.85,0.33,19820,10202.10,0,0,3,5.74,11.90,5.11,0.41,0.85,0.33
-1.5703125,0.08186311,0.21041825,0.07338213,0.41,0.87,0.31,19850,10204.80,0,0,3,5.46,12.32,4.76,0.41,0.87,0.31
-2.5703125,0.074863106,0.20041823,0.061382126,0.42,0.87,0.32,19866,10203.80,0,0,3,4.97,11.62,3.92,0.42,0.87,0.32
-7.669922,0.052863114,0.17741826,0.038382124,0.44,0.86,0.32,19880,10198.70,0,0,3,3.43,10.01,2.31,0.44,0.86,0.32
-8.669922,0.029863114,0.15041825,0.028382126,0.44,0.85,0.33,19907,10197.70,0,0,3,1.82,8.12,1.61,0.44,0.85,0.33
-8.370117,0.021863112,0.14441824,0.040382124,0.42,0.85,0.33,19933,10198.00,0,0,3,1.26,7.70,2.45,0.42,0.85,0.33
-9.370117,0.024863113,0.14641824,0.055382125,0.42,0.85,0.34,19950,10197.00,0,0,3,1.47,7.84,3.50,0.42,0.85,0.34
-9.370117,0.007863113,0.114418246,0.021382127,0.42,0.86,0.34,19963,10197.00,0,0,3,0.28,5.60,1.12,0.42,0.86,0.34
-7.9697266,-0.009136887,0.06441825,-0.021617875,0.43,0.87,0.34,19985,10198.40,0,0,3,-0.91,2.10,-1.89,0.43,0.87,0.34
-8.370117,-0.009136887,0.035418246,-0.03261788,0.44,0.86,0.35,20000,10198.00,0,0,3,-0.91,0.07,-2.66,0.44,0.86,0.35
-8.370117,-0.0031368877,0.024418248,-0.019617874,0.43,0.86,0.35,20015,10198.00,0,0,3,-0.49,-0.70,-1.75,0.43,0.86,0.35
-7.270508,0.008863112,0.016418248,-0.012617874,0.42,0.86,0.35,20038,10199.10,0,0,3,0.35,-1.26,-1.26,0.42,0.86,0.35
-8.370117,0.014863113,0.0054182485,-0.009617874,0.41,0.87,0.35,20052,10198.00,0,0,3,0.77,-2.03,-1.05,0.41,0.87,0.35
-9.370117,0.029863114,0.011418248,-0.002617875,0.4,0.86,0.36,20075,10197.00,0,0,3,1.82,-1.61,-0.56,0.40,0.86,0.36
-7.9697266,0.04586311,0.036418248,0.018382125,0.39,0.84,0.37,20097,10198.40,0,0,3,2.94,0.14,0.91,0.39,0.84,0.37
-7.9697266,0.048863113,0.07841825,0.037382126,0.37,0.84,0.38,20120,10198.40,0,0,3,3.15,3.08,2.24,0.37,0.84,0.38
-7.9697266,0.068863116,0.13541825,0.042382125,0.36,0.86,0.38,20143,10198.40,0,0,3,4.55,7.07,2.59,0.36,0.86,0.38
-7.9697266,0.08786311,0.19741824,0.050382126,0.37,0.86,0.38,20158,10198.40,0,0,3,5.88,11.41,3.15,0.37,0.86,0.38
-7.270508,0.112863116,0.24641824,0.08438213,0.38,0.85,0.38,20180,10199.10,0,0,3,7.63,14.84,5.53,0.38,0.85,0.38
-7.9697266,0.13986312,0.31641826,0.12538213,0.37,0.86,0.37,20203,10198.40,0,0,3,9.52,19.74,8.40,0.37,0.86,0.37
-6.270508,0.16686311,0.36741826,0.12438212,0.37,0.87,0.37,20225,10200.10,0,0,3,11.41,23.31,8.33,0.37,0.87,0.37
-6.9697266,0.1678631,0.40441826,0.118382126,0.39,0.86,0.37,20248,10199.40,0,0,3,11.48,25.90,7.91,0.39,0.86,0.37
-6.9697266,0.16886312,0.43741825,0.13138212,0.38,0.86,0.36,20263,10199.40,0,0,3,11.55,28.21,8.82,0.38,0.86,0.36
-7.9697266,0.20586312,0.48141828,0.15738213,0.36,0.89,0.36,20278,10198.40,0,0,3,14.14,31.29,10.64,0.36,0.89,0.36
-5.9697266,0.28586313,0.5724182,0.18138212,0.35,0.88,0.37,20300,10200.40,0,0,3,19.74,37.66,12.32,0.35,0.88,0.37
-5.9697266,0.30786315,0.6254182,0.16338213,0.37,0.86,0.38,20323,10200.40,0,0,3,21.28,41.37,11.06,0.37,0.86,0.38
-3.9697266,0.27786314,0.63441825,0.14238213,0.4,0.86,0.36,20345,10202.40,0,0,3,19.18,42.00,9.59,0.40,0.86,0.36
-5.9697266,0.25186312,0.6134182,0.13438211,0.41,0.85,0.34,20368,10200.40,0,0,3,17.36,40.53,9.03,0.41,0.85,0.34
-4.9697266,0.22586311,0.59341824,0.14938211,0.41,0.85,0.34,20383,10201.40,0,0,3,15.54,39.13,10.08,0.41,0.85,0.34
-3.5703125,0.19686311,0.55541825,0.15938212,0.41,0.84,0.34,20406,10202.80,0,0,3,13.51,36.47,10.78,0.41,0.84,0.34
-3.9697266,0.16586311,0.5124182,0.17238212,0.41,0.84,0.34,20428,10202.40,0,0,3,11.34,33.46,11.69,0.41,0.84,0.34
-0.5703125,0.15386312,0.50041825,0.20138213,0.38,0.85,0.35,20450,10205.80,0,0,3,10.50,32.62,13.72,0.38,0.85,0.35
2.4296875,0.14386311,0.49641827,0.20938212,0.38,0.86,0.36,20473,10208.80,0,0,3,9.80,32.34,14.28,0.38,0.86,0.36
0.4296875,0.1208631,0.48241827,0.18638211,0.38,0.85,0.37,20495,10206.80,0,0,3,8.19,31.36,12.67,0.38,0.85,0.37
0.4296875,0.08786311,0.45941827,0.16638213,0.39,0.84,0.37,20511,10206.80,0,0,3,5.88,29.75,11.27,0.39,0.84,0.37
2.4296875,0.052863114,0.43541825,0.17138211,0.4,0.84,0.38,20518,10208.80,0,0,3,3.43,28.07,11.62,0.40,0.84,0.38
2.1298828,0.031863112,0.42941824,0.18238212,0.38,0.84,0.39,20540,10208.50,0,0,3,1.96,27.65,12.39,0.38,0.84,0.39
4.4296875,0.026863113,0.45741826,0.19938213,0.36,0.85,0.4,20562,10210.80,0,0,3,1.61,29.61,13.58,0.36,0.85,0.40
6.5302734,0.04486311,0.52441823,0.23038211,0.34,0.84,0.43,20577,10212.90,0,0,3,2.87,34.30,15.75,0.34,0.84,0.43
7.830078,0.079863116,0.64941823,0.2743821,0.32,0.85,0.47,20601,10214.20,0,0,3,5.32,43.05,18.83,0.32,0.85,0.47
8.530273,0.13186312,0.84341824,0.34238213,0.29,0.85,0.49,20630,10214.90,0,0,3,8.96,56.63,23.59,0.29,0.85,0.49
8.530273,0.17586312,1.0374182,0.3693821,0.29,0.88,0.48,20638,10214.90,0,0,3,12.04,70.21,25.48,0.29,0.88,0.48
7.5302734,0.25086313,1.1704181,0.3513821,0.34,0.88,0.45,20660,10213.90,0,0,3,17.29,79.52,24.22,0.34,0.88,0.45
10.830078,0.3068631,1.2244183,0.32738215,0.36,0.86,0.46,20683,10217.20,0,0,3,21.21,83.30,22.54,0.36,0.86,0.46
10.830078,0.3568631,1.3004183,0.33838212,0.37,0.84,0.47,20705,10217.20,0,0,3,24.71,88.62,23.31,0.37,0.84,0.47
10.830078,0.3798631,1.3514183,0.3563821,0.36,0.83,0.46,20735,10217.20,0,0,3,26.32,92.19,24.57,0.36,0.83,0.46
10.229492,0.38086313,1.3514183,0.36038214,0.36,0.84,0.45,20750,10216.60,0,0,3,26.39,92.19,24.85,0.36,0.84,0.45
10.830078,0.38186312,1.3344182,0.34738213,0.35,0.84,0.44,20757,10217.20,0,0,3,26.46,91.00,23.94,0.35,0.84,0.44
8.129883,0.37686312,1.3084183,0.33538213,0.36,0.82,0.44,20772,10214.50,0,0,3,26.11,89.18,23.10,0.36,0.82,0.44
10.830078,0.35586312,1.2464181,0.3303821,0.37,0.83,0.43,20803,10217.20,0,0,3,24.64,84.84,22.75,0.37,0.83,0.43
10.830078,0.34186313,1.1854182,0.3303821,0.36,0.84,0.43,20817,10217.20,0,0,3,23.66,80.57,22.75,0.36,0.84,0.43
10.830078,0.34786314,1.1394182,0.34638214,0.36,0.84,0.43,20855,10217.20,0,0,3,24.08,77.35,23.87,0.36,0.84,0.43
5.5302734,0.34686312,1.0834183,0.3563821,0.37,0.83,0.44,20862,10211.90,0,0,3,24.01,73.43,24.57,0.37,0.83,0.44
9.830078,0.32586315,0.9954182,0.3693821,0.37,0.84,0.44,20885,10216.20,0,0,3,22.54,67.27,25.48,0.37,0.84,0.44
9.530273,0.2988631,0.91741824,0.3743821,0.37,0.85,0.44,20908,10215.90,0,0,3,20.65,61.81,25.83,0.37,0.85,0.44
9.830078,0.2848631,0.85541826,0.38638213,0.36,0.85,0.44,20923,10216.20,0,0,3,19.67,57.47,26.67,0.36,0.85,0.44
10.229492,0.29386312,0.8234182,0.3993821,0.34,0.86,0.45,20945,10216.60,0,0,3,20.30,55.23,27.58,0.34,0.86,0.45
10.229492,0.3128631,0.81941825,0.39038214,0.32,0.86,0.46,20967,10216.60,0,0,3,21.63,54.95,26.95,0.32,0.86,0.46
10.229492,0.31986314,0.81141824,0.36138213,0.32,0.86,0.47,20990,10216.60,0,0,3,22.12,54.39,24.92,0.32,0.86,0.47
9.229492,0.31686312,0.8034183,0.3373821,0.33,0.85,0.47,21012,10215.60,0,0,3,21.91,53.83,23.24,0.33,0.85,0.47
10.229492,0.31086314,0.7864182,0.30438212,0.33,0.85,0.47,21020,10216.60,0,0,3,21.49,52.64,20.93,0.33,0.85,0.47
10.229492,0.31186312,0.76041824,0.27638212,0.33,0.86,0.47,21043,10216.60,0,0,3,21.56,50.82,18.97,0.33,0.86,0.47
1.7294922,0.30186313,0.72341824,0.24938212,0.31,0.86,0.46,21058,10208.10,0,0,3,20.86,48.23,17.08,0.31,0.86,0.46
13.229492,0.2878631,0.68641824,0.22038212,0.31,0.87,0.46,21080,10219.60,0,0,3,19.88,45.64,15.05,0.31,0.87,0.46
7.830078,0.31986314,0.68041825,0.22138213,0.28,0.89,0.46,21102,10214.20,0,0,3,22.12,45.22,15.12,0.28,0.89,0.46
7.830078,0.35886315,0.69341826,0.20138213,0.25,0.88,0.48,21125,10214.20,0,0,3,24.85,46.13,13.72,0.25,0.88,0.48
9.530273,0.34786314,0.6894182,0.16838212,0.26,0.85,0.49,21148,10215.90,0,0,3,24.08,45.85,11.41,0.26,0.85,0.49
8.530273,0.30886313,0.6644182,0.14938211,0.29,0.83,0.48,21174,10214.90,0,0,3,21.35,44.10,10.08,0.29,0.83,0.48
8.129883,0.27786314,0.61241823,0.16238211,0.3,0.85,0.46,21191,10214.50,0,0,3,19.18,40.46,10.99,0.30,0.85,0.46
8.530273,0.29286313,0.5854182,0.17738213,0.28,0.89,0.44,21208,10214.90,0,0,3,20.23,38.57,12.04,0.28,0.89,0.44
9.229492,0.33086312,0.58341825,0.16738212,0.27,0.89,0.43,21230,10215.60,0,0,3,22.89,38.43,11.34,0.27,0.89,0.43
3.1298828,0.35086313,0.5884182,0.17338212,0.28,0.86,0.43,21253,10209.50,0,0,3,24.29,38.78,11.76,0.28,0.86,0.43
7.5302734,0.35286313,0.5944182,0.20338212,0.29,0.85,0.44,21275,10213.90,0,0,3,24.43,39.20,13.86,0.29,0.85,0.44
8.530273,0.35586312,0.6154182,0.2393821,0.28,0.85,0.44,21283,10214.90,0,0,3,24.64,40.67,16.38,0.28,0.85,0.44
9.530273,0.32086313,0.6174182,0.25338215,0.26,0.86,0.44,21297,10215.90,0,0,3,22.19,40.81,17.36,0.26,0.86,0.44
7.5302734,0.26586312,0.5964182,0.22538212,0.25,0.87,0.42,21320,10213.90,0,0,3,18.34,39.34,15.40,0.25,0.87,0.42
6.5302734,0.23286313,0.5524182,0.18238212,0.26,0.88,0.4,21343,10212.90,0,0,3,16.03,36.26,12.39,0.26,0.88,0.40
7.5302734,0.22186312,0.50441825,0.15638211,0.27,0.88,0.39,21365,10213.90,0,0,3,15.26,32.90,10.57,0.27,0.88,0.39
7.5302734,0.2138631,0.44641826,0.15238212,0.29,0.85,0.39,21388,10213.90,0,0,3,14.70,28.84,10.29,0.29,0.85,0.39
6.5302734,0.1928631,0.37041825,0.15838212,0.29,0.86,0.39,21418,10212.90,0,0,3,13.23,23.52,10.71,0.29,0.86,0.39
6.5302734,0.18186311,0.31341827,0.15838212,0.3,0.88,0.41,21432,10212.90,0,0,3,12.46,19.53,10.71,0.30,0.88,0.41
6.5302734,0.1678631,0.28441826,0.17838211,0.3,0.88,0.42,21448,10212.90,0,0,3,11.48,17.50,12.11,0.30,0.88,0.42
7.830078,0.16486312,0.28241825,0.21138212,0.27,0.9,0.43,21470,10214.20,0,0,3,11.27,17.36,14.42,0.27,0.90,0.43
0.4296875,0.19386311,0.35741827,0.23238212,0.23,0.92,0.45,21493,10206.80,0,0,3,13.30,22.61,15.89,0.23,0.92,0.45
6.830078,0.22286311,0.43641824,0.23338212,0.2,0.93,0.45,21508,10213.20,0,0,3,15.33,28.14,15.96,0.20,0.93,0.45
2.8300781,0.27186313,0.5674182,0.22938213,0.17,0.93,0.47,21523,10209.20,0,0,3,18.76,37.31,15.68,0.17,0.93,0.47
4.830078,0.36786312,0.8454182,0.24738213,0.14,0.92,0.5,21560,10211.20,0,0,3,25.48,56.77,16.94,0.14,0.92,0.50
1.7294922,0.46186316,1.1284182,0.2893821,0.14,0.91,0.51,21568,10208.10,0,0,3,32.06,76.58,19.88,0.14,0.91,0.51
1.7294922,0.52386314,1.3944182,0.3393821,0.15,0.9,0.5,21591,10208.10,0,0,3,36.40,95.20,23.38,0.15,0.90,0.50
0.7294922,0.5638631,1.5964181,0.37138215,0.18,0.87,0.48,21612,10207.10,0,0,3,39.20,109.34,25.62,0.18,0.87,0.48
-0.2705078,0.5508631,1.7034183,0.39438212,0.22,0.86,0.44,21627,10206.10,0,0,3,38.29,116.83,27.23,0.22,0.86,0.44
-1.2705078,0.5018631,1.7244183,0.40138212,0.28,0.85,0.42,21650,10205.10,0,0,3,34.86,118.30,27.72,0.28,0.85,0.42
-3.9697266,0.42786312,1.6684182,0.42138213,0.32,0.85,0.4,21673,10202.40,0,0,3,29.68,114.38,29.12,0.32,0.85,0.40
-3.9697266,0.34086314,1.5204182,0.42838213,0.33,0.87,0.35,21695,10202.40,0,0,3,23.59,104.02,29.61,0.33,0.87,0.35
-4.270508,0.31086314,1.3774183,0.41738212,0.33,0.91,0.33,21718,10202.10,0,0,3,21.49,94.01,28.84,0.33,0.91,0.33
-5.270508,0.3128631,1.1964182,0.39138213,0.33,0.91,0.32,21740,10201.10,0,0,3,21.63,81.34,27.02,0.33,0.91,0.32
-5.9697266,0.3058631,1.0754182,0.3693821,0.34,0.91,0.32,21757,10200.40,0,0,3,21.14,72.87,25.48,0.34,0.91,0.32
-5.270508,0.28386313,0.9274182,0.3323821,0.33,0.9,0.32,21770,10201.10,0,0,3,19.60,62.51,22.89,0.33,0.90,0.32
-5.9697266,0.25386313,0.8004182,0.31738213,0.32,0.9,0.33,21785,10200.40,0,0,3,17.50,53.62,21.84,0.32,0.90,0.33
-4.9697266,0.22486311,0.6644182,0.30238214,0.3,0.9,0.33,21808,10201.40,0,0,3,15.47,44.10,20.79,0.30,0.90,0.33
-6.9697266,0.1958631,0.5504182,0.2703821,0.28,0.91,0.34,21838,10199.40,0,0,3,13.44,36.12,18.55,0.28,0.91,0.34
-6.9697266,0.1678631,0.46841824,0.22138213,0.26,0.92,0.35,21845,10199.40,0,0,3,11.48,30.38,15.12,0.26,0.92,0.35
-6.9697266,0.1608631,0.43541825,0.19638212,0.24,0.92,0.36,21868,10199.40,0,0,3,10.99,28.07,13.37,0.24,0.92,0.36
-12.0703125,0.1678631,0.43041825,0.18238212,0.24,0.92,0.37,21890,10194.30,0,0,3,11.48,27.72,12.39,0.24,0.92,0.37
-4.270508,0.16486312,0.41841823,0.16838212,0.24,0.91,0.36,21912,10202.10,0,0,3,11.27,26.88,11.41,0.24,0.91,0.36
-7.9697266,0.15686311,0.38741824,0.16838212,0.24,0.92,0.35,21935,10198.40,0,0,3,10.71,24.71,11.41,0.24,0.92,0.35
-6.9697266,0.15986311,0.35541824,0.16038212,0.25,0.92,0.36,21957,10199.40,0,0,3,10.92,22.47,10.85,0.25,0.92,0.36
-6.270508,0.16186312,0.31441826,0.15538213,0.24,0.92,0.36,21973,10200.10,0,0,3,11.06,19.60,10.50,0.24,0.92,0.36
-6.9697266,0.17786312,0.30241826,0.14738211,0.23,0.93,0.37,21996,10199.40,0,0,3,12.18,18.76,9.94,0.23,0.93,0.37
-6.9697266,0.1918631,0.29641825,0.14738211,0.24,0.92,0.36,22010,10199.40,0,0,3,13.16,18.34,9.94,0.24,0.92,0.36
-6.9697266,0.18886311,0.28641826,0.14738211,0.24,0.91,0.35,22025,10199.40,0,0,3,12.95,17.64,9.94,0.24,0.91,0.35
-6.270508,0.18086311,0.25341824,0.13838212,0.23,0.92,0.35,22040,10200.10,0,0,3,12.39,15.33,9.31,0.23,0.92,0.35
-4.9697266,0.17286311,0.23341826,0.12038213,0.22,0.92,0.36,22062,10201.40,0,0,3,11.83,13.93,8.05,0.22,0.92,0.36
-13.669922,0.18686312,0.25341824,0.11138213,0.21,0.92,0.38,22086,10192.70,0,0,3,12.81,15.33,7.42,0.21,0.92,0.38
-6.669922,0.16586311,0.27441823,0.10538213,0.21,0.91,0.38,22100,10199.70,0,0,3,11.34,16.80,7.00,0.21,0.91,0.38
-7.669922,0.13586311,0.29941824,0.08638213,0.21,0.92,0.38,22122,10198.70,0,0,3,9.24,18.55,5.67,0.21,0.92,0.38
-7.669922,0.10786311,0.30841827,0.06838213,0.19,0.93,0.37,22145,10198.70,0,0,3,7.28,19.18,4.41,0.19,0.93,0.37
-8.669922,0.104863115,0.33441827,0.05338212,0.19,0.93,0.38,22168,10197.70,0,0,3,7.07,21.00,3.36,0.19,0.93,0.38
-7.669922,0.112863116,0.36741826,0.052382123,0.19,0.93,0.37,22205,10198.70,0,0,3,7.63,23.31,3.29,0.19,0.93,0.37
-6.669922,0.11386311,0.40141827,0.059382126,0.19,0.92,0.37,22213,10199.70,0,0,3,7.70,25.69,3.78,0.19,0.92,0.37
-7.669922,0.101863116,0.42341825,0.057382125,0.19,0.92,0.36,22236,10198.70,0,0,3,6.86,27.23,3.64,0.19,0.92,0.36
-4.669922,0.100863114,0.44041824,0.055382125,0.19,0.92,0.35,22251,10201.70,0,0,3,6.79,28.42,3.50,0.19,0.92,0.35
-5.669922,0.09786311,0.43941826,0.044382125,0.2,0.93,0.34,22273,10200.70,0,0,3,6.58,28.35,2.73,0.20,0.93,0.34
-4.669922,0.09786311,0.41741824,0.025382124,0.21,0.93,0.32,22288,10201.70,0,0,3,6.58,26.81,1.40,0.21,0.93,0.32
-5.9697266,0.074863106,0.35441825,3.8212538E-4,0.23,0.93,0.32,22310,10200.40,0,0,3,4.97,22.40,-0.35,0.23,0.93,0.32
-3.5703125,0.04086311,0.24441823,-0.029617876,0.25,0.93,0.3,22325,10202.80,0,0,3,2.59,14.70,-2.45,0.25,0.93,0.30
-3.2705078,0.028863113,0.14541826,-0.045617875,0.25,0.94,0.29,22371,10203.10,0,0,3,1.75,7.77,-3.57,0.25,0.94,0.29
-1.9697266,0.03986311,0.030418247,-0.08961787,0.23,0.96,0.29,22373,10204.40,0,0,3,2.52,-0.28,-6.65,0.23,0.96,0.29
-0.2705078,0.06286311,-0.04858175,-0.12961787,0.23,0.95,0.3,22392,10206.10,0,0,3,4.13,-5.81,-9.45,0.23,0.95,0.30
2.4296875,0.09586311,-0.10258176,-0.121617876,0.22,0.95,0.32,22415,10208.80,0,0,3,6.44,-9.59,-8.89,0.22,0.95,0.32
1.7294922,0.12886311,-0.13458174,-0.09761787,0.2,0.94,0.33,22430,10208.10,0,0,3,8.75,-11.83,-7.21,0.20,0.94,0.33
4.129883,0.12586312,-0.15958175,-0.09361787,0.19,0.94,0.32,22452,10210.50,0,0,3,8.54,-13.58,-6.93,0.19,0.94,0.32
7.129883,0.14186311,-0.16458175,-0.087617874,0.18,0.94,0.33,22475,10213.50,0,0,3,9.66,-13.93,-6.51,0.18,0.94,0.33
7.830078,0.1458631,-0.14758176,-0.08561787,0.17,0.94,0.33,22490,10214.20,0,0,3,9.94,-12.74,-6.37,0.17,0.94,0.33
7.830078,0.13586311,-0.13758177,-0.08261787,0.17,0.94,0.33,22505,10214.20,0,0,3,9.24,-12.04,-6.16,0.17,0.94,0.33
7.830078,0.1208631,-0.13358176,-0.08961787,0.18,0.93,0.32,22535,10214.20,0,0,3,8.19,-11.76,-6.65,0.18,0.93,0.32
9.229492,0.10586311,-0.12958175,-0.090617865,0.18,0.93,0.32,22542,10215.60,0,0,3,7.14,-11.48,-6.72,0.18,0.93,0.32
3.8300781,0.10386311,-0.12058175,-0.07861787,0.18,0.95,0.32,22565,10210.20,0,0,3,7.00,-10.85,-5.88,0.18,0.95,0.32
10.830078,0.101863116,-0.116581745,-0.098617874,0.17,0.95,0.31,22580,10217.20,0,0,3,6.86,-10.57,-7.28,0.17,0.95,0.31
9.229492,0.11786311,-0.08858175,-0.109617874,0.15,0.95,0.32,22603,10215.60,0,0,3,7.98,-8.61,-8.05,0.15,0.95,0.32
8.129883,0.1388631,-0.041581757,-0.090617865,0.15,0.95,0.32,22625,10214.50,0,0,3,9.45,-5.32,-6.72,0.15,0.95,0.32
9.229492,0.14486311,-0.0055817515,-0.06761787,0.15,0.94,0.31,22648,10215.60,0,0,3,9.87,-2.80,-5.11,0.15,0.94,0.31
10.229492,0.14086312,0.016418248,-0.052617874,0.16,0.93,0.3,22671,10216.60,0,0,3,9.59,-1.26,-4.06,0.16,0.93,0.30
9.229492,0.13486311,0.032418247,-0.028617878,0.16,0.93,0.29,22685,10215.60,0,0,3,9.17,-0.14,-2.38,0.16,0.93,0.29
9.830078,0.12286311,0.039418247,-0.008617875,0.17,0.93,0.29,22707,10216.20,0,0,3,8.33,0.35,-0.98,0.17,0.93,0.29
9.229492,0.08786311,0.027418248,0.0123821255,0.18,0.92,0.28,22730,10215.60,0,0,3,5.88,-0.49,0.49,0.18,0.92,0.28
9.229492,0.064863116,0.010418249,0.031382125,0.18,0.93,0.28,22745,10215.60,0,0,3,4.27,-1.68,1.82,0.18,0.93,0.28
8.530273,0.042863112,0.0014182478,0.037382126,0.18,0.94,0.28,22760,10214.90,0,0,3,2.73,-2.31,2.24,0.18,0.94,0.28
11.229492,0.016863113,-0.012581751,0.038382124,0.18,0.93,0.28,22775,10217.60,0,0,3,0.91,-3.29,2.31,0.18,0.93,0.28
9.229492,-0.028136889,-0.053581752,0.033382125,0.19,0.93,0.27,22797,10215.60,0,0,3,-2.24,-6.16,1.96,0.19,0.93,0.27
8.129883,-0.05813689,-0.080581754,0.045382123,0.19,0.94,0.28,22820,10214.50,0,0,3,-4.34,-8.05,2.80,0.19,0.94,0.28
8.129883,-0.05313689,-0.08358175,0.04638212,0.18,0.94,0.29,22849,10214.50,0,0,3,-3.99,-8.26,2.87,0.18,0.94,0.29
8.129883,-0.05013689,-0.08458175,0.048382126,0.19,0.94,0.29,22865,10214.50,0,0,3,-3.78,-8.33,3.01,0.19,0.94,0.29
9.530273,-0.068136886,-0.113581754,0.047382124,0.19,0.94,0.28,22888,10215.90,0,0,3,-5.04,-10.36,2.94,0.19,0.94,0.28
7.5302734,-0.06313689,-0.13458174,0.027382124,0.18,0.97,0.28,22910,10213.90,0,0,3,-4.69,-11.83,1.54,0.18,0.97,0.28
8.530273,-0.043136887,-0.14358175,-0.001617875,0.18,0.96,0.3,22926,10214.90,0,0,3,-3.29,-12.46,-0.49,0.18,0.96,0.30
7.129883,-0.05513689,-0.15758175,-0.023617875,0.2,0.94,0.3,22956,10213.50,0,0,3,-4.13,-13.44,-2.03,0.20,0.94,0.30
7.129883,-0.068136886,-0.18658176,-0.017617874,0.2,0.95,0.29,22970,10213.50,0,0,3,-5.04,-15.47,-1.61,0.20,0.95,0.29
7.5302734,-0.05013689,-0.20558175,-0.025617875,0.18,0.96,0.29,22993,10213.90,0,0,3,-3.78,-16.80,-2.17,0.18,0.96,0.29
7.5302734,-0.04213689,-0.20958176,-0.046617877,0.17,0.96,0.3,23008,10213.90,0,0,3,-3.22,-17.08,-3.64,0.17,0.96,0.30
7.129883,-0.04813689,-0.21158174,-0.06861787,0.18,0.94,0.3,23023,10213.50,0,0,3,-3.64,-17.22,-5.18,0.18,0.94,0.30
9.830078,-0.06313689,-0.21558174,-0.07161787,0.18,0.93,0.3,23039,10216.20,0,0,3,-4.69,-17.50,-5.39,0.18,0.93,0.30
6.5302734,-0.05513689,-0.20358175,-0.030617874,0.17,0.95,0.3,23060,10212.90,0,0,3,-4.13,-16.66,-2.52,0.17,0.95,0.30
6.129883,-0.026136886,-0.17358175,-0.013617876,0.15,0.96,0.31,23083,10212.50,0,0,3,-2.10,-14.56,-1.33,0.15,0.96,0.31
5.830078,-0.020136885,-0.15158176,-0.023617875,0.16,0.95,0.31,23105,10212.20,0,0,3,-1.68,-13.02,-2.03,0.16,0.95,0.31
6.5302734,-0.03513689,-0.14558175,-0.016617876,0.17,0.93,0.31,23127,10212.90,0,0,3,-2.73,-12.60,-1.54,0.17,0.93,0.31
4.4296875,-0.05313689,-0.14058176,0.0123821255,0.16,0.93,0.3,23150,10210.80,0,0,3,-3.99,-12.25,0.49,0.16,0.93,0.30
5.4296875,-0.044136886,-0.099581756,0.051382124,0.15,0.94,0.31,23165,10211.80,0,0,3,-3.36,-9.38,3.22,0.15,0.94,0.31
4.4296875,-0.05213689,-0.04558175,0.08038213,0.14,0.93,0.32,23212,10210.80,0,0,3,-3.92,-5.60,5.25,0.14,0.93,0.32
5.830078,-0.08413689,-0.014581755,0.107382126,0.15,0.92,0.31,23213,10212.20,0,0,3,-6.16,-3.43,7.14,0.15,0.92,0.31
4.4296875,-0.11113689,0.0054182485,0.121382125,0.17,0.91,0.31,23226,10210.80,0,0,3,-8.05,-2.03,8.12,0.17,0.91,0.31
4.129883,-0.1321369,0.03141825,0.14938211,0.17,0.92,0.31,23240,10210.50,0,0,3,-9.52,-0.21,10.08,0.17,0.92,0.31
4.830078,-0.13113688,0.055418245,0.17338212,0.17,0.94,0.31,23272,10211.20,0,0,3,-9.45,1.47,11.76,0.17,0.94,0.31
4.4296875,-0.12713689,0.08641825,0.18238212,0.17,0.95,0.32,23274,10210.80,0,0,3,-9.17,3.64,12.39,0.17,0.95,0.32
4.830078,-0.1391369,0.11941825,0.16538212,0.16,0.95,0.32,23292,10211.20,0,0,3,-10.01,5.95,11.20,0.16,0.95,0.32
3.8300781,-0.16213688,0.14541826,0.13438211,0.16,0.94,0.32,23308,10210.20,0,0,3,-11.62,7.77,9.03,0.16,0.94,0.32
4.830078,-0.18013689,0.15541825,0.11338213,0.17,0.93,0.32,23331,10211.20,0,0,2,-12.88,8.47,7.56,0.17,0.93,0.32
-0.2705078,-0.1921369,0.15441824,0.10938213,0.18,0.92,0.32,23353,10206.10,0,0,2,-13.72,8.40,7.28,0.18,0.92,0.32
4.830078,-0.23313689,0.12641825,0.11738213,0.21,0.89,0.33,23376,10211.20,0,0,2,-16.59,6.44,7.84,0.21,0.89,0.33
3.8300781,-0.2751369,0.06341825,0.14238213,0.24,0.89,0.32,23398,10210.20,0,0,2,-19.53,2.03,9.59,0.24,0.89,0.32
3.8300781,-0.3441369,-0.041581757,0.15238212,0.3,0.89,0.32,23435,10210.20,0,0,2,-24.36,-5.32,10.29,0.30,0.89,0.32
4.129883,-0.48913684,-0.30958176,0.12638213,0.37,0.85,0.3,23436,10210.50,0,0,2,-34.51,-24.08,8.47,0.37,0.85,0.30
3.8300781,-0.6531369,-0.54558176,0.09338213,0.42,0.82,0.29,23450,10210.20,0,0,2,-45.99,-40.60,6.16,0.42,0.82,0.29
4.129883,-0.8571369,-0.89258176,0.047382124,0.47,0.79,0.29,23473,10210.50,0,0,2,-60.27,-64.89,2.94,0.47,0.79,0.29
4.129883,-1.0781369,-1.2795818,0.020382125,0.5,0.77,0.29,23488,10210.50,0,0,2,-75.74,-91.98,1.05,0.50,0.77,0.29
4.830078,-1.2791369,-1.6745818,-6.178743E-4,0.49,0.77,0.31,23518,10211.20,0,0,2,-89.81,-119.63,-0.42,0.49,0.77,0.31
4.129883,-1.4061369,-2.0035818,-0.008617875,0.44,0.8,0.36,23520,10210.50,0,0,2,-98.70,-142.66,-0.98,0.44,0.80,0.36
4.129883,-1.467137,-2.2425816,-0.031617876,0.37,0.88,0.4,23533,10210.50,0,0,2,-102.97,-159.39,-2.59,0.37,0.88,0.40
6.129883,-1.4891369,-2.4625816,-0.14661789,0.36,0.86,0.44,23557,10212.50,0,0,2,-104.51,-174.79,-10.64,0.36,0.86,0.44
3.8300781,-1.4881369,-2.6465816,-0.24561787,0.41,0.83,0.45,23578,10210.20,0,0,2,-104.44,-187.67,-17.57,0.41,0.83,0.45
4.4296875,-1.4551369,-2.7425816,-0.26561788,0.39,0.81,0.49,23600,10210.80,0,0,2,-102.13,-194.39,-18.97,0.39,0.81,0.49
5.129883,-1.3891369,-2.7035818,-0.26361787,0.35,0.81,0.54,23623,10211.50,0,0,2,-97.51,-191.66,-18.83,0.35,0.81,0.54
4.129883,-1.3241369,-2.5335815,-0.28261787,0.35,0.8,0.58,23638,10210.50,0,0,2,-92.96,-179.76,-20.16,0.35,0.80,0.58
4.129883,-1.2951369,-2.3505816,-0.28861788,0.38,0.78,0.6,23660,10210.50,0,0,2,-90.93,-166.95,-20.58,0.38,0.78,0.60
6.129883,-1.2591369,-2.1695817,-0.2916179,0.39,0.8,0.6,23683,10212.50,0,0,2,-88.41,-154.28,-20.79,0.39,0.80,0.60
3.1298828,-1.1771369,-1.9875816,-0.29361787,0.4,0.83,0.59,23706,10209.50,0,0,2,-82.67,-141.54,-20.93,0.40,0.83,0.59
3.1298828,-1.0741369,-1.8125817,-0.2986179,0.42,0.84,0.58,23721,10209.50,0,0,2,-75.46,-129.29,-21.28,0.42,0.84,0.58
3.1298828,-0.95913696,-1.6385818,-0.30461788,0.43,0.83,0.57,23736,10209.50,0,0,2,-67.41,-117.11,-21.70,0.43,0.83,0.57
3.4296875,-0.8621369,-1.4735818,-0.3106179,0.44,0.79,0.57,23751,10209.80,0,0,2,-60.62,-105.56,-22.12,0.44,0.79,0.57
3.1298828,-0.8121369,-1.3255818,-0.31861788,0.45,0.77,0.57,23765,10209.50,0,0,2,-57.12,-95.20,-22.68,0.45,0.77,0.57
2.4296875,-0.78113693,-1.2035818,-0.32661787,0.46,0.76,0.57,23781,10208.80,0,0,2,-54.95,-86.66,-23.24,0.46,0.76,0.57
2.1298828,-0.7361369,-1.0475818,-0.3136179,0.46,0.76,0.55,23803,10208.50,0,0,2,-51.80,-75.74,-22.33,0.46,0.76,0.55
3.4296875,-0.6741369,-0.9345818,-0.31861788,0.49,0.78,0.49,23825,10209.80,0,0,2,-47.46,-67.83,-22.68,0.49,0.78,0.49
1.4296875,-0.5921369,-0.89958173,-0.33961788,0.51,0.76,0.48,23848,10207.80,0,0,2,-41.72,-65.38,-24.15,0.51,0.76,0.48
0.12988281,-0.51613694,-0.88258183,-0.3496179,0.51,0.77,0.5,23871,10206.50,0,0,2,-36.40,-64.19,-24.85,0.51,0.77,0.50
-1.9697266,-0.42713687,-0.8235818,-0.3356179,0.51,0.77,0.51,23893,10204.40,0,0,2,-30.17,-60.06,-23.87,0.51,0.77,0.51
-1.9697266,-0.33513686,-0.7195818,-0.3016179,0.48,0.78,0.5,23915,10204.40,0,0,2,-23.73,-52.78,-21.49,0.48,0.78,0.50
-1.5703125,-0.2071369,-0.5985818,-0.31961787,0.44,0.8,0.49,23930,10204.80,0,0,2,-14.77,-44.31,-22.75,0.44,0.80,0.49
-9.669922,-0.11113689,-0.45958176,-0.33261788,0.47,0.77,0.5,23953,10196.70,0,0,2,-8.05,-34.58,-23.66,0.47,0.77,0.50
-3.2705078,-0.08213689,-0.37558174,-0.31961787,0.49,0.74,0.5,23975,10203.10,0,0,2,-6.02,-28.70,-22.75,0.49,0.74,0.50
-5.669922,-0.07713689,-0.31458175,-0.30061787,0.5,0.73,0.48,23990,10200.70,0,0,2,-5.67,-24.43,-21.42,0.50,0.73,0.48
-6.270508,-0.079136886,-0.26758173,-0.27861786,0.5,0.73,0.46,24005,10200.10,0,0,2,-5.81,-21.14,-19.88,0.50,0.73,0.46
-6.669922,-0.08213689,-0.24258173,-0.2616179,0.5,0.73,0.45,24028,10199.70,0,0,2,-6.02,-19.39,-18.69,0.50,0.73,0.45
-6.270508,-0.090136886,-0.21758175,-0.23861788,0.51,0.73,0.45,24035,10200.10,0,0,2,-6.58,-17.64,-17.08,0.51,0.73,0.45
-6.669922,-0.11113689,-0.19158176,-0.20161788,0.49,0.77,0.44,24058,10199.70,0,0,2,-8.05,-15.82,-14.49,0.49,0.77,0.44
-6.669922,-0.05913689,-0.18558174,-0.25361785,0.48,0.84,0.41,24088,10199.70,0,0,2,-4.41,-15.40,-18.13,0.48,0.84,0.41
-7.669922,0.012863113,-0.17658177,-0.32661787,0.51,0.82,0.44,24103,10198.70,0,0,2,0.63,-14.77,-23.24,0.51,0.82,0.44
-6.270508,0.042863112,-0.17358175,-0.35761788,0.53,0.79,0.45,24132,10200.10,0,0,2,2.73,-14.56,-25.41,0.53,0.79,0.45
-6.669922,0.04586311,-0.19358176,-0.35561788,0.53,0.76,0.44,24140,10199.70,0,0,2,2.94,-15.96,-25.27,0.53,0.76,0.44
-7.370117,0.014863113,-0.21558174,-0.3316179,0.54,0.74,0.44,24162,10199.00,0,0,2,0.77,-17.50,-23.59,0.54,0.74,0.44
-11.669922,-0.04913689,-0.26758173,-0.31561786,0.52,0.73,0.43,24185,10194.70,0,0,2,-3.71,-21.14,-22.47,0.52,0.73,0.43
-2.2705078,-0.13613689,-0.32658175,-0.28361788,0.53,0.71,0.41,24208,10204.10,0,0,2,-9.80,-25.27,-20.23,0.53,0.71,0.41
-7.9697266,-0.20213689,-0.38258174,-0.24761787,0.55,0.71,0.4,24223,10198.40,0,0,2,-14.42,-29.19,-17.71,0.55,0.71,0.40
-7.370117,-0.28113687,-0.49858174,-0.2236179,0.56,0.72,0.38,24238,10199.00,0,0,2,-19.95,-37.31,-16.03,0.56,0.72,0.38
-8.370117,-0.33413687,-0.59358174,-0.22061788,0.55,0.75,0.37,24254,10198.00,0,0,2,-23.66,-43.96,-15.82,0.55,0.75,0.37
-6.9697266,-0.3511369,-0.7015818,-0.2366179,0.54,0.78,0.37,24267,10199.40,0,0,2,-24.85,-51.52,-16.94,0.54,0.78,0.37
-8.370117,-0.35213688,-0.79258174,-0.26061788,0.55,0.78,0.38,24283,10198.00,0,0,2,-24.92,-57.89,-18.62,0.55,0.78,0.38
-7.9697266,-0.35313687,-0.87958175,-0.2696179,0.52,0.79,0.4,24305,10198.40,0,0,2,-24.99,-63.98,-19.25,0.52,0.79,0.40
-7.9697266,-0.32713687,-0.89958173,-0.28961787,0.49,0.79,0.43,24328,10198.40,0,0,2,-23.17,-65.38,-20.65,0.49,0.79,0.43
-8.370117,-0.29813686,-0.8545818,-0.29361787,0.48,0.79,0.45,24350,10198.00,0,0,2,-21.14,-62.23,-20.93,0.48,0.79,0.45
-7.370117,-0.2631369,-0.7795818,-0.2806179,0.47,0.79,0.45,24373,10199.00,0,0,2,-18.69,-56.98,-20.02,0.47,0.79,0.45
-7.9697266,-0.24613689,-0.70858175,-0.2856179,0.47,0.78,0.45,24395,10198.40,0,0,2,-17.50,-52.01,-20.37,0.47,0.78,0.45
-8.969727,-0.2431369,-0.63358176,-0.27061787,0.47,0.77,0.44,24417,10197.40,0,0,2,-17.29,-46.76,-19.32,0.47,0.77,0.44
-8.370117,-0.2441369,-0.5805818,-0.23861788,0.49,0.77,0.43,24432,10198.00,0,0,2,-17.36,-43.05,-17.08,0.49,0.77,0.43
-11.0703125,-0.23513688,-0.5375818,-0.19461788,0.49,0.77,0.41,24455,10195.30,0,0,2,-16.73,-40.04,-14.00,0.49,0.77,0.41
-9.969727,-0.21513689,-0.47858176,-0.14761788,0.45,0.78,0.42,24470,10196.40,0,0,2,-15.33,-35.91,-10.71,0.45,0.78,0.42
-8.969727,-0.21913688,-0.40858173,-0.121617876,0.42,0.79,0.43,24485,10197.40,0,0,2,-15.61,-31.01,-8.89,0.42,0.79,0.43
-10.669922,-0.2271369,-0.32758173,-0.10861787,0.4,0.81,0.41,24500,10195.70,0,0,2,-16.17,-25.34,-7.98,0.40,0.81,0.41
-8.969727,-0.2051369,-0.24758175,-0.09961787,0.4,0.83,0.39,24515,10197.40,0,0,2,-14.63,-19.74,-7.35,0.40,0.83,0.39
-9.370117,-0.15613689,-0.17258176,-0.090617865,0.43,0.81,0.4,24530,10197.00,0,0,2,-11.20,-14.49,-6.72,0.43,0.81,0.40
-7.9697266,-0.12213689,-0.08958176,-0.051617876,0.46,0.78,0.42,24552,10198.40,0,0,2,-8.82,-8.68,-3.99,0.46,0.78,0.42
-7.9697266,-0.12513688,-0.016581751,0.015382125,0.47,0.74,0.44,24575,10198.40,0,0,2,-9.03,-3.57,0.70,0.47,0.74,0.44
-2.9697266,-0.14113688,0.056418248,0.07938213,0.46,0.77,0.43,24605,10203.40,0,0,2,-10.15,1.54,5.18,0.46,0.77,0.43
-1.9697266,-0.124136895,0.117418244,0.09738213,0.45,0.81,0.41,24620,10204.40,0,0,2,-8.96,5.81,6.44,0.45,0.81,0.41
0.4296875,-0.06313689,0.18441826,0.11238212,0.47,0.81,0.41,24650,10206.80,0,0,2,-4.69,10.50,7.49,0.47,0.81,0.41
1.1298828,-0.0031368877,0.24041826,0.16238211,0.51,0.77,0.41,24657,10207.50,0,0,2,-0.49,14.42,10.99,0.51,0.77,0.41
3.4296875,0.025863113,0.26641825,0.24138212,0.53,0.74,0.41,24680,10209.80,0,0,2,1.54,16.24,16.52,0.53,0.74,0.41
3.8300781,0.014863113,0.23241824,0.2583821,0.56,0.75,0.4,24704,10210.20,0,0,2,0.77,13.86,17.71,0.56,0.75,0.40
5.4296875,-0.020136885,0.17741826,0.22138213,0.57,0.75,0.4,24718,10211.80,0,0,2,-1.68,10.01,15.12,0.57,0.75,0.40
6.129883,-0.05313689,0.11041825,0.19038212,0.57,0.75,0.41,24733,10212.50,0,0,2,-3.99,5.32,12.95,0.57,0.75,0.41
8.530273,-0.05813689,0.07741825,0.18038212,0.56,0.74,0.42,24748,10214.90,0,0,2,-4.34,3.01,12.25,0.56,0.74,0.42
7.5302734,-0.043136887,0.07241825,0.19838212,0.53,0.75,0.43,24770,10213.90,0,0,2,-3.29,2.66,13.51,0.53,0.75,0.43
5.830078,-0.021136887,0.07441825,0.18438211,0.51,0.78,0.44,24785,10212.20,0,0,2,-1.75,2.80,12.53,0.51,0.78,0.44
6.5302734,-0.018136887,0.15041825,0.12638213,0.5,0.8,0.44,24815,10212.90,0,0,2,-1.54,8.12,8.47,0.50,0.80,0.44
8.830078,0.011863112,0.15941826,0.039382126,0.49,0.8,0.45,24823,10215.20,0,0,2,0.56,8.75,2.38,0.49,0.80,0.45
7.5302734,0.023863113,0.13241825,-0.020617876,0.46,0.82,0.45,24845,10213.90,0,0,2,1.40,6.86,-1.82,0.46,0.82,0.45
4.4296875,0.07586311,0.09841825,-0.019617874,0.48,0.8,0.42,24867,10210.80,0,0,2,5.04,4.48,-1.75,0.48,0.80,0.42
5.830078,0.17886311,0.11041825,0.050382126,0.5,0.77,0.43,24889,10212.20,0,0,2,12.25,5.32,3.15,0.50,0.77,0.43
5.4296875,0.1988631,0.14441824,0.121382125,0.51,0.75,0.42,24920,10211.80,0,0,2,13.65,7.70,8.12,0.51,0.75,0.42
4.4296875,0.1708631,0.12941825,0.14838213,0.51,0.76,0.42,24928,10210.80,0,0,2,11.69,6.65,10.01,0.51,0.76,0.42
4.4296875,0.13786311,0.05141825,0.20838211,0.51,0.77,0.4,24950,10210.80,0,0,2,9.38,1.19,14.21,0.51,0.77,0.40
5.4296875,0.14086312,0.16341823,0.085382126,0.51,0.78,0.39,24965,10211.80,0,0,2,9.59,9.03,5.60,0.51,0.78,0.39
4.4296875,0.13686311,0.07841825,0.12538213,0.53,0.77,0.38,24988,10210.80,0,0,2,9.31,3.08,8.40,0.53,0.77,0.38
5.830078,0.067863114,-0.010581754,0.20338212,0.54,0.78,0.39,25003,10212.20,0,0,2,4.48,-3.15,13.86,0.54,0.78,0.39
5.830078,0.12586312,0.009418247,0.10638213,0.54,0.75,0.37,25017,10212.20,0,0,2,8.54,-1.75,7.07,0.54,0.75,0.37
5.129883,0.025863113,0.10941825,0.09338213,0.54,0.74,0.39,25040,10211.50,0,0,2,1.54,5.25,6.16,0.54,0.74,0.39
4.4296875,0.021863112,0.059418246,0.13738212,0.53,0.74,0.39,25054,10210.80,0,0,2,1.26,1.75,9.24,0.53,0.74,0.39
4.4296875,0.019863114,0.08541825,0.12238212,0.53,0.74,0.39,25069,10210.80,0,0,2,1.12,3.57,8.19,0.53,0.74,0.39
5.830078,-0.0031368877,0.06241825,0.16538212,0.53,0.74,0.39,25092,10212.20,0,0,2,-0.49,1.96,11.20,0.53,0.74,0.39
5.830078,-0.04013689,0.09041825,0.21838212,0.54,0.73,0.41,25114,10212.20,0,0,2,-3.08,3.92,14.91,0.54,0.73,0.41
4.830078,-0.07013689,0.12541825,0.30138212,0.53,0.71,0.42,25137,10211.20,0,0,2,-5.18,6.37,20.72,0.53,0.71,0.42
3.4296875,-0.08113689,0.18141824,0.34538212,0.52,0.73,0.43,25160,10209.80,0,0,2,-5.95,10.29,23.80,0.52,0.73,0.43
5.830078,-0.06513689,0.23441824,0.35238212,0.52,0.75,0.43,25175,10212.20,0,0,2,-4.83,14.00,24.29,0.52,0.75,0.43
3.8300781,-1.3688765E-4,0.31841823,0.39738214,0.53,0.73,0.45,25197,10210.20,0,0,2,-0.28,19.88,27.44,0.53,0.73,0.45
4.129883,0.028863113,0.35841826,0.42338213,0.53,0.73,0.46,25219,10210.50,0,0,2,1.75,22.68,29.26,0.53,0.73,0.46
4.830078,0.034863114,0.38641825,0.42738214,0.55,0.72,0.46,25227,10211.20,0,0,2,2.17,24.64,29.54,0.55,0.72,0.46
2.8300781,0.03686311,0.41541827,0.43838212,0.55,0.72,0.46,25249,10209.20,0,0,2,2.31,26.67,30.31,0.55,0.72,0.46
4.830078,0.041863114,0.44941825,0.46438214,0.55,0.71,0.47,25272,10211.20,0,0,2,2.66,29.05,32.13,0.55,0.71,0.47
4.129883,0.046863113,0.46941826,0.46438214,0.55,0.72,0.47,25303,10210.50,0,0,2,3.01,30.45,32.13,0.55,0.72,0.47
3.8300781,0.019863114,0.51841825,0.4183821,0.56,0.73,0.45,25310,10210.20,0,0,2,1.12,33.88,28.91,0.56,0.73,0.45
4.129883,0.021863112,0.51841825,0.39438212,0.57,0.72,0.45,25325,10210.50,0,0,2,1.26,33.88,27.23,0.57,0.72,0.45
4.129883,0.033863112,0.5064182,0.38738212,0.57,0.69,0.47,25355,10210.50,0,0,2,2.10,33.04,26.74,0.57,0.69,0.47
2.8300781,0.024863113,0.48541826,0.37938213,0.59,0.7,0.46,25362,10209.20,0,0,2,1.47,31.57,26.18,0.59,0.70,0.46
3.8300781,0.029863114,0.39241824,0.32138214,0.61,0.71,0.44,25385,10210.20,0,0,2,1.82,25.06,22.12,0.61,0.71,0.44
1.1298828,0.03886311,0.31141824,0.27238214,0.61,0.7,0.45,25408,10207.50,0,0,2,2.45,19.39,18.69,0.61,0.70,0.45
2.8300781,0.009863112,0.27541825,0.23738211,0.6,0.68,0.48,25429,10209.20,0,0,2,0.42,16.87,16.24,0.60,0.68,0.48
2.1298828,-0.012136888,0.25941825,0.23338212,0.57,0.69,0.5,25452,10208.50,0,0,2,-1.12,15.75,15.96,0.57,0.69,0.50
1.7294922,8.6311274E-4,0.27341825,0.25038213,0.55,0.68,0.51,25468,10208.10,0,0,2,-0.21,16.73,17.15,0.55,0.68,0.51
1.7294922,0.015863111,0.30741826,0.25338215,0.53,0.69,0.51,25482,10208.10,0,0,2,0.84,19.11,17.36,0.53,0.69,0.51
2.1298828,0.030863114,0.32341826,0.22738212,0.54,0.7,0.49,25505,10208.50,0,0,2,1.89,20.23,15.54,0.54,0.70,0.49
2.1298828,0.057863113,0.32341826,0.17938213,0.55,0.72,0.49,25520,10208.50,0,0,2,3.78,20.23,12.18,0.55,0.72,0.49
-2.9697266,0.099863105,0.31441826,0.12038213,0.57,0.71,0.5,25536,10203.40,0,0,2,6.72,19.60,8.05,0.57,0.71,0.50
2.4296875,0.12586312,0.31441826,0.09338213,0.58,0.68,0.52,25558,10208.80,0,0,2,8.54,19.60,6.16,0.58,0.68,0.52
2.8300781,0.1328631,0.32441825,0.10238213,0.58,0.66,0.53,25573,10209.20,0,0,2,9.03,20.30,6.79,0.58,0.66,0.53
1.4296875,0.13986312,0.31141824,0.11638213,0.57,0.67,0.52,25595,10207.80,0,0,2,9.52,19.39,7.77,0.57,0.67,0.52
0.12988281,0.14086312,0.29041827,0.10538213,0.58,0.68,0.51,25610,10206.50,0,0,2,9.59,17.92,7.00,0.58,0.68,0.51
-0.5703125,0.13386312,0.27541825,0.10238213,0.57,0.67,0.52,25640,10205.80,0,0,2,9.10,16.87,6.79,0.57,0.67,0.52
0.4296875,0.1268631,0.26641825,0.12238212,0.55,0.66,0.52,25655,10206.80,0,0,2,8.61,16.24,8.19,0.55,0.66,0.52
5.129883,0.13486311,0.27241823,0.12738213,0.54,0.68,0.52,25677,10211.50,0,0,2,9.17,16.66,8.54,0.54,0.68,0.52
0.4296875,0.1488631,0.28241825,0.11738213,0.54,0.69,0.52,25700,10206.80,0,0,2,10.15,17.36,7.84,0.54,0.69,0.52
0.4296875,0.15886311,0.30341825,0.11438213,0.54,0.67,0.53,25730,10206.80,0,0,2,10.85,18.83,7.63,0.54,0.67,0.53
-0.2705078,0.15786311,0.32641825,0.12338213,0.55,0.67,0.54,25738,10206.10,0,0,2,10.78,20.44,8.26,0.55,0.67,0.54
5.4296875,0.1458631,0.34041825,0.13038212,0.55,0.66,0.54,25768,10211.80,0,0,2,9.94,21.42,8.75,0.55,0.66,0.54
0.4296875,0.1268631,0.35041827,0.14138213,0.55,0.66,0.53,25777,10206.80,0,0,2,8.61,22.12,9.52,0.55,0.66,0.53
-0.5703125,0.110863104,0.35641828,0.15138212,0.55,0.65,0.53,25782,10205.80,0,0,2,7.49,22.54,10.22,0.55,0.65,0.53
-0.5703125,0.085863106,0.35941824,0.15538213,0.54,0.67,0.52,25812,10205.80,0,0,2,5.74,22.75,10.50,0.54,0.67,0.52
-0.5703125,0.08686311,0.34241825,0.13238212,0.55,0.68,0.52,25827,10205.80,0,0,2,5.81,21.56,8.89,0.55,0.68,0.52
-0.5703125,0.08186311,0.30241826,0.10038213,0.56,0.67,0.52,25872,10205.80,0,0,2,5.46,18.76,6.65,0.56,0.67,0.52
-0.5703125,0.068863116,0.25841826,0.08638213,0.56,0.65,0.53,25874,10205.80,0,0,2,4.55,15.68,5.67,0.56,0.65,0.53
-0.5703125,0.052863114,0.20841825,0.09438213,0.56,0.66,0.53,25895,10205.80,0,0,3,3.43,12.18,6.23,0.56,0.66,0.53
-1.5703125,0.04486311,0.17641824,0.09038213,0.55,0.67,0.53,25910,10204.80,0,0,3,2.87,9.94,5.95,0.55,0.67,0.53
-1.2705078,0.04586311,0.14341825,0.08438213,0.56,0.67,0.53,25932,10205.10,0,0,3,2.94,7.63,5.53,0.56,0.67,0.53
-0.2705078,0.03286311,0.09441824,0.08038213,0.56,0.66,0.53,25955,10206.10,0,0,3,2.03,4.20,5.25,0.56,0.66,0.53
0.4296875,0.018863112,0.036418248,0.07438213,0.56,0.67,0.53,25977,10206.80,0,0,3,1.05,0.14,4.83,0.56,0.67,0.53
-1.5703125,0.0048631127,-0.015581753,0.034382124,0.56,0.68,0.52,25992,10204.80,0,0,3,0.07,-3.50,2.03,0.56,0.68,0.52
-1.2705078,-0.0031368877,-0.06058175,3.8212538E-4,0.57,0.68,0.52,26007,10205.10,0,0,3,-0.49,-6.65,-0.35,0.57,0.68,0.52
-0.96972656,-0.009136887,-0.10158176,-0.027617875,0.57,0.68,0.52,26030,10205.40,0,0,3,-0.91,-9.52,-2.31,0.57,0.68,0.52
-1.2705078,-0.016136887,-0.13958177,-0.041617874,0.57,0.67,0.53,26067,10205.10,0,0,3,-1.40,-12.18,-3.29,0.57,0.67,0.53
-1.2705078,-0.030136889,-0.17358175,-0.062617876,0.56,0.67,0.53,26069,10205.10,0,0,3,-2.38,-14.56,-4.76,0.56,0.67,0.53
-1.5703125,-0.028136889,-0.20658177,-0.091617875,0.55,0.68,0.53,26083,10204.80,0,0,3,-2.24,-16.87,-6.79,0.55,0.68,0.53
-1.2705078,-0.021136887,-0.22458172,-0.106617875,0.55,0.68,0.53,26106,10205.10,0,0,3,-1.75,-18.13,-7.84,0.55,0.68,0.53
-1.2705078,-0.017136887,-0.23458174,-0.109617874,0.55,0.68,0.53,26127,10205.10,0,0,3,-1.47,-18.83,-8.05,0.55,0.68,0.53
-1.9697266,-0.015136888,-0.24558175,-0.11861788,0.55,0.68,0.52,26150,10204.40,0,0,3,-1.33,-19.60,-8.68,0.55,0.68,0.52
-1.5703125,-0.015136888,-0.24558175,-0.12261788,0.55,0.68,0.53,26172,10204.80,0,0,3,-1.33,-19.60,-8.96,0.55,0.68,0.53
-0.96972656,-0.010136887,-0.22758174,-0.11461787,0.53,0.68,0.53,26195,10205.40,0,0,3,-0.98,-18.34,-8.40,0.53,0.68,0.53
-2.2705078,-0.004136888,-0.19758174,-0.106617875,0.53,0.69,0.52,26211,10204.10,0,0,3,-0.56,-16.24,-7.84,0.53,0.69,0.52
-3.2705078,0.0028631124,-0.16458175,-0.106617875,0.52,0.69,0.52,26233,10203.10,0,0,3,-0.07,-13.93,-7.84,0.52,0.69,0.52
-1.9697266,0.015863111,-0.13658175,-0.11161786,0.53,0.69,0.51,26255,10204.40,0,0,3,0.84,-11.97,-8.19,0.53,0.69,0.51
-1.9697266,0.024863113,-0.11858175,-0.109617874,0.53,0.68,0.51,26285,10204.40,0,0,3,1.47,-10.71,-8.05,0.53,0.68,0.51
-1.9697266,0.022863114,-0.10758174,-0.09761787,0.54,0.67,0.52,26286,10204.40,0,0,3,1.33,-9.94,-7.21,0.54,0.67,0.52
1.1298828,-0.0011368874,-0.0035817549,-0.121617876,0.54,0.67,0.51,26307,10207.50,0,0,3,-0.35,-2.66,-8.89,0.54,0.67,0.51
-1.9697266,-0.024136888,-0.03458175,-0.061617877,0.54,0.69,0.49,26337,10204.40,0,0,3,-1.96,-4.83,-4.69,0.54,0.69,0.49
-2.9697266,-0.0071368874,-0.065581754,-0.055617876,0.53,0.7,0.49,26359,10203.40,0,0,3,-0.77,-7.00,-4.27,0.53,0.70,0.49
-3.9697266,-0.010136887,-0.054581754,-0.073617876,0.53,0.69,0.51,26389,10202.40,0,0,3,-0.98,-6.23,-5.53,0.53,0.69,0.51
-1.9697266,-0.025136886,-0.03858175,-0.06461787,0.53,0.68,0.52,26412,10204.40,0,0,3,-2.03,-5.11,-4.90,0.53,0.68,0.52
-2.9697266,-0.028136889,-0.024581753,-0.05861788,0.53,0.69,0.52,26443,10203.40,0,0,3,-2.24,-4.13,-4.48,0.53,0.69,0.52
-5.9697266,-0.017136887,-0.015581753,-0.034617875,0.52,0.7,0.52,26472,10200.40,0,0,3,-1.47,-3.50,-2.80,0.52,0.70,0.52
-5.9697266,0.010863112,-0.021581754,-0.037617877,0.53,0.71,0.51,26474,10200.40,0,0,3,0.49,-3.92,-3.01,0.53,0.71,0.51
-5.669922,0.016863113,-5.817525E-4,-0.052617874,0.53,0.71,0.51,26480,10200.70,0,0,3,0.91,-2.45,-4.06,0.53,0.71,0.51
-4.669922,0.021863112,-0.032581754,-0.022617877,0.53,0.72,0.51,26518,10201.70,0,0,3,1.26,-4.69,-1.96,0.53,0.72,0.51
-9.669922,0.06686311,0.0024182461,-0.07261787,0.53,0.7,0.51,26525,10196.70,0,0,3,4.41,-2.24,-5.46,0.53,0.70,0.51
-6.9697266,0.042863112,0.06241825,-0.08961787,0.54,0.71,0.5,26555,10199.40,0,0,3,2.73,1.96,-6.65,0.54,0.71,0.50
-5.9697266,0.04086311,0.043418247,-0.07761787,0.53,0.71,0.5,26557,10200.40,0,0,3,2.59,0.63,-5.81,0.53,0.71,0.50
-6.9697266,0.052863114,-0.035581753,-0.05961788,0.53,0.71,0.5,26570,10199.40,0,0,3,3.43,-4.90,-4.55,0.53,0.71,0.50
-6.669922,0.04586311,0.0014182478,-0.05861788,0.52,0.7,0.5,26592,10199.70,0,0,3,2.94,-2.31,-4.48,0.52,0.70,0.50
-5.9697266,0.033863112,0.03841825,-0.087617874,0.52,0.71,0.5,26615,10200.40,0,0,3,2.10,0.28,-6.51,0.52,0.71,0.50
-8.370117,0.035863113,0.023418248,-0.109617874,0.53,0.72,0.48,26630,10198.00,0,0,3,2.24,-0.77,-8.05,0.53,0.72,0.48
-7.9697266,0.030863114,-0.014581755,-0.14361788,0.54,0.72,0.48,26660,10198.40,0,0,3,1.89,-3.43,-10.43,0.54,0.72,0.48
-6.669922,0.022863114,-0.14558175,-0.109617874,0.54,0.71,0.47,26698,10199.70,0,0,3,1.33,-12.60,-8.05,0.54,0.71,0.47
-8.669922,0.008863112,-0.19158176,-0.11461787,0.53,0.7,0.47,26699,10197.70,0,0,3,0.35,-15.82,-8.40,0.53,0.70,0.47
-7.669922,-0.022136888,-0.15958175,-0.120617874,0.51,0.71,0.48,26712,10198.70,0,0,3,-1.82,-13.58,-8.82,0.51,0.71,0.48
-7.669922,-0.037136886,-0.15758175,-0.12261788,0.5,0.73,0.48,26736,10198.70,0,0,3,-2.87,-13.44,-8.96,0.50,0.73,0.48
-8.669922,-0.025136886,-0.17758176,-0.11961787,0.51,0.74,0.47,26774,10197.70,0,0,3,-2.03,-14.84,-8.75,0.51,0.74,0.47
-8.669922,-0.023136888,-0.15658176,-0.14061788,0.51,0.73,0.48,26803,10197.70,0,0,3,-1.89,-13.37,-10.22,0.51,0.73,0.48
-8.669922,-0.022136888,-0.18158177,-0.12561788,0.52,0.72,0.48,26804,10197.70,0,0,3,-1.82,-15.12,-9.17,0.52,0.72,0.48
-6.669922,-0.014136886,-0.23758176,-0.11961787,0.53,0.71,0.47,26806,10199.70,0,0,3,-1.26,-19.04,-8.75,0.53,0.71,0.47
-6.669922,-0.08713689,-0.18458176,-0.14761788,0.53,0.71,0.47,26841,10199.70,0,0,3,-6.37,-15.33,-10.71,0.53,0.71,0.47
-4.669922,-0.067136884,-0.25958174,-0.10761787,0.52,0.72,0.47,26848,10201.70,0,0,3,-4.97,-20.58,-7.91,0.52,0.72,0.47
-7.669922,-0.08913689,-0.25258175,-0.084617876,0.51,0.73,0.47,26871,10198.70,0,0,3,-6.51,-20.09,-6.30,0.51,0.73,0.47
-6.669922,-0.10013689,-0.21158174,-0.07561787,0.5,0.74,0.48,26892,10199.70,0,0,3,-7.28,-17.22,-5.67,0.50,0.74,0.48
-6.9697266,-0.09913689,-0.15858176,-0.073617876,0.5,0.74,0.48,26923,10199.40,0,0,3,-7.21,-13.51,-5.53,0.50,0.74,0.48
-6.669922,-0.08113689,-0.12958175,-0.08161788,0.5,0.74,0.48,26953,10199.70,0,0,3,-5.95,-11.48,-6.09,0.50,0.74,0.48
-6.669922,-0.07013689,-0.14458174,-0.06761787,0.51,0.74,0.48,26955,10199.70,0,0,3,-5.18,-12.53,-5.11,0.51,0.74,0.48
-5.669922,-0.067136884,-0.12458175,-0.07661787,0.5,0.74,0.48,26998,10200.70,0,0,3,-4.97,-11.13,-5.74,0.50,0.74,0.48
-5.669922,-0.09713689,-0.012581751,-0.102617875,0.5,0.75,0.47,26999,10200.70,0,0,3,-7.07,-3.29,-7.56,0.50,0.75,0.47
-5.270508,-0.06413689,-0.026581753,-0.073617876,0.5,0.74,0.47,27043,10201.10,0,0,3,-4.76,-4.27,-5.53,0.50,0.74,0.47
-3.2705078,0.016863113,-0.14058176,-0.016617876,0.5,0.73,0.47,27044,10203.10,0,0,3,0.91,-12.25,-1.54,0.50,0.73,0.47
-4.9697266,-0.032136887,0.014418248,-0.036617875,0.5,0.72,0.48,27045,10201.40,0,0,3,-2.52,-1.40,-2.94,0.50,0.72,0.48
-1.2705078,-0.020136885,0.013418248,0.0063821254,0.5,0.72,0.48,27065,10205.10,0,0,3,-1.68,-1.47,0.07,0.50,0.72,0.48
-3.2705078,-0.009136887,0.046418246,0.045382123,0.5,0.72,0.48,27087,10203.10,0,0,3,-0.91,0.84,2.80,0.50,0.72,0.48
-4.270508,-0.0071368874,0.11641824,0.062382124,0.5,0.73,0.48,27110,10202.10,0,0,3,-0.77,5.74,3.99,0.50,0.73,0.48
-4.270508,0.0048631127,0.17141825,0.06438213,0.51,0.72,0.49,27132,10202.10,0,0,3,0.07,9.59,4.13,0.51,0.72,0.49
-3.9697266,-0.013136888,0.22341824,0.066382125,0.51,0.72,0.49,27147,10202.40,0,0,3,-1.19,13.23,4.27,0.51,0.72,0.49
-3.6699219,0.008863112,0.15441824,0.10638213,0.52,0.73,0.49,27169,10202.70,0,0,3,0.35,8.40,7.07,0.52,0.73,0.49
-4.270508,0.026863113,0.16241825,0.11338213,0.53,0.74,0.47,27193,10202.10,0,0,3,1.61,8.96,7.56,0.53,0.74,0.47
-4.9697266,0.053863112,0.16041824,0.10238213,0.54,0.72,0.47,27215,10201.40,0,0,3,3.50,8.82,6.79,0.54,0.72,0.47
-4.270508,0.0068631126,0.24841824,0.059382126,0.55,0.71,0.48,27238,10202.10,0,0,3,0.21,14.98,3.78,0.55,0.71,0.48
-4.270508,0.008863112,0.22741824,0.0073821256,0.54,0.72,0.48,27253,10202.10,0,0,3,0.35,13.51,0.14,0.54,0.72,0.48
-4.270508,0.016863113,0.12441825,0.077382125,0.54,0.72,0.48,27282,10202.10,0,0,3,0.91,6.30,5.04,0.54,0.72,0.48
-5.270508,0.03686311,0.06941825,0.036382128,0.54,0.73,0.48,27290,10201.10,0,0,3,2.31,2.45,2.17,0.54,0.73,0.48
-4.9697266,0.015863111,0.12841824,-0.03261788,0.54,0.72,0.48,27306,10201.40,0,0,3,0.84,6.58,-2.66,0.54,0.72,0.48
-5.9697266,0.05086311,0.05041825,-0.0046178745,0.53,0.72,0.49,27334,10200.40,0,0,3,3.29,1.12,-0.70,0.53,0.72,0.49
-5.270508,0.023863113,0.07141825,0.0053821253,0.53,0.72,0.5,27357,10201.10,0,0,3,1.40,2.59,0.00,0.53,0.72,0.50
-5.9697266,0.030863114,0.06841825,-0.002617875,0.52,0.73,0.5,27380,10200.40,0,0,3,1.89,2.38,-0.56,0.52,0.73,0.50
-5.270508,0.037863113,0.081418246,-0.011617876,0.51,0.73,0.5,27395,10201.10,0,0,3,2.38,3.29,-1.19,0.51,0.73,0.50
-3.9697266,0.04786311,0.081418246,-0.001617875,0.51,0.73,0.5,27417,10202.40,0,0,3,3.08,3.29,-0.49,0.51,0.73,0.50
-3.9697266,0.04386311,0.16041824,-0.036617875,0.5,0.73,0.5,27447,10202.40,0,0,3,2.80,8.82,-2.94,0.50,0.73,0.50
-3.9697266,0.08786311,0.09941825,0.009382125,0.5,0.74,0.49,27455,10202.40,0,0,3,5.88,4.55,0.28,0.50,0.74,0.49
-4.9697266,0.05886311,0.18841824,-0.037617877,0.5,0.73,0.49,27477,10201.40,0,0,3,3.85,10.78,-3.01,0.50,0.73,0.49
1.1298828,0.08186311,0.13441825,-6.178743E-4,0.5,0.73,0.49,27544,10207.50,0,0,3,5.46,7.00,-0.42,0.50,0.73,0.49
-1.9697266,0.08186311,0.13841826,-0.014617874,0.5,0.73,0.49,27547,10204.40,0,0,3,5.46,7.28,-1.40,0.50,0.73,0.49
-4.9697266,0.08086311,0.11041825,0.0053821253,0.49,0.74,0.48,27548,10201.40,0,0,3,5.39,5.32,0.00,0.49,0.74,0.48
-6.669922,0.08386311,0.10441825,-6.178743E-4,0.49,0.74,0.48,27575,10199.70,0,0,3,5.60,4.90,-0.42,0.49,0.74,0.48
-5.669922,0.078863114,0.10241825,-0.019617874,0.49,0.74,0.48,27576,10200.70,0,0,3,5.25,4.76,-1.75,0.49,0.74,0.48
-5.9697266,0.07286311,0.09041825,-0.025617875,0.5,0.73,0.49,27612,10200.40,0,0,3,4.83,3.92,-2.17,0.50,0.73,0.49
-5.9697266,0.06686311,0.03141825,0.023382124,0.5,0.73,0.48,27614,10200.40,0,0,3,4.41,-0.21,1.26,0.50,0.73,0.48
-5.9697266,0.04986311,0.044418246,0.004382125,0.49,0.74,0.49,27664,10200.40,0,0,3,3.22,0.70,-0.07,0.49,0.74,0.49
-5.9697266,0.048863113,0.041418247,0.0023821255,0.49,0.75,0.49,27665,10200.40,0,0,3,3.15,0.49,-0.21,0.49,0.75,0.49
-5.669922,0.048863113,0.035418246,0.025382124,0.48,0.75,0.49,27710,10200.70,0,0,3,3.15,0.07,1.40,0.48,0.75,0.49
-6.669922,0.05086311,0.07541825,0.0073821256,0.47,0.75,0.49,27711,10199.70,0,0,3,3.29,2.87,0.14,0.47,0.75,0.49
-5.669922,0.052863114,0.070418246,0.034382124,0.48,0.75,0.49,27755,10200.70,0,0,3,3.43,2.52,2.03,0.48,0.75,0.49
-7.9697266,0.028863113,0.15041825,-0.0056178747,0.49,0.74,0.48,27756,10198.40,0,0,3,1.75,8.12,-0.77,0.49,0.74,0.48
-5.9697266,0.030863114,0.08241825,0.057382125,0.49,0.75,0.48,27758,10200.40,0,0,3,1.89,3.36,3.64,0.49,0.75,0.48
-2.9697266,0.071863115,0.11641824,0.0063821254,0.49,0.73,0.47,27778,10203.40,0,0,3,4.76,5.74,0.07,0.49,0.73,0.47
-4.669922,-0.05313689,0.106418245,0.048382126,0.48,0.77,0.5,27807,10201.70,0,0,3,-3.99,5.04,3.01,0.48,0.77,0.50
-5.9697266,8.6311274E-4,0.07841825,0.0123821255,0.49,0.72,0.47,27838,10200.40,0,0,3,-0.21,3.08,0.49,0.49,0.72,0.47
-8.669922,0.011863112,0.05041825,0.021382127,0.49,0.72,0.47,27839,10197.70,0,0,3,0.56,1.12,1.12,0.49,0.72,0.47
-4.669922,0.055863112,0.018418247,0.020382125,0.49,0.73,0.49,27852,10201.70,0,0,3,3.64,-1.12,1.05,0.49,0.73,0.49
-4.669922,-0.08713689,0.024418248,0.020382125,0.48,0.86,0.5,28010,10201.70,0,0,3,-6.37,-0.70,1.05,0.48,0.86,0.50
-4.669922,-0.06513689,0.0044182483,0.032382127,0.49,0.71,0.48,28011,10201.70,0,0,3,-4.83,-2.10,1.89,0.49,0.71,0.48
-4.669922,-0.101136886,4.182458E-4,0.021382127,0.49,0.78,0.48,28012,10201.70,0,0,3,-7.35,-2.38,1.12,0.49,0.78,0.48
-14.770508,-0.011136888,-0.021581754,0.017382124,0.49,0.73,0.49,28099,10191.60,0,0,3,-1.05,-3.92,0.84,0.49,0.73,0.49
-12.770508,-0.05513689,-0.041581757,0.0073821256,0.48,0.73,0.48,28101,10193.60,0,0,3,-4.13,-5.32,0.14,0.48,0.73,0.48
-4.669922,-0.018136887,-0.05958175,0.010382125,0.47,0.72,0.46,28122,10201.70,0,0,3,-1.54,-6.58,0.35,0.47,0.72,0.46
-4.669922,-0.027136888,-0.09558176,-6.178743E-4,0.48,0.72,0.46,28124,10201.70,0,0,3,-2.17,-9.10,-0.42,0.48,0.72,0.46
-13.770508,-0.09913689,-0.16658175,-0.034617875,0.51,0.72,0.47,28129,10192.60,0,0,3,-7.21,-14.07,-2.80,0.51,0.72,0.47
-8.370117,-0.12513688,-0.19858176,-0.05861788,0.52,0.71,0.47,28160,10198.00,0,0,3,-9.03,-16.31,-4.48,0.52,0.71,0.47
-6.669922,-0.15513688,-0.25358173,-0.07661787,0.52,0.71,0.46,28175,10199.70,0,0,3,-11.13,-20.16,-5.74,0.52,0.71,0.46
-10.370117,-0.19113688,-0.31858173,-0.13761789,0.53,0.72,0.46,28190,10196.00,0,0,3,-13.65,-24.71,-10.01,0.53,0.72,0.46
-8.969727,-0.2521369,-0.44158173,-0.21661788,0.55,0.75,0.45,28212,10197.40,0,0,3,-17.92,-33.32,-15.54,0.55,0.75,0.45
-11.370117,-0.30413687,-0.5235818,-0.26561788,0.56,0.78,0.47,28250,10195.00,0,0,3,-21.56,-39.06,-18.97,0.56,0.78,0.47
-10.370117,-0.28413686,-0.5805818,-0.2916179,0.54,0.72,0.45,28251,10196.00,0,0,3,-20.16,-43.05,-20.79,0.54,0.72,0.45
-7.370117,-0.2441369,-0.6595818,-0.3176179,0.53,0.72,0.45,28288,10199.00,0,0,3,-17.36,-48.58,-22.61,0.53,0.72,0.45
-6.270508,-0.35313687,-0.68858176,-0.3176179,0.54,0.75,0.46,28288,10200.10,0,0,3,-24.99,-50.61,-22.61,0.54,0.75,0.46
-5.669922,-0.3401369,-0.7135818,-0.31561786,0.53,0.72,0.48,28370,10200.70,0,0,3,-24.08,-52.36,-22.47,0.53,0.72,0.48
-8.370117,-0.38713688,-0.7335817,-0.31561786,0.53,0.74,0.49,28372,10198.00,0,0,3,-27.37,-53.76,-22.47,0.53,0.74,0.49
-12.770508,-0.4141369,-0.7525818,-0.3316179,0.52,0.76,0.5,28374,10193.60,0,0,3,-29.26,-55.09,-23.59,0.52,0.76,0.50
-13.370117,-0.34513688,-0.72158176,-0.31161788,0.48,0.71,0.49,28378,10193.00,0,0,3,-24.43,-52.92,-22.19,0.48,0.71,0.49
-5.270508,-0.3621369,-0.5975818,-0.2546179,0.48,0.77,0.5,28400,10201.10,0,0,3,-25.62,-44.24,-18.20,0.48,0.77,0.50
-12.370117,-0.2681369,-0.51958174,-0.23061788,0.47,0.73,0.5,28430,10194.00,0,0,3,-19.04,-38.78,-16.52,0.47,0.73,0.50
-12.770508,-0.22213688,-0.42658174,-0.20861787,0.46,0.74,0.49,28437,10193.60,0,0,3,-15.82,-32.27,-14.98,0.46,0.74,0.49
-11.370117,-0.20913689,-0.30358174,-0.19461788,0.46,0.74,0.51,28467,10195.00,0,0,3,-14.91,-23.66,-14.00,0.46,0.74,0.51
-8.669922,-0.1821369,-0.23558173,-0.15861787,0.47,0.77,0.52,28505,10197.70,0,0,3,-13.02,-18.90,-11.48,0.47,0.77,0.52
-7.669922,-0.12213689,-0.17858174,-0.16161788,0.47,0.74,0.48,28506,10198.70,0,0,3,-8.82,-14.91,-11.69,0.47,0.74,0.48
-11.669922,-0.056136888,-0.14958176,-0.15461788,0.48,0.74,0.47,28527,10194.70,0,0,3,-4.20,-12.88,-11.20,0.48,0.74,0.47
-5.270508,-0.14413689,-0.087581754,-0.13961788,0.48,0.77,0.49,28550,10201.10,0,0,3,-10.36,-8.54,-10.15,0.48,0.77,0.49
-6.270508,-0.09613689,-0.09658175,-0.11361787,0.5,0.72,0.48,28551,10200.10,0,0,3,-7.00,-9.17,-8.33,0.50,0.72,0.48
-8.370117,-0.13113688,-0.08858175,-0.080617875,0.51,0.76,0.48,28579,10198.00,0,0,3,-9.45,-8.61,-6.02,0.51,0.76,0.48
-3.2705078,-0.09313689,-0.08858175,-0.07261787,0.5,0.73,0.46,28610,10203.10,0,0,3,-6.79,-8.61,-5.46,0.50,0.73,0.46
-3.2705078,-0.09613689,-0.044581756,-0.035617873,0.49,0.73,0.47,28611,10203.10,0,0,3,-7.00,-5.53,-2.87,0.49,0.73,0.47
-3.2705078,-0.09513689,-0.027581755,0.0023821255,0.49,0.72,0.48,28797,10203.10,0,0,3,-6.93,-4.34,-0.21,0.49,0.72,0.48
-3.9697266,-0.09713689,0.009418247,0.029382125,0.49,0.74,0.48,28797,10202.40,0,0,3,-7.07,-1.75,1.68,0.49,0.74,0.48
-2.9697266,-0.067136884,-0.0025817528,0.048382126,0.5,0.75,0.47,28800,10203.40,0,0,3,-4.97,-2.59,3.01,0.50,0.75,0.47
-5.9697266,0.05086311,0.05041825,0.09038213,0.54,0.75,0.46,28820,10200.40,0,0,3,3.29,1.12,5.95,0.54,0.75,0.46
-7.370117,0.074863106,0.046418246,0.066382125,0.53,0.74,0.47,28842,10199.00,0,0,3,4.97,0.84,4.27,0.53,0.74,0.47
-4.270508,0.046863113,0.07441825,0.035382126,0.52,0.73,0.47,28872,10202.10,0,0,3,3.01,2.80,2.10,0.52,0.73,0.47
-5.9697266,0.030863114,0.07741825,0.016382124,0.53,0.74,0.46,28895,10200.40,0,0,3,1.89,3.01,0.77,0.53,0.74,0.46
-6.9697266,0.05086311,0.028418249,0.019382127,0.54,0.73,0.45,28902,10199.40,0,0,3,3.29,-0.42,0.98,0.54,0.73,0.45
-6.9697266,0.04386311,0.0044182483,0.0123821255,0.55,0.72,0.46,28925,10199.40,0,0,3,2.80,-2.10,0.49,0.55,0.72,0.46
-7.9697266,0.013863113,-0.03858175,-0.006617874,0.55,0.72,0.45,28947,10198.40,0,0,3,0.70,-5.11,-0.84,0.55,0.72,0.45
-7.9697266,-0.018136887,-0.07058175,-0.014617874,0.54,0.73,0.45,28977,10198.40,0,0,3,-1.54,-7.35,-1.40,0.54,0.73,0.45
-7.9697266,-0.026136886,-0.061581746,0.0023821255,0.5,0.74,0.49,29000,10198.40,0,0,3,-2.10,-6.72,-0.21,0.50,0.74,0.49
-7.9697266,0.028863113,0.09041825,0.088382125,0.4,0.76,0.59,29015,10198.40,0,0,3,1.75,3.92,5.81,0.40,0.76,0.59
-7.9697266,0.1268631,0.38241827,0.18638211,0.29,0.74,0.69,29023,10198.40,0,0,3,8.61,24.36,12.67,0.29,0.74,0.69
-10.0703125,0.13486311,0.8034183,0.17138211,0.27,0.73,0.7,29038,10196.30,0,0,3,9.17,53.83,11.62,0.27,0.73,0.70
-8.669922,0.09586311,1.0434182,0.09138213,0.37,0.76,0.63,29053,10197.70,0,0,3,6.44,70.63,6.02,0.37,0.76,0.63
-8.370117,0.08386311,1.1574183,-0.039617877,0.54,0.79,0.48,29075,10198.00,0,0,3,5.60,78.61,-3.15,0.54,0.79,0.48
-7.9697266,0.10286311,0.9844182,-0.13261788,0.65,0.8,0.37,29105,10198.40,0,0,3,6.93,66.50,-9.66,0.65,0.80,0.37
-6.9697266,0.1268631,0.58941823,-0.24961787,0.72,0.81,0.28,29120,10199.40,0,0,3,8.61,38.85,-17.85,0.72,0.81,0.28
-7.9697266,0.13686311,-0.077581756,-0.38461787,0.76,0.81,0.27,29135,10198.40,0,0,3,9.31,-7.84,-27.30,0.76,0.81,0.27
-7.669922,0.14286311,-0.6625818,-0.45861787,0.71,0.77,0.33,29158,10198.70,0,0,3,9.73,-48.79,-32.48,0.71,0.77,0.33
-6.9697266,0.14086312,-1.0175818,-0.4386179,0.59,0.72,0.43,29180,10199.40,0,0,3,9.59,-73.64,-31.08,0.59,0.72,0.43
-10.669922,0.10386311,-1.1065818,-0.34061787,0.43,0.69,0.52,29202,10195.70,0,0,3,7.00,-79.87,-24.22,0.43,0.69,0.52
-8.969727,0.057863113,-0.92558175,-0.23361787,0.32,0.69,0.57,29225,10197.40,0,0,3,3.78,-67.20,-16.73,0.32,0.69,0.57
-7.370117,-0.014136886,-0.5795818,-0.14561787,0.27,0.7,0.58,29262,10199.00,0,0,3,-1.26,-42.98,-10.57,0.27,0.70,0.58
-5.669922,-0.07113689,-0.28258175,-0.08261787,0.27,0.7,0.58,29264,10200.70,0,0,3,-5.25,-22.19,-6.16,0.27,0.70,0.58
-7.669922,-0.11313688,0.006418247,0.0053821253,0.28,0.73,0.56,29278,10198.70,0,0,3,-8.19,-1.96,0.00,0.28,0.73,0.56
-6.669922,-0.13813688,0.52441823,0.048382126,0.31,0.75,0.53,29307,10199.70,0,0,3,-9.94,34.30,3.01,0.31,0.75,0.53
-7.669922,-0.13013689,0.49141824,0.06738213,0.38,0.78,0.49,29314,10198.70,0,0,3,-9.38,31.99,4.34,0.38,0.78,0.49
-6.669922,-0.120136894,0.58241826,0.08938213,0.44,0.77,0.48,29337,10199.70,0,0,3,-8.68,38.36,5.88,0.44,0.77,0.48
-7.669922,-0.09513689,0.5504182,0.15638211,0.49,0.77,0.46,29367,10198.70,0,0,3,-6.93,36.12,10.57,0.49,0.77,0.46
-7.9697266,-0.07813688,0.48041824,0.18038212,0.51,0.8,0.43,29385,10198.40,0,0,3,-5.74,31.22,12.25,0.51,0.80,0.43
-7.9697266,-0.031136887,0.36941826,0.18138212,0.51,0.79,0.43,29405,10198.40,0,0,3,-2.45,23.45,12.32,0.51,0.79,0.43
-6.370117,0.0048631127,0.27541825,0.19438212,0.5,0.76,0.46,29420,10200.00,0,0,3,0.07,16.87,13.23,0.50,0.76,0.46
-12.770508,-0.0011368874,0.17541826,0.19638212,0.5,0.76,0.46,29443,10193.60,0,0,3,-0.35,9.87,13.37,0.50,0.76,0.46
-8.969727,-0.012136888,0.06741825,0.15238212,0.5,0.78,0.46,29464,10197.40,0,0,3,-1.12,2.31,10.29,0.50,0.78,0.46
-8.370117,-0.004136888,-0.024581753,0.12738213,0.49,0.78,0.46,29487,10198.00,0,0,3,-0.56,-4.13,8.54,0.49,0.78,0.46
-9.669922,0.0028631124,-0.055581756,0.12238212,0.47,0.76,0.48,29502,10196.70,0,0,3,-0.07,-6.30,8.19,0.47,0.76,0.48
-13.770508,-0.008136887,-0.072581746,0.11438213,0.47,0.75,0.49,29517,10192.60,0,0,3,-0.84,-7.49,7.63,0.47,0.75,0.49
-9.669922,-0.010136887,-0.10458175,0.12238212,0.46,0.76,0.49,29533,10196.70,0,0,3,-0.98,-9.73,8.19,0.46,0.76,0.49
-8.669922,-0.05113689,-0.012581751,0.10438213,0.45,0.76,0.49,29548,10197.70,0,0,3,-3.85,-3.29,6.93,0.45,0.76,0.49
-8.669922,-0.020136885,-0.032581754,0.13538213,0.45,0.76,0.5,29571,10197.70,0,0,3,-1.68,-4.69,9.10,0.45,0.76,0.50
-7.669922,-0.009136887,0.011418248,0.12938213,0.45,0.76,0.5,29592,10198.70,0,0,3,-0.91,-1.61,8.68,0.45,0.76,0.50
-9.370117,-0.0011368874,0.018418247,0.13038212,0.47,0.75,0.51,29615,10197.00,0,0,3,-0.35,-1.12,8.75,0.47,0.75,0.51
-9.669922,-0.0011368874,0.015418246,0.121382125,0.49,0.75,0.38,29638,10196.70,0,0,3,-0.35,-1.33,8.12,0.49,0.75,0.38
-8.969727,-0.009136887,-0.027581755,0.08638213,0.51,0.75,0.49,29652,10197.40,0,0,3,-0.91,-4.34,5.67,0.51,0.75,0.49
-9.669922,-0.021136887,-0.09858175,0.030382127,0.52,0.75,0.48,29675,10196.70,0,0,3,-1.75,-9.31,1.75,0.52,0.75,0.48
-6.370117,-0.05013689,-0.18358177,-0.026617877,0.52,0.74,0.48,29704,10200.00,0,0,3,-3.78,-15.26,-2.24,0.52,0.74,0.48
-10.370117,-0.08413689,-0.27358174,-0.087617874,0.53,0.75,0.47,29720,10196.00,0,0,3,-6.16,-21.56,-6.51,0.53,0.75,0.47
-11.669922,-0.11113689,-0.39258173,-0.14361788,0.54,0.75,0.46,29742,10194.70,0,0,3,-8.05,-29.89,-10.43,0.54,0.75,0.46
-15.469727,-0.13513689,-0.48858175,-0.19761787,0.55,0.75,0.45,29774,10190.90,0,0,3,-9.73,-36.61,-14.21,0.55,0.75,0.45
-11.669922,-0.16513689,-0.6035818,-0.24361788,0.56,0.75,0.44,29775,10194.70,0,0,3,-11.83,-44.66,-17.43,0.56,0.75,0.44
-12.0703125,-0.19513689,-0.71158177,-0.27461788,0.57,0.74,0.43,29794,10194.30,0,0,3,-13.93,-52.22,-19.60,0.57,0.74,0.43
-12.370117,-0.22813688,-0.8375818,-0.30761787,0.56,0.75,0.43,29810,10194.00,0,0,3,-16.24,-61.04,-21.91,0.56,0.75,0.43
-13.770508,-0.26513687,-0.9375818,-0.3506179,0.54,0.75,0.45,29832,10192.60,0,0,3,-18.83,-68.04,-24.92,0.54,0.75,0.45
-12.770508,-0.28813687,-0.99558175,-0.3686179,0.53,0.75,0.44,29854,10193.60,0,0,3,-20.44,-72.10,-26.18,0.53,0.75,0.44
-12.770508,-0.29213688,-1.0155817,-0.3756179,0.51,0.77,0.44,29892,10193.60,0,0,3,-20.72,-73.50,-26.67,0.51,0.77,0.44
-13.370117,-0.26513687,-0.9885818,-0.38461787,0.48,0.78,0.45,29894,10193.00,0,0,3,-18.83,-71.61,-27.30,0.48,0.78,0.45
-13.370117,-0.23013687,-0.9065818,-0.37861785,0.47,0.77,0.47,29914,10193.00,0,0,3,-16.38,-65.87,-26.88,0.47,0.77,0.47
-14.370117,-0.2041369,-0.8095818,-0.3436179,0.46,0.77,0.47,29937,10192.00,0,0,3,-14.56,-59.08,-24.43,0.46,0.77,0.47
-14.0703125,-0.15513688,-0.6865818,-0.2996179,0.44,0.78,0.46,29967,10192.30,0,0,3,-11.13,-50.47,-21.35,0.44,0.78,0.46
-15.469727,-0.09113689,-0.54658175,-0.26061788,0.43,0.78,0.46,29982,10190.90,0,0,3,-6.65,-40.67,-18.62,0.43,0.78,0.46
-14.370117,-0.05513689,-0.42358178,-0.22861786,0.44,0.78,0.44,30005,10192.00,0,0,3,-4.13,-32.06,-16.38,0.44,0.78,0.44
-15.469727,-0.028136889,-0.32658175,-0.19461788,0.45,0.77,0.44,30027,10190.90,0,0,3,-2.24,-25.27,-14.00,0.45,0.77,0.44
-15.469727,-0.009136887,-0.24458176,-0.14561787,0.46,0.76,0.42,30034,10190.90,0,0,3,-0.91,-19.53,-10.57,0.46,0.76,0.42
-16.469727,0.0068631126,-0.17458177,-0.09261788,0.46,0.75,0.42,30050,10189.90,0,0,3,0.21,-14.63,-6.86,0.46,0.75,0.42
-18.469727,0.010863112,-0.08558175,0.0073821256,0.47,0.74,0.43,30072,10187.90,0,0,3,0.49,-8.40,0.14,0.47,0.74,0.43
-16.770508,-0.010136887,-0.027581755,0.06938213,0.46,0.75,0.41,30094,10189.60,0,0,3,-0.98,-4.34,4.48,0.46,0.75,0.41
-15.770508,-0.047136888,-0.0065817498,0.08138213,0.48,0.77,0.39,30117,10190.60,0,0,3,-3.57,-2.87,5.32,0.48,0.77,0.39
-14.370117,-0.054136887,-0.007581752,0.10438213,0.5,0.77,0.39,30147,10192.00,0,0,3,-4.06,-2.94,6.93,0.50,0.77,0.39
-14.370117,-0.060136892,-0.018581752,0.13638212,0.51,0.78,0.39,30184,10192.00,0,0,3,-4.48,-3.71,9.17,0.51,0.78,0.39
-14.370117,-0.060136892,-0.041581757,0.13138212,0.52,0.79,0.38,30186,10192.00,0,0,3,-4.48,-5.32,8.82,0.52,0.79,0.38
-13.0703125,-0.05513689,-0.061581746,0.12338213,0.52,0.78,0.38,30208,10193.30,0,0,3,-4.13,-6.72,8.26,0.52,0.78,0.38
-12.0703125,-0.068136886,-0.09358176,0.11238212,0.53,0.77,0.38,30230,10194.30,0,0,3,-5.04,-8.96,7.49,0.53,0.77,0.38
-12.0703125,-0.09813689,-0.14158174,0.09238213,0.54,0.76,0.38,30245,10194.30,0,0,3,-7.14,-12.32,6.09,0.54,0.76,0.38
-13.0703125,-0.12313689,-0.16758177,0.08038213,0.54,0.76,0.38,30260,10193.30,0,0,3,-8.89,-14.14,5.25,0.54,0.76,0.38
-11.0703125,-0.13813688,-0.19158176,0.07138213,0.54,0.76,0.38,30275,10195.30,0,0,3,-9.94,-15.82,4.62,0.54,0.76,0.38
-10.0703125,-0.14913689,-0.21958175,0.054382127,0.55,0.76,0.38,30290,10196.30,0,0,3,-10.71,-17.78,3.43,0.55,0.76,0.38
-13.370117,-0.15513688,-0.23758176,0.057382125,0.55,0.75,0.4,30312,10193.00,0,0,3,-11.13,-19.04,3.64,0.55,0.75,0.40
-10.370117,-0.16913688,-0.24258173,0.07338213,0.55,0.73,0.41,30334,10196.00,0,0,3,-12.11,-19.39,4.76,0.55,0.73,0.41
-11.0703125,-0.1891369,-0.25558174,0.062382124,0.55,0.75,0.4,30365,10195.30,0,0,3,-13.51,-20.30,3.99,0.55,0.75,0.40
-11.0703125,-0.19413689,-0.25458175,0.048382126,0.55,0.76,0.4,30380,10195.30,0,0,3,-13.86,-20.23,3.01,0.55,0.76,0.40
-10.0703125,-0.1891369,-0.22958174,0.036382128,0.55,0.75,0.42,30395,10196.30,0,0,3,-13.51,-18.48,2.17,0.55,0.75,0.42
-11.0703125,-0.18113689,-0.19058174,0.0123821255,0.55,0.76,0.42,30425,10195.30,0,0,3,-12.95,-15.75,0.49,0.55,0.76,0.42
-10.0703125,-0.16513689,-0.14758176,-0.0056178747,0.55,0.76,0.43,30440,10196.30,0,0,3,-11.83,-12.74,-0.77,0.55,0.76,0.43
-10.0703125,-0.1541369,-0.10558175,-0.021617875,0.55,0.76,0.44,30462,10196.30,0,0,3,-11.06,-9.80,-1.89,0.55,0.76,0.44
-9.370117,-0.12713689,-0.04558175,-0.021617875,0.54,0.76,0.44,30485,10197.00,0,0,3,-9.17,-5.60,-1.89,0.54,0.76,0.44
-14.0703125,-0.10813689,0.0024182461,-0.023617875,0.52,0.77,0.43,30500,10192.30,0,0,3,-7.84,-2.24,-2.03,0.52,0.77,0.43
-11.0703125,-0.07613689,0.06041825,-0.024617873,0.52,0.77,0.43,30515,10195.30,0,0,3,-5.60,1.82,-2.10,0.52,0.77,0.43
-10.669922,-0.036136888,0.10141825,-0.031617876,0.51,0.78,0.43,30530,10195.70,0,0,3,-2.80,4.69,-2.59,0.51,0.78,0.43
-15.0703125,0.014863113,0.14841825,-0.048617877,0.51,0.79,0.43,30545,10191.30,0,0,3,0.77,7.98,-3.78,0.51,0.79,0.43
-12.0703125,0.09586311,0.20741823,-0.06761787,0.48,0.83,0.43,30567,10194.30,0,0,3,6.44,12.11,-5.11,0.48,0.83,0.43
-12.0703125,0.2738631,0.32941824,-0.19661789,0.33,1.03,0.39,30590,10194.30,0,0,3,18.90,20.65,-14.14,0.33,1.03,0.39
-11.0703125,0.6328631,0.5724182,-0.5386179,0.36,1.06,0.47,30612,10195.30,0,0,3,44.03,37.66,-38.08,0.36,1.06,0.47
-15.770508,0.8198631,0.73741823,-0.7416179,0.56,0.8,0.58,30635,10190.60,0,0,3,57.12,49.21,-52.29,0.56,0.80,0.58
-7.669922,0.7548631,0.7584182,-0.6606179,0.62,0.69,0.54,30650,10198.70,0,0,3,52.57,50.68,-46.62,0.62,0.69,0.54
-11.0703125,0.6188631,0.71741825,-0.43261787,0.58,0.63,0.45,30672,10195.30,0,0,3,43.05,47.81,-30.66,0.58,0.63,0.45
-10.669922,0.50086313,0.6784183,-0.14061788,0.52,0.58,0.43,30696,10195.70,0,0,3,34.79,45.08,-10.22,0.52,0.58,0.43
-11.0703125,0.30486313,0.6474182,0.2193821,0.5,0.53,0.43,30717,10195.30,0,0,3,21.07,42.91,14.98,0.50,0.53,0.43
-9.669922,0.048863113,0.5994182,0.4723821,0.48,0.57,0.4,30748,10196.70,0,0,3,3.15,39.55,32.69,0.48,0.57,0.40
-10.0703125,-0.112136886,0.57841825,0.65738213,0.48,0.63,0.38,30755,10196.30,0,0,3,-8.12,38.08,45.64,0.48,0.63,0.38
-8.669922,-0.20813689,0.5444182,0.7613821,0.43,0.79,0.35,30772,10197.70,0,0,3,-14.84,35.70,52.92,0.43,0.79,0.35
-10.0703125,-0.16213688,0.5404182,0.67838216,0.32,0.98,0.31,30792,10196.30,0,0,3,-11.62,35.42,47.11,0.32,0.98,0.31
-9.669922,-0.019136887,0.5814182,0.4143821,0.3,1.05,0.36,30814,10196.70,0,0,3,-1.61,38.29,28.63,0.30,1.05,0.36
-14.770508,0.1988631,0.65641826,0.09538213,0.41,1.0,0.42,30822,10191.60,0,0,3,13.65,43.54,6.30,0.41,1.00,0.42
-10.669922,0.37186313,0.6824182,-0.12761788,0.45,1.0,0.43,30844,10195.70,0,0,3,25.76,45.36,-9.31,0.45,1.00,0.43
-10.370117,0.5278631,0.6554182,-0.30061787,0.53,0.88,0.48,30882,10196.00,0,0,3,36.68,43.47,-21.42,0.53,0.88,0.48
-11.669922,0.57186306,0.56941825,-0.30461788,0.58,0.76,0.47,30897,10194.70,0,0,3,39.76,37.45,-21.70,0.58,0.76,0.47
-11.669922,0.43986315,0.47441825,-0.17961788,0.56,0.7,0.45,30912,10194.70,0,0,3,30.52,30.80,-12.95,0.56,0.70,0.45
-11.669922,0.31486315,0.38641825,0.008382125,0.52,0.66,0.42,30927,10194.70,0,0,3,21.77,24.64,0.21,0.52,0.66,0.42
-10.669922,0.2068631,0.29841825,0.21638213,0.49,0.63,0.39,30950,10195.70,0,0,3,14.21,18.48,14.77,0.49,0.63,0.39
-9.669922,-0.0061368872,0.22641823,0.3813821,0.48,0.66,0.39,30973,10196.70,0,0,3,-0.70,13.44,26.32,0.48,0.66,0.39
-8.669922,-0.20113689,0.14441824,0.5103821,0.46,0.75,0.37,31003,10197.70,0,0,3,-14.35,7.70,35.35,0.46,0.75,0.37
-8.669922,-0.24013689,0.095418245,0.5283821,0.43,0.83,0.33,31010,10197.70,0,0,3,-17.08,4.27,36.61,0.43,0.83,0.33
-14.0703125,-0.09513689,0.043418247,0.4553821,0.37,0.94,0.32,31032,10192.30,0,0,3,-6.93,0.63,31.50,0.37,0.94,0.32
-11.370117,0.013863113,0.036418248,0.26138213,0.35,1.0,0.35,31047,10195.00,0,0,3,0.70,0.14,17.92,0.35,1.00,0.35
-8.669922,0.07686311,0.088418245,0.039382126,0.4,1.01,0.41,31062,10197.70,0,0,3,5.11,3.78,2.38,0.40,1.01,0.41
-11.669922,0.21586311,0.14341825,-0.15761788,0.41,0.99,0.45,31077,10194.70,0,0,3,14.84,7.63,-11.41,0.41,0.99,0.45
-14.370117,0.3798631,0.22841826,-0.39761788,0.41,1.01,0.44,31145,10192.00,0,0,3,26.32,13.58,-28.21,0.41,1.01,0.44
-12.0703125,0.4798631,0.27841824,-0.55661786,0.51,0.89,0.47,31147,10194.30,0,0,3,33.32,17.08,-39.34,0.51,0.89,0.47
-15.770508,0.49286312,0.23841825,-0.53461784,0.54,0.8,0.44,31148,10190.60,0,0,3,34.23,14.28,-37.80,0.54,0.80,0.44
-7.669922,0.45986313,0.19141823,-0.42061788,0.5,0.74,0.41,31175,10198.70,0,0,3,31.92,10.99,-29.82,0.50,0.74,0.41
-9.370117,0.35586312,0.15541825,-0.27861786,0.45,0.71,0.39,31222,10197.00,0,0,3,24.64,8.47,-19.88,0.45,0.71,0.39
-8.669922,0.22186312,0.13241825,-0.120617874,0.42,0.7,0.38,31223,10197.70,0,0,3,15.26,6.86,-8.82,0.42,0.70,0.38
-9.370117,0.07586311,0.10841825,0.07838213,0.41,0.7,0.36,31250,10197.00,0,0,3,5.04,5.18,5.11,0.41,0.70,0.36
-9.669922,-0.05313689,0.095418245,0.24638213,0.39,0.73,0.33,31251,10196.70,0,0,3,-3.99,4.27,16.87,0.39,0.73,0.33
-9.370117,-0.09813689,0.08741824,0.31738213,0.35,0.81,0.31,31265,10197.00,0,0,3,-7.14,3.71,21.84,0.35,0.81,0.31
-8.370117,-0.094136894,0.07241825,0.29738212,0.33,0.87,0.31,31280,10198.00,0,0,3,-6.86,2.66,20.44,0.33,0.87,0.31
-9.669922,-0.07413689,0.06241825,0.23038211,0.35,0.88,0.34,31303,10196.70,0,0,3,-5.46,1.96,15.75,0.35,0.88,0.34
-10.370117,-0.060136892,0.048418246,0.15138212,0.39,0.89,0.37,31318,10196.00,0,0,3,-4.48,0.98,10.22,0.39,0.89,0.37
-8.669922,-0.026136886,-0.21858174,0.08638213,0.42,0.89,0.38,31340,10197.70,0,0,3,-2.10,-17.71,5.67,0.42,0.89,0.38
-8.370117,0.0068631126,0.019418247,0.060382124,0.43,0.88,0.38,31362,10198.00,0,0,3,0.21,-1.05,3.85,0.43,0.88,0.38
-8.669922,0.028863113,0.0014182478,0.051382124,0.44,0.85,0.39,31386,10197.70,0,0,3,1.75,-2.31,3.22,0.44,0.85,0.39
-9.370117,0.03886311,-0.012581751,0.055382125,0.42,0.85,0.39,31415,10197.00,0,0,3,2.45,-3.29,3.50,0.42,0.85,0.39
-9.0703125,0.059863113,-0.007581752,0.047382124,0.41,0.86,0.38,31460,10197.30,0,0,3,3.92,-2.94,2.94,0.41,0.86,0.38
-9.0703125,0.079863116,0.0034182463,0.030382127,0.4,0.86,0.38,31467,10197.30,0,0,3,5.32,-2.17,1.75,0.40,0.86,0.38
-10.370117,0.085863106,0.019418247,0.021382127,0.41,0.84,0.38,31469,10196.00,0,0,3,5.74,-1.05,1.12,0.41,0.84,0.38
-10.370117,0.079863116,0.036418248,0.031382125,0.41,0.84,0.38,31490,10196.00,0,0,3,5.32,0.14,1.82,0.41,0.84,0.38
-10.370117,0.067863114,0.046418246,0.040382124,0.41,0.83,0.37,31512,10196.00,0,0,3,4.48,0.84,2.45,0.41,0.83,0.37
-10.370117,0.05086311,0.04041825,0.040382124,0.41,0.83,0.37,31549,10196.00,0,0,3,3.29,0.42,2.45,0.41,0.83,0.37
-10.370117,0.028863113,0.028418249,0.039382126,0.41,0.83,0.36,31551,10196.00,0,0,3,1.75,-0.42,2.38,0.41,0.83,0.36
-10.370117,0.011863112,0.0034182463,0.057382125,0.42,0.82,0.36,31565,10196.00,0,0,3,0.56,-2.17,3.64,0.42,0.82,0.36
-11.370117,-0.0061368872,-0.017581753,0.08438213,0.42,0.83,0.35,31603,10195.00,0,0,3,-0.70,-3.64,5.53,0.42,0.83,0.35
-12.370117,-0.029136887,-0.06458175,0.08638213,0.43,0.83,0.35,31603,10194.00,0,0,3,-2.31,-6.93,5.67,0.43,0.83,0.35
-8.370117,-0.044136886,-0.11558176,0.09238213,0.43,0.83,0.36,31640,10198.00,0,0,3,-3.36,-10.50,6.09,0.43,0.83,0.36
-11.370117,-0.05813689,-0.13658175,0.11238212,0.43,0.83,0.37,31662,10195.00,0,0,3,-4.34,-11.97,7.49,0.43,0.83,0.37
-11.370117,-0.06613689,-0.14958176,0.12938213,0.42,0.85,0.37,31677,10195.00,0,0,3,-4.90,-12.88,8.68,0.42,0.85,0.37
-10.370117,-0.05313689,-0.14858177,0.12638213,0.42,0.85,0.37,31684,10196.00,0,0,3,-3.99,-12.81,8.47,0.42,0.85,0.37
-11.370117,-0.03413689,-0.13958177,0.12338213,0.43,0.84,0.38,31715,10195.00,0,0,3,-2.66,-12.18,8.26,0.43,0.84,0.38
-11.0703125,-0.021136887,-0.10758174,0.13138212,0.42,0.84,0.39,31729,10195.30,0,0,3,-1.75,-9.94,8.82,0.42,0.84,0.39
-11.370117,-0.0031368877,-0.057581753,0.13038212,0.41,0.85,0.39,31752,10195.00,0,0,3,-0.49,-6.44,8.75,0.41,0.85,0.39
-11.370117,0.010863112,-0.007581752,0.12438212,0.41,0.86,0.39,31767,10195.00,0,0,3,0.49,-2.94,8.33,0.41,0.86,0.39
-12.370117,0.034863114,0.037418246,0.10138212,0.41,0.86,0.38,31782,10194.00,0,0,3,2.17,0.21,6.72,0.41,0.86,0.38
-13.370117,0.042863112,0.06241825,0.07338213,0.42,0.85,0.37,31797,10193.00,0,0,3,2.73,1.96,4.76,0.42,0.85,0.37
-12.370117,0.04586311,0.07141825,0.044382125,0.44,0.84,0.37,31821,10194.00,0,0,3,2.94,2.59,2.73,0.44,0.84,0.37
-12.370117,0.035863113,0.05041825,0.004382125,0.46,0.85,0.34,31843,10194.00,0,0,3,2.24,1.12,-0.07,0.46,0.85,0.34
-12.370117,-0.0011368874,-0.031581752,-0.07261787,0.49,0.85,0.31,31872,10194.00,0,0,3,-0.35,-4.62,-5.46,0.49,0.85,0.31
-11.0703125,-0.044136886,-0.20558175,-0.17061788,0.54,0.86,0.27,31888,10195.30,0,0,3,-3.36,-16.80,-12.32,0.54,0.86,0.27
-11.370117,-0.068136886,-0.43258172,-0.24961787,0.56,0.86,0.26,31904,10195.00,0,0,3,-5.04,-32.69,-17.85,0.56,0.86,0.26
-14.0703125,-0.08613689,-0.6615818,-0.3056179,0.55,0.84,0.27,31925,10192.30,0,0,3,-6.30,-48.72,-21.77,0.55,0.84,0.27
-10.370117,-0.11813689,-0.8755818,-0.34661788,0.53,0.84,0.29,31955,10196.00,0,0,3,-8.54,-63.70,-24.64,0.53,0.84,0.29
-12.0703125,-0.13613689,-0.9785818,-0.3546179,0.49,0.82,0.32,31977,10194.30,0,0,3,-9.80,-70.91,-25.20,0.49,0.82,0.32
-12.0703125,-0.1481369,-0.9995817,-0.3356179,0.44,0.83,0.33,32007,10194.30,0,0,3,-10.64,-72.38,-23.87,0.44,0.83,0.33
-12.370117,-0.15913689,-0.95658183,-0.32861787,0.42,0.83,0.35,32010,10194.00,0,0,3,-11.41,-69.37,-23.38,0.42,0.83,0.35
-12.370117,-0.16313688,-0.88758177,-0.31561786,0.41,0.83,0.37,32022,10194.00,0,0,3,-11.69,-64.54,-22.47,0.41,0.83,0.37
-15.770508,-0.17213689,-0.80458176,-0.2876179,0.39,0.81,0.39,32045,10190.60,0,0,3,-12.32,-58.73,-20.51,0.39,0.81,0.39
-13.0703125,-0.18813688,-0.66558176,-0.24361788,0.37,0.81,0.39,32061,10193.30,0,0,3,-13.44,-49.00,-17.43,0.37,0.81,0.39
-11.370117,-0.20313689,-0.51958174,-0.18661787,0.36,0.83,0.38,32083,10195.00,0,0,3,-14.49,-38.78,-13.44,0.36,0.83,0.38
-13.370117,-0.2071369,-0.34258175,-0.15261789,0.36,0.84,0.38,32105,10193.00,0,0,3,-14.77,-26.39,-11.06,0.36,0.84,0.38
-13.0703125,-0.20613688,-0.17858174,-0.106617875,0.36,0.84,0.38,32120,10193.30,0,0,3,-14.70,-14.91,-7.84,0.36,0.84,0.38
-13.0703125,-0.2071369,-0.040581755,-0.07761787,0.38,0.84,0.37,32142,10193.30,0,0,3,-14.77,-5.25,-5.81,0.38,0.84,0.37
-14.0703125,-0.20013689,0.046418246,-0.07661787,0.4,0.85,0.35,32165,10192.30,0,0,3,-14.28,0.84,-5.74,0.40,0.85,0.35
-16.070312,-0.18613689,0.09141825,-0.061617877,0.42,0.85,0.35,32188,10190.30,0,0,3,-13.30,3.99,-4.69,0.42,0.85,0.35
-15.0703125,-0.17113689,0.11141825,-0.036617875,0.43,0.85,0.34,32203,10191.30,0,0,3,-12.25,5.39,-2.94,0.43,0.85,0.34
-17.070312,-0.13713689,0.103418246,-0.027617875,0.42,0.87,0.33,32232,10189.30,0,0,3,-9.87,4.83,-2.31,0.42,0.87,0.33
-16.070312,-0.08913689,0.10041825,-0.023617875,0.42,0.88,0.33,32247,10190.30,0,0,3,-6.51,4.62,-2.03,0.42,0.88,0.33
-19.469727,-0.047136888,0.09941825,-0.017617874,0.42,0.87,0.33,32262,10186.90,0,0,3,-3.57,4.55,-1.61,0.42,0.87,0.33
-19.169922,-0.019136887,0.09941825,-0.018617872,0.43,0.85,0.34,32277,10187.20,0,0,3,-1.61,4.55,-1.68,0.43,0.85,0.34
-19.169922,-0.010136887,0.08441825,-0.001617875,0.43,0.85,0.35,32292,10187.20,0,0,3,-0.98,3.50,-0.49,0.43,0.85,0.35
-21.169922,-0.0071368874,0.09641825,0.027382124,0.42,0.84,0.35,32315,10185.20,0,0,3,-0.77,4.34,1.54,0.42,0.84,0.35
-21.169922,-0.015136888,0.09341825,0.028382126,0.41,0.86,0.34,32338,10185.20,0,0,3,-1.33,4.13,1.61,0.41,0.86,0.34
-21.870117,-0.013136888,0.07741825,0.0063821254,0.42,0.87,0.33,32360,10184.50,0,0,3,-1.19,3.01,0.07,0.42,0.87,0.33
-21.870117,-0.009136887,0.056418248,-0.001617875,0.43,0.86,0.34,32382,10184.50,0,0,3,-0.91,1.54,-0.49,0.43,0.86,0.34
-23.169922,-0.017136887,0.04241825,-0.006617874,0.42,0.85,0.34,32397,10183.20,0,0,3,-1.47,0.56,-0.84,0.42,0.85,0.34
-22.169922,-0.018136887,0.027418248,-0.0036178743,0.41,0.86,0.34,32420,10184.20,0,0,3,-1.54,-0.49,-0.63,0.41,0.86,0.34
-22.870117,-0.008136887,0.021418247,-0.0056178747,0.42,0.86,0.34,32442,10183.50,0,0,3,-0.84,-0.91,-0.77,0.42,0.86,0.34
-23.169922,-0.021136887,0.011418248,-0.008617875,0.41,0.85,0.35,32465,10183.20,0,0,3,-1.75,-1.61,-0.98,0.41,0.85,0.35
-23.169922,-0.032136887,0.024418248,0.0063821254,0.4,0.84,0.36,32487,10183.20,0,0,3,-2.52,-0.70,0.07,0.40,0.84,0.36
-19.770508,-0.026136886,0.07441825,0.038382124,0.25,0.86,0.37,32503,10186.60,0,0,3,-2.10,2.80,2.31,0.25,0.86,0.37
-22.169922,-0.008136887,0.12541825,0.052382123,0.35,0.87,0.39,32525,10184.20,0,0,3,-0.84,6.37,3.29,0.35,0.87,0.39
-22.169922,0.031863112,0.20441824,0.060382124,0.34,0.88,0.4,32539,10184.20,0,0,3,1.96,11.90,3.85,0.34,0.88,0.40
-22.169922,0.07786311,0.28741825,0.08738212,0.34,0.86,0.41,32555,10184.20,0,0,3,5.18,17.71,5.74,0.34,0.86,0.41
-23.169922,0.10786311,0.42741826,0.12338213,0.35,0.85,0.42,32577,10183.20,0,0,3,7.28,27.51,8.26,0.35,0.85,0.42
-25.870117,0.11886311,0.5264182,0.15038212,0.37,0.84,0.41,32600,10180.50,0,0,3,8.05,34.44,10.15,0.37,0.84,0.41
-23.469727,0.12286311,0.59341824,0.17738213,0.38,0.84,0.4,32629,10182.90,0,0,3,8.33,39.13,12.04,0.38,0.84,0.40
-23.870117,0.11686311,0.6274182,0.17738213,0.39,0.85,0.39,32644,10182.50,0,0,3,7.91,41.51,12.04,0.39,0.85,0.39
-23.169922,0.10386311,0.6144182,0.15338212,0.41,0.86,0.36,32659,10183.20,0,0,3,7.00,40.60,10.36,0.41,0.86,0.36
-21.870117,0.111863114,0.5774182,0.13938212,0.42,0.85,0.36,32683,10184.50,0,0,3,7.56,38.01,9.38,0.42,0.85,0.36
-21.870117,0.11686311,0.54241824,0.16638213,0.41,0.82,0.38,32705,10184.50,0,0,3,7.91,35.56,11.27,0.41,0.82,0.38
-20.870117,0.10986311,0.5064182,0.18838213,0.41,0.83,0.38,32727,10185.50,0,0,3,7.42,33.04,12.81,0.41,0.83,0.38
-20.870117,0.110863104,0.46341828,0.18438211,0.42,0.85,0.37,32749,10185.50,0,0,3,7.49,30.03,12.53,0.42,0.85,0.37
-20.870117,0.11886311,0.42341825,0.18938212,0.42,0.85,0.37,32765,10185.50,0,0,3,8.05,27.23,12.88,0.42,0.85,0.37
-20.870117,0.13086312,0.38641825,0.20638211,0.42,0.84,0.37,32780,10185.50,0,0,3,8.89,24.64,14.07,0.42,0.84,0.37
-19.770508,0.13486311,0.35241824,0.22038212,0.42,0.84,0.38,32794,10186.60,0,0,3,9.17,22.26,15.05,0.42,0.84,0.38
-22.870117,0.11486311,0.30841827,0.22238211,0.42,0.83,0.38,32825,10183.50,0,0,3,7.77,19.18,15.19,0.42,0.83,0.38
-19.770508,0.09786311,0.27541825,0.21038212,0.41,0.85,0.37,32840,10186.60,0,0,3,6.58,16.87,14.35,0.41,0.85,0.37
-19.469727,0.104863115,0.25541824,0.18938212,0.41,0.86,0.38,32862,10186.90,0,0,3,7.07,15.47,12.88,0.41,0.86,0.38
-18.770508,0.10586311,0.23341826,0.16738212,0.41,0.85,0.38,32878,10187.60,0,0,3,7.14,13.93,11.34,0.41,0.85,0.38
-17.770508,0.09886311,0.20641825,0.14038211,0.42,0.85,0.38,32900,10188.60,0,0,3,6.65,12.04,9.45,0.42,0.85,0.38
-15.770508,0.09186311,0.18341824,0.12038213,0.42,0.85,0.38,32922,10190.60,0,0,3,6.16,10.43,8.05,0.42,0.85,0.38
-13.770508,0.08386311,0.17641824,0.118382126,0.41,0.84,0.38,32945,10192.60,0,0,3,5.60,9.94,7.91,0.41,0.84,0.38
-12.770508,0.074863106,0.17141825,0.107382126,0.4,0.84,0.39,32975,10193.60,0,0,3,4.97,9.59,7.14,0.40,0.84,0.39
-9.669922,0.067863114,0.17441824,0.096382126,0.4,0.85,0.39,32990,10196.70,0,0,3,4.48,9.80,6.37,0.40,0.85,0.39
-8.669922,0.064863116,0.16941825,0.088382125,0.41,0.85,0.39,33005,10197.70,0,0,3,4.27,9.45,5.81,0.41,0.85,0.39
-6.669922,0.07086311,0.16841826,0.08338213,0.41,0.84,0.39,33020,10199.70,0,0,3,4.69,9.38,5.46,0.41,0.84,0.39
-5.669922,0.078863114,0.17141825,0.08738212,0.41,0.84,0.39,33042,10200.70,0,0,3,5.25,9.59,5.74,0.41,0.84,0.39
-4.669922,0.093863115,0.17041826,0.09138213,0.41,0.85,0.39,33050,10201.70,0,0,3,6.30,9.52,6.02,0.41,0.85,0.39
-4.669922,0.100863114,0.15741825,0.08138213,0.41,0.85,0.38,33072,10201.70,0,0,3,6.79,8.61,5.32,0.41,0.85,0.38
-3.6699219,0.09886311,0.13641825,0.06338213,0.42,0.84,0.38,33095,10202.70,0,0,3,6.65,7.14,4.06,0.42,0.84,0.38
-3.6699219,0.08886311,0.12541825,0.06538212,0.42,0.84,0.39,33118,10202.70,0,0,3,5.95,6.37,4.20,0.42,0.84,0.39
-2.5703125,0.07686311,0.117418244,0.077382125,0.41,0.83,0.39,33140,10203.80,0,0,3,5.11,5.81,5.04,0.41,0.83,0.39
-8.669922,0.06986311,0.12041825,0.08238213,0.41,0.84,0.38,33170,10197.70,0,0,3,4.62,6.02,5.39,0.41,0.84,0.38
-3.6699219,0.068863116,0.10941825,0.062382124,0.41,0.84,0.38,33177,10202.70,0,0,3,4.55,5.25,3.99,0.41,0.84,0.38
-4.270508,0.06586312,0.092418246,0.044382125,0.42,0.84,0.38,33200,10202.10,0,0,3,4.34,4.06,2.73,0.42,0.84,0.38
-3.6699219,0.05886311,0.08741824,0.041382123,0.42,0.84,0.38,33222,10202.70,0,0,3,3.85,3.71,2.52,0.42,0.84,0.38
-3.2705078,0.055863112,0.07841825,0.050382126,0.41,0.84,0.38,33244,10203.10,0,0,3,3.64,3.08,3.15,0.41,0.84,0.38
-3.6699219,0.04786311,0.07141825,0.047382124,0.41,0.85,0.38,33259,10202.70,0,0,3,3.08,2.59,2.94,0.41,0.85,0.38
-3.2705078,0.048863113,0.066418245,0.041382123,0.41,0.85,0.38,33305,10203.10,0,0,3,3.15,2.24,2.52,0.41,0.85,0.38
-4.270508,0.041863114,0.05741825,0.034382124,0.41,0.84,0.38,33306,10202.10,0,0,3,2.66,1.61,2.03,0.41,0.84,0.38
-4.270508,0.030863114,0.04941825,0.033382125,0.41,0.84,0.39,33312,10202.10,0,0,3,1.89,1.05,1.96,0.41,0.84,0.39
0.7294922,0.024863113,0.046418246,0.040382124,0.41,0.84,0.38,33343,10207.10,0,0,3,1.47,0.84,2.45,0.41,0.84,0.38
-2.5703125,0.024863113,0.045418248,0.040382124,0.41,0.84,0.38,33365,10203.80,0,0,3,1.47,0.77,2.45,0.41,0.84,0.38
-4.270508,0.026863113,0.04241825,0.031382125,0.41,0.84,0.39,33388,10202.10,0,0,3,1.61,0.56,1.82,0.41,0.84,0.39
-4.9697266,0.023863113,0.04041825,0.017382124,0.41,0.84,0.39,33439,10201.40,0,0,3,1.40,0.42,0.84,0.41,0.84,0.39
-5.669922,0.017863113,0.039418247,0.011382125,0.41,0.84,0.39,33440,10200.70,0,0,3,0.98,0.35,0.42,0.41,0.84,0.39
-4.270508,0.016863113,0.041418247,0.018382125,0.41,0.84,0.39,33454,10202.10,0,0,3,0.91,0.49,0.91,0.41,0.84,0.39
-5.270508,0.021863112,0.045418248,0.025382124,0.41,0.84,0.39,33477,10201.10,0,0,3,1.26,0.77,1.40,0.41,0.84,0.39
-5.270508,0.031863112,0.047418248,0.024382126,0.41,0.85,0.38,33507,10201.10,0,0,3,1.96,0.91,1.33,0.41,0.85,0.38
-4.270508,0.046863113,0.05141825,0.024382126,0.41,0.84,0.39,33515,10202.10,0,0,3,3.01,1.19,1.33,0.41,0.84,0.39
-5.270508,0.041863114,0.05141825,0.016382124,0.4,0.85,0.39,33530,10201.10,0,0,3,2.66,1.19,0.77,0.40,0.85,0.39
-5.270508,0.035863113,0.056418248,0.016382124,0.4,0.85,0.39,33560,10201.10,0,0,3,2.24,1.54,0.77,0.40,0.85,0.39
-3.2705078,0.03286311,0.055418245,0.018382125,0.4,0.85,0.39,33561,10203.10,0,0,3,2.03,1.47,0.91,0.40,0.85,0.39
-7.370117,0.037863113,0.06441825,0.016382124,0.4,0.85,0.38,33604,10199.00,0,0,3,2.38,2.10,0.77,0.40,0.85,0.38
-6.370117,0.041863114,0.06541825,0.011382125,0.4,0.85,0.38,33606,10200.00,0,0,3,2.66,2.17,0.42,0.40,0.85,0.38
-5.270508,0.041863114,0.07141825,0.0023821255,0.4,0.85,0.37,33664,10201.10,0,0,3,2.66,2.59,-0.21,0.40,0.85,0.37
-5.270508,0.048863113,0.07241825,3.8212538E-4,0.4,0.85,0.38,33665,10201.10,0,0,3,3.15,2.66,-0.35,0.40,0.85,0.38
-5.270508,0.04386311,0.06741825,0.0063821254,0.4,0.84,0.38,33717,10201.10,0,0,3,2.80,2.31,0.07,0.40,0.84,0.38
-5.270508,0.028863113,0.06441825,0.014382125,0.4,0.84,0.37,33718,10201.10,0,0,3,1.75,2.10,0.63,0.40,0.84,0.37
-6.370117,0.016863113,0.05741825,0.021382127,0.4,0.84,0.37,33719,10200.00,0,0,3,0.91,1.61,1.12,0.40,0.84,0.37
-7.370117,0.012863113,0.04941825,0.021382127,0.4,0.84,0.37,33721,10199.00,0,0,3,0.63,1.05,1.12,0.40,0.84,0.37
-5.9697266,0.010863112,0.044418246,0.024382126,0.4,0.84,0.37,33747,10200.40,0,0,3,0.49,0.70,1.33,0.40,0.84,0.37
-6.370117,0.011863112,0.046418246,0.023382124,0.4,0.85,0.38,33763,10200.00,0,0,3,0.56,0.84,1.26,0.40,0.85,0.38
-6.669922,0.015863111,0.046418246,0.023382124,0.4,0.85,0.38,33792,10199.70,0,0,3,0.84,0.84,1.26,0.40,0.85,0.38
-4.9697266,0.016863113,0.045418248,0.024382126,0.4,0.85,0.38,33793,10201.40,0,0,3,0.91,0.77,1.33,0.40,0.85,0.38
-7.370117,0.008863112,0.04041825,0.027382124,0.4,0.85,0.38,33814,10199.00,0,0,3,0.35,0.42,1.54,0.40,0.85,0.38
-8.370117,0.0028631124,0.037418246,0.032382127,0.4,0.85,0.37,33837,10198.00,0,0,3,-0.07,0.21,1.89,0.40,0.85,0.37
-8.370117,0.0058631124,0.032418247,0.030382127,0.4,0.85,0.37,33882,10198.00,0,0,3,0.14,-0.14,1.75,0.40,0.85,0.37
-6.370117,0.010863112,0.029418249,0.029382125,0.4,0.85,0.38,33897,10200.00,0,0,3,0.49,-0.35,1.68,0.40,0.85,0.38
-9.370117,0.0058631124,0.024418248,0.031382125,0.4,0.84,0.37,33898,10197.00,0,0,3,0.14,-0.70,1.82,0.40,0.84,0.37
-10.0703125,0.0018631124,0.012418248,0.024382126,0.4,0.85,0.37,33920,10196.30,0,0,3,-0.14,-1.54,1.33,0.40,0.85,0.37
-10.0703125,0.0018631124,-0.0015817508,0.027382124,0.4,0.84,0.37,33949,10196.30,0,0,3,-0.14,-2.52,1.54,0.40,0.84,0.37
-11.0703125,-0.0071368874,-0.0065817498,0.033382125,0.41,0.84,0.38,34002,10195.30,0,0,3,-0.77,-2.87,1.96,0.41,0.84,0.38
-14.770508,-0.020136885,-0.008581754,0.042382125,0.4,0.85,0.38,34003,10191.60,0,0,3,-1.68,-3.01,2.59,0.40,0.85,0.38
-12.0703125,-0.011136888,-0.012581751,0.044382125,0.39,0.85,0.38,34005,10194.30,0,0,3,-1.05,-3.29,2.73,0.39,0.85,0.38
-14.0703125,-0.004136888,-0.007581752,0.042382125,0.4,0.86,0.37,34040,10192.30,0,0,3,-0.56,-2.94,2.59,0.40,0.86,0.37
-13.370117,0.0038631125,4.182458E-4,0.039382126,0.4,0.85,0.37,34047,10193.00,0,0,3,0.00,-2.38,2.38,0.40,0.85,0.37
-14.770508,-0.0011368874,0.0014182478,0.039382126,0.4,0.84,0.38,34055,10191.60,0,0,3,-0.35,-2.31,2.38,0.40,0.84,0.38
-13.0703125,-0.015136888,4.182458E-4,0.036382128,0.41,0.85,0.38,34077,10193.30,0,0,3,-1.33,-2.38,2.17,0.41,0.85,0.38
-21.169922,-0.015136888,-5.817525E-4,0.040382124,0.41,0.85,0.37,34100,10185.20,0,0,3,-1.33,-2.45,2.45,0.41,0.85,0.37
-16.770508,-0.014136886,-0.0065817498,0.041382123,0.41,0.85,0.38,34122,10189.60,0,0,3,-1.26,-2.87,2.52,0.41,0.85,0.38
-15.770508,-0.014136886,-0.0015817508,0.039382126,0.4,0.85,0.38,34152,10190.60,0,0,3,-1.26,-2.52,2.38,0.40,0.85,0.38
-17.070312,-0.010136887,0.010418249,0.033382125,0.4,0.85,0.38,34168,10189.30,0,0,3,-0.98,-1.68,1.96,0.40,0.85,0.38
-18.169922,-1.3688765E-4,0.0054182485,0.021382127,0.4,0.85,0.38,34182,10188.20,0,0,3,-0.28,-2.03,1.12,0.40,0.85,0.38
-18.469727,-0.0061368872,0.028418249,0.022382125,0.41,0.84,0.38,34205,10187.90,0,0,3,-0.70,-0.42,1.19,0.41,0.84,0.38
-18.169922,-0.010136887,0.020418247,0.031382125,0.41,0.84,0.38,34227,10188.20,0,0,3,-0.98,-0.98,1.82,0.41,0.84,0.38
-17.070312,-0.011136888,0.02241825,0.027382124,0.41,0.85,0.38,34272,10189.30,0,0,3,-1.05,-0.84,1.54,0.41,0.85,0.38
-19.169922,-0.012136888,0.025418248,0.023382124,0.4,0.85,0.38,34274,10187.20,0,0,3,-1.12,-0.63,1.26,0.40,0.85,0.38
-20.169922,-0.010136887,0.030418247,0.017382124,0.4,0.84,0.39,34280,10186.20,0,0,3,-0.98,-0.28,0.84,0.40,0.84,0.39
-20.469727,-0.012136888,0.04041825,0.018382125,0.4,0.85,0.38,34317,10185.90,0,0,3,-1.12,0.42,0.91,0.40,0.85,0.38
-19.770508,-0.004136888,0.05741825,0.0123821255,0.39,0.86,0.38,34324,10186.60,0,0,3,-0.56,1.61,0.49,0.39,0.86,0.38
-19.770508,0.007863113,0.07141825,0.0033821252,0.4,0.86,0.39,34384,10186.60,0,0,3,0.28,2.59,-0.14,0.40,0.86,0.39
-20.169922,0.016863113,0.088418245,3.8212538E-4,0.4,0.84,0.39,34386,10186.20,0,0,3,0.91,3.78,-0.35,0.40,0.84,0.39
-19.169922,0.014863113,0.08941825,0.009382125,0.4,0.84,0.39,34387,10187.20,0,0,3,0.77,3.85,0.28,0.40,0.84,0.39
-20.169922,0.011863112,0.08641825,0.0123821255,0.4,0.85,0.38,34414,10186.20,0,0,3,0.56,3.64,0.49,0.40,0.85,0.38
-18.770508,0.010863112,0.080418244,0.013382126,0.4,0.84,0.38,34445,10187.60,0,0,3,0.49,3.22,0.56,0.40,0.84,0.38
-17.070312,0.007863113,0.07841825,0.022382125,0.39,0.85,0.38,34446,10189.30,0,0,3,0.28,3.08,1.19,0.39,0.85,0.38
-16.070312,0.0018631124,0.06841825,0.019382127,0.4,0.85,0.38,34497,10190.30,0,0,3,-0.14,2.38,0.98,0.40,0.85,0.38
-16.469727,0.009863112,0.06441825,0.015382125,0.4,0.85,0.38,34498,10189.90,0,0,3,0.42,2.10,0.70,0.40,0.85,0.38
