Pressure_Rel,GyroX_Rel,GyroY_Rel,GyroZ_Rel,AccX_Rel,AccY_Rel,AccZ_Rel,Timestamp,Pressure_abs,HeartRate,Oxygen,Status,GyroX,GyroY,GyroZ,AccX,AccY,AccZ
0.0,0.0,0.0,0.0,0.0,0.0,0.0,5431,10126.70,0,0,3,0.07,-1.26,1.82,0.38,0.74,0.59
0.0,0.0,0.0,0.0,0.0,0.0,0.0,5446,10126.70,0,0,3,-0.21,-1.33,1.19,0.38,0.75,0.58
0.0,0.0,0.0,0.0,0.0,0.0,0.0,5469,10125.70,0,0,3,0.35,-0.77,1.05,0.38,0.75,0.58
0.0,0.0,0.0,0.0,0.0,0.0,0.0,5476,10124.70,0,0,3,0.63,-1.05,0.84,0.39,0.74,0.58
0.0,0.0,0.0,0.0,0.0,0.0,0.0,5499,10122.70,0,0,3,0.70,-1.61,0.91,0.39,0.74,0.58
0.0,0.0,0.0,0.0,0.0,0.0,0.0,5519,10125.70,0,0,3,0.42,-1.75,1.33,0.38,0.74,0.59
0.0,0.0,0.0,0.0,0.0,0.0,0.0,5533,10125.70,0,0,3,-0.14,-2.03,1.19,0.38,0.74,0.59
0.0,0.0,0.0,0.0,0.0,0.0,0.0,5543,10126.70,0,0,3,0.00,-1.89,1.12,0.38,0.75,0.58
0.0,0.0,0.0,0.0,0.0,0.0,0.0,5563,10126.70,0,0,3,0.21,-1.68,0.63,0.38,0.75,0.59
0.0,0.0,0.0,0.0,0.0,0.0,0.0,5581,10126.70,0,0,3,0.63,-1.40,0.42,0.38,0.74,0.59
0.0,0.0,0.0,0.0,0.0,0.0,0.0,5603,10125.70,0,0,3,0.63,-0.98,1.26,0.38,0.74,0.59
0.0,0.0,0.0,0.0,0.0,0.0,0.0,5618,10121.60,0,0,3,0.14,-0.91,1.61,0.38,0.73,0.60
0.0,0.0,0.0,0.0,0.0,0.0,0.0,5646,10130.10,0,0,3,-0.28,-1.33,0.98,0.38,0.75,0.59
0.0,0.0,0.0,0.0,0.0,0.0,0.0,5663,10126.40,0,0,3,0.14,-0.84,0.49,0.38,0.75,0.60
0.0,0.0,0.0,0.0,0.0,0.0,0.0,5686,10125.70,0,0,3,0.77,0.35,0.63,0.38,0.74,0.60
0.0,0.0,0.0,0.0,0.0,0.0,0.0,5713,10126.70,0,0,3,0.84,0.84,0.91,0.37,0.74,0.62
0.0,0.0,0.0,0.0,0.0,0.0,0.0,5726,10126.70,0,0,3,0.35,1.96,1.40,0.38,0.74,0.63
0.0,0.0,0.0,0.0,0.0,0.0,0.0,5746,10125.70,0,0,3,-0.14,3.22,2.03,0.40,0.76,0.62
0.0,0.0,0.0,0.0,0.0,0.0,0.0,5761,10125.70,0,0,3,0.00,3.57,1.96,0.41,0.76,0.62
0.0,0.0,0.0,0.0,0.0,0.0,0.0,5776,10126.70,0,0,3,0.49,3.08,1.47,0.42,0.76,0.62
0.0,0.0,0.0,0.0,0.0,0.0,0.0,5793,10127.00,0,0,3,0.91,2.17,0.70,0.42,0.76,0.63
0.0,0.0,0.0,0.0,0.0,0.0,0.0,5806,10127.00,0,0,3,1.33,1.33,-0.63,0.41,0.76,0.63
0.0,0.0,0.0,0.0,0.0,0.0,0.0,5829,10127.00,0,0,3,1.61,0.63,-3.01,0.41,0.76,0.63
0.0,0.0,0.0,0.0,0.0,0.0,0.0,5851,10127.40,0,0,3,2.45,0.00,-5.11,0.41,0.76,0.64
0.0,0.0,0.0,0.0,0.0,0.0,0.0,5875,10126.70,0,0,3,4.41,0.07,-6.16,0.41,0.77,0.65
0.0,0.0,0.0,0.0,0.0,0.0,0.0,5903,10126.70,0,0,3,6.72,0.70,-7.21,0.40,0.78,0.64
0.0,0.0,0.0,0.0,0.0,0.0,0.0,5919,10127.00,0,0,3,8.40,0.35,-9.17,0.39,0.78,0.63
0.0,0.0,0.0,0.0,0.0,0.0,0.0,5941,10127.00,0,0,3,9.45,-0.42,-11.20,0.39,0.78,0.64
0.0,0.0,0.0,0.0,0.0,0.0,0.0,5956,10127.00,0,0,3,10.50,-0.84,-12.39,0.39,0.78,0.64
0.0,0.0,0.0,0.0,0.0,0.0,0.0,5979,10127.00,0,0,3,11.13,-1.54,-14.42,0.38,0.79,0.63
0.0,0.0,0.0,0.0,0.0,0.0,0.0,6001,10127.00,0,0,3,12.11,-1.47,-15.89,0.38,0.78,0.63
0.0,0.0,0.0,0.0,0.0,0.0,0.0,6016,10122.00,0,0,3,12.95,-1.54,-17.43,0.37,0.79,0.63
0.0,0.0,0.0,0.0,0.0,0.0,0.0,6032,10127.00,0,0,3,13.86,-1.82,-18.69,0.37,0.79,0.62
0.0,0.0,0.0,0.0,0.0,0.0,0.0,6048,10127.40,0,0,3,14.63,-2.03,-19.32,0.37,0.79,0.62
0.0,0.0,0.0,0.0,0.0,0.0,0.0,6061,10127.00,0,0,3,15.33,-2.59,-19.60,0.36,0.79,0.62
0.0,0.0,0.0,0.0,0.0,0.0,0.0,6091,10127.00,0,0,3,16.73,-3.15,-20.02,0.35,0.80,0.61
0.0,0.0,0.0,0.0,0.0,0.0,0.0,6113,10127.00,0,0,3,18.76,-3.50,-20.72,0.33,0.80,0.59
0.0,0.0,0.0,0.0,0.0,0.0,0.0,6129,10128.10,0,0,3,19.67,-4.20,-20.79,0.34,0.79,0.59
0.0,0.0,0.0,0.0,0.0,0.0,0.0,6151,10128.10,0,0,3,18.69,-5.67,-20.09,0.33,0.79,0.58
0.0,0.0,0.0,0.0,0.0,0.0,0.0,6175,10127.00,0,0,3,17.78,-8.05,-21.07,0.32,0.81,0.56
0.0,0.0,0.0,0.0,0.0,0.0,0.0,6204,10127.00,0,0,3,18.83,-9.38,-22.47,0.30,0.82,0.54
0.0,0.0,0.0,0.0,0.0,0.0,0.0,6219,10128.10,0,0,3,20.37,-9.03,-22.96,0.28,0.80,0.52
0.0,0.0,0.0,0.0,0.0,0.0,0.0,6234,10128.10,0,0,3,20.65,-8.82,-22.47,0.27,0.79,0.51
0.0,0.0,0.0,0.0,0.0,0.0,0.0,6248,10127.00,0,0,3,19.81,-9.10,-20.44,0.28,0.78,0.50
0.0,0.0,0.0,0.0,0.0,0.0,0.0,6264,10123.30,0,0,3,18.27,-9.94,-17.71,0.28,0.77,0.50
0.0,0.0,0.0,0.0,0.0,0.0,0.0,6286,10129.10,0,0,3,17.01,-10.57,-14.98,0.25,0.79,0.48
0.0,0.0,0.0,0.0,0.0,0.0,0.0,6294,10127.70,0,0,3,17.43,-9.87,-13.65,0.24,0.81,0.47
0.0,0.0,0.0,0.0,0.0,0.0,0.0,6316,10129.10,0,0,3,18.41,-8.82,-14.14,0.25,0.83,0.46
0.0,0.0,0.0,0.0,0.0,0.0,0.0,6331,10128.40,0,0,3,18.97,-7.70,-15.26,0.26,0.83,0.44
0.0,0.0,0.0,0.0,0.0,0.0,0.0,6353,10128.10,0,0,3,18.62,-8.26,-14.77,0.26,0.82,0.42
0.0,0.0,0.0,0.0,0.0,0.0,0.0,6376,10129.40,0,0,3,16.80,-10.71,-13.09,0.26,0.81,0.41
0.0,0.0,0.0,0.0,0.0,0.0,0.0,6398,10129.10,0,0,3,16.03,-12.60,-10.15,0.24,0.83,0.40
0.0,0.0,0.0,0.0,0.0,0.0,0.0,6422,10128.10,0,0,3,16.87,-12.39,-7.14,0.22,0.84,0.40
0.0,0.0,0.0,0.0,0.0,0.0,0.0,6444,10128.10,0,0,3,17.57,-10.92,-6.02,0.23,0.84,0.40
0.0,0.0,0.0,0.0,0.0,0.0,0.0,6466,10129.40,0,0,3,16.66,-9.80,-4.34,0.25,0.85,0.40
0.0,0.0,0.0,0.0,0.0,0.0,0.0,6496,10129.10,0,0,3,16.17,-8.40,-1.40,0.26,0.87,0.39
0.0,0.0,0.0,0.0,0.0,0.0,0.0,6503,10128.40,0,0,3,16.10,-7.07,0.35,0.25,0.87,0.38
0.0,0.0,0.0,0.0,0.0,0.0,0.0,6519,10128.40,0,0,3,16.17,-5.60,0.98,0.25,0.87,0.37
0.0,0.0,0.0,0.0,0.0,0.0,0.0,6534,10132.40,0,0,3,15.68,-4.48,0.56,0.24,0.87,0.38
0.0,0.0,0.0,0.0,0.0,0.0,0.0,6548,10128.40,0,0,3,14.49,-3.50,-0.35,0.25,0.88,0.39
-6.0097656,-0.008058271,-0.018494362,-0.009097758,0.31,0.89,0.39,16561,10122.50,0,0,3,-0.42,-2.10,0.84,0.31,0.89,0.39
-7.0097656,-0.0140582705,-0.018494362,-0.010097757,0.31,0.87,0.4,16583,10121.50,0,0,3,-0.84,-2.10,0.77,0.31,0.87,0.40
-7.0097656,-0.024058271,-0.011494363,0.0019022431,0.31,0.88,0.4,16598,10121.50,0,0,3,-1.54,-1.61,1.61,0.31,0.88,0.40
-6.0097656,-0.02205827,-0.010494363,0.0019022431,0.3,0.88,0.4,16621,10122.50,0,0,3,-1.40,-1.54,1.61,0.30,0.88,0.40
-12.709961,-0.016058272,-0.006494362,-0.0060977573,0.31,0.88,0.39,16643,10115.80,0,0,3,-0.98,-1.26,1.05,0.31,0.88,0.39
-6.0097656,-0.011058271,-0.007494364,-0.018097756,0.31,0.87,0.39,16688,10122.50,0,0,3,-0.63,-1.33,0.21,0.31,0.87,0.39
-5.609375,-0.0140582705,-0.015494363,-0.015097758,0.31,0.87,0.4,16689,10122.90,0,0,3,-0.84,-1.89,0.42,0.31,0.87,0.40
-4.9101562,-0.017058272,-0.026494365,-0.009097758,0.31,0.88,0.39,16721,10123.60,0,0,3,-1.05,-2.66,0.84,0.31,0.88,0.39
-3.609375,-0.015058272,-0.02949436,-0.0030977577,0.31,0.88,0.4,16741,10124.90,0,0,3,-0.91,-2.87,1.26,0.31,0.88,0.40
-2.609375,-0.0140582705,-0.028494362,-0.004097756,0.31,0.89,0.39,16761,10125.90,0,0,3,-0.84,-2.80,1.19,0.31,0.89,0.39
-2.609375,-0.016058272,-0.023494363,-0.005097756,0.3,0.87,0.4,16767,10125.90,0,0,3,-0.98,-2.45,1.12,0.30,0.87,0.40
2.4902344,-0.021058273,-0.019494364,-0.009097758,0.3,0.87,0.4,16784,10131.00,0,0,3,-1.33,-2.17,0.84,0.30,0.87,0.40
-0.91015625,-0.025058271,-0.018494362,-0.0060977573,0.31,0.88,0.39,16793,10127.60,0,0,3,-1.61,-2.10,1.05,0.31,0.88,0.39
-2.9101562,-0.02205827,-0.019494364,-9.7757205E-5,0.31,0.88,0.39,16816,10125.60,0,0,3,-1.40,-2.17,1.47,0.31,0.88,0.39
-1.609375,-0.024058271,-0.03549436,-0.0070977565,0.31,0.88,0.39,16830,10126.90,0,0,3,-1.54,-3.29,0.98,0.31,0.88,0.39
0.49023438,-0.021058273,-0.045494363,-0.012097757,0.31,0.88,0.4,16869,10129.00,0,0,3,-1.33,-3.99,0.63,0.31,0.88,0.40
0.08984375,-0.016058272,-0.04849436,-0.005097756,0.31,0.87,0.4,16877,10128.60,0,0,3,-0.98,-4.20,1.12,0.31,0.87,0.40
-0.20996094,-0.016058272,-0.04849436,9.0224296E-4,0.31,0.87,0.4,16913,10128.30,0,0,3,-0.98,-4.20,1.54,0.31,0.87,0.40
0.08984375,-0.019058272,-0.044494364,9.0224296E-4,0.31,0.88,0.4,16920,10128.60,0,0,3,-1.19,-3.92,1.54,0.31,0.88,0.40
0.49023438,-0.016058272,-0.032494362,9.0224296E-4,0.31,0.88,0.4,16946,10129.00,0,0,3,-0.98,-3.08,1.54,0.31,0.88,0.40
2.0898438,-0.018058272,-0.025494363,0.009902244,0.31,0.87,0.4,16966,10130.60,0,0,3,-1.12,-2.59,2.17,0.31,0.87,0.40
-1.9101562,-0.018058272,-0.028494362,0.007902242,0.31,0.88,0.4,16989,10126.60,0,0,3,-1.12,-2.80,2.03,0.31,0.88,0.40
-0.609375,-0.021058273,-0.034494363,0.0029022414,0.32,0.88,0.4,17002,10127.90,0,0,3,-1.33,-3.22,1.68,0.32,0.88,0.40
0.49023438,-0.019058272,-0.03549436,-9.7757205E-5,0.32,0.88,0.4,17018,10129.00,0,0,3,-1.19,-3.29,1.47,0.32,0.88,0.40
0.49023438,-0.017058272,-0.03549436,-0.0010977574,0.32,0.88,0.4,17040,10129.00,0,0,3,-1.05,-3.29,1.40,0.32,0.88,0.40
0.49023438,-0.013058271,-0.038494363,-0.008097757,0.31,0.88,0.4,17048,10129.00,0,0,3,-0.77,-3.50,0.91,0.31,0.88,0.40
0.79003906,-0.007058271,-0.037494365,-0.013097757,0.31,0.88,0.4,17071,10129.30,0,0,3,-0.35,-3.43,0.56,0.31,0.88,0.40
0.08984375,-0.0030582715,-0.03549436,-0.017097756,0.31,0.88,0.4,17093,10128.60,0,0,3,-0.07,-3.29,0.28,0.31,0.88,0.40
0.49023438,-0.0030582715,-0.02949436,-0.018097756,0.31,0.87,0.4,17108,10129.00,0,0,3,-0.07,-2.87,0.21,0.31,0.87,0.40
1.4902344,-0.009058272,-0.028494362,-0.0070977565,0.32,0.87,0.4,17130,10130.00,0,0,3,-0.49,-2.80,0.98,0.32,0.87,0.40
0.49023438,-0.009058272,-0.031494364,-0.0010977574,0.32,0.88,0.4,17154,10129.00,0,0,3,-0.49,-3.01,1.40,0.32,0.88,0.40
3.4902344,-5.8271457E-5,-0.026494365,-0.005097756,0.31,0.88,0.4,17176,10132.00,0,0,3,0.14,-2.66,1.12,0.31,0.88,0.40
-0.20996094,0.0029417283,-0.021494363,-0.0060977573,0.31,0.88,0.4,17205,10128.30,0,0,3,0.35,-2.31,1.05,0.31,0.88,0.40
-0.609375,0.005941729,-0.016494364,-0.014097757,0.32,0.87,0.4,17221,10127.90,0,0,3,0.56,-1.96,0.49,0.32,0.87,0.40
0.49023438,9.4172824E-4,-0.017494362,-0.010097757,0.33,0.87,0.4,17242,10129.00,0,0,3,0.21,-2.03,0.77,0.33,0.87,0.40
0.79003906,-0.0010582715,-0.020494364,-0.0010977574,0.32,0.87,0.4,17258,10129.30,0,0,3,0.07,-2.24,1.40,0.32,0.87,0.40
1.4902344,-0.0010582715,-0.018494362,0.006902244,0.32,0.88,0.4,17272,10130.00,0,0,3,0.07,-2.10,1.96,0.32,0.88,0.40
-6.609375,0.0019417286,-0.016494364,-9.7757205E-5,0.31,0.88,0.4,17288,10121.90,0,0,3,0.28,-1.96,1.47,0.31,0.88,0.40
-2.3095703,0.003941728,-0.011494363,-0.010097757,0.31,0.88,0.4,17303,10126.20,0,0,3,0.42,-1.61,0.77,0.31,0.88,0.40
-0.20996094,0.0069417283,-0.0044943634,-0.015097758,0.31,0.88,0.4,17318,10128.30,0,0,3,0.63,-1.12,0.42,0.31,0.88,0.40
0.49023438,0.004941729,-4.9436186E-4,-0.022097757,0.32,0.87,0.4,17342,10129.00,0,0,3,0.49,-0.84,-0.07,0.32,0.87,0.40
-0.20996094,0.0019417286,-0.0034943623,-0.013097757,0.32,0.87,0.4,17363,10128.30,0,0,3,0.28,-1.05,0.56,0.32,0.87,0.40
-0.609375,0.0019417286,-0.010494363,-0.010097757,0.32,0.88,0.39,17378,10127.90,0,0,3,0.28,-1.54,0.77,0.32,0.88,0.39
-0.20996094,0.0029417283,-0.013494363,-0.0070977565,0.31,0.89,0.39,17400,10128.30,0,0,3,0.35,-1.75,0.98,0.31,0.89,0.39
-0.20996094,0.003941728,-0.011494363,-0.014097757,0.31,0.87,0.4,17416,10128.30,0,0,3,0.42,-1.61,0.49,0.31,0.87,0.40
-0.20996094,-0.0010582715,-0.0034943623,-0.022097757,0.31,0.87,0.4,17431,10128.30,0,0,3,0.07,-1.05,-0.07,0.31,0.87,0.40
-1.2099609,-0.0050582713,0.0015056375,-0.022097757,0.31,0.88,0.4,17445,10127.30,0,0,3,-0.21,-0.70,-0.07,0.31,0.88,0.40
-1.2099609,-0.008058271,0.0015056375,-0.018097756,0.32,0.88,0.4,17460,10127.30,0,0,3,-0.42,-0.70,0.21,0.32,0.88,0.40
-0.20996094,-0.006058272,-0.0034943623,-0.017097756,0.31,0.87,0.4,17475,10128.30,0,0,3,-0.28,-1.05,0.28,0.31,0.87,0.40
-0.20996094,-0.0040582716,-0.0054943636,-0.017097756,0.31,0.88,0.39,17498,10128.30,0,0,3,-0.14,-1.19,0.28,0.31,0.88,0.39
-1.2099609,-0.0020582716,-0.008494362,-0.021097757,0.31,0.88,0.39,17513,10127.30,0,0,3,0.00,-1.40,0.00,0.31,0.88,0.39
-1.2099609,-0.0010582715,-0.009494362,-0.021097757,0.31,0.88,0.39,17528,10127.30,0,0,3,0.07,-1.47,0.00,0.31,0.88,0.39
-1.609375,9.4172824E-4,-0.011494363,-0.023097757,0.31,0.87,0.39,17543,10126.90,0,0,3,0.21,-1.61,-0.14,0.31,0.87,0.39
-0.20996094,-0.0030582715,-0.012494361,-0.015097758,0.31,0.87,0.4,17558,10128.30,0,0,3,-0.07,-1.68,0.42,0.31,0.87,0.40
-1.2099609,-0.007058271,-0.014494363,-0.010097757,0.31,0.87,0.4,17575,10127.30,0,0,3,-0.35,-1.82,0.77,0.31,0.87,0.40
-1.2099609,-0.009058272,-0.012494361,-0.004097756,0.31,0.88,0.4,17588,10127.30,0,0,3,-0.49,-1.68,1.19,0.31,0.88,0.40
-1.2099609,-0.008058271,-0.008494362,-0.0010977574,0.31,0.88,0.4,17610,10127.30,0,0,3,-0.42,-1.40,1.40,0.31,0.88,0.40
-0.20996094,-0.006058272,-0.0044943634,-0.0060977573,0.31,0.88,0.4,17633,10128.30,0,0,3,-0.28,-1.12,1.05,0.31,0.88,0.40
3.790039,-0.0020582716,-0.001494363,-0.0060977573,0.31,0.88,0.4,17640,10132.30,0,0,3,0.00,-0.91,1.05,0.31,0.88,0.40
-0.20996094,-5.8271457E-5,-0.0034943623,-0.0070977565,0.31,0.88,0.39,17656,10128.30,0,0,3,0.14,-1.05,0.98,0.31,0.88,0.39
-2.3095703,-5.8271457E-5,-0.006494362,-0.008097757,0.31,0.88,0.4,17670,10126.20,0,0,3,0.14,-1.26,0.91,0.31,0.88,0.40
-1.2099609,-0.0030582715,-0.014494363,-0.0070977565,0.31,0.88,0.4,17686,10127.30,0,0,3,-0.07,-1.82,0.98,0.31,0.88,0.40
0.79003906,-0.006058272,-0.016494364,-0.0060977573,0.31,0.87,0.39,17709,10129.30,0,0,3,-0.28,-1.96,1.05,0.31,0.87,0.39
0.08984375,-0.008058271,-0.018494362,-0.008097757,0.31,0.88,0.4,17725,10128.60,0,0,3,-0.42,-2.10,0.91,0.31,0.88,0.40
-0.91015625,-0.007058271,-0.016494364,-0.010097757,0.31,0.88,0.4,17738,10127.60,0,0,3,-0.35,-1.96,0.77,0.31,0.88,0.40
-0.20996094,-0.006058272,-0.015494363,-0.011097757,0.31,0.88,0.39,17753,10128.30,0,0,3,-0.28,-1.89,0.70,0.31,0.88,0.39
-1.2099609,-0.0030582715,-0.016494364,-0.009097758,0.31,0.88,0.39,17768,10127.30,0,0,3,-0.07,-1.96,0.84,0.31,0.88,0.39
-0.20996094,-0.0040582716,-0.017494362,-0.013097757,0.31,0.88,0.39,17783,10128.30,0,0,3,-0.14,-2.03,0.56,0.31,0.88,0.39
0.79003906,-0.007058271,-0.020494364,-0.009097758,0.31,0.88,0.4,17806,10129.30,0,0,3,-0.35,-2.24,0.84,0.31,0.88,0.40
-1.2099609,-0.012058271,-0.021494363,-0.008097757,0.31,0.87,0.4,17820,10127.30,0,0,3,-0.70,-2.31,0.91,0.31,0.87,0.40
-1.2099609,-0.018058272,-0.022494365,-0.0030977577,0.31,0.87,0.4,17835,10127.30,0,0,3,-1.12,-2.38,1.26,0.31,0.87,0.40
-4.3095703,-0.018058272,-0.019494364,-9.7757205E-5,0.31,0.88,0.4,17850,10124.20,0,0,3,-1.12,-2.17,1.47,0.31,0.88,0.40
0.08984375,-0.015058272,-0.018494362,0.0029022414,0.32,0.88,0.4,17865,10128.60,0,0,3,-0.91,-2.10,1.68,0.32,0.88,0.40
-0.609375,-0.008058271,-0.018494362,-0.004097756,0.31,0.88,0.39,17880,10127.90,0,0,3,-0.42,-2.10,1.19,0.31,0.88,0.39
0.08984375,-0.0010582715,-0.017494362,-0.005097756,0.31,0.88,0.39,17895,10128.60,0,0,3,0.07,-2.03,1.12,0.31,0.88,0.39
-2.9101562,-5.8271457E-5,-0.016494364,-0.010097757,0.31,0.88,0.4,17918,10125.60,0,0,3,0.14,-1.96,0.77,0.31,0.88,0.40
-2.9101562,-5.8271457E-5,-0.015494363,-0.011097757,0.32,0.88,0.39,17933,10125.60,0,0,3,0.14,-1.89,0.70,0.32,0.88,0.39
-0.91015625,0.0029417283,-0.014494363,-0.012097757,0.32,0.87,0.4,17947,10127.60,0,0,3,0.35,-1.82,0.63,0.32,0.87,0.40
-0.609375,-0.0010582715,-0.011494363,-0.0060977573,0.31,0.88,0.4,17962,10127.90,0,0,3,0.07,-1.61,1.05,0.31,0.88,0.40
-6.0097656,-0.0010582715,-0.007494364,-0.004097756,0.31,0.87,0.4,17977,10122.50,0,0,3,0.07,-1.33,1.19,0.31,0.87,0.40
-0.91015625,-0.0030582715,-0.0044943634,-0.005097756,0.31,0.88,0.39,18000,10127.60,0,0,3,-0.07,-1.12,1.12,0.31,0.88,0.39
-0.91015625,-0.007058271,-0.0034943623,-0.010097757,0.31,0.88,0.39,18016,10127.60,0,0,3,-0.35,-1.05,0.77,0.31,0.88,0.39
0.08984375,-0.009058272,-0.002494363,-0.013097757,0.32,0.88,0.39,18036,10128.60,0,0,3,-0.49,-0.98,0.56,0.32,0.88,0.39
0.08984375,-0.009058272,-0.0054943636,-0.014097757,0.32,0.88,0.39,18050,10128.60,0,0,3,-0.49,-1.19,0.49,0.32,0.88,0.39
0.390625,-0.010058272,-0.008494362,-0.014097757,0.32,0.88,0.39,18062,10128.90,0,0,3,-0.56,-1.40,0.49,0.32,0.88,0.39
1.0898438,-0.008058271,-0.011494363,-0.020097757,0.31,0.88,0.39,18083,10129.60,0,0,3,-0.42,-1.61,0.07,0.31,0.88,0.39
0.08984375,-0.007058271,-0.017494362,-0.024097757,0.31,0.88,0.39,18097,10128.60,0,0,3,-0.35,-2.03,-0.21,0.31,0.88,0.39
-0.609375,-0.009058272,-0.017494362,-0.024097757,0.31,0.87,0.4,18114,10127.90,0,0,3,-0.49,-2.03,-0.21,0.31,0.87,0.40
0.79003906,-0.007058271,-0.016494364,-0.021097757,0.31,0.87,0.4,18127,10129.30,0,0,3,-0.35,-1.96,0.00,0.31,0.87,0.40
-0.609375,-0.010058272,-0.011494363,-0.020097757,0.31,0.87,0.4,18143,10127.90,0,0,3,-0.56,-1.61,0.07,0.31,0.87,0.40
0.08984375,-0.016058272,-0.012494361,-0.017097756,0.31,0.87,0.4,18159,10128.60,0,0,3,-0.98,-1.68,0.28,0.31,0.87,0.40
0.08984375,-0.015058272,-0.012494361,-0.009097758,0.31,0.88,0.4,18177,10128.60,0,0,3,-0.91,-1.68,0.84,0.31,0.88,0.40
0.390625,-0.011058271,-0.012494361,-0.0070977565,0.31,0.88,0.4,18196,10128.90,0,0,3,-0.63,-1.68,0.98,0.31,0.88,0.40
0.08984375,-0.010058272,-0.014494363,-0.0070977565,0.31,0.88,0.4,18210,10128.60,0,0,3,-0.56,-1.82,0.98,0.31,0.88,0.40
0.08984375,-0.009058272,-0.010494363,-0.004097756,0.31,0.88,0.4,18225,10128.60,0,0,3,-0.49,-1.54,1.19,0.31,0.88,0.40
-0.91015625,-0.012058271,-0.011494363,-0.0070977565,0.31,0.87,0.4,18248,10127.60,0,0,3,-0.70,-1.61,0.98,0.31,0.87,0.40
-4.609375,-0.012058271,-0.006494362,-0.004097756,0.31,0.87,0.4,18263,10123.90,0,0,3,-0.70,-1.26,1.19,0.31,0.87,0.40
-0.91015625,-0.013058271,-0.008494362,-0.0030977577,0.31,0.88,0.4,18284,10127.60,0,0,3,-0.77,-1.40,1.26,0.31,0.88,0.40
0.79003906,-0.012058271,-0.006494362,0.0039022435,0.31,0.87,0.4,18301,10129.30,0,0,3,-0.70,-1.26,1.75,0.31,0.87,0.40
1.4902344,-0.011058271,-0.007494364,-0.0020977557,0.31,0.88,0.4,18310,10130.00,0,0,3,-0.63,-1.33,1.33,0.31,0.88,0.40
0.08984375,-0.013058271,-0.0054943636,0.0039022435,0.32,0.88,0.4,18326,10128.60,0,0,3,-0.77,-1.19,1.75,0.32,0.88,0.40
0.390625,-0.006058272,-0.009494362,0.005902244,0.31,0.88,0.4,18347,10128.90,0,0,3,-0.28,-1.47,1.89,0.31,0.88,0.40
0.08984375,-0.0010582715,-0.013494363,0.009902244,0.31,0.88,0.4,18368,10128.60,0,0,3,0.07,-1.75,2.17,0.31,0.88,0.40
0.08984375,-0.0030582715,-0.017494362,0.0019022431,0.31,0.88,0.4,18392,10128.60,0,0,3,-0.07,-2.03,1.61,0.31,0.88,0.40
-0.91015625,-0.012058271,-0.016494364,-0.004097756,0.32,0.87,0.41,18413,10127.60,0,0,3,-0.70,-1.96,1.19,0.32,0.87,0.41
-0.91015625,-0.015058272,-0.007494364,0.007902242,0.32,0.88,0.4,18435,10127.60,0,0,3,-0.91,-1.33,2.03,0.32,0.88,0.40
0.08984375,-0.011058271,-0.008494362,0.006902244,0.31,0.88,0.4,18458,10128.60,0,0,3,-0.63,-1.40,1.96,0.31,0.88,0.40
0.08984375,-0.006058272,-0.012494361,0.0029022414,0.32,0.88,0.4,18480,10128.60,0,0,3,-0.28,-1.68,1.68,0.32,0.88,0.40
-0.91015625,-0.0030582715,-0.013494363,9.0224296E-4,0.32,0.87,0.4,18495,10127.60,0,0,3,-0.07,-1.75,1.54,0.32,0.87,0.40
0.390625,-0.0010582715,-0.012494361,0.007902242,0.32,0.87,0.4,18518,10128.90,0,0,3,0.07,-1.68,2.03,0.32,0.87,0.40
-0.609375,-0.0050582713,-0.016494364,0.009902244,0.32,0.87,0.4,18539,10127.90,0,0,3,-0.21,-1.96,2.17,0.32,0.87,0.40
-0.609375,-0.010058272,-0.016494364,0.011902243,0.32,0.88,0.4,18548,10127.90,0,0,3,-0.56,-1.96,2.31,0.32,0.88,0.40
-1.2099609,-0.010058272,-0.014494363,0.005902244,0.32,0.88,0.4,18565,10127.30,0,0,3,-0.56,-1.82,1.89,0.32,0.88,0.40
0.390625,-0.007058271,-0.0034943623,-0.0030977577,0.31,0.88,0.4,18585,10128.90,0,0,3,-0.35,-1.05,1.26,0.31,0.88,0.40
0.08984375,-0.007058271,0.0015056375,-0.008097757,0.32,0.87,0.4,18608,10128.60,0,0,3,-0.35,-0.70,0.91,0.32,0.87,0.40
-0.20996094,-0.0140582705,-0.0044943634,-0.0070977565,0.33,0.87,0.4,18630,10128.30,0,0,3,-0.84,-1.12,0.98,0.33,0.87,0.40
-1.9101562,-0.015058272,-0.012494361,-9.7757205E-5,0.32,0.87,0.4,18645,10126.60,0,0,3,-0.91,-1.68,1.47,0.32,0.87,0.40
-0.20996094,-0.015058272,-0.015494363,-0.0010977574,0.32,0.87,0.4,18668,10128.30,0,0,3,-0.91,-1.89,1.40,0.32,0.87,0.40
-0.609375,-0.015058272,-0.009494362,0.0019022431,0.32,0.87,0.4,18697,10127.90,0,0,3,-0.91,-1.47,1.61,0.32,0.87,0.40
-0.609375,-0.015058272,-0.008494362,-0.0070977565,0.32,0.87,0.4,18712,10127.90,0,0,3,-0.91,-1.40,0.98,0.32,0.87,0.40
-0.609375,-0.017058272,-0.002494363,-0.013097757,0.32,0.87,0.4,18735,10127.90,0,0,3,-1.05,-0.98,0.56,0.32,0.87,0.40
-1.609375,-0.017058272,-0.0044943634,-0.013097757,0.32,0.87,0.4,18750,10126.90,0,0,3,-1.05,-1.12,0.56,0.32,0.87,0.40
-0.609375,-0.019058272,-0.006494362,-0.014097757,0.32,0.88,0.4,18765,10127.90,0,0,3,-1.19,-1.26,0.49,0.32,0.88,0.40
-0.609375,-0.021058273,-0.010494363,-0.018097756,0.33,0.87,0.4,18787,10127.90,0,0,3,-1.33,-1.54,0.21,0.33,0.87,0.40
0.390625,-0.016058272,-0.014494363,-0.015097758,0.32,0.88,0.4,18803,10128.90,0,0,3,-0.98,-1.82,0.42,0.32,0.88,0.40
-1.609375,-0.015058272,-0.016494364,-0.016097758,0.32,0.88,0.4,18817,10126.90,0,0,3,-0.91,-1.96,0.35,0.32,0.88,0.40
-0.20996094,-0.011058271,-0.012494361,-0.017097756,0.32,0.87,0.4,18840,10128.30,0,0,3,-0.63,-1.68,0.28,0.32,0.87,0.40
-0.20996094,-0.008058271,-0.010494363,-0.013097757,0.31,0.87,0.4,18870,10128.30,0,0,3,-0.42,-1.54,0.56,0.31,0.87,0.40
-0.609375,-0.010058272,-0.009494362,-0.012097757,0.32,0.87,0.4,18877,10127.90,0,0,3,-0.56,-1.47,0.63,0.32,0.87,0.40
-0.609375,-0.013058271,-0.013494363,-0.010097757,0.32,0.88,0.4,18900,10127.90,0,0,3,-0.77,-1.75,0.77,0.32,0.88,0.40
-0.609375,-0.0040582716,-0.014494363,-0.012097757,0.32,0.88,0.4,18922,10127.90,0,0,3,-0.14,-1.82,0.63,0.32,0.88,0.40
0.390625,-5.8271457E-5,-0.024494361,-0.021097757,0.32,0.88,0.39,18945,10128.90,0,0,3,0.14,-2.52,0.00,0.32,0.88,0.39
-1.9101562,-0.0020582716,-0.031494364,-0.020097757,0.32,0.86,0.4,18968,10126.60,0,0,3,0.00,-3.01,0.07,0.32,0.86,0.40
-0.609375,-0.012058271,-0.032494362,-0.0070977565,0.33,0.87,0.4,18997,10127.90,0,0,3,-0.70,-3.08,0.98,0.33,0.87,0.40
-1.3095703,-0.015058272,-0.03649436,-0.004097756,0.32,0.88,0.4,19006,10127.20,0,0,3,-0.91,-3.36,1.19,0.32,0.88,0.40
-2.609375,-0.011058271,-0.038494363,-0.009097758,0.32,0.88,0.4,19020,10125.90,0,0,3,-0.63,-3.50,0.84,0.32,0.88,0.40
-1.3095703,-0.0050582713,-0.03649436,-0.012097757,0.32,0.87,0.4,19035,10127.20,0,0,3,-0.21,-3.36,0.63,0.32,0.87,0.40
-2.609375,-0.0030582715,-0.031494364,-0.018097756,0.32,0.87,0.4,19058,10125.90,0,0,3,-0.07,-3.01,0.21,0.32,0.87,0.40
-4.609375,-0.0020582716,-0.025494363,-0.020097757,0.32,0.87,0.4,19073,10123.90,0,0,3,0.00,-2.59,0.07,0.32,0.87,0.40
-2.3095703,-0.0040582716,-0.027494363,-0.031097757,0.33,0.87,0.4,19095,10126.20,0,0,3,-0.14,-2.73,-0.70,0.33,0.87,0.40
-2.609375,-0.010058272,-0.03649436,-0.032097757,0.33,0.87,0.4,19126,10125.90,0,0,3,-0.56,-3.36,-0.77,0.33,0.87,0.40
-3.3095703,-0.009058272,-0.06049436,-0.027097756,0.34,0.88,0.4,19135,10125.20,0,0,3,-0.49,-5.04,-0.42,0.34,0.88,0.40
-3.3095703,-0.006058272,-0.08949436,-0.031097757,0.34,0.88,0.4,19171,10125.20,0,0,3,-0.28,-7.07,-0.70,0.34,0.88,0.40
-5.609375,-0.0010582715,-0.120494366,-0.04009776,0.34,0.89,0.41,19178,10122.90,0,0,3,0.07,-9.24,-1.33,0.34,0.89,0.41
-4.3095703,0.005941729,-0.13249436,-0.046097755,0.32,0.89,0.42,19200,10124.20,0,0,3,0.56,-10.08,-1.75,0.32,0.89,0.42
-5.3095703,0.015941728,-0.11449437,-0.04409776,0.31,0.87,0.42,19223,10123.20,0,0,3,1.26,-8.82,-1.61,0.31,0.87,0.42
-9.410156,0.03194173,-0.08149436,-0.039097756,0.29,0.87,0.41,19238,10119.10,0,0,3,2.38,-6.51,-1.26,0.29,0.87,0.41
-6.3095703,0.045941725,-0.049494363,-0.038097758,0.28,0.87,0.4,19260,10122.20,0,0,3,3.36,-4.27,-1.19,0.28,0.87,0.40
-5.709961,0.048941728,-0.026494365,-0.043097757,0.29,0.85,0.4,19276,10122.80,0,0,3,3.57,-2.66,-1.54,0.29,0.85,0.40
-5.3095703,0.039941728,-0.015494363,-0.03709776,0.31,0.85,0.39,19290,10123.20,0,0,3,2.94,-1.89,-1.12,0.31,0.85,0.39
-6.3095703,0.02594173,-0.002494363,-0.010097757,0.31,0.86,0.39,19305,10122.20,0,0,3,1.96,-0.98,0.77,0.31,0.86,0.39
-6.0097656,0.013941729,0.0025056377,0.0149022415,0.31,0.88,0.39,19320,10122.50,0,0,3,1.12,-0.63,2.52,0.31,0.88,0.39
-6.3095703,0.0069417283,0.004505637,0.020902243,0.31,0.89,0.38,19344,10122.20,0,0,3,0.63,-0.49,2.94,0.31,0.89,0.38
-9.410156,0.003941728,0.007505637,0.015902244,0.32,0.87,0.38,19365,10119.10,0,0,3,0.42,-0.28,2.59,0.32,0.87,0.38
-5.0097656,-0.008058271,-4.9436186E-4,0.009902244,0.33,0.86,0.39,19388,10123.50,0,0,3,-0.42,-0.84,2.17,0.33,0.86,0.39
-6.0097656,-0.016058272,-0.027494363,0.018902242,0.33,0.86,0.39,19410,10122.50,84,0,3,-0.98,-2.73,2.80,0.33,0.86,0.39
-6.3095703,-0.018058272,-0.04849436,0.027902246,0.33,0.87,0.4,19455,10122.20,84,0,3,-1.12,-4.20,3.43,0.33,0.87,0.40
-5.3095703,-0.011058271,-0.047494363,0.031902242,0.32,0.89,0.39,19457,10123.20,84,0,3,-0.63,-4.13,3.71,0.32,0.89,0.39
-5.3095703,0.0029417283,-0.032494362,0.032902244,0.32,0.88,0.39,19470,10123.20,84,0,3,0.35,-3.08,3.78,0.32,0.88,0.39
-7.3095703,0.0069417283,-0.008494362,0.03890224,0.31,0.88,0.4,19493,10121.20,84,0,3,0.63,-1.40,4.20,0.31,0.88,0.40
-2.3095703,0.0029417283,0.0055056377,0.034902245,0.31,0.88,0.39,19515,10126.20,84,0,3,0.35,-0.42,3.92,0.31,0.88,0.39
-7.3095703,0.0029417283,0.014505637,0.02690224,0.32,0.88,0.39,19530,10121.20,84,0,3,0.35,0.21,3.36,0.32,0.88,0.39
-7.3095703,-0.0020582716,0.017505636,0.012902245,0.33,0.87,0.39,19545,10121.20,84,0,3,0.00,0.42,2.38,0.33,0.87,0.39
-10.009766,-0.0030582715,0.013505638,0.009902244,0.34,0.89,0.38,19560,10118.50,84,0,3,-0.07,0.14,2.17,0.34,0.89,0.38
-7.0097656,-0.0030582715,-0.007494364,0.011902243,0.34,0.89,0.38,19582,10121.50,84,0,3,-0.07,-1.33,2.31,0.34,0.89,0.38
-7.3095703,-5.8271457E-5,-0.025494363,-0.0060977573,0.32,0.88,0.38,19613,10121.20,84,0,3,0.14,-2.59,1.05,0.32,0.88,0.38
-5.0097656,-5.8271457E-5,-0.024494361,-0.022097757,0.32,0.88,0.39,19628,10123.50,84,0,3,0.14,-2.52,-0.07,0.32,0.88,0.39
-11.109375,-0.0050582713,-0.020494364,-0.032097757,0.32,0.88,0.39,19650,10117.40,84,0,3,-0.21,-2.24,-0.77,0.32,0.88,0.39
-7.709961,-0.007058271,-0.024494361,-0.035097755,0.33,0.88,0.39,19665,10120.80,84,0,3,-0.35,-2.52,-0.98,0.33,0.88,0.39
-7.0097656,-0.0040582716,-0.024494361,-0.032097757,0.32,0.87,0.39,19687,10121.50,84,0,3,-0.14,-2.52,-0.77,0.32,0.87,0.39
-6.0097656,-0.0050582713,-0.016494364,-0.025097758,0.32,0.87,0.39,19711,10122.50,84,0,3,-0.21,-1.96,-0.28,0.32,0.87,0.39
-8.009766,-0.011058271,-0.023494363,-0.030097757,0.33,0.88,0.39,19733,10120.50,84,0,3,-0.63,-2.45,-0.63,0.33,0.88,0.39
-6.0097656,-0.013058271,-0.037494365,-0.028097756,0.33,0.88,0.38,19748,10122.50,84,0,3,-0.77,-3.43,-0.49,0.33,0.88,0.38
-7.0097656,-0.009058272,-0.047494363,-0.025097758,0.33,0.88,0.39,19770,10121.50,84,0,3,-0.49,-4.13,-0.28,0.33,0.88,0.39
-8.709961,-0.006058272,-0.054494362,-0.022097757,0.32,0.88,0.39,19785,10119.80,84,0,3,-0.28,-4.62,-0.07,0.32,0.88,0.39
-7.0097656,-0.0010582715,-0.054494362,-0.022097757,0.32,0.88,0.39,19808,10121.50,84,0,3,0.07,-4.62,-0.07,0.32,0.88,0.39
-7.0097656,0.0019417286,-0.05749436,-0.024097757,0.32,0.88,0.39,19815,10121.50,84,0,3,0.28,-4.83,-0.21,0.32,0.88,0.39
-9.009766,0.003941728,-0.049494363,-0.025097758,0.32,0.88,0.4,19837,10119.50,84,0,3,0.42,-4.27,-0.28,0.32,0.88,0.40
-6.0097656,0.005941729,-0.033494364,-0.021097757,0.31,0.88,0.4,19860,10122.50,84,0,3,0.56,-3.15,0.00,0.31,0.88,0.40
-5.709961,0.010941729,-0.012494361,-0.019097757,0.31,0.88,0.4,19883,10122.80,84,0,3,0.91,-1.68,0.14,0.31,0.88,0.40
-7.0097656,0.017941728,0.0025056377,-0.015097758,0.31,0.88,0.4,19898,10121.50,84,0,3,1.40,-0.63,0.42,0.31,0.88,0.40
-7.0097656,0.018941728,0.013505638,-0.011097757,0.31,0.87,0.4,19920,10121.50,84,0,3,1.47,0.14,0.70,0.31,0.87,0.40
-7.0097656,0.01694173,0.025505638,-0.0070977565,0.32,0.87,0.4,19950,10121.50,84,0,3,1.33,0.98,0.98,0.32,0.87,0.40
-9.009766,0.012941728,0.035505638,-0.0020977557,0.32,0.88,0.39,19966,10119.50,84,0,3,1.05,1.68,1.33,0.32,0.88,0.39
-7.3095703,0.008941729,0.034505635,-0.0030977577,0.32,0.88,0.39,19988,10121.20,84,0,3,0.77,1.61,1.26,0.32,0.88,0.39
-6.0097656,0.010941729,0.033505637,-9.7757205E-5,0.32,0.88,0.39,20003,10122.50,84,0,3,0.91,1.54,1.47,0.32,0.88,0.39
-9.009766,0.01694173,0.033505637,0.0049022436,0.32,0.88,0.39,20020,10119.50,84,0,3,1.33,1.54,1.82,0.32,0.88,0.39
-6.0097656,0.017941728,0.029505637,-0.0030977577,0.31,0.89,0.39,20040,10122.50,84,0,3,1.40,1.26,1.26,0.31,0.89,0.39
-5.3095703,0.018941728,0.023505636,-0.009097758,0.31,0.89,0.39,20070,10123.20,84,0,3,1.47,0.84,0.84,0.31,0.89,0.39
-5.0097656,0.01694173,0.019505639,-0.016097758,0.32,0.87,0.39,20071,10123.50,84,0,3,1.33,0.56,0.35,0.32,0.87,0.39
-4.609375,0.01494173,0.022505637,-0.004097756,0.32,0.88,0.4,20093,10123.90,84,0,3,1.19,0.77,1.19,0.32,0.88,0.40
-3.609375,0.021941727,0.027505638,0.009902244,0.31,0.88,0.39,20117,10124.90,84,0,3,1.68,1.12,2.17,0.31,0.88,0.39
-3.609375,0.02994173,0.037505638,0.013902243,0.31,0.87,0.39,20131,10124.90,84,0,3,2.24,1.82,2.45,0.31,0.87,0.39
-3.0097656,0.033941727,0.048505638,0.0049022436,0.31,0.87,0.39,20160,10125.50,84,0,3,2.52,2.59,1.82,0.31,0.87,0.39
-0.609375,0.03194173,0.05650564,9.0224296E-4,0.32,0.87,0.39,20176,10127.90,84,0,3,2.38,3.15,1.54,0.32,0.87,0.39
-1.609375,0.030941729,0.063505635,0.010902245,0.32,0.88,0.39,20198,10126.90,84,0,3,2.31,3.64,2.24,0.32,0.88,0.39
0.08984375,0.037941728,0.06250563,0.021902245,0.32,0.88,0.38,20220,10128.60,0,0,3,2.80,3.57,3.01,0.32,0.88,0.38
-1.3095703,0.04194173,0.06650564,0.025902241,0.32,0.88,0.39,20235,10127.20,0,0,3,3.08,3.85,3.29,0.32,0.88,0.39
-0.609375,0.045941725,0.070505634,0.018902242,0.32,0.87,0.39,20250,10127.90,0,0,3,3.36,4.13,2.80,0.32,0.87,0.39
-1.609375,0.03694173,0.075505644,0.013902243,0.32,0.87,0.39,20266,10126.90,0,0,3,2.73,4.48,2.45,0.32,0.87,0.39
-0.609375,0.026941728,0.075505644,0.007902242,0.32,0.88,0.39,20287,10127.90,0,0,3,2.03,4.48,2.03,0.32,0.88,0.39
-1.609375,0.019941729,0.07250564,0.006902244,0.32,0.88,0.39,20302,10126.90,0,0,3,1.54,4.27,1.96,0.32,0.88,0.39
-0.609375,0.015941728,0.061505638,-0.0010977574,0.32,0.88,0.38,20326,10127.90,0,0,3,1.26,3.50,1.40,0.32,0.88,0.38
-0.609375,0.017941728,0.050505638,-0.013097757,0.33,0.88,0.38,20340,10127.90,0,0,3,1.40,2.73,0.56,0.33,0.88,0.38
-1.3095703,0.020941729,0.042505637,-0.016097758,0.32,0.88,0.38,20363,10127.20,0,0,3,1.61,2.17,0.35,0.32,0.88,0.38
0.390625,0.02594173,0.029505637,-0.016097758,0.31,0.88,0.38,20378,10128.90,0,0,3,1.96,1.26,0.35,0.31,0.88,0.38
-0.609375,0.02994173,0.016505636,-0.018097756,0.31,0.88,0.38,20400,10127.90,0,0,3,2.24,0.35,0.21,0.31,0.88,0.38
-0.3095703,0.027941728,0.008505638,-0.017097756,0.31,0.88,0.38,20422,10128.20,0,0,3,2.10,-0.21,0.28,0.31,0.88,0.38
0.390625,0.027941728,0.008505638,-0.004097756,0.32,0.87,0.38,20445,10128.90,0,0,3,2.10,-0.21,1.19,0.32,0.87,0.38
-5.709961,0.026941728,5.056374E-4,0.0039022435,0.32,0.88,0.38,20468,10122.80,0,0,3,2.03,-0.77,1.75,0.32,0.88,0.38
-0.20996094,0.02894173,-0.010494363,0.0039022435,0.32,0.88,0.38,20490,10128.30,0,0,3,2.17,-1.54,1.75,0.32,0.88,0.38
-0.609375,0.02494173,-0.016494364,0.0049022436,0.33,0.88,0.38,20505,10127.90,0,0,3,1.89,-1.96,1.82,0.33,0.88,0.38
1.390625,0.02494173,-0.016494364,0.010902245,0.33,0.88,0.38,20520,10129.90,0,0,3,1.89,-1.96,2.24,0.33,0.88,0.38
0.390625,0.030941729,-0.008494362,0.020902243,0.32,0.89,0.38,20535,10128.90,0,0,3,2.31,-1.40,2.94,0.32,0.89,0.38
-0.91015625,0.038941726,0.0065056374,0.024902243,0.32,0.89,0.37,20557,10127.60,0,0,3,2.87,-0.35,3.22,0.32,0.89,0.37
0.390625,0.04394173,0.020505637,0.012902245,0.31,0.89,0.37,20573,10128.90,0,0,3,3.22,0.63,2.38,0.31,0.89,0.37
-0.3095703,0.05294173,0.044505637,0.0019022431,0.32,0.89,0.36,20587,10128.20,0,0,3,3.85,2.31,1.61,0.32,0.89,0.36
-0.609375,0.05994173,0.075505644,0.01990224,0.33,0.88,0.36,20617,10127.90,0,0,3,4.34,4.48,2.87,0.33,0.88,0.36
-1.3095703,0.070941724,0.097505644,0.06590225,0.33,0.88,0.35,20633,10127.20,0,0,3,5.11,6.02,6.09,0.33,0.88,0.35
1.390625,0.071941726,0.10550563,0.09990225,0.32,0.87,0.34,20655,10129.90,0,0,3,5.18,6.58,8.47,0.32,0.87,0.34
-0.3095703,0.06294173,0.11050564,0.12090223,0.32,0.85,0.35,20677,10128.20,0,0,3,4.55,6.93,9.94,0.32,0.85,0.35
-0.609375,0.03694173,0.098505646,0.13190225,0.32,0.86,0.36,20701,10127.90,0,0,3,2.73,6.09,10.71,0.32,0.86,0.36
0.79003906,-0.012058271,0.04350564,0.10290225,0.32,0.86,0.38,20722,10129.30,0,0,3,-0.70,2.24,8.68,0.32,0.86,0.38
-0.3095703,-0.06605828,-0.016494364,0.049902238,0.32,0.87,0.39,20737,10128.20,0,0,3,-4.48,-1.96,4.97,0.32,0.87,0.39
-0.91015625,-0.13105826,-0.070494354,-0.015097758,0.31,0.89,0.4,20752,10127.60,0,0,3,-9.03,-5.74,0.42,0.31,0.89,0.40
-0.3095703,-0.18305826,-0.14149436,-0.08709776,0.32,0.89,0.41,20768,10128.20,0,0,3,-12.67,-10.71,-4.62,0.32,0.89,0.41
0.79003906,-0.22005828,-0.18949436,-0.12709776,0.34,0.89,0.42,20782,10129.30,0,0,3,-15.26,-14.07,-7.42,0.34,0.89,0.42
0.79003906,-0.22405827,-0.20849437,-0.11709775,0.34,0.89,0.42,20805,10129.30,0,0,3,-15.54,-15.40,-6.72,0.34,0.89,0.42
-0.3095703,-0.19005826,-0.20749436,-0.09809776,0.33,0.91,0.41,20829,10128.20,0,0,3,-13.16,-15.33,-5.39,0.33,0.91,0.41
1.0898438,-0.11805827,-0.18949436,-0.09809776,0.32,0.9,0.4,20842,10129.60,0,0,3,-8.12,-14.07,-5.39,0.32,0.90,0.40
-0.3095703,-0.050058268,-0.16649437,-0.12009776,0.32,0.9,0.4,20865,10128.20,0,0,3,-3.36,-12.46,-6.93,0.32,0.90,0.40
-0.3095703,0.0069417283,-0.12749436,-0.11409776,0.32,0.9,0.37,20879,10128.20,0,0,3,0.63,-9.73,-6.51,0.32,0.90,0.37
-0.3095703,0.06994172,-0.08249436,-0.060097758,0.32,0.88,0.37,20918,10128.20,0,0,3,5.04,-6.58,-2.73,0.32,0.88,0.37
1.390625,0.12094172,-0.047494363,0.028902244,0.34,0.86,0.36,20925,10129.90,0,0,3,8.61,-4.13,3.50,0.34,0.86,0.36
-0.3095703,0.14794174,-0.010494363,0.12490224,0.33,0.86,0.35,20953,10128.20,0,0,3,10.50,-1.54,10.22,0.33,0.86,0.35
0.79003906,0.15694173,0.026505638,0.17590225,0.32,0.87,0.36,20970,10129.30,0,0,3,11.13,1.05,13.79,0.32,0.87,0.36
-0.3095703,0.15594174,0.057505637,0.17990223,0.3,0.87,0.36,20986,10128.20,0,0,3,11.06,3.22,14.07,0.30,0.87,0.36
1.0898438,0.13894174,0.08950564,0.16190225,0.3,0.86,0.37,21008,10129.60,0,0,3,9.87,5.46,12.81,0.30,0.86,0.37
3.790039,0.09594173,0.10450564,0.111902244,0.31,0.86,0.39,21030,10132.30,0,0,3,6.86,6.51,9.31,0.31,0.86,0.39
1.7900391,0.026941728,0.08150564,0.04390225,0.32,0.86,0.39,21053,10130.30,0,0,3,2.03,4.90,4.55,0.32,0.86,0.39
0.79003906,-0.05505827,0.020505637,-0.019097757,0.32,0.87,0.41,21054,10129.30,0,0,3,-3.71,0.63,0.14,0.32,0.87,0.41
0.79003906,-0.13205828,-0.059494358,-0.08609776,0.33,0.89,0.41,21068,10129.30,0,0,3,-9.10,-4.97,-4.55,0.33,0.89,0.41
1.390625,-0.18505828,-0.14449437,-0.116097756,0.35,0.89,0.41,21090,10129.90,0,0,3,-12.81,-10.92,-6.65,0.35,0.89,0.41
0.79003906,-0.15805827,-0.16549437,-0.05309776,0.35,0.88,0.4,21127,10129.30,0,0,3,-10.92,-12.39,-2.24,0.35,0.88,0.40
0.79003906,-0.08105828,-0.112494364,0.044902243,0.32,0.87,0.4,21142,10129.30,0,0,3,-5.53,-8.68,4.62,0.32,0.87,0.40
-0.3095703,0.008941729,-0.008494362,0.11690224,0.3,0.88,0.39,21157,10128.20,0,0,3,0.77,-1.40,9.66,0.30,0.88,0.39
0.79003906,0.10994173,0.10850564,0.13490224,0.3,0.9,0.38,21180,10129.30,0,0,3,7.84,6.79,10.92,0.30,0.90,0.38
-0.3095703,0.16794173,0.20950563,0.10290225,0.3,0.91,0.37,21212,10128.20,0,0,3,11.90,13.86,8.68,0.30,0.91,0.37
-0.3095703,0.16394173,0.22450563,0.031902242,0.33,0.89,0.36,21217,10128.20,0,0,3,11.62,14.91,3.71,0.33,0.89,0.36
0.79003906,0.12494173,0.17450564,-0.032097757,0.34,0.88,0.35,21241,10129.30,0,0,3,8.89,11.41,-0.77,0.34,0.88,0.35
-1.3095703,0.07794172,0.10650563,-0.068097755,0.37,0.87,0.35,21255,10127.20,0,0,3,5.60,6.65,-3.29,0.37,0.87,0.35
1.0898438,0.038941726,0.014505637,-0.060097758,0.38,0.85,0.36,21270,10129.60,0,0,3,2.87,0.21,-2.73,0.38,0.85,0.36
1.0898438,0.010941729,-0.038494363,-0.009097758,0.38,0.85,0.37,21285,10129.60,0,0,3,0.91,-3.50,0.84,0.38,0.85,0.37
1.7900391,-0.0020582716,-0.075494364,0.046902247,0.36,0.85,0.38,21308,10130.30,0,0,3,0.00,-6.09,4.76,0.36,0.85,0.38
-0.3095703,-0.0050582713,-0.08149436,0.07290224,0.34,0.86,0.39,21315,10128.20,0,0,3,-0.21,-6.51,6.58,0.34,0.86,0.39
-0.91015625,0.003941728,-0.042494364,0.075902246,0.32,0.89,0.39,21337,10127.60,0,0,3,0.42,-3.78,6.79,0.32,0.89,0.39
-1.3095703,0.03194173,0.014505637,0.048902243,0.31,0.91,0.38,21360,10127.20,0,0,3,2.38,0.21,4.90,0.31,0.91,0.38
-0.91015625,0.070941724,0.08250563,0.0149022415,0.32,0.91,0.37,21383,10127.60,0,0,3,5.11,4.97,2.52,0.32,0.91,0.37
-3.0097656,0.09194172,0.112505645,-0.015097758,0.34,0.89,0.36,21405,10125.50,0,0,3,6.58,7.07,0.42,0.34,0.89,0.36
1.0898438,0.100941725,0.098505646,-0.019097757,0.36,0.88,0.35,21428,10129.60,0,0,3,7.21,6.09,0.14,0.36,0.88,0.35
-1.3095703,0.09094173,0.055505637,-0.012097757,0.36,0.87,0.35,21450,10127.20,0,0,3,6.51,3.08,0.63,0.36,0.87,0.35
1.0898438,0.06894172,0.011505637,-0.0030977577,0.36,0.87,0.35,21480,10129.60,0,0,3,4.97,0.00,1.26,0.36,0.87,0.35
0.08984375,0.03694173,-0.013494363,-0.0070977565,0.35,0.86,0.36,21496,10128.60,0,0,3,2.73,-1.75,0.98,0.35,0.86,0.36
0.08984375,0.009941728,-0.015494363,-0.008097757,0.34,0.87,0.36,21510,10128.60,0,0,3,0.84,-1.89,0.91,0.34,0.87,0.36
0.08984375,-0.0030582715,-0.002494363,-0.004097756,0.33,0.88,0.37,21525,10128.60,0,0,3,-0.07,-0.98,1.19,0.33,0.88,0.37
0.08984375,-0.0040582716,0.009505637,-0.0020977557,0.33,0.88,0.37,21540,10128.60,0,0,3,-0.14,-0.14,1.33,0.33,0.88,0.37
-1.3095703,-0.0040582716,0.020505637,-0.011097757,0.33,0.89,0.36,21556,10127.20,0,0,3,-0.14,0.63,0.70,0.33,0.89,0.36
-1.3095703,0.007941728,0.042505637,-0.0070977565,0.34,0.89,0.36,21578,10127.20,0,0,3,0.70,2.17,0.98,0.34,0.89,0.36
-0.609375,0.015941728,0.052505635,-0.005097756,0.34,0.88,0.36,21600,10127.90,0,0,3,1.26,2.87,1.12,0.34,0.88,0.36
-0.91015625,0.018941728,0.048505638,0.0049022436,0.35,0.88,0.36,21623,10127.60,0,0,3,1.47,2.59,1.82,0.35,0.88,0.36
-0.91015625,0.015941728,0.027505638,0.0049022436,0.35,0.89,0.35,21660,10127.60,0,0,3,1.26,1.12,1.82,0.35,0.89,0.35
-2.0097656,0.011941729,0.009505637,-0.0070977565,0.34,0.88,0.36,21668,10126.50,0,0,3,0.98,-0.14,0.98,0.34,0.88,0.36
-0.91015625,0.007941728,0.013505638,-0.014097757,0.34,0.88,0.36,21691,10127.60,0,0,3,0.70,0.14,0.49,0.34,0.88,0.36
-2.609375,0.015941728,0.029505637,-0.0060977573,0.34,0.88,0.36,21720,10125.90,0,0,3,1.26,1.26,1.05,0.34,0.88,0.36
-0.3095703,0.026941728,0.038505636,-9.7757205E-5,0.34,0.89,0.35,21735,10128.20,0,0,3,2.03,1.89,1.47,0.34,0.89,0.35
-0.609375,0.03494173,0.041505635,-0.011097757,0.34,0.89,0.35,21750,10127.90,0,0,3,2.59,2.10,0.70,0.34,0.89,0.35
-1.3095703,0.039941728,0.047505636,-0.022097757,0.34,0.89,0.35,21766,10127.20,0,0,3,2.94,2.52,-0.07,0.34,0.89,0.35
-0.609375,0.038941726,0.04950564,-0.031097757,0.34,0.89,0.35,21780,10127.90,0,0,3,2.87,2.66,-0.70,0.34,0.89,0.35
-2.0097656,0.03494173,0.051505636,-0.036097758,0.34,0.75,0.36,21795,10126.50,0,0,3,2.59,2.80,-1.05,0.34,0.75,0.36
-0.609375,0.02994173,0.048505638,-0.036097758,0.34,0.89,0.36,21818,10127.90,0,0,3,2.24,2.59,-1.05,0.34,0.89,0.36
-0.91015625,0.026941728,0.035505638,-0.042097755,0.32,0.9,0.35,21833,10127.60,0,0,3,2.03,1.68,-1.47,0.32,0.90,0.35
-0.3095703,0.03594173,0.027505638,-0.06409776,0.32,0.9,0.35,21855,10128.20,0,0,3,2.66,1.12,-3.01,0.32,0.90,0.35
-2.0097656,0.03694173,0.011505637,-0.079097755,0.32,0.89,0.35,21878,10126.50,0,0,3,2.73,0.00,-4.06,0.32,0.89,0.35
-3.3095703,0.030941729,-0.0034943623,-0.06709775,0.33,0.87,0.36,21900,10125.20,0,0,3,2.31,-1.05,-3.22,0.33,0.87,0.36
-4.0097656,0.017941728,-0.010494363,-0.030097757,0.33,0.87,0.37,21922,10124.50,0,0,3,1.40,-1.54,-0.63,0.33,0.87,0.37
-4.709961,0.011941729,-0.001494363,-9.7757205E-5,0.31,0.89,0.36,21945,10123.80,0,0,3,0.98,-0.91,1.47,0.31,0.89,0.36
-4.709961,0.020941729,0.019505639,0.0039022435,0.3,0.9,0.36,21968,10123.80,0,0,3,1.61,0.56,1.75,0.30,0.90,0.36
-5.0097656,0.03494173,0.030505639,-0.018097756,0.31,0.9,0.35,21999,10123.50,0,0,3,2.59,1.33,0.21,0.31,0.90,0.35
-9.109375,0.03294173,0.021505637,-0.03709776,0.32,0.9,0.35,22006,10119.40,0,0,3,2.45,0.70,-1.12,0.32,0.90,0.35
-6.709961,0.02994173,0.008505638,-0.043097757,0.32,0.89,0.37,22028,10121.80,0,0,3,2.24,-0.21,-1.54,0.32,0.89,0.37
-6.709961,0.037941728,0.0025056377,-0.033097755,0.3,0.9,0.37,22042,10121.80,0,0,3,2.80,-0.63,-0.84,0.30,0.90,0.37
-11.80957,0.06294173,0.013505638,-0.036097758,0.29,0.9,0.39,22054,10116.70,0,0,3,4.55,0.14,-1.05,0.29,0.90,0.39
-7.709961,0.08894172,0.041505635,-0.042097755,0.3,0.9,0.4,22065,10120.80,0,0,3,6.37,2.10,-1.47,0.30,0.90,0.40
-8.410156,0.11894173,0.09450564,-0.032097757,0.3,0.89,0.4,22087,10120.10,0,0,3,8.47,5.81,-0.77,0.30,0.89,0.40
-8.709961,0.14194173,0.14750564,-0.0060977573,0.3,0.88,0.39,22125,10119.80,0,0,3,10.08,9.52,1.05,0.30,0.88,0.39
-9.709961,0.15494172,0.18050563,0.025902241,0.31,0.87,0.39,22132,10118.80,0,0,3,10.99,11.83,3.29,0.31,0.87,0.39
-8.709961,0.17894173,0.22450563,0.07090224,0.29,0.9,0.39,22156,10119.80,0,0,3,12.67,14.91,6.44,0.29,0.90,0.39
-8.410156,0.23194171,0.32050562,0.10290225,0.26,0.9,0.41,22177,10120.10,0,0,3,16.38,21.63,8.68,0.26,0.90,0.41
-7.709961,0.28894174,0.47250563,0.13690224,0.26,0.89,0.43,22200,10120.80,0,0,3,20.37,32.27,11.06,0.26,0.89,0.43
-10.709961,0.30194175,0.67550564,0.17090222,0.25,0.86,0.43,22222,10117.80,0,0,3,21.28,46.48,13.44,0.25,0.86,0.43
-11.410156,0.3119417,0.87250566,0.22190225,0.23,0.9,0.41,22237,10117.10,0,0,3,21.98,60.27,17.01,0.23,0.90,0.41
-9.709961,0.34794173,1.0355057,0.26690224,0.23,0.9,0.41,22260,10118.80,0,0,3,24.50,71.68,20.16,0.23,0.90,0.41
-10.709961,0.3999417,1.2005056,0.31390226,0.26,0.89,0.41,22275,10117.80,0,0,3,28.14,83.23,23.45,0.26,0.89,0.41
-11.109375,0.42094174,1.3495057,0.34090224,0.28,0.87,0.41,22291,10117.40,0,0,3,29.61,93.66,25.34,0.28,0.87,0.41
-9.410156,0.41394174,1.4485055,0.35890225,0.29,0.86,0.39,22305,10119.10,0,0,3,29.12,100.59,26.60,0.29,0.86,0.39
-10.709961,0.4069417,1.5325056,0.37790227,0.28,0.87,0.38,22320,10117.80,0,0,3,28.63,106.47,27.93,0.28,0.87,0.38
-9.709961,0.40094173,1.6345056,0.41890225,0.31,0.85,0.39,22343,10118.80,0,0,3,28.21,113.61,30.80,0.31,0.85,0.39
-9.709961,0.40794173,1.7305056,0.4989023,0.32,0.87,0.41,22366,10118.80,0,0,3,28.70,120.33,36.40,0.32,0.87,0.41
-6.709961,0.42194173,1.8285056,0.5669022,0.33,0.88,0.42,22388,10121.80,0,0,3,29.68,127.19,41.16,0.33,0.88,0.42
-10.709961,0.4259417,1.8775055,0.58690226,0.34,0.88,0.4,22410,10117.80,0,0,3,29.96,130.62,42.56,0.34,0.88,0.40
-9.410156,0.40394172,1.8785056,0.56590223,0.34,0.88,0.39,22433,10119.10,0,0,3,28.42,130.69,41.09,0.34,0.88,0.39
-9.709961,0.3999417,1.8625057,0.52790225,0.34,0.9,0.38,22462,10118.80,0,0,3,28.14,129.57,38.43,0.34,0.90,0.38
-10.709961,0.39894173,1.8145056,0.48590228,0.35,0.9,0.37,22477,10117.80,0,0,3,28.07,126.21,35.49,0.35,0.90,0.37
-10.709961,0.37494174,1.6975056,0.42890224,0.36,0.9,0.36,22501,10117.80,0,0,3,26.39,118.02,31.50,0.36,0.90,0.36
-9.410156,0.34694174,1.5835056,0.39390224,0.38,0.89,0.35,22515,10119.10,0,0,3,24.43,110.04,29.05,0.38,0.89,0.35
-10.410156,0.3189417,1.4595056,0.37390223,0.38,0.88,0.34,22545,10118.10,0,0,3,22.47,101.36,27.65,0.38,0.88,0.34
-11.709961,0.29594174,1.3395056,0.37090227,0.37,0.88,0.33,22546,10116.80,0,0,3,20.86,92.96,27.44,0.37,0.88,0.33
-8.410156,0.28594172,1.2295057,0.37390223,0.35,0.89,0.32,22560,10120.10,0,0,3,20.16,85.26,27.65,0.35,0.89,0.32
-10.410156,0.28094172,1.0775056,0.34590226,0.34,0.9,0.31,22591,10118.10,0,0,3,19.81,74.62,25.69,0.34,0.90,0.31
-10.410156,0.26994175,0.91150564,0.28690225,0.33,0.92,0.31,22605,10118.10,0,0,3,19.04,63.00,21.56,0.33,0.92,0.31
-10.410156,0.24894172,0.7325057,0.23890227,0.32,0.92,0.33,22627,10118.10,0,0,3,17.57,50.47,18.20,0.32,0.92,0.33
-11.80957,0.22194174,0.60850567,0.20290226,0.31,0.9,0.34,22650,10116.70,0,0,3,15.68,41.79,15.68,0.31,0.90,0.34
-10.410156,0.17994173,0.50450563,0.17290226,0.29,0.88,0.35,22672,10118.10,0,0,3,12.74,34.51,13.58,0.29,0.88,0.35
-11.109375,0.13294172,0.40850565,0.13390225,0.28,0.9,0.36,22696,10117.40,0,0,3,9.45,27.79,10.85,0.28,0.90,0.36
-9.410156,0.11094172,0.32950562,0.093902245,0.28,0.91,0.36,22710,10119.10,0,0,3,7.91,22.26,8.05,0.28,0.91,0.36
-9.410156,0.10594173,0.26050565,0.06190224,0.28,0.91,0.36,22732,10119.10,0,0,3,7.56,17.43,5.81,0.28,0.91,0.36
-9.709961,0.10494172,0.21750563,0.04390225,0.28,0.92,0.36,22761,10118.80,0,0,3,7.49,14.42,4.55,0.28,0.92,0.36
-10.410156,0.10494172,0.17850563,0.02690224,0.26,0.92,0.36,22771,10118.10,0,0,3,7.49,11.69,3.36,0.26,0.92,0.36
-10.709961,0.10694173,0.14950563,0.009902244,0.26,0.91,0.37,22785,10117.80,0,0,3,7.63,9.66,2.17,0.26,0.91,0.37
-10.410156,0.09594173,0.11750564,-0.0020977557,0.26,0.9,0.38,22800,10118.10,0,0,3,6.86,7.42,1.33,0.26,0.90,0.38
-10.410156,0.082941726,0.09650564,9.0224296E-4,0.26,0.9,0.38,22824,10118.10,0,0,3,5.95,5.95,1.54,0.26,0.90,0.38
-9.410156,0.06694172,0.07250564,0.007902242,0.26,0.89,0.38,22838,10119.10,0,0,3,4.83,4.27,2.03,0.26,0.89,0.38
-10.109375,0.048941728,0.044505637,-0.0030977577,0.25,0.9,0.37,22867,10118.40,105,0,3,3.57,2.31,1.26,0.25,0.90,0.37
-10.709961,0.03594173,0.013505638,-0.017097756,0.25,0.91,0.37,22883,10117.80,105,0,3,2.66,0.14,0.28,0.25,0.91,0.37
-9.109375,0.037941728,-0.0054943636,-0.035097755,0.24,0.91,0.37,22912,10119.40,105,0,3,2.80,-1.19,-0.98,0.24,0.91,0.37
-9.410156,0.04794173,-0.009494362,-0.045097753,0.23,0.92,0.37,22928,10119.10,105,0,3,3.50,-1.47,-1.68,0.23,0.92,0.37
-9.410156,0.04994173,-0.011494363,-0.047097757,0.23,0.91,0.37,22950,10119.10,105,0,3,3.64,-1.61,-1.82,0.23,0.91,0.37
-9.410156,0.04294173,-0.012494361,-0.051097758,0.23,0.9,0.37,22965,10119.10,105,0,3,3.15,-1.68,-2.10,0.23,0.90,0.37
-12.109375,0.03294173,-0.020494364,-0.057097755,0.22,0.91,0.36,22995,10116.40,105,0,3,2.45,-2.24,-2.52,0.22,0.91,0.36
-11.109375,0.02594173,-0.02949436,-0.05909776,0.23,0.91,0.36,23002,10117.40,105,0,3,1.96,-2.87,-2.66,0.23,0.91,0.36
-11.109375,0.018941728,-0.037494365,-0.05909776,0.23,0.91,0.36,23018,10117.40,105,0,3,1.47,-3.43,-2.66,0.23,0.91,0.36
-10.109375,0.011941729,-0.047494363,-0.05209776,0.23,0.91,0.36,23047,10118.40,105,0,3,0.98,-4.13,-2.17,0.23,0.91,0.36
-12.410156,0.005941729,-0.06349437,-0.05509776,0.23,0.91,0.35,23062,10116.10,105,0,3,0.56,-5.25,-2.38,0.23,0.91,0.35
-10.109375,0.007941728,-0.08549437,-0.05509776,0.24,0.92,0.34,23077,10118.40,105,0,3,0.70,-6.79,-2.38,0.24,0.92,0.34
-12.410156,0.01494173,-0.11949436,-0.06509776,0.24,0.92,0.34,23093,10116.10,105,0,3,1.19,-9.17,-3.08,0.24,0.92,0.34
-11.109375,0.007941728,-0.14949438,-0.06609776,0.24,0.91,0.34,23115,10117.40,105,0,3,0.70,-11.27,-3.15,0.24,0.91,0.34
-11.109375,-0.012058271,-0.16849437,-0.056097757,0.23,0.9,0.34,23131,10117.40,105,0,3,-0.70,-12.60,-2.45,0.23,0.90,0.34
-11.410156,-0.032058273,-0.17149438,-0.03709776,0.22,0.91,0.35,23153,10117.10,105,0,3,-2.10,-12.81,-1.12,0.22,0.91,0.35
-11.109375,-0.036058273,-0.15649436,-0.023097757,0.22,0.92,0.36,23176,10117.40,105,0,3,-2.38,-11.76,-0.14,0.22,0.92,0.36
-12.410156,-0.04205827,-0.13349436,-0.016097758,0.22,0.91,0.36,23213,10116.10,105,0,3,-2.80,-10.15,0.35,0.22,0.91,0.36
-11.410156,-0.04805827,-0.10649437,-0.010097757,0.22,0.92,0.35,23220,10117.10,105,0,3,-3.22,-8.26,0.77,0.22,0.92,0.35
-11.109375,-0.04305827,-0.08749436,-0.009097758,0.23,0.93,0.35,23243,10117.40,105,0,3,-2.87,-6.93,0.84,0.23,0.93,0.35
-11.109375,-0.029058272,-0.075494364,-0.005097756,0.23,0.93,0.35,23259,10117.40,105,0,3,-1.89,-6.09,1.12,0.23,0.93,0.35
-10.80957,-0.016058272,-0.06049436,0.0029022414,0.23,0.92,0.36,23273,10117.70,105,0,3,-0.98,-5.04,1.68,0.23,0.92,0.36
-10.109375,-0.019058272,-0.047494363,0.008902242,0.24,0.92,0.35,23287,10118.40,105,0,3,-1.19,-4.13,2.10,0.24,0.92,0.35
-10.109375,-0.033058275,-0.03949436,0.0049022436,0.24,0.91,0.36,23318,10118.40,105,0,3,-2.17,-3.57,1.82,0.24,0.91,0.36
-8.109375,-0.04805827,-0.034494363,-0.0060977573,0.24,0.91,0.35,23347,10120.40,105,0,3,-3.22,-3.22,1.05,0.24,0.91,0.35
-8.109375,-0.052058272,-0.03649436,-0.010097757,0.25,0.92,0.35,23348,10120.40,105,0,3,-3.50,-3.36,0.77,0.25,0.92,0.35
-8.109375,-0.04305827,-0.03949436,-0.012097757,0.25,0.92,0.35,23370,10120.40,105,0,3,-2.87,-3.57,0.63,0.25,0.92,0.35
-3.0097656,-0.033058275,-0.047494363,-0.014097757,0.24,0.92,0.35,23385,10125.50,105,0,3,-2.17,-4.13,0.49,0.24,0.92,0.35
-6.0097656,-0.023058271,-0.044494364,-0.022097757,0.24,0.91,0.36,23408,10122.50,105,0,3,-1.47,-3.92,-0.07,0.24,0.91,0.36
-6.0097656,-0.016058272,-0.031494364,-0.020097757,0.24,0.9,0.37,23438,10122.50,105,0,3,-0.98,-3.01,0.07,0.24,0.90,0.37
-5.709961,-0.017058272,-0.015494363,-0.018097756,0.24,0.91,0.37,23453,10122.80,105,0,3,-1.05,-1.89,0.21,0.24,0.91,0.37
-6.0097656,-0.015058272,-0.011494363,-0.020097757,0.25,0.93,0.5,23476,10122.50,105,0,3,-0.91,-1.61,0.07,0.25,0.93,0.50
-7.0097656,-0.006058272,-0.010494363,-0.032097757,0.24,0.93,0.38,23506,10121.50,105,0,3,-0.28,-1.54,-0.77,0.24,0.93,0.38
-7.0097656,0.003941728,-0.007494364,-0.047097757,0.24,0.93,0.38,23513,10121.50,105,0,3,0.42,-1.33,-1.82,0.24,0.93,0.38
-7.0097656,0.01494173,0.0055056377,-0.049097758,0.24,0.92,0.38,23528,10121.50,105,0,3,1.19,-0.42,-1.96,0.24,0.92,0.38
-4.0097656,0.02594173,0.014505637,-0.05509776,0.23,0.93,0.38,23551,10124.50,105,0,3,1.96,0.21,-2.38,0.23,0.93,0.38
-6.0097656,0.044941727,0.024505638,-0.06409776,0.23,0.93,0.37,23558,10122.50,105,0,3,3.29,0.91,-3.01,0.23,0.93,0.37
-8.009766,0.074941725,0.033505637,-0.075097755,0.23,0.92,0.37,23588,10120.50,105,0,3,5.39,1.54,-3.78,0.23,0.92,0.37
-7.0097656,0.08494173,0.038505636,-0.075097755,0.23,0.92,0.37,23603,10121.50,105,0,3,6.09,1.89,-3.78,0.23,0.92,0.37
-5.709961,0.08794173,0.03650564,-0.06709775,0.23,0.91,0.37,23640,10122.80,105,0,3,6.30,1.75,-3.22,0.23,0.91,0.37
-12.109375,0.09494173,0.034505635,-0.06509776,0.23,0.92,0.37,23648,10116.40,105,0,3,6.79,1.61,-3.08,0.23,0.92,0.37
-3.0097656,0.10594173,0.03950564,-0.06509776,0.22,0.92,0.36,23678,10125.50,105,0,3,7.56,1.96,-3.08,0.22,0.92,0.36
-6.709961,0.115941726,0.051505636,-0.072097756,0.22,0.92,0.37,23693,10121.80,0,0,3,8.26,2.80,-3.57,0.22,0.92,0.37
-7.0097656,0.114941716,0.06550564,-0.07809776,0.21,0.92,0.36,23715,10121.50,0,0,3,8.19,3.78,-3.99,0.21,0.92,0.36
-7.0097656,0.111941725,0.06450564,-0.08609776,0.22,0.91,0.35,23730,10121.50,0,0,3,7.98,3.71,-4.55,0.22,0.91,0.35
-6.0097656,0.107941724,0.055505637,-0.08509776,0.22,0.92,0.34,23760,10122.50,0,0,3,7.70,3.08,-4.48,0.22,0.92,0.34
-7.4101562,0.10494172,0.041505635,-0.08109775,0.22,0.92,0.34,23767,10121.10,0,0,3,7.49,2.10,-4.20,0.22,0.92,0.34
-5.0097656,0.10594173,0.033505637,-0.06709775,0.22,0.91,0.34,23783,10123.50,0,0,3,7.56,1.54,-3.22,0.22,0.91,0.34
-7.0097656,0.10594173,0.025505638,-0.056097757,0.21,0.92,0.34,23805,10121.50,0,0,3,7.56,0.98,-2.45,0.21,0.92,0.34
-6.0097656,0.11094172,0.024505638,-0.051097758,0.2,0.93,0.34,23813,10122.50,0,0,3,7.91,0.91,-2.10,0.20,0.93,0.34
-6.709961,0.111941725,0.027505638,-0.061097756,0.2,0.93,0.34,23827,10121.80,0,0,3,7.98,1.12,-2.80,0.20,0.93,0.34
-7.4101562,0.10394172,0.035505638,-0.06909776,0.21,0.92,0.34,23858,10121.10,0,0,3,7.42,1.68,-3.36,0.21,0.92,0.34
-7.4101562,0.08494173,0.047505636,-0.060097758,0.22,0.9,0.33,23874,10121.10,0,0,3,6.09,2.52,-2.73,0.22,0.90,0.33
-6.709961,0.055941727,0.040505636,-0.025097758,0.23,0.9,0.33,23895,10121.80,0,0,3,4.06,2.03,-0.28,0.23,0.90,0.33
-6.709961,0.02494173,0.018505637,0.0019022431,0.22,0.9,0.32,23917,10121.80,0,0,3,1.89,0.49,1.61,0.22,0.90,0.32
-4.709961,-0.0040582716,-0.010494363,0.018902242,0.22,0.91,0.32,23943,10123.80,0,0,3,-0.14,-1.54,2.80,0.22,0.91,0.32
-5.709961,-0.011058271,-0.022494365,0.030902244,0.21,0.93,0.32,23963,10122.80,0,0,3,-0.63,-2.38,3.64,0.21,0.93,0.32
-7.0097656,-0.013058271,-0.022494365,0.029902242,0.22,0.93,0.32,23993,10121.50,0,0,3,-0.77,-2.38,3.57,0.22,0.93,0.32
-7.709961,-0.018058272,-0.025494363,0.027902246,0.22,0.93,0.33,24000,10120.80,0,0,3,-1.12,-2.59,3.43,0.22,0.93,0.33
-7.0097656,-0.024058271,-0.028494362,0.021902245,0.22,0.92,0.32,24015,10121.50,0,0,3,-1.54,-2.80,3.01,0.22,0.92,0.32
-5.709961,-0.027058272,-0.031494364,0.016902246,0.22,0.93,0.32,24037,10122.80,0,0,3,-1.75,-3.01,2.66,0.22,0.93,0.32
-6.4101562,-0.028058272,-0.040494364,0.013902243,0.22,0.94,0.33,24045,10122.10,0,0,3,-1.82,-3.64,2.45,0.22,0.94,0.33
-7.709961,-0.028058272,-0.042494364,0.017902244,0.22,0.93,0.33,24068,10120.80,0,0,3,-1.82,-3.78,2.73,0.22,0.93,0.33
-7.0097656,-0.032058273,-0.047494363,0.015902244,0.23,0.92,0.33,24091,10121.50,0,0,3,-2.10,-4.13,2.59,0.23,0.92,0.33
-6.709961,-0.03905827,-0.059494358,0.007902242,0.23,0.93,0.33,24106,10121.80,0,0,3,-2.59,-4.97,2.03,0.23,0.93,0.33
-6.709961,-0.034058273,-0.07449436,-0.0020977557,0.23,0.93,0.32,24135,10121.80,0,0,3,-2.24,-6.02,1.33,0.23,0.93,0.32
-6.709961,-0.028058272,-0.10049437,-0.011097757,0.24,0.93,0.32,24158,10121.80,0,0,3,-1.82,-7.84,0.70,0.24,0.93,0.32
-8.109375,-0.03105827,-0.124494374,-0.010097757,0.23,0.92,0.33,24180,10120.40,0,0,3,-2.03,-9.52,0.77,0.23,0.92,0.33
-6.709961,-0.03705827,-0.12549438,0.0019022431,0.21,0.92,0.34,24202,10121.80,0,0,3,-2.45,-9.59,1.61,0.21,0.92,0.34
-6.709961,-0.03805827,-0.107494354,0.005902244,0.21,0.93,0.35,24218,10121.80,0,0,3,-2.52,-8.33,1.89,0.21,0.93,0.35
-6.709961,-0.041058272,-0.08649437,-0.0030977577,0.22,0.93,0.34,24240,10121.80,0,0,3,-2.73,-6.86,1.26,0.22,0.93,0.34
-8.109375,-0.040058274,-0.08049436,-0.018097756,0.22,0.93,0.34,24256,10120.40,0,0,3,-2.66,-6.44,0.21,0.22,0.93,0.34
-6.0097656,-0.040058274,-0.08649437,-0.023097757,0.23,0.93,0.33,24299,10122.50,0,0,3,-2.66,-6.86,-0.14,0.23,0.93,0.33
-7.709961,-0.029058272,-0.09649436,-0.022097757,0.22,0.94,0.32,24301,10120.80,0,0,3,-1.89,-7.56,-0.07,0.22,0.94,0.32
-7.0097656,-0.0020582716,-0.093494356,-0.018097756,0.22,0.94,0.33,24302,10121.50,0,0,3,0.00,-7.35,0.21,0.22,0.94,0.33
-6.709961,0.022941729,-0.07249436,-0.0010977574,0.2,0.94,0.35,24315,10121.80,0,0,3,1.75,-5.88,1.40,0.20,0.94,0.35
-8.410156,0.02994173,-0.028494362,-9.7757205E-5,0.2,0.92,0.36,24338,10120.10,0,0,3,2.24,-2.80,1.47,0.20,0.92,0.36
-6.709961,0.004941729,0.0065056374,-0.009097758,0.21,0.91,0.35,24360,10121.80,0,0,3,0.49,-0.35,0.84,0.21,0.91,0.35
-7.109375,-0.0030582715,0.019505639,-0.008097757,0.22,0.92,0.33,24382,10121.40,0,0,3,-0.07,0.56,0.91,0.22,0.92,0.33
-6.709961,0.015941728,0.0125056375,0.009902244,0.23,0.94,0.33,24405,10121.80,0,0,3,1.26,0.07,2.17,0.23,0.94,0.33
-7.709961,0.037941728,0.007505637,0.024902243,0.22,0.93,0.34,24427,10120.80,0,0,3,2.80,-0.28,3.22,0.22,0.93,0.34
-7.709961,0.037941728,0.011505637,0.01990224,0.22,0.93,0.34,24450,10120.80,0,0,3,2.80,0.00,2.87,0.22,0.93,0.34
-7.709961,0.03494173,0.018505637,-0.010097757,0.22,0.94,0.33,24465,10120.80,0,0,3,2.59,0.49,0.77,0.22,0.94,0.33
-2.709961,0.039941728,0.024505638,-0.03709776,0.22,0.93,0.33,24487,10125.80,0,0,3,2.94,0.91,-1.12,0.22,0.93,0.33
-7.0097656,0.04694173,0.026505638,-0.046097755,0.23,0.93,0.33,24517,10121.50,0,0,3,3.43,1.05,-1.75,0.23,0.93,0.33
-6.709961,0.050941728,0.025505638,-0.05309776,0.23,0.93,0.33,24525,10121.80,0,0,3,3.71,0.98,-2.24,0.23,0.93,0.33
-6.709961,0.05194173,0.025505638,-0.054097757,0.22,0.93,0.33,24540,10121.80,0,0,3,3.78,0.98,-2.31,0.22,0.93,0.33
-7.0097656,0.044941727,0.021505637,-0.058097757,0.22,0.93,0.33,24555,10121.50,0,0,3,3.29,0.70,-2.59,0.22,0.93,0.33
-6.709961,0.044941727,0.026505638,-0.060097758,0.22,0.93,0.33,24569,10121.80,0,0,3,3.29,1.05,-2.73,0.22,0.93,0.33
-6.709961,0.04694173,0.033505637,-0.058097757,0.21,0.93,0.32,24599,10121.80,0,0,3,3.43,1.54,-2.59,0.21,0.93,0.32
-6.709961,0.050941728,0.035505638,-0.050097756,0.21,0.92,0.32,24624,10121.80,0,0,3,3.71,1.68,-2.03,0.21,0.92,0.32
-6.709961,0.044941727,0.029505637,-0.03709776,0.22,0.92,0.32,24637,10121.80,0,0,3,3.29,1.26,-1.12,0.22,0.92,0.32
-6.709961,0.048941728,0.022505637,-0.026097756,0.21,0.93,0.31,24660,10121.80,0,0,3,3.57,0.77,-0.35,0.21,0.93,0.31
-6.709961,0.04994173,0.022505637,-0.021097757,0.21,0.93,0.32,24683,10121.80,0,0,3,3.64,0.77,0.00,0.21,0.93,0.32
-6.0097656,0.039941728,0.029505637,-0.017097756,0.21,0.93,0.32,24713,10122.50,0,0,3,2.94,1.26,0.28,0.21,0.93,0.32
-6.709961,0.02394173,0.03650564,-0.016097758,0.21,0.93,0.31,24720,10121.80,0,0,3,1.82,1.75,0.35,0.21,0.93,0.31
-6.709961,0.01494173,0.03250564,-0.018097756,0.21,0.93,0.31,24743,10121.80,0,0,3,1.19,1.47,0.21,0.21,0.93,0.31
-7.4101562,0.013941729,0.023505636,-0.017097756,0.21,0.93,0.31,24758,10121.10,0,0,3,1.12,0.84,0.28,0.21,0.93,0.31
-8.709961,0.015941728,0.020505637,-0.016097758,0.21,0.93,0.31,24780,10119.80,0,0,3,1.26,0.63,0.35,0.21,0.93,0.31
-7.709961,0.012941728,0.018505637,-0.011097757,0.21,0.94,0.32,24788,10120.80,0,0,3,1.05,0.49,0.70,0.21,0.94,0.32
-7.4101562,0.0069417283,0.021505637,-0.013097757,0.21,0.93,0.32,24802,10121.10,0,0,3,0.63,0.70,0.56,0.21,0.93,0.32
-7.709961,0.009941728,0.028505638,-0.008097757,0.21,0.93,0.32,24817,10120.80,0,0,3,0.84,1.19,0.91,0.21,0.93,0.32
-7.4101562,0.009941728,0.03650564,0.0039022435,0.2,0.94,0.31,24841,10121.10,0,0,3,0.84,1.75,1.75,0.20,0.94,0.31
-6.709961,0.015941728,0.03650564,-0.015097758,0.2,0.94,0.31,24870,10121.80,0,0,3,1.26,1.75,0.42,0.20,0.94,0.31
-7.709961,0.01694173,0.031505637,-0.038097758,0.21,0.94,0.31,24915,10120.80,0,0,3,1.33,1.40,-1.19,0.21,0.94,0.31
-6.709961,0.017941728,0.038505636,-0.038097758,0.22,0.93,0.32,24916,10121.80,0,0,3,1.40,1.89,-1.19,0.22,0.93,0.32
-6.709961,0.009941728,0.034505635,-0.026097756,0.21,0.93,0.32,24945,10121.80,0,0,3,0.84,1.61,-0.35,0.21,0.93,0.32
-10.80957,0.011941729,0.023505636,-0.018097756,0.2,0.94,0.31,24952,10117.70,0,0,3,0.98,0.84,0.21,0.20,0.94,0.31
-8.109375,0.020941729,0.022505637,-0.022097757,0.2,0.94,0.31,24982,10120.40,0,0,3,1.61,0.77,-0.07,0.20,0.94,0.31
-7.109375,0.02494173,0.024505638,-0.031097757,0.2,0.94,0.32,24990,10121.40,0,0,3,1.89,0.91,-0.70,0.20,0.94,0.32
-7.709961,0.02494173,0.026505638,-0.031097757,0.2,0.93,0.31,25013,10120.80,0,0,3,1.89,1.05,-0.70,0.20,0.93,0.31
-7.709961,0.026941728,0.025505638,-0.026097756,0.2,0.94,0.31,25028,10120.80,0,0,3,2.03,0.98,-0.35,0.20,0.94,0.31
-7.709961,0.02994173,0.023505636,-0.026097756,0.2,0.95,0.31,25043,10120.80,0,0,3,2.24,0.84,-0.35,0.20,0.95,0.31
-6.4101562,0.027941728,0.024505638,-0.030097757,0.19,0.94,0.31,25057,10122.10,0,0,3,2.10,0.91,-0.63,0.19,0.94,0.31
-6.709961,0.02494173,0.025505638,-0.030097757,0.19,0.94,0.31,25072,10121.80,0,0,3,1.89,0.98,-0.63,0.19,0.94,0.31
-6.4101562,0.012941728,0.027505638,-0.025097758,0.2,0.93,0.31,25095,10122.10,0,0,3,1.05,1.12,-0.28,0.20,0.93,0.31
-6.4101562,0.008941729,0.024505638,-0.016097758,0.19,0.94,0.3,25117,10122.10,0,0,3,0.77,0.91,0.35,0.19,0.94,0.30
-6.4101562,0.012941728,0.019505639,-0.017097756,0.19,0.94,0.31,25140,10122.10,0,0,3,1.05,0.56,0.28,0.19,0.94,0.31
-7.4101562,0.015941728,0.016505636,-0.016097758,0.19,0.94,0.31,25162,10121.10,0,0,3,1.26,0.35,0.35,0.19,0.94,0.31
-6.4101562,0.008941729,0.016505636,-0.017097756,0.19,0.94,0.31,25193,10122.10,0,0,3,0.77,0.35,0.28,0.19,0.94,0.31
-7.4101562,0.0019417286,0.0125056375,-0.014097757,0.19,0.94,0.31,25200,10121.10,0,0,3,0.28,0.07,0.49,0.19,0.94,0.31
-6.4101562,0.0019417286,0.0065056374,-0.010097757,0.19,0.95,0.31,25222,10122.10,0,0,3,0.28,-0.35,0.77,0.19,0.95,0.31
-7.709961,0.004941729,0.009505637,-0.010097757,0.19,0.94,0.31,25244,10120.80,0,0,3,0.49,-0.14,0.77,0.19,0.94,0.31
-7.4101562,0.004941729,0.0125056375,-0.015097758,0.18,0.94,0.31,25267,10121.10,0,0,3,0.49,0.07,0.42,0.18,0.94,0.31
-13.509766,0.004941729,0.017505636,-0.014097757,0.19,0.94,0.31,25275,10115.00,0,0,3,0.49,0.42,0.49,0.19,0.94,0.31
-7.4101562,0.003941728,0.019505639,-0.011097757,0.19,0.94,0.31,25297,10121.10,0,0,3,0.42,0.56,0.70,0.19,0.94,0.31
-6.4101562,0.004941729,0.014505637,-0.0070977565,0.19,0.94,0.3,25305,10122.10,0,0,3,0.49,0.21,0.98,0.19,0.94,0.30
-6.4101562,0.007941728,0.0025056377,-0.011097757,0.19,0.95,0.3,25320,10122.10,0,0,3,0.70,-0.63,0.70,0.19,0.95,0.30
-7.709961,0.012941728,-0.0044943634,-0.005097756,0.2,0.94,0.3,25343,10120.80,0,0,3,1.05,-1.12,1.12,0.20,0.94,0.30
-7.4101562,0.009941728,-0.007494364,0.0049022436,0.19,0.94,0.3,25365,10121.10,0,0,3,0.84,-1.33,1.82,0.19,0.94,0.30
-7.109375,0.003941728,-0.012494361,9.0224296E-4,0.18,0.94,0.31,25388,10121.40,0,0,3,0.42,-1.68,1.54,0.18,0.94,0.31
-7.709961,-0.011058271,-0.013494363,-0.004097756,0.19,0.94,0.3,25410,10120.80,0,0,3,-0.63,-1.75,1.19,0.19,0.94,0.30
-3.3095703,-0.02005827,-0.012494361,-0.010097757,0.19,0.94,0.3,25433,10125.20,0,0,3,-1.26,-1.68,0.77,0.19,0.94,0.30
-7.4101562,-0.02205827,-0.018494362,-0.0030977577,0.2,0.94,0.3,25456,10121.10,0,0,3,-1.40,-2.10,1.26,0.20,0.94,0.30
-7.709961,-0.019058272,-0.031494364,0.0029022414,0.19,0.94,0.31,25485,10120.80,0,0,3,-1.19,-3.01,1.68,0.19,0.94,0.31
-6.4101562,-0.019058272,-0.03649436,0.006902244,0.2,0.93,0.31,25508,10122.10,0,0,3,-1.19,-3.36,1.96,0.20,0.93,0.31
-7.4101562,-0.02205827,-0.033494364,0.0049022436,0.19,0.93,0.31,25515,10121.10,0,0,3,-1.40,-3.15,1.82,0.19,0.93,0.31
-7.4101562,-0.021058273,-0.024494361,0.006902244,0.19,0.94,0.31,25530,10121.10,0,0,3,-1.33,-2.52,1.96,0.19,0.94,0.31
-2.0097656,-0.021058273,-0.024494361,0.008902242,0.19,0.95,0.31,25545,10126.50,0,0,3,-1.33,-2.52,2.10,0.19,0.95,0.31
-7.4101562,-0.015058272,-0.023494363,0.0019022431,0.19,0.95,0.31,25560,10121.10,0,0,3,-0.91,-2.45,1.61,0.19,0.95,0.31
-6.4101562,-0.010058272,-0.024494361,-0.0070977565,0.2,0.94,0.31,25583,10122.10,0,0,3,-0.56,-2.52,0.98,0.20,0.94,0.31
-7.4101562,-0.0140582705,-0.024494361,-0.010097757,0.2,0.94,0.31,25598,10121.10,0,0,3,-0.84,-2.52,0.77,0.20,0.94,0.31
-5.4101562,-0.016058272,-0.020494364,9.0224296E-4,0.2,0.93,0.31,25620,10123.10,0,0,3,-0.98,-2.24,1.54,0.20,0.93,0.31
-8.410156,-0.012058271,-0.025494363,0.007902242,0.2,0.94,0.32,25659,10120.10,0,0,3,-0.70,-2.59,2.03,0.20,0.94,0.32
-6.0097656,-0.009058272,-0.027494363,0.0049022436,0.2,0.94,0.31,25665,10122.50,0,0,3,-0.49,-2.73,1.82,0.20,0.94,0.31
-7.109375,-0.0050582713,-0.020494364,0.005902244,0.2,0.93,0.32,25687,10121.40,0,0,3,-0.21,-2.24,1.89,0.20,0.93,0.32
-6.0097656,-0.007058271,-0.014494363,-0.0010977574,0.2,0.93,0.32,25711,10122.50,0,0,3,-0.35,-1.82,1.40,0.20,0.93,0.32
-8.410156,-0.009058272,-0.008494362,0.0029022414,0.2,0.94,0.31,25725,10120.10,0,0,3,-0.49,-1.40,1.68,0.20,0.94,0.31
-9.410156,-0.011058271,-0.0054943636,-9.7757205E-5,0.2,0.94,0.31,25763,10119.10,0,0,3,-0.63,-1.19,1.47,0.20,0.94,0.31
-7.4101562,-0.0140582705,-0.001494363,-0.004097756,0.2,0.93,0.31,25764,10121.10,0,0,3,-0.84,-0.91,1.19,0.20,0.93,0.31
-7.109375,-0.013058271,-0.002494363,-0.0030977577,0.2,0.94,0.31,25778,10121.40,0,0,3,-0.77,-0.98,1.26,0.20,0.94,0.31
-7.4101562,-0.007058271,-0.001494363,0.0019022431,0.21,0.93,0.31,25800,10121.10,0,0,3,-0.35,-0.91,1.61,0.21,0.93,0.31
-8.410156,-0.009058272,-0.006494362,0.0029022414,0.2,0.94,0.31,25808,10120.10,0,0,3,-0.49,-1.26,1.68,0.20,0.94,0.31
-4.3095703,-0.011058271,-0.010494363,-9.7757205E-5,0.2,0.94,0.31,25830,10124.20,0,0,3,-0.63,-1.54,1.47,0.20,0.94,0.31
-7.109375,-0.0040582716,-0.008494362,0.007902242,0.2,0.94,0.31,25845,10121.40,0,0,3,-0.14,-1.40,2.03,0.20,0.94,0.31
-7.4101562,0.005941729,0.0015056375,0.009902244,0.2,0.94,0.32,25867,10121.10,0,0,3,0.56,-0.70,2.17,0.20,0.94,0.32
-10.109375,0.005941729,0.014505637,0.0049022436,0.19,0.95,0.32,25890,10118.40,0,0,3,0.56,0.21,1.82,0.19,0.95,0.32
-4.0097656,0.003941728,0.024505638,-0.008097757,0.19,0.93,0.32,25935,10124.50,0,0,3,0.42,0.91,0.91,0.19,0.93,0.32
-7.109375,-5.8271457E-5,0.030505639,-0.014097757,0.2,0.94,0.31,25943,10121.40,0,0,3,0.14,1.33,0.49,0.20,0.94,0.31
-7.109375,-0.0020582716,0.024505638,-0.009097758,0.21,0.94,0.31,25950,10121.40,0,0,3,0.00,0.91,0.84,0.21,0.94,0.31
-8.109375,0.0019417286,0.011505637,9.0224296E-4,0.21,0.94,0.31,25973,10120.40,0,0,3,0.28,0.00,1.54,0.21,0.94,0.31
-8.109375,0.003941728,-0.001494363,9.0224296E-4,0.21,0.93,0.31,25988,10120.40,0,0,3,0.42,-0.91,1.54,0.21,0.93,0.31
-7.4101562,0.003941728,-0.0044943634,9.0224296E-4,0.2,0.94,0.32,26010,10121.10,0,0,3,0.42,-1.12,1.54,0.20,0.94,0.32
-7.4101562,0.0029417283,-0.001494363,-0.0020977557,0.2,0.94,0.32,26025,10121.10,0,0,3,0.35,-0.91,1.33,0.20,0.94,0.32
-8.109375,9.4172824E-4,0.010505637,-0.008097757,0.19,0.93,0.32,26047,10120.40,0,0,3,0.21,-0.07,0.91,0.19,0.93,0.32
-8.109375,-0.0020582716,0.016505636,-0.012097757,0.2,0.94,0.32,26055,10120.40,0,0,3,0.00,0.35,0.63,0.20,0.94,0.32
-7.109375,-5.8271457E-5,0.023505636,-0.015097758,0.19,0.94,0.31,26077,10121.40,0,0,3,0.14,0.84,0.42,0.19,0.94,0.31
-7.4101562,-0.006058272,0.024505638,-0.023097757,0.2,0.94,0.31,26099,10121.10,0,0,3,-0.28,0.91,-0.14,0.20,0.94,0.31
-8.410156,-0.012058271,0.017505636,-0.018097756,0.2,0.93,0.32,26114,10120.10,0,0,3,-0.70,0.42,0.21,0.20,0.93,0.32
-7.109375,-0.0140582705,0.008505638,-0.010097757,0.2,0.93,0.31,26138,10121.40,0,0,3,-0.84,-0.21,0.77,0.20,0.93,0.31
-8.109375,-0.012058271,0.0025056377,-0.0070977565,0.2,0.93,0.31,26167,10120.40,0,0,3,-0.70,-0.63,0.98,0.20,0.93,0.31
-7.109375,-0.0140582705,-0.0044943634,-0.0020977557,0.2,0.93,0.31,26183,10121.40,0,0,3,-0.84,-1.12,1.33,0.20,0.93,0.31
-8.410156,-0.0140582705,-0.008494362,-0.004097756,0.2,0.94,0.32,26205,10120.10,0,0,3,-0.84,-1.40,1.19,0.20,0.94,0.32
-8.109375,-0.0140582705,-0.008494362,-9.7757205E-5,0.2,0.94,0.32,26220,10120.40,105,0,3,-0.84,-1.40,1.47,0.20,0.94,0.32
-6.709961,-0.010058272,-0.0054943636,9.0224296E-4,0.2,0.94,0.32,26243,10121.80,105,0,3,-0.56,-1.19,1.54,0.20,0.94,0.32
-8.109375,-0.015058272,-0.0054943636,9.0224296E-4,0.2,0.93,0.32,26258,10120.40,105,0,3,-0.91,-1.19,1.54,0.20,0.93,0.32
-8.410156,-0.017058272,0.0025056377,9.0224296E-4,0.2,0.94,0.32,26273,10120.10,105,0,3,-1.05,-0.63,1.54,0.20,0.94,0.32
-7.709961,-0.019058272,0.003505637,0.0039022435,0.19,0.94,0.32,26288,10120.80,105,0,3,-1.19,-0.56,1.75,0.19,0.94,0.32
-7.109375,-0.013058271,0.004505637,0.0049022436,0.2,0.93,0.32,26302,10121.40,105,0,3,-0.77,-0.49,1.82,0.20,0.93,0.32
-8.109375,-0.015058272,0.0015056375,0.005902244,0.2,0.94,0.32,26332,10120.40,105,0,3,-0.91,-0.70,1.89,0.20,0.94,0.32
-7.709961,-0.023058271,-0.008494362,0.008902242,0.2,0.93,0.32,26339,10120.80,105,0,3,-1.47,-1.40,2.10,0.20,0.93,0.32
-7.4101562,-0.016058272,-0.015494363,0.021902245,0.21,0.93,0.31,26362,10121.10,105,0,3,-0.98,-1.89,3.01,0.21,0.93,0.31
-8.109375,-0.0140582705,-0.024494361,0.037902243,0.2,0.94,0.32,26385,10120.40,105,0,3,-0.84,-2.52,4.13,0.20,0.94,0.32
-8.109375,-0.011058271,-0.02949436,0.030902244,0.19,0.94,0.32,26415,10120.40,105,0,3,-0.63,-2.87,3.64,0.19,0.94,0.32
-7.109375,-0.013058271,-0.023494363,0.008902242,0.2,0.94,0.32,26460,10121.40,105,0,3,-0.77,-2.45,2.10,0.20,0.94,0.32
-8.109375,-0.018058272,-0.009494362,-9.7757205E-5,0.21,0.93,0.32,26462,10120.40,105,0,3,-1.12,-1.47,1.47,0.21,0.93,0.32
-8.709961,-0.02005827,-0.007494364,0.007902242,0.21,0.94,0.32,26499,10119.80,105,0,3,-1.26,-1.33,2.03,0.21,0.94,0.32
-8.109375,-0.0140582705,-0.023494363,0.012902245,0.21,0.94,0.31,26500,10120.40,105,0,3,-0.84,-2.45,2.38,0.21,0.94,0.31
-8.109375,-0.009058272,-0.032494362,0.009902244,0.21,0.94,0.32,26512,10120.40,105,0,3,-0.49,-3.08,2.17,0.21,0.94,0.32
-6.709961,-0.007058271,-0.030494362,0.010902245,0.21,0.93,0.32,26527,10121.80,105,0,3,-0.35,-2.94,2.24,0.21,0.93,0.32
-8.109375,-0.007058271,-0.02949436,-0.0010977574,0.21,0.93,0.32,26550,10120.40,105,0,3,-0.35,-2.87,1.40,0.21,0.93,0.32
-8.109375,-0.007058271,-0.024494361,-0.004097756,0.21,0.94,0.32,26558,10120.40,105,0,3,-0.35,-2.52,1.19,0.21,0.94,0.32
-7.109375,-0.009058272,-0.019494364,-0.0070977565,0.2,0.94,0.32,26595,10121.40,105,0,3,-0.49,-2.17,0.98,0.20,0.94,0.32
-6.0097656,-0.010058272,-0.012494361,-0.013097757,0.2,0.93,0.32,26602,10122.50,105,0,3,-0.56,-1.68,0.56,0.20,0.93,0.32
-13.109375,-0.0140582705,-0.007494364,-0.009097758,0.21,0.93,0.32,26627,10115.40,105,0,3,-0.84,-1.33,0.84,0.21,0.93,0.32
-8.109375,-0.0140582705,-0.011494363,-9.7757205E-5,0.21,0.93,0.32,26641,10120.40,105,0,3,-0.84,-1.61,1.47,0.21,0.93,0.32
-7.4101562,-0.013058271,-0.016494364,0.0029022414,0.21,0.93,0.32,26663,10121.10,105,0,3,-0.77,-1.96,1.68,0.21,0.93,0.32
-7.109375,-0.013058271,-0.018494362,9.0224296E-4,0.21,0.93,0.32,26685,10121.40,105,0,3,-0.77,-2.10,1.54,0.21,0.93,0.32
-8.109375,-0.012058271,-0.012494361,0.0029022414,0.21,0.93,0.32,26708,10120.40,105,0,3,-0.70,-1.68,1.68,0.21,0.93,0.32
-8.109375,-0.008058271,-0.007494364,-0.0010977574,0.2,0.94,0.32,26738,10120.40,105,0,3,-0.42,-1.33,1.40,0.20,0.94,0.32
-11.109375,-0.0050582713,-0.002494363,-0.0020977557,0.2,0.94,0.32,26745,10117.40,105,0,3,-0.21,-0.98,1.33,0.20,0.94,0.32
-8.109375,-0.0020582716,0.004505637,-0.004097756,0.2,0.94,0.32,26775,10120.40,105,0,3,0.00,-0.49,1.19,0.20,0.94,0.32
-10.410156,-0.0020582716,0.009505637,-0.009097758,0.21,0.94,0.32,26776,10118.10,105,0,3,0.00,-0.14,0.84,0.21,0.94,0.32
-8.109375,-0.0050582713,0.013505638,-0.004097756,0.21,0.93,0.32,26790,10120.40,105,0,3,-0.21,0.14,1.19,0.21,0.93,0.32
-6.709961,-0.010058272,0.008505638,-0.008097757,0.21,0.93,0.32,26805,10121.80,105,0,3,-0.56,-0.21,0.91,0.21,0.93,0.32
-5.709961,-0.011058271,0.0025056377,-0.005097756,0.21,0.93,0.32,26827,10122.80,105,0,3,-0.63,-0.63,1.12,0.21,0.93,0.32
-7.109375,-0.011058271,-0.006494362,-0.0060977573,0.21,0.93,0.32,26850,10121.40,105,0,3,-0.63,-1.26,1.05,0.21,0.93,0.32
-7.109375,-0.0030582715,-0.009494362,0.0019022431,0.21,0.93,0.32,26865,10121.40,105,0,3,-0.07,-1.47,1.61,0.21,0.93,0.32
-7.109375,9.4172824E-4,-0.002494363,0.008902242,0.2,0.94,0.33,26887,10121.40,105,0,3,0.21,-0.98,2.10,0.20,0.94,0.33
-8.109375,-5.8271457E-5,-4.9436186E-4,-0.004097756,0.19,0.94,0.32,26909,10120.40,105,0,3,0.14,-0.84,1.19,0.19,0.94,0.32
-7.709961,9.4172824E-4,0.003505637,-0.021097757,0.2,0.93,0.32,26933,10120.80,105,0,3,0.21,-0.56,0.00,0.20,0.93,0.32
-7.109375,-0.0050582713,0.007505637,-0.022097757,0.21,0.93,0.32,26955,10121.40,105,0,3,-0.21,-0.28,-0.07,0.21,0.93,0.32
-7.709961,-0.012058271,0.0025056377,-0.010097757,0.21,0.93,0.32,26978,10120.80,105,0,3,-0.70,-0.63,0.77,0.21,0.93,0.32
-4.709961,-0.013058271,-0.0034943623,0.0039022435,0.21,0.93,0.32,27000,10123.80,105,0,3,-0.77,-1.05,1.75,0.21,0.93,0.32
-9.109375,-0.0140582705,-0.012494361,0.012902245,0.2,0.93,0.32,27015,10119.40,105,0,3,-0.84,-1.68,2.38,0.20,0.93,0.32
-6.709961,-0.010058272,-0.011494363,0.010902245,0.2,0.94,0.32,27045,10121.80,105,0,3,-0.56,-1.61,2.24,0.20,0.94,0.32
-6.709961,-0.0040582716,-0.009494362,9.0224296E-4,0.2,0.94,0.32,27060,10121.80,105,0,3,-0.14,-1.47,1.54,0.20,0.94,0.32
-7.709961,9.4172824E-4,-0.008494362,-0.0070977565,0.21,0.94,0.32,27068,10120.80,105,0,3,0.21,-1.40,0.98,0.21,0.94,0.32
-7.4101562,0.005941729,-0.0034943623,-0.0070977565,0.21,0.94,0.32,27082,10121.10,105,0,3,0.56,-1.05,0.98,0.21,0.94,0.32
-7.109375,0.0019417286,-0.002494363,-0.009097758,0.2,0.93,0.33,27105,10121.40,105,0,3,0.28,-0.98,0.84,0.20,0.93,0.33
-6.709961,-0.0040582716,0.0015056375,-0.0060977573,0.21,0.93,0.33,27120,10121.80,105,0,3,-0.14,-0.70,1.05,0.21,0.93,0.33
-7.709961,-0.0040582716,5.056374E-4,-0.0010977574,0.21,0.93,0.32,27142,10120.80,0,0,3,-0.14,-0.77,1.40,0.21,0.93,0.32
-8.109375,-0.0050582713,-0.0034943623,9.0224296E-4,0.21,0.93,0.32,27180,10120.40,0,0,3,-0.21,-1.05,1.54,0.21,0.93,0.32
-7.709961,-0.008058271,-0.012494361,0.0019022431,0.21,0.93,0.32,27188,10120.80,0,0,3,-0.42,-1.68,1.61,0.21,0.93,0.32
-7.709961,-0.009058272,-0.015494363,0.0049022436,0.21,0.93,0.32,27210,10120.80,0,0,3,-0.49,-1.89,1.82,0.21,0.93,0.32
-7.709961,-0.007058271,-0.014494363,0.005902244,0.21,0.93,0.33,27225,10120.80,0,0,3,-0.35,-1.82,1.89,0.21,0.93,0.33
-5.709961,-0.009058272,-0.014494363,0.0019022431,0.21,0.94,0.33,27248,10122.80,0,0,3,-0.49,-1.82,1.61,0.21,0.94,0.33
-8.109375,-0.012058271,-0.008494362,-0.0010977574,0.21,0.93,0.32,27263,10120.40,0,0,3,-0.70,-1.40,1.40,0.21,0.93,0.32
-8.410156,-0.011058271,-0.0044943634,-0.0060977573,0.21,0.93,0.32,27278,10120.10,0,0,3,-0.63,-1.12,1.05,0.21,0.93,0.32
-7.709961,-0.012058271,-0.0044943634,-0.012097757,0.21,0.94,0.32,27300,10120.80,0,0,3,-0.70,-1.12,0.63,0.21,0.94,0.32
-7.709961,-0.009058272,-0.006494362,-0.013097757,0.21,0.93,0.32,27315,10120.80,0,0,3,-0.49,-1.26,0.56,0.21,0.93,0.32
-5.0097656,-0.010058272,-0.009494362,-0.014097757,0.21,0.93,0.33,27323,10123.50,0,0,3,-0.56,-1.47,0.49,0.21,0.93,0.33
-7.709961,-0.013058271,-0.013494363,0.0019022431,0.21,0.93,0.33,27352,10120.80,0,0,3,-0.77,-1.75,1.61,0.21,0.93,0.33
-7.709961,-0.006058272,-0.013494363,0.013902243,0.21,0.93,0.33,27368,10120.80,0,0,3,-0.28,-1.75,2.45,0.21,0.93,0.33
-6.709961,-0.0050582713,-0.015494363,0.015902244,0.2,0.94,0.33,27398,10121.80,0,0,3,-0.21,-1.89,2.59,0.20,0.94,0.33
-8.80957,-0.0040582716,-0.007494364,0.0049022436,0.2,0.94,0.32,27412,10119.70,0,0,3,-0.14,-1.33,1.82,0.20,0.94,0.32
-8.410156,-0.0010582715,0.0025056377,-0.012097757,0.2,0.93,0.33,27435,10120.10,0,0,3,0.07,-0.63,0.63,0.20,0.93,0.33
-7.709961,-0.0040582716,0.010505637,-0.012097757,0.22,0.93,0.32,27458,10120.80,0,0,3,-0.14,-0.07,0.63,0.22,0.93,0.32
-7.709961,-0.007058271,0.0055056377,-9.7757205E-5,0.22,0.93,0.32,27480,10120.80,0,0,3,-0.35,-0.42,1.47,0.22,0.93,0.32
-8.109375,-0.0050582713,-0.006494362,0.007902242,0.21,0.93,0.32,27495,10120.40,0,0,3,-0.21,-1.26,2.03,0.21,0.93,0.32
-7.709961,-0.007058271,-0.016494364,0.006902244,0.22,0.93,0.33,27510,10120.80,0,0,3,-0.35,-1.96,1.96,0.22,0.93,0.33
-9.80957,-0.007058271,-0.017494362,0.0049022436,0.21,0.93,0.33,27532,10118.70,0,0,3,-0.35,-2.03,1.82,0.21,0.93,0.33
-9.80957,-0.0030582715,-0.011494363,0.0019022431,0.21,0.93,0.32,27547,10118.70,0,0,3,-0.07,-1.61,1.61,0.21,0.93,0.32
-7.709961,-0.0020582716,-0.007494364,-0.0020977557,0.21,0.94,0.33,27562,10120.80,0,0,3,0.00,-1.33,1.33,0.21,0.94,0.33
-7.109375,9.4172824E-4,-0.0034943623,-0.005097756,0.21,0.94,0.32,27578,10121.40,0,0,3,0.21,-1.05,1.12,0.21,0.94,0.32
-9.80957,0.004941729,-0.001494363,-0.014097757,0.21,0.93,0.33,27600,10118.70,0,0,3,0.49,-0.91,0.49,0.21,0.93,0.33
-8.80957,0.003941728,-0.001494363,-0.023097757,0.21,0.94,0.32,27608,10119.70,0,0,3,0.42,-0.91,-0.14,0.21,0.94,0.32
-7.4101562,9.4172824E-4,5.056374E-4,-0.022097757,0.21,0.93,0.32,27630,10121.10,0,0,3,0.21,-0.77,-0.07,0.21,0.93,0.32
-7.4101562,9.4172824E-4,-4.9436186E-4,-0.020097757,0.21,0.93,0.32,27645,10121.10,0,0,3,0.21,-0.84,0.07,0.21,0.93,0.32
-7.709961,0.0019417286,-0.0054943636,-0.014097757,0.21,0.93,0.32,27660,10120.80,0,0,3,0.28,-1.19,0.49,0.21,0.93,0.32
-9.80957,9.4172824E-4,-0.008494362,-0.013097757,0.21,0.93,0.32,27675,10118.70,0,0,3,0.21,-1.40,0.56,0.21,0.93,0.32
-7.4101562,-0.0020582716,-0.010494363,-0.011097757,0.21,0.93,0.32,27690,10121.10,0,0,3,0.00,-1.54,0.70,0.21,0.93,0.32
-8.109375,-0.0040582716,-0.008494362,-0.0060977573,0.21,0.93,0.33,27720,10120.40,0,0,3,-0.14,-1.40,1.05,0.21,0.93,0.33
-8.80957,-0.006058272,-0.007494364,-0.004097756,0.21,0.94,0.32,27728,10119.70,0,0,3,-0.28,-1.33,1.19,0.21,0.94,0.32
-7.709961,-0.0030582715,-0.0044943634,-0.0070977565,0.21,0.94,0.32,27750,10120.80,0,0,3,-0.07,-1.12,0.98,0.21,0.94,0.32
-7.4101562,0.0029417283,-0.0044943634,-0.013097757,0.21,0.93,0.32,27758,10121.10,0,0,3,0.35,-1.12,0.56,0.21,0.93,0.32
-7.4101562,9.4172824E-4,-4.9436186E-4,-0.015097758,0.21,0.93,0.32,27772,10121.10,0,0,3,0.21,-0.84,0.42,0.21,0.93,0.32
-7.709961,-0.0010582715,5.056374E-4,-0.018097756,0.21,0.93,0.32,27789,10120.80,0,0,3,0.07,-0.77,0.21,0.21,0.93,0.32
-6.4101562,-0.0020582716,5.056374E-4,-0.016097758,0.21,0.93,0.32,27803,10122.10,0,0,3,0.00,-0.77,0.35,0.21,0.93,0.32
-7.709961,-0.006058272,-0.0044943634,-0.011097757,0.21,0.93,0.32,27818,10120.80,0,0,3,-0.28,-1.12,0.70,0.21,0.93,0.32
-8.410156,-0.0040582716,-0.007494364,-0.008097757,0.21,0.93,0.32,27840,10120.10,0,0,3,-0.14,-1.33,0.91,0.21,0.93,0.32
-8.410156,-0.0010582715,-0.0044943634,-0.0010977574,0.21,0.93,0.32,27862,10120.10,0,0,3,0.07,-1.12,1.40,0.21,0.93,0.32
-7.709961,-5.8271457E-5,-0.0044943634,0.0029022414,0.21,0.93,0.32,27869,10120.80,0,0,3,0.14,-1.12,1.68,0.21,0.93,0.32
-7.4101562,-0.0040582716,-0.0054943636,-9.7757205E-5,0.2,0.94,0.32,27885,10121.10,0,0,3,-0.14,-1.19,1.47,0.20,0.94,0.32
-8.80957,-0.0030582715,-0.0044943634,-0.010097757,0.2,0.94,0.32,27901,10119.70,0,0,3,-0.07,-1.12,0.77,0.20,0.94,0.32
-7.709961,-0.0030582715,-4.9436186E-4,-0.017097756,0.2,0.93,0.32,27915,10120.80,0,0,3,-0.07,-0.84,0.28,0.20,0.93,0.32
-8.80957,-0.011058271,0.0065056374,-0.020097757,0.21,0.93,0.32,27937,10119.70,0,0,3,-0.63,-0.35,0.07,0.21,0.93,0.32
-7.4101562,-0.016058272,0.0065056374,-0.012097757,0.21,0.93,0.32,27975,10121.10,0,0,3,-0.98,-0.35,0.63,0.21,0.93,0.32
-8.410156,-0.018058272,0.0015056375,9.0224296E-4,0.21,0.93,0.32,27976,10120.10,0,0,3,-1.12,-0.70,1.54,0.21,0.93,0.32
-7.4101562,-0.018058272,-0.007494364,0.007902242,0.21,0.93,0.32,27982,10121.10,0,0,3,-1.12,-1.33,2.03,0.21,0.93,0.32
-7.4101562,-0.017058272,-0.013494363,0.009902244,0.21,0.93,0.33,27997,10121.10,0,0,3,-1.05,-1.75,2.17,0.21,0.93,0.33
-6.709961,-0.021058273,-0.015494363,0.007902242,0.21,0.94,0.33,28012,10121.80,0,0,3,-1.33,-1.89,2.03,0.21,0.94,0.33
-7.4101562,-0.019058272,-0.010494363,0.0049022436,0.21,0.93,0.33,28035,10121.10,0,0,3,-1.19,-1.54,1.82,0.21,0.93,0.33
-7.109375,-0.017058272,-0.007494364,0.0029022414,0.21,0.94,0.33,28050,10121.40,0,0,3,-1.05,-1.33,1.68,0.21,0.94,0.33
-8.410156,-0.009058272,-0.0044943634,-9.7757205E-5,0.21,0.94,0.33,28072,10120.10,0,0,3,-0.49,-1.12,1.47,0.21,0.94,0.33
-8.410156,-0.0030582715,-0.0034943623,-0.0070977565,0.2,0.93,0.33,28080,10120.10,0,0,3,-0.07,-1.05,0.98,0.20,0.93,0.33
-7.709961,-0.0040582716,5.056374E-4,-0.017097756,0.21,0.93,0.33,28096,10120.80,0,0,3,-0.14,-0.77,0.28,0.21,0.93,0.33
-7.4101562,-0.011058271,0.008505638,-0.016097758,0.21,0.93,0.33,28132,10121.10,0,0,3,-0.63,-0.21,0.35,0.21,0.93,0.33
-8.410156,-0.0140582705,0.0125056375,-0.015097758,0.21,0.93,0.33,28134,10120.10,0,0,3,-0.84,0.07,0.42,0.21,0.93,0.33
-6.4101562,-0.010058272,0.014505637,-0.011097757,0.2,0.93,0.32,28147,10122.10,0,0,3,-0.56,0.21,0.70,0.20,0.93,0.32
-8.410156,-0.008058271,0.010505637,-0.010097757,0.21,0.93,0.32,28162,10120.10,0,0,3,-0.42,-0.07,0.77,0.21,0.93,0.32
-7.4101562,-0.0040582716,0.0065056374,-0.010097757,0.21,0.93,0.32,28177,10121.10,0,0,3,-0.14,-0.35,0.77,0.21,0.93,0.32
-2.3095703,-0.0020582716,0.0015056375,-0.008097757,0.21,0.93,0.33,28192,10126.20,0,0,3,0.00,-0.70,0.91,0.21,0.93,0.33
-7.4101562,-0.0030582715,-4.9436186E-4,0.0019022431,0.21,0.93,0.33,28216,10121.10,0,0,3,-0.07,-0.84,1.61,0.21,0.93,0.33
-7.8095703,-0.0030582715,-0.0034943623,0.005902244,0.21,0.92,0.33,28230,10120.70,0,0,3,-0.07,-1.05,1.89,0.21,0.92,0.33
-11.509766,-0.009058272,-0.002494363,0.009902244,0.21,0.92,0.33,28245,10117.00,0,0,3,-0.49,-0.98,2.17,0.21,0.92,0.33
-8.410156,-0.011058271,5.056374E-4,0.008902242,0.2,0.93,0.33,28260,10120.10,0,0,3,-0.63,-0.77,2.10,0.20,0.93,0.33
-8.410156,-0.009058272,0.0065056374,0.0029022414,0.21,0.93,0.33,28283,10120.10,0,0,3,-0.49,-0.35,1.68,0.21,0.93,0.33
-7.109375,-0.006058272,0.0055056377,-0.0010977574,0.21,0.93,0.33,28297,10121.40,0,0,3,-0.28,-0.42,1.40,0.21,0.93,0.33
-7.4101562,-0.007058271,0.0055056377,-0.004097756,0.21,0.93,0.33,28320,10121.10,0,0,3,-0.35,-0.42,1.19,0.21,0.93,0.33
-8.109375,-0.006058272,-0.001494363,-0.0010977574,0.22,0.92,0.33,28327,10120.40,0,0,3,-0.28,-0.91,1.40,0.22,0.92,0.33
-7.4101562,-0.0030582715,-0.002494363,0.013902243,0.22,0.93,0.33,28349,10121.10,0,0,3,-0.07,-0.98,2.45,0.22,0.93,0.33
-7.4101562,-0.0050582713,-0.009494362,0.013902243,0.21,0.94,0.33,28364,10121.10,0,0,3,-0.21,-1.47,2.45,0.21,0.94,0.33
-6.709961,-0.007058271,-0.011494363,0.010902245,0.2,0.94,0.33,28380,10121.80,0,0,3,-0.35,-1.61,2.24,0.20,0.94,0.33
-8.410156,-0.008058271,-0.006494362,-0.009097758,0.21,0.93,0.33,28403,10120.10,0,0,3,-0.42,-1.26,0.84,0.21,0.93,0.33
-7.4101562,-0.012058271,0.0015056375,-0.015097758,0.22,0.93,0.33,28417,10121.10,0,0,3,-0.70,-0.70,0.42,0.22,0.93,0.33
-5.4101562,-0.006058272,0.0015056375,-0.0060977573,0.22,0.93,0.33,28448,10123.10,0,0,3,-0.28,-0.70,1.05,0.22,0.93,0.33
-8.410156,0.0019417286,-0.011494363,0.0029022414,0.22,0.93,0.33,28462,10120.10,0,0,3,0.28,-1.61,1.68,0.22,0.93,0.33
-8.80957,0.003941728,-0.015494363,0.006902244,0.21,0.92,0.33,28493,10119.70,0,0,3,0.42,-1.89,1.96,0.21,0.92,0.33
-8.109375,-0.0010582715,-0.009494362,-0.0010977574,0.21,0.93,0.33,28508,10120.40,0,0,3,0.07,-1.47,1.40,0.21,0.93,0.33
-8.410156,0.25294173,-4.9436186E-4,-0.0030977577,0.21,0.93,0.33,28525,10120.10,0,0,3,17.85,-0.84,1.26,0.21,0.93,0.33
-7.4101562,-0.0030582715,0.0015056375,-0.0020977557,0.21,0.93,0.33,28537,10121.10,0,0,3,-0.07,-0.70,1.33,0.21,0.93,0.33
-6.109375,-0.0010582715,0.0025056377,-0.008097757,0.21,0.93,0.33,28553,10122.40,0,0,3,0.07,-0.63,0.91,0.21,0.93,0.33
-8.410156,-0.0020582716,0.0015056375,-0.014097757,0.22,0.93,0.33,28576,10120.10,0,0,3,0.00,-0.70,0.49,0.22,0.93,0.33
-7.4101562,-0.0020582716,-4.9436186E-4,-0.011097757,0.22,0.93,0.33,28591,10121.10,0,0,3,0.00,-0.84,0.70,0.22,0.93,0.33
-7.8095703,-0.0020582716,-0.006494362,-0.0060977573,0.21,0.93,0.33,28620,10120.70,0,0,3,0.00,-1.26,1.05,0.21,0.93,0.33
-8.410156,-5.8271457E-5,-0.015494363,-0.004097756,0.21,0.93,0.33,28635,10120.10,0,0,3,0.14,-1.89,1.19,0.21,0.93,0.33
-6.4101562,-0.0010582715,-0.018494362,-0.0070977565,0.21,0.93,0.33,28658,10122.10,0,0,3,0.07,-2.10,0.98,0.21,0.93,0.33
-7.109375,-0.0020582716,-0.018494362,-0.005097756,0.21,0.93,0.33,28681,10121.40,0,0,3,0.00,-2.10,1.12,0.21,0.93,0.33
-8.410156,-0.0020582716,-0.019494364,-0.004097756,0.21,0.93,0.33,28703,10120.10,0,0,3,0.00,-2.17,1.19,0.21,0.93,0.33
-8.109375,-0.0020582716,-0.016494364,-0.0060977573,0.21,0.93,0.33,28732,10120.40,0,0,3,0.00,-1.96,1.05,0.21,0.93,0.33
-8.80957,-0.0030582715,-0.012494361,-0.008097757,0.21,0.93,0.33,28748,10119.70,0,0,3,-0.07,-1.68,0.91,0.21,0.93,0.33
-7.4101562,-0.006058272,-0.010494363,-0.009097758,0.21,0.93,0.33,28770,10121.10,0,0,3,-0.28,-1.54,0.84,0.21,0.93,0.33
-8.410156,-0.007058271,-0.015494363,-0.008097757,0.21,0.93,0.33,28785,10120.10,0,0,3,-0.35,-1.89,0.91,0.21,0.93,0.33
-7.4101562,-0.0030582715,-0.019494364,-0.004097756,0.21,0.94,0.32,28799,10121.10,0,0,3,-0.07,-2.17,1.19,0.21,0.94,0.32
-12.109375,0.007941728,-0.014494363,0.005902244,0.21,0.93,0.33,28815,10116.40,0,0,3,0.70,-1.82,1.89,0.21,0.93,0.33
-8.109375,0.0069417283,-0.010494363,0.006902244,0.2,0.94,0.33,28837,10120.40,0,0,3,0.63,-1.54,1.96,0.20,0.94,0.33
-8.109375,0.0029417283,-0.0054943636,-0.011097757,0.2,0.94,0.33,28860,10120.40,0,0,3,0.35,-1.19,0.70,0.20,0.94,0.33
-7.109375,-5.8271457E-5,0.0025056377,-0.020097757,0.21,0.93,0.33,28898,10121.40,0,0,3,0.14,-0.63,0.07,0.21,0.93,0.33
-13.509766,-0.0050582713,-0.001494363,-0.016097758,0.22,0.93,0.32,28905,10115.00,0,0,3,-0.21,-0.91,0.35,0.22,0.93,0.32
-8.109375,-0.006058272,-0.012494361,-0.005097756,0.22,0.93,0.32,28920,10120.40,0,0,3,-0.28,-1.68,1.12,0.22,0.93,0.32
-9.109375,-0.0030582715,-0.021494363,0.005902244,0.21,0.93,0.33,28943,10119.40,0,0,3,-0.07,-2.31,1.89,0.21,0.93,0.33
-6.109375,-0.007058271,-0.019494364,0.0039022435,0.21,0.92,0.33,28966,10122.40,0,0,3,-0.35,-2.17,1.75,0.21,0.92,0.33
-7.109375,-0.012058271,-0.007494364,-9.7757205E-5,0.21,0.93,0.33,28987,10121.40,0,0,3,-0.70,-1.33,1.47,0.21,0.93,0.33
-8.109375,-0.013058271,-0.0054943636,-0.0060977573,0.21,0.94,0.33,29009,10120.40,0,0,3,-0.77,-1.19,1.05,0.21,0.94,0.33
-8.410156,-0.008058271,0.0015056375,-0.005097756,0.21,0.94,0.33,29041,10120.10,0,0,3,-0.42,-0.70,1.12,0.21,0.94,0.33
-7.8095703,-0.0040582716,0.003505637,-0.011097757,0.21,0.93,0.33,29062,10120.70,0,0,3,-0.14,-0.56,0.70,0.21,0.93,0.33
-8.410156,-0.007058271,0.0025056377,-0.014097757,0.21,0.93,0.33,29064,10120.10,0,0,3,-0.35,-0.63,0.49,0.21,0.93,0.33
-7.8095703,-0.007058271,0.004505637,-0.011097757,0.21,0.93,0.33,29092,10120.70,0,0,3,-0.35,-0.49,0.70,0.21,0.93,0.33
-13.509766,-0.0050582713,-4.9436186E-4,-0.013097757,0.21,0.93,0.33,29100,10115.00,0,0,3,-0.21,-0.84,0.56,0.21,0.93,0.33
-8.410156,9.4172824E-4,-0.0044943634,-0.011097757,0.21,0.93,0.33,29122,10120.10,0,0,3,0.21,-1.12,0.70,0.21,0.93,0.33
-8.80957,-0.0010582715,-0.008494362,-0.012097757,0.21,0.93,0.33,29145,10119.70,0,0,3,0.07,-1.40,0.63,0.21,0.93,0.33
-7.109375,9.4172824E-4,-0.0054943636,-0.009097758,0.21,0.93,0.33,29160,10121.40,0,0,3,0.21,-1.19,0.84,0.21,0.93,0.33
-8.410156,-0.0020582716,-0.0044943634,-0.011097757,0.21,0.93,0.33,29189,10120.10,0,0,3,0.00,-1.12,0.70,0.21,0.93,0.33
-8.109375,-0.0020582716,-0.002494363,-0.0070977565,0.2,0.93,0.33,29197,10120.40,0,0,3,0.00,-0.98,0.98,0.20,0.93,0.33
-7.109375,-0.0020582716,-0.001494363,-0.010097757,0.2,0.93,0.33,29212,10121.40,0,0,3,0.00,-0.91,0.77,0.20,0.93,0.33
-8.410156,0.0019417286,0.004505637,-0.010097757,0.21,0.93,0.33,29234,10120.10,0,0,3,0.28,-0.49,0.77,0.21,0.93,0.33
-8.109375,-0.0010582715,0.0025056377,-0.013097757,0.21,0.93,0.33,29264,10120.40,0,0,3,0.07,-0.63,0.56,0.21,0.93,0.33
-8.410156,-0.0020582716,0.0025056377,-0.0010977574,0.21,0.93,0.33,29266,10120.10,0,0,3,0.00,-0.63,1.40,0.21,0.93,0.33
-6.709961,0.0029417283,-4.9436186E-4,0.0029022414,0.22,0.93,0.33,29280,10121.80,0,0,3,0.35,-0.84,1.68,0.22,0.93,0.33
-7.109375,0.005941729,-4.9436186E-4,0.010902245,0.22,0.93,0.33,29294,10121.40,0,0,3,0.56,-0.84,2.24,0.22,0.93,0.33
-6.709961,0.0019417286,-0.001494363,0.012902245,0.21,0.93,0.33,29309,10121.80,0,0,3,0.28,-0.91,2.38,0.21,0.93,0.33
-7.109375,0.003941728,-0.001494363,0.0029022414,0.2,0.94,0.33,29325,10121.40,0,0,3,0.42,-0.91,1.68,0.20,0.94,0.33
-8.109375,0.004941729,-4.9436186E-4,-0.010097757,0.21,0.93,0.33,29340,10120.40,0,0,3,0.49,-0.84,0.77,0.21,0.93,0.33
-10.410156,0.0029417283,-4.9436186E-4,-0.017097756,0.21,0.93,0.33,29356,10118.10,0,0,3,0.35,-0.84,0.28,0.21,0.93,0.33
-8.109375,0.0019417286,-4.9436186E-4,-0.013097757,0.22,0.93,0.33,29385,10120.40,0,0,3,0.28,-0.84,0.56,0.22,0.93,0.33
-7.8095703,9.4172824E-4,-0.007494364,-0.009097758,0.22,0.93,0.33,29392,10120.70,0,0,3,0.21,-1.33,0.84,0.22,0.93,0.33
-3.0097656,0.0019417286,-0.014494363,9.0224296E-4,0.21,0.93,0.33,29408,10125.50,0,0,3,0.28,-1.82,1.54,0.21,0.93,0.33
-8.109375,0.0019417286,-0.021494363,0.0019022431,0.21,0.93,0.33,29430,10120.40,0,0,3,0.28,-2.31,1.61,0.21,0.93,0.33
-9.109375,0.0019417286,-0.018494362,-9.7757205E-5,0.21,0.93,0.33,29445,10119.40,0,0,3,0.28,-2.10,1.47,0.21,0.93,0.33
-8.109375,-0.0010582715,-0.016494364,-0.004097756,0.21,0.93,0.33,29452,10120.40,0,0,3,0.07,-1.96,1.19,0.21,0.93,0.33
-9.109375,-0.25705826,-0.009494362,-0.0030977577,0.21,0.93,0.33,29475,10119.40,0,0,3,-17.85,-1.47,1.26,0.21,0.93,0.33
-8.410156,-0.0020582716,-0.006494362,9.0224296E-4,0.21,0.94,0.33,29507,10120.10,0,0,3,0.00,-1.26,1.54,0.21,0.94,0.33
-7.109375,0.0019417286,-0.006494362,-0.0060977573,0.2,0.94,0.32,29508,10121.40,0,0,3,0.28,-1.26,1.05,0.20,0.94,0.32
-8.109375,0.0019417286,-0.0034943623,-0.0070977565,0.21,0.93,0.32,29527,10120.40,0,0,3,0.28,-1.05,0.98,0.21,0.93,0.32
-11.109375,-0.0020582716,-0.0044943634,-0.013097757,0.21,0.93,0.32,29535,10117.40,0,0,3,0.00,-1.12,0.56,0.21,0.93,0.32
-8.109375,-0.0040582716,-0.006494362,-0.008097757,0.21,0.93,0.33,29551,10120.40,0,0,3,-0.14,-1.26,0.91,0.21,0.93,0.33
-8.109375,-0.0050582713,-0.015494363,-0.009097758,0.21,0.93,0.32,29574,10120.40,0,0,3,-0.21,-1.89,0.84,0.21,0.93,0.32
-7.8095703,9.4172824E-4,-0.019494364,-0.008097757,0.21,0.93,0.33,29588,10120.70,0,0,3,0.21,-2.17,0.91,0.21,0.93,0.33
-7.8095703,0.003941728,-0.021494363,-0.008097757,0.21,0.93,0.33,29602,10120.70,0,0,3,0.42,-2.31,0.91,0.21,0.93,0.33
-9.109375,0.0019417286,-0.017494362,-0.008097757,0.21,0.93,0.33,29617,10119.40,0,0,3,0.28,-2.03,0.91,0.21,0.93,0.33
-8.109375,-0.0030582715,-0.011494363,-0.004097756,0.21,0.92,0.33,29632,10120.40,0,0,3,-0.07,-1.61,1.19,0.21,0.92,0.33
-7.4101562,-0.007058271,-0.007494364,-0.0020977557,0.21,0.93,0.33,29648,10121.10,0,0,3,-0.35,-1.33,1.33,0.21,0.93,0.33
-11.109375,-0.009058272,-0.001494363,-9.7757205E-5,0.21,0.93,0.33,29677,10117.40,0,0,3,-0.49,-0.91,1.47,0.21,0.93,0.33
-8.109375,-0.007058271,5.056374E-4,-0.0060977573,0.21,0.94,0.32,29692,10120.40,0,0,3,-0.35,-0.77,1.05,0.21,0.94,0.32
-9.80957,0.25194174,5.056374E-4,-0.014097757,0.21,0.93,0.33,29700,10118.70,0,0,3,17.78,-0.77,0.49,0.21,0.93,0.33
-7.8095703,-0.0030582715,-0.002494363,-0.015097758,0.21,0.93,0.33,29715,10120.70,0,0,3,-0.07,-0.98,0.42,0.21,0.93,0.33
-7.8095703,-0.0050582713,-0.007494364,-0.008097757,0.21,0.93,0.32,29739,10120.70,0,0,3,-0.21,-1.33,0.91,0.21,0.93,0.32
-7.4101562,-0.0050582713,-0.012494361,0.0019022431,0.21,0.93,0.32,29745,10121.10,0,0,3,-0.21,-1.68,1.61,0.21,0.93,0.32
-6.709961,-0.0020582716,-0.016494364,0.010902245,0.21,0.93,0.33,29776,10121.80,0,0,3,0.00,-1.96,2.24,0.21,0.93,0.33
-6.4101562,-0.0040582716,-0.017494362,0.009902244,0.2,0.94,0.33,29782,10122.10,0,0,3,-0.14,-2.03,2.17,0.20,0.94,0.33
-9.80957,-0.0040582716,-0.011494363,-0.004097756,0.2,0.93,0.33,29797,10118.70,0,0,3,-0.14,-1.61,1.19,0.20,0.93,0.33
-8.109375,-0.0010582715,-4.9436186E-4,-0.012097757,0.2,0.93,0.33,29820,10120.40,0,0,3,0.07,-0.84,0.63,0.20,0.93,0.33
-7.8095703,-0.008058271,0.004505637,-0.016097758,0.21,0.93,0.32,29836,10120.70,0,0,3,-0.42,-0.49,0.35,0.21,0.93,0.32
-8.410156,-0.007058271,0.010505637,-0.008097757,0.22,0.93,0.32,29850,10120.10,0,0,3,-0.35,-0.07,0.91,0.22,0.93,0.32
-7.8095703,-0.009058272,0.0015056375,0.0019022431,0.22,0.93,0.33,29872,10120.70,0,0,3,-0.49,-0.70,1.61,0.22,0.93,0.33
-13.80957,-0.007058271,-0.006494362,0.010902245,0.21,0.93,0.33,29876,10114.70,0,0,3,-0.35,-1.26,2.24,0.21,0.93,0.33
-7.8095703,-0.011058271,-0.012494361,0.0149022415,0.21,0.93,0.33,29895,10120.70,0,0,3,-0.63,-1.68,2.52,0.21,0.93,0.33
-8.109375,-0.011058271,-0.013494363,0.011902243,0.21,0.93,0.33,29910,10120.40,0,0,3,-0.63,-1.75,2.31,0.21,0.93,0.33
-6.109375,-0.015058272,-0.007494364,0.007902242,0.21,0.93,0.33,29942,10122.40,0,0,3,-0.91,-1.33,2.03,0.21,0.93,0.33
-8.80957,-0.009058272,-0.001494363,0.0039022435,0.21,0.94,0.33,29943,10119.70,0,0,3,-0.49,-0.91,1.75,0.21,0.94,0.33
-7.8095703,-0.0010582715,0.0065056374,-0.0070977565,0.21,0.94,0.32,29962,10120.70,0,0,3,0.07,-0.35,0.98,0.21,0.94,0.32
-7.8095703,0.003941728,0.010505637,-0.016097758,0.21,0.93,0.33,29977,10120.70,0,0,3,0.42,-0.07,0.35,0.21,0.93,0.33
-10.80957,9.4172824E-4,0.0055056377,-0.022097757,0.21,0.93,0.32,29992,10117.70,0,0,3,0.21,-0.42,-0.07,0.21,0.93,0.32
-7.8095703,-0.0040582716,5.056374E-4,-0.021097757,0.22,0.93,0.33,30030,10120.70,0,0,3,-0.14,-0.77,0.00,0.22,0.93,0.33
-8.80957,-0.011058271,-0.0054943636,-0.011097757,0.22,0.92,0.33,30031,10119.70,0,0,3,-0.63,-1.19,0.70,0.22,0.92,0.33
-7.8095703,-0.0140582705,-0.009494362,-0.0010977574,0.22,0.92,0.33,30045,10120.70,0,0,3,-0.84,-1.47,1.40,0.22,0.92,0.33
-9.109375,-0.0140582705,-0.013494363,0.0049022436,0.21,0.93,0.33,30068,10119.40,0,0,3,-0.84,-1.75,1.82,0.21,0.93,0.33
-9.80957,-0.016058272,-0.015494363,0.0029022414,0.21,0.93,0.33,30075,10118.70,0,0,3,-0.98,-1.89,1.68,0.21,0.93,0.33
-8.80957,-0.012058271,-0.009494362,0.005902244,0.21,0.93,0.33,30098,10119.70,0,0,3,-0.70,-1.47,1.89,0.21,0.93,0.33
-9.80957,-0.008058271,-0.0054943636,-0.004097756,0.21,0.93,0.33,30120,10118.70,0,0,3,-0.42,-1.19,1.19,0.21,0.93,0.33
-8.109375,-0.010058272,-0.0034943623,-0.008097757,0.21,0.93,0.33,30143,10120.40,0,0,3,-0.56,-1.05,0.91,0.21,0.93,0.33
-8.109375,-0.009058272,-0.0054943636,-0.008097757,0.21,0.92,0.33,30165,10120.40,0,0,3,-0.49,-1.19,0.91,0.21,0.92,0.33
-8.80957,-0.0140582705,-0.011494363,-0.0060977573,0.21,0.93,0.33,30195,10119.70,0,0,3,-0.84,-1.61,1.05,0.21,0.93,0.33
-7.8095703,-0.009058272,-0.008494362,0.010902245,0.22,0.93,0.33,30210,10120.70,0,0,3,-0.49,-1.40,2.24,0.22,0.93,0.33
-2.709961,-0.006058272,-0.010494363,0.017902244,0.22,0.93,0.33,30232,10125.80,0,0,3,-0.28,-1.54,2.73,0.22,0.93,0.33
-8.80957,-0.007058271,-0.014494363,0.015902244,0.21,0.94,0.33,30247,10119.70,0,0,3,-0.35,-1.82,2.59,0.21,0.94,0.33
-6.709961,-0.0050582713,-0.015494363,-0.0010977574,0.21,0.94,0.33,30262,10121.80,0,0,3,-0.21,-1.89,1.40,0.21,0.94,0.33
-7.8095703,-0.0030582715,-0.017494362,-0.013097757,0.21,0.93,0.33,30277,10120.70,0,0,3,-0.07,-2.03,0.56,0.21,0.93,0.33
-8.80957,-0.0020582716,-0.012494361,-0.018097756,0.22,0.93,0.33,30299,10119.70,0,0,3,0.00,-1.68,0.21,0.22,0.93,0.33
-8.80957,-0.006058272,-0.010494363,-0.015097758,0.22,0.93,0.33,30323,10119.70,0,0,3,-0.28,-1.54,0.42,0.22,0.93,0.33
-8.410156,-0.007058271,-0.021494363,-0.0030977577,0.22,0.92,0.33,30338,10120.10,0,0,3,-0.35,-2.31,1.26,0.22,0.92,0.33
-8.80957,-0.009058272,-0.030494362,0.0049022436,0.22,0.93,0.33,30361,10119.70,0,0,3,-0.49,-2.94,1.82,0.22,0.93,0.33
-8.80957,-0.010058272,-0.026494365,0.005902244,0.22,0.92,0.34,30383,10119.70,0,0,3,-0.56,-2.66,1.89,0.22,0.92,0.34
-6.709961,-0.008058271,-0.013494363,0.0019022431,0.21,0.93,0.33,30397,10121.80,0,0,3,-0.42,-1.75,1.61,0.21,0.93,0.33
-6.109375,0.25194174,-0.007494364,-0.004097756,0.22,0.94,0.33,30420,10122.40,0,0,3,17.78,-1.33,1.19,0.22,0.94,0.33
-7.4101562,9.4172824E-4,-0.0034943623,-0.012097757,0.22,0.93,0.33,30450,10121.10,0,0,3,0.21,-1.05,0.63,0.22,0.93,0.33
-10.109375,-0.0020582716,-0.0054943636,-0.016097758,0.22,0.93,0.33,30464,10118.40,0,0,3,0.00,-1.19,0.35,0.22,0.93,0.33
-7.8095703,9.4172824E-4,-0.007494364,-0.0060977573,0.22,0.93,0.33,30487,10120.70,0,0,3,0.21,-1.33,1.05,0.22,0.93,0.33
-8.80957,0.0019417286,-0.014494363,-0.004097756,0.22,0.93,0.33,30509,10119.70,0,0,3,0.28,-1.82,1.19,0.22,0.93,0.33
-8.80957,9.4172824E-4,-0.017494362,-0.0070977565,0.22,0.93,0.33,30532,10119.70,0,0,3,0.21,-2.03,0.98,0.22,0.93,0.33
-8.109375,0.0019417286,-0.011494363,-0.005097756,0.22,0.93,0.33,30540,10120.40,0,0,3,0.28,-1.61,1.12,0.22,0.93,0.33
-7.109375,-0.0030582715,-0.006494362,-0.0070977565,0.22,0.93,0.33,30554,10121.40,0,0,3,-0.07,-1.26,0.98,0.22,0.93,0.33
-8.80957,-0.0010582715,-0.0044943634,-0.0070977565,0.21,0.93,0.33,30579,10119.70,0,0,3,0.07,-1.12,0.98,0.21,0.93,0.33
-7.4101562,-0.0020582716,-0.0044943634,-0.014097757,0.21,0.93,0.33,30592,10121.10,0,0,3,0.00,-1.12,0.49,0.21,0.93,0.33
-8.109375,-0.0050582713,-0.001494363,-0.019097757,0.21,0.93,0.33,30630,10120.40,0,0,3,-0.21,-0.91,0.14,0.21,0.93,0.33
-10.509766,-0.010058272,-0.001494363,-0.014097757,0.22,0.92,0.33,30637,10118.00,0,0,3,-0.56,-0.91,0.49,0.22,0.92,0.33
-8.410156,-0.016058272,-0.008494362,-0.004097756,0.22,0.93,0.33,30660,10120.10,0,0,3,-0.98,-1.40,1.19,0.22,0.93,0.33
-8.80957,-0.006058272,-0.013494363,0.0049022436,0.22,0.93,0.33,30682,10119.70,0,0,3,-0.28,-1.75,1.82,0.22,0.93,0.33
-7.8095703,-5.8271457E-5,-0.016494364,0.0039022435,0.21,0.94,0.33,30705,10120.70,0,0,3,0.14,-1.96,1.75,0.21,0.94,0.33
-8.80957,0.003941728,-0.009494362,-0.011097757,0.21,0.94,0.33,30735,10119.70,0,0,3,0.42,-1.47,0.70,0.21,0.94,0.33
-8.410156,-5.8271457E-5,5.056374E-4,-0.027097756,0.21,0.92,0.33,30749,10120.10,0,0,3,0.14,-0.77,-0.42,0.21,0.92,0.33
-7.4101562,-0.0040582716,0.008505638,-0.027097756,0.22,0.93,0.33,30765,10121.10,0,0,3,-0.14,-0.21,-0.42,0.22,0.93,0.33
-7.8095703,-0.009058272,0.0065056374,-0.018097756,0.22,0.92,0.33,30780,10120.70,0,0,3,-0.49,-0.35,0.21,0.22,0.92,0.33
-7.4101562,-0.010058272,-4.9436186E-4,-0.009097758,0.22,0.92,0.33,30794,10121.10,0,0,3,-0.56,-0.84,0.84,0.22,0.92,0.33
-6.8095703,-0.009058272,-0.012494361,-0.0070977565,0.21,0.92,0.33,30809,10121.70,0,0,3,-0.49,-1.68,0.98,0.21,0.92,0.33
-7.8095703,-0.009058272,-0.017494362,-0.0010977574,0.21,0.93,0.33,30832,10120.70,0,0,3,-0.49,-2.03,1.40,0.21,0.93,0.33
-7.4101562,-0.010058272,-0.013494363,-0.005097756,0.22,0.93,0.33,30847,10121.10,0,0,3,-0.56,-1.75,1.12,0.22,0.93,0.33
-9.80957,-0.009058272,-0.008494362,-0.011097757,0.21,0.93,0.34,30870,10118.70,0,0,3,-0.49,-1.40,0.70,0.21,0.93,0.34
-8.410156,-0.0020582716,-0.007494364,-0.013097757,0.21,0.93,0.33,30893,10120.10,0,0,3,0.00,-1.33,0.56,0.21,0.93,0.33
-8.410156,0.0019417286,-0.0044943634,-0.017097756,0.21,0.93,0.33,30914,10120.10,0,0,3,0.28,-1.12,0.28,0.21,0.93,0.33
-8.80957,-0.0010582715,-0.0054943636,-0.019097757,0.21,0.93,0.33,30937,10119.70,0,0,3,0.07,-1.19,0.14,0.21,0.93,0.33
-8.410156,-0.0020582716,5.056374E-4,-0.013097757,0.21,0.93,0.33,30960,10120.10,0,0,3,0.00,-0.77,0.56,0.21,0.93,0.33
-8.410156,-0.0040582716,-0.006494362,-0.010097757,0.22,0.92,0.33,30974,10120.10,0,0,3,-0.14,-1.26,0.77,0.22,0.92,0.33
-8.410156,-0.0040582716,-0.009494362,-0.004097756,0.21,0.93,0.33,30997,10120.10,0,0,3,-0.14,-1.47,1.19,0.21,0.93,0.33
-8.109375,-0.0050582713,-0.017494362,-0.0060977573,0.21,0.93,0.33,31012,10120.40,0,0,3,-0.21,-2.03,1.05,0.21,0.93,0.33
-5.4101562,9.4172824E-4,-0.016494364,-0.0030977577,0.21,0.93,0.33,31027,10123.10,0,0,3,0.21,-1.96,1.26,0.21,0.93,0.33
-8.410156,0.0019417286,-0.011494363,-0.0030977577,0.21,0.93,0.33,31043,10120.10,0,0,3,0.28,-1.61,1.26,0.21,0.93,0.33
-8.80957,-5.8271457E-5,-0.009494362,-0.004097756,0.21,0.93,0.33,31065,10119.70,0,0,3,0.14,-1.47,1.19,0.21,0.93,0.33
-8.410156,-0.0010582715,-0.0044943634,-0.005097756,0.21,0.93,0.33,31072,10120.10,0,0,3,0.07,-1.12,1.12,0.21,0.93,0.33
-7.4101562,-0.0050582713,-0.007494364,-0.0060977573,0.21,0.92,0.33,31095,10121.10,0,0,3,-0.21,-1.33,1.05,0.21,0.92,0.33
-7.4101562,-0.0050582713,-0.015494363,-0.009097758,0.22,0.93,0.33,31125,10121.10,0,0,3,-0.21,-1.89,0.84,0.22,0.93,0.33
-9.80957,-5.8271457E-5,-0.016494364,0.0019022431,0.22,0.93,0.33,31144,10118.70,0,0,3,0.14,-1.96,1.61,0.22,0.93,0.33
-9.80957,9.4172824E-4,-0.015494363,0.008902242,0.21,0.93,0.33,31162,10118.70,0,0,3,0.21,-1.89,2.10,0.21,0.93,0.33
-7.4101562,-0.0030582715,-0.012494361,0.0039022435,0.21,0.94,0.32,31185,10121.10,0,0,3,-0.07,-1.68,1.75,0.21,0.94,0.32
-8.109375,-0.0050582713,-0.006494362,-0.011097757,0.21,0.93,0.33,31208,10120.40,0,0,3,-0.21,-1.26,0.70,0.21,0.93,0.33
-7.4101562,-0.012058271,-0.001494363,-0.014097757,0.22,0.93,0.33,31237,10121.10,0,0,3,-0.70,-0.91,0.49,0.22,0.93,0.33
-9.509766,-0.016058272,-0.002494363,-0.005097756,0.22,0.93,0.33,31245,10119.00,0,0,3,-0.98,-0.98,1.12,0.22,0.93,0.33
-8.80957,-0.016058272,-0.008494362,0.005902244,0.22,0.93,0.32,31259,10119.70,0,0,3,-0.98,-1.40,1.89,0.22,0.93,0.32
-6.4101562,-0.016058272,-0.019494364,0.009902244,0.22,0.93,0.33,31276,10122.10,0,0,3,-0.98,-2.17,2.17,0.22,0.93,0.33
-9.509766,-0.0140582705,-0.023494363,0.009902244,0.22,0.93,0.33,31290,10119.00,0,0,3,-0.84,-2.45,2.17,0.22,0.93,0.33
-8.410156,-0.017058272,-0.023494363,0.005902244,0.22,0.93,0.34,31312,10120.10,0,0,3,-1.05,-2.45,1.89,0.22,0.93,0.34
-8.410156,-0.021058273,-0.015494363,0.0049022436,0.21,0.93,0.33,31327,10120.10,0,0,3,-1.33,-1.89,1.82,0.21,0.93,0.33
-8.410156,-0.013058271,-0.009494362,-0.0020977557,0.21,0.94,0.33,31350,10120.10,0,0,3,-0.77,-1.47,1.33,0.21,0.94,0.33
-8.410156,-0.008058271,-0.007494364,-0.013097757,0.21,0.93,0.33,31365,10120.10,0,0,3,-0.42,-1.33,0.56,0.21,0.93,0.33
-8.80957,-0.011058271,-0.001494363,-0.016097758,0.22,0.93,0.33,31387,10119.70,0,0,3,-0.63,-0.91,0.35,0.22,0.93,0.33
-9.509766,-0.0140582705,0.0025056377,-0.004097756,0.22,0.93,0.33,31417,10119.00,0,0,3,-0.84,-0.63,1.19,0.22,0.93,0.33
-8.410156,-0.013058271,-0.007494364,-9.7757205E-5,0.22,0.93,0.33,31432,10120.10,0,0,3,-0.77,-1.33,1.47,0.22,0.93,0.33
-8.80957,-0.011058271,-0.013494363,-9.7757205E-5,0.22,0.93,0.33,31456,10119.70,0,0,3,-0.63,-1.75,1.47,0.22,0.93,0.33
-9.109375,-0.013058271,-0.010494363,0.006902244,0.22,0.93,0.33,31478,10119.40,0,0,3,-0.77,-1.54,1.96,0.22,0.93,0.33
-8.109375,-0.016058272,-0.0054943636,0.008902242,0.21,0.93,0.33,31508,10120.40,0,0,3,-0.98,-1.19,2.10,0.21,0.93,0.33
-8.410156,-0.015058272,-0.0034943623,0.0019022431,0.21,0.93,0.34,31515,10120.10,0,0,3,-0.91,-1.05,1.61,0.21,0.93,0.34
-9.509766,-0.013058271,-0.0034943623,-0.0010977574,0.21,0.93,0.34,31537,10119.00,0,0,3,-0.77,-1.05,1.40,0.21,0.93,0.34
-13.509766,-0.012058271,-0.001494363,-0.011097757,0.22,0.93,0.33,31552,10115.00,0,0,3,-0.70,-0.91,0.70,0.22,0.93,0.33
-9.509766,-0.015058272,-4.9436186E-4,-0.016097758,0.22,0.92,0.33,31560,10119.00,0,0,3,-0.91,-0.84,0.35,0.22,0.92,0.33
-8.109375,-0.019058272,-0.0044943634,-0.020097757,0.22,0.92,0.34,31582,10120.40,0,0,3,-1.19,-1.12,0.07,0.22,0.92,0.34
-8.410156,-0.021058273,-0.013494363,-0.009097758,0.22,0.92,0.33,31597,10120.10,0,0,3,-1.33,-1.75,0.84,0.22,0.92,0.33
-8.109375,-0.012058271,-0.018494362,0.0049022436,0.22,0.92,0.34,31619,10120.40,0,0,3,-0.70,-2.10,1.82,0.22,0.92,0.34
-6.8095703,-0.011058271,-0.015494363,0.0049022436,0.21,0.93,0.34,31643,10121.70,0,0,3,-0.63,-1.89,1.82,0.21,0.93,0.34
-9.109375,-0.013058271,-0.011494363,-0.008097757,0.21,0.92,0.34,31665,10119.40,0,0,3,-0.77,-1.61,0.91,0.21,0.92,0.34
-8.80957,-0.019058272,-0.006494362,-0.016097758,0.22,0.92,0.34,31695,10119.70,0,0,3,-1.19,-1.26,0.35,0.22,0.92,0.34
-8.109375,-0.02005827,-0.002494363,-0.0070977565,0.23,0.92,0.35,31718,10120.40,0,0,3,-1.26,-0.98,0.98,0.23,0.92,0.35
-9.109375,-0.0140582705,-0.009494362,0.0039022435,0.22,0.93,0.34,31733,10119.40,0,0,3,-0.84,-1.47,1.75,0.22,0.93,0.34
-9.109375,-0.006058272,-0.015494363,0.005902244,0.22,0.93,0.34,31747,10119.40,0,0,3,-0.28,-1.89,1.89,0.22,0.93,0.34
-7.109375,-0.0020582716,-0.009494362,-0.005097756,0.22,0.92,0.35,31769,10121.40,0,0,3,0.00,-1.47,1.12,0.22,0.92,0.35
-12.509766,0.0019417286,-0.007494364,-0.014097757,0.22,0.93,0.35,31785,10116.00,0,0,3,0.28,-1.33,0.49,0.22,0.93,0.35
-8.410156,0.009941728,-0.0044943634,-0.015097758,0.22,0.93,0.34,31808,10120.10,0,0,3,0.84,-1.12,0.42,0.22,0.93,0.34
-8.410156,0.018941728,-0.008494362,-0.018097756,0.22,0.93,0.34,31822,10120.10,0,0,3,1.47,-1.40,0.21,0.22,0.93,0.34
-8.109375,0.02394173,-0.009494362,-0.022097757,0.22,0.92,0.34,31845,10120.40,0,0,3,1.82,-1.47,-0.07,0.22,0.92,0.34
-8.109375,0.02394173,-0.006494362,-0.015097758,0.22,0.92,0.34,31867,10120.40,0,0,3,1.82,-1.26,0.42,0.22,0.92,0.34
-9.109375,0.021941727,-0.001494363,-0.012097757,0.22,0.92,0.33,31882,10119.40,0,0,3,1.68,-0.91,0.63,0.22,0.92,0.33
-7.8095703,0.020941729,-0.002494363,-0.009097758,0.22,0.92,0.33,31912,10120.70,0,0,3,1.61,-0.98,0.84,0.22,0.92,0.33
-8.109375,0.019941729,-0.0034943623,-0.009097758,0.22,0.92,0.33,31927,10120.40,0,0,3,1.54,-1.05,0.84,0.22,0.92,0.33
-9.109375,0.018941728,-0.001494363,-0.005097756,0.22,0.92,0.33,31958,10119.40,0,0,3,1.47,-0.91,1.12,0.22,0.92,0.33
-7.4101562,0.012941728,-4.9436186E-4,0.0019022431,0.21,0.92,0.33,31975,10121.10,0,0,3,1.05,-0.84,1.61,0.21,0.92,0.33
-13.209961,0.007941728,0.0025056377,-0.0010977574,0.22,0.93,0.33,31995,10115.30,0,0,3,0.70,-0.63,1.40,0.22,0.93,0.33
-8.410156,0.0029417283,0.0065056374,-0.009097758,0.22,0.93,0.33,32017,10120.10,0,0,3,0.35,-0.35,0.84,0.22,0.93,0.33
-8.509766,0.0029417283,0.007505637,-0.015097758,0.22,0.92,0.33,32047,10120.00,0,0,3,0.35,-0.28,0.42,0.22,0.92,0.33
-8.109375,-0.0050582713,-0.001494363,-0.017097756,0.22,0.93,0.33,32055,10120.40,0,0,3,-0.21,-0.91,0.28,0.22,0.93,0.33
-9.109375,-0.0020582716,-0.0044943634,-0.009097758,0.22,0.92,0.33,32070,10119.40,0,0,3,0.00,-1.12,0.84,0.22,0.92,0.33
-9.109375,0.0019417286,-0.013494363,-0.0020977557,0.22,0.92,0.33,32093,10119.40,0,0,3,0.28,-1.75,1.33,0.22,0.92,0.33
-9.109375,-0.0030582715,-0.017494362,-9.7757205E-5,0.21,0.93,0.33,32115,10119.40,0,0,3,-0.07,-2.03,1.47,0.21,0.93,0.33
-5.709961,-0.0030582715,-0.011494363,-0.010097757,0.21,0.92,0.33,32129,10122.80,0,0,3,-0.07,-1.61,0.77,0.21,0.92,0.33
-9.109375,-0.008058271,0.003505637,-0.015097758,0.22,0.92,0.34,32152,10119.40,0,0,3,-0.42,-0.56,0.42,0.22,0.92,0.34
-8.109375,-0.017058272,0.008505638,-0.009097758,0.22,0.93,0.33,32175,10120.40,0,0,3,-1.05,-0.21,0.84,0.22,0.93,0.33
-8.109375,-0.013058271,5.056374E-4,-0.005097756,0.22,0.93,0.33,32197,10120.40,0,0,3,-0.77,-0.77,1.12,0.22,0.93,0.33
-8.109375,-0.012058271,-0.010494363,-0.0030977577,0.22,0.93,0.33,32220,10120.40,0,0,3,-0.70,-1.54,1.26,0.22,0.93,0.33
-10.509766,-0.013058271,-0.015494363,-0.009097758,0.22,0.92,0.34,32242,10118.00,0,0,3,-0.77,-1.89,0.84,0.22,0.92,0.34
-7.109375,-0.016058272,-0.016494364,-0.005097756,0.22,0.92,0.33,32265,10121.40,106,93,3,-0.98,-1.96,1.12,0.22,0.92,0.33
-7.109375,-0.0140582705,-0.016494364,-0.004097756,0.22,0.93,0.34,32279,10121.40,106,93,3,-0.84,-1.96,1.19,0.22,0.93,0.34
-12.109375,-0.010058272,-0.015494363,-0.008097757,0.21,0.93,0.34,32303,10116.40,106,93,3,-0.56,-1.89,0.91,0.21,0.93,0.34
-9.109375,-0.008058271,-0.015494363,-0.016097758,0.22,0.93,0.34,32317,10119.40,106,93,3,-0.42,-1.89,0.35,0.22,0.93,0.34
-9.109375,-0.007058271,-0.010494363,-0.019097757,0.22,0.93,0.34,32340,10119.40,106,93,3,-0.35,-1.54,0.14,0.22,0.93,0.34
-8.109375,-0.006058272,-0.011494363,-0.023097757,0.22,0.93,0.33,32362,10120.40,106,93,3,-0.28,-1.61,-0.14,0.22,0.93,0.33
-8.109375,-0.0040582716,-0.020494364,-0.019097757,0.22,0.93,0.34,32377,10120.40,106,93,3,-0.14,-2.24,0.14,0.22,0.93,0.34
-12.209961,-0.0040582716,-0.025494363,-0.017097756,0.22,0.92,0.34,32399,10116.30,106,93,3,-0.14,-2.59,0.28,0.22,0.92,0.34
-8.80957,-0.0030582715,-0.027494363,-0.014097757,0.22,0.92,0.33,32423,10119.70,106,93,3,-0.07,-2.73,0.49,0.22,0.92,0.33
-7.8095703,-0.0020582716,-0.028494362,-0.009097758,0.21,0.93,0.34,32445,10120.70,106,93,3,0.00,-2.80,0.84,0.21,0.93,0.34
-8.80957,-0.0020582716,-0.026494365,-0.016097758,0.21,0.93,0.34,32467,10119.70,106,93,3,0.00,-2.66,0.35,0.21,0.93,0.34
-9.109375,-0.0020582716,-0.020494364,-0.021097757,0.21,0.93,0.33,32498,10119.40,106,93,3,0.00,-2.24,0.00,0.21,0.93,0.33
-8.80957,-0.0010582715,-0.015494363,-0.027097756,0.21,0.92,0.34,32512,10119.70,106,93,3,0.07,-1.89,-0.42,0.21,0.92,0.34
-6.8095703,-0.0030582715,-0.022494365,-0.017097756,0.22,0.93,0.33,32534,10121.70,106,93,3,-0.07,-2.38,0.28,0.22,0.93,0.33
-8.109375,0.007941728,-0.024494361,-0.0070977565,0.22,0.93,0.33,32557,10120.40,106,93,3,0.70,-2.52,0.98,0.22,0.93,0.33
-9.109375,0.015941728,-0.022494365,-9.7757205E-5,0.21,0.93,0.34,32572,10119.40,106,93,3,1.26,-2.38,1.47,0.21,0.93,0.34
-5.709961,0.009941728,-0.020494364,-0.005097756,0.21,0.93,0.34,32594,10122.80,106,93,3,0.84,-2.24,1.12,0.21,0.93,0.34
-10.109375,-0.0010582715,-0.018494362,-0.017097756,0.21,0.92,0.33,32617,10118.40,106,93,3,0.07,-2.10,0.28,0.21,0.92,0.33
-9.109375,-0.0040582716,-0.012494361,-0.019097757,0.22,0.93,0.33,32632,10119.40,106,93,3,-0.14,-1.68,0.14,0.22,0.93,0.33
-8.109375,0.005941729,-0.010494363,-0.010097757,0.21,0.94,0.32,32654,10120.40,106,93,3,0.56,-1.54,0.77,0.21,0.94,0.32
-7.8095703,-0.009058272,-0.017494362,-0.005097756,0.22,0.94,0.33,32678,10120.70,106,93,3,-0.49,-2.03,1.12,0.22,0.94,0.33
-3.709961,0.007941728,-0.027494363,-0.012097757,0.21,0.93,0.33,32700,10124.80,106,93,3,0.70,-2.73,0.63,0.21,0.93,0.33
0.9902344,0.007941728,-0.030494362,-0.016097758,0.21,0.94,0.33,32722,10129.50,106,93,3,0.70,-2.94,0.35,0.21,0.94,0.33
2.390625,0.004941729,-0.025494363,-0.010097757,0.22,0.93,0.32,32745,10130.90,106,93,3,0.49,-2.59,0.77,0.22,0.93,0.32
6.390625,0.01694173,-0.030494362,-0.0010977574,0.21,0.93,0.33,32767,10134.90,106,93,3,1.33,-2.94,1.40,0.21,0.93,0.33
5.390625,0.01694173,-0.03649436,-0.0060977573,0.2,0.91,0.34,32790,10133.90,106,93,3,1.33,-3.36,1.05,0.20,0.91,0.34
7.0898438,0.008941729,-0.033494364,-0.0070977565,0.21,0.92,0.34,32804,10135.60,106,93,3,0.77,-3.15,0.98,0.21,0.92,0.34
6.390625,9.4172824E-4,-0.025494363,-0.0060977573,0.21,0.92,0.34,32827,10134.90,106,93,3,0.21,-2.59,1.05,0.21,0.92,0.34
5.0898438,-0.0040582716,-0.018494362,-0.005097756,0.21,0.93,0.34,32842,10133.60,106,93,3,-0.14,-2.10,1.12,0.21,0.93,0.34
5.390625,-0.25705826,-0.010494363,0.0019022431,0.22,0.93,0.33,32873,10133.90,106,93,3,-17.85,-1.54,1.61,0.22,0.93,0.33
4.390625,-0.0010582715,-0.014494363,0.006902244,0.22,0.93,0.33,32902,10132.90,106,93,3,0.07,-1.82,1.96,0.22,0.93,0.33
4.390625,0.0069417283,-0.020494364,0.0049022436,0.22,0.94,0.34,32910,10132.90,106,93,3,0.63,-2.24,1.82,0.22,0.94,0.34
5.6904297,0.01694173,-0.027494363,0.0019022431,0.22,0.93,0.33,32933,10134.20,106,93,3,1.33,-2.73,1.61,0.22,0.93,0.33
4.390625,0.02894173,-0.023494363,-0.0030977577,0.21,0.93,0.33,32947,10132.90,106,93,3,2.17,-2.45,1.26,0.21,0.93,0.33
6.0898438,0.03194173,-0.018494362,-0.008097757,0.21,0.93,0.34,32970,10134.60,106,93,3,2.38,-2.10,0.91,0.21,0.93,0.34
7.390625,0.03194173,-0.011494363,-0.015097758,0.21,0.93,0.34,32992,10135.90,106,93,3,2.38,-1.61,0.42,0.21,0.93,0.34
0.29003906,0.01694173,-0.014494363,-0.015097758,0.21,0.93,0.33,33022,10128.80,106,93,3,1.33,-1.82,0.42,0.21,0.93,0.33
7.790039,0.013941729,-0.011494363,-0.014097757,0.21,0.93,0.33,33037,10136.30,106,93,3,1.12,-1.61,0.49,0.21,0.93,0.33
5.0898438,0.013941729,-0.013494363,-0.014097757,0.21,0.93,0.33,33052,10133.60,106,93,3,1.12,-1.75,0.49,0.21,0.93,0.33
4.390625,0.020941729,-0.018494362,-0.009097758,0.21,0.93,0.33,33067,10132.90,106,93,3,1.61,-2.10,0.84,0.21,0.93,0.33
4.390625,0.022941729,-0.021494363,-0.004097756,0.21,0.94,0.32,33098,10132.90,106,93,3,1.75,-2.31,1.19,0.21,0.94,0.32
4.390625,0.02394173,-0.020494364,-0.0060977573,0.21,0.92,0.32,33112,10132.90,106,93,3,1.82,-2.24,1.05,0.21,0.92,0.32
3.390625,0.013941729,-0.024494361,-0.004097756,0.22,0.92,0.33,33135,10131.90,106,93,3,1.12,-2.52,1.19,0.22,0.92,0.33
5.390625,0.01494173,-0.020494364,0.018902242,0.22,0.93,0.32,33149,10133.90,0,93,3,1.19,-2.24,2.80,0.22,0.93,0.32
2.390625,0.018941728,-0.019494364,0.027902246,0.22,0.93,0.32,33173,10130.90,0,93,3,1.47,-2.17,3.43,0.22,0.93,0.32
3.0898438,0.018941728,-0.016494364,0.022902243,0.22,0.93,0.32,33195,10131.60,0,93,3,1.47,-1.96,3.08,0.22,0.93,0.32
2.390625,0.005941729,-0.010494363,0.015902244,0.23,0.93,0.32,33224,10130.90,0,93,3,0.56,-1.54,2.59,0.23,0.93,0.32
2.390625,0.0019417286,-0.0044943634,0.015902244,0.23,0.93,0.31,33240,10130.90,0,93,3,0.28,-1.12,2.59,0.23,0.93,0.31
1.390625,0.004941729,-0.012494361,0.0149022415,0.23,0.94,0.31,33269,10129.90,0,93,3,0.49,-1.68,2.52,0.23,0.94,0.31
1.390625,0.008941729,-0.023494363,0.0039022435,0.23,0.94,0.31,33285,10129.90,0,93,3,0.77,-2.45,1.75,0.23,0.94,0.31
0.9902344,0.008941729,-0.025494363,-0.004097756,0.23,0.93,0.32,33307,10129.50,0,93,3,0.77,-2.59,1.19,0.23,0.93,0.32
1.390625,0.0029417283,-0.023494363,-0.0070977565,0.23,0.93,0.32,33323,10129.90,0,93,3,0.35,-2.45,0.98,0.23,0.93,0.32
-0.3095703,-0.007058271,-0.022494365,-0.012097757,0.23,0.93,0.32,33330,10128.20,0,93,3,-0.35,-2.38,0.63,0.23,0.93,0.32
0.29003906,-0.010058272,-0.031494364,-0.014097757,0.24,0.93,0.31,33352,10128.80,0,93,3,-0.56,-3.01,0.49,0.24,0.93,0.31
-0.009765625,-0.008058271,-0.040494364,-0.013097757,0.24,0.92,0.31,33374,10128.50,0,93,3,-0.42,-3.64,0.56,0.24,0.92,0.31
-1.7099609,-0.012058271,-0.052494366,-0.009097758,0.24,0.92,0.32,33397,10126.80,0,93,3,-0.70,-4.48,0.84,0.24,0.92,0.32
-0.70996094,-0.018058272,-0.05749436,-0.009097758,0.23,0.92,0.32,33428,10127.80,0,93,3,-1.12,-4.83,0.84,0.23,0.92,0.32
-0.70996094,-0.021058273,-0.05749436,-0.020097757,0.22,0.94,0.32,33450,10127.80,0,93,3,-1.33,-4.83,0.07,0.22,0.94,0.32
-0.70996094,-0.024058271,-0.050494365,-0.039097756,0.22,0.94,0.32,33465,10127.80,0,93,3,-1.54,-4.34,-1.26,0.22,0.94,0.32
1.390625,-0.02205827,-0.032494362,-0.062097754,0.2,0.95,0.32,33488,10129.90,0,93,3,-1.40,-3.08,-2.87,0.20,0.95,0.32
-4.4101562,-0.018058272,-0.014494363,-0.07809776,0.19,0.95,0.32,33502,10124.10,0,93,3,-1.12,-1.82,-3.99,0.19,0.95,0.32
-1.0097656,-0.011058271,0.014505637,-0.079097755,0.19,0.93,0.33,33525,10127.50,0,93,3,-0.63,0.21,-4.06,0.19,0.93,0.33
-0.3095703,-0.011058271,0.024505638,-0.072097756,0.19,0.93,0.33,33554,10128.20,0,93,3,-0.63,0.91,-3.57,0.19,0.93,0.33
-2.0097656,-0.006058272,0.026505638,-0.05209776,0.2,0.92,0.33,33556,10126.50,0,93,3,-0.28,1.05,-2.17,0.20,0.92,0.33
-0.70996094,0.003941728,0.026505638,-0.024097757,0.21,0.91,0.33,33585,10127.80,0,93,3,0.42,1.05,-0.21,0.21,0.91,0.33
-1.7099609,0.017941728,0.026505638,0.021902245,0.22,0.9,0.34,33608,10126.80,0,93,3,1.40,1.05,3.01,0.22,0.90,0.34
0.6904297,0.027941728,0.04550564,0.07990225,0.22,0.93,0.34,33615,10129.20,0,93,3,2.10,2.38,7.07,0.22,0.93,0.34
-1.4101562,0.03594173,0.06050564,0.11590225,0.21,0.96,0.34,33622,10127.10,0,93,3,2.66,3.43,9.59,0.21,0.96,0.34
-1.4101562,0.04394173,0.08050564,0.10590225,0.19,0.98,0.33,33646,10127.10,0,93,3,3.22,4.83,8.89,0.19,0.98,0.33
-1.4101562,0.048941728,0.10350564,0.057902247,0.19,0.97,0.33,33674,10127.10,0,93,3,3.57,6.44,5.53,0.19,0.97,0.33
-1.4101562,0.057941727,0.13250564,0.007902242,0.2,0.95,0.32,33676,10127.10,0,93,3,4.20,8.47,2.03,0.20,0.95,0.32
-2.4101562,0.067941725,0.15250564,-0.022097757,0.22,0.93,0.31,33689,10126.10,0,93,3,4.90,9.87,-0.07,0.22,0.93,0.31
-2.4101562,0.07394173,0.15150563,-0.028097756,0.23,0.92,0.31,33720,10126.10,0,93,3,5.32,9.80,-0.49,0.23,0.92,0.31
-2.709961,0.070941724,0.12150563,-0.020097757,0.24,0.91,0.3,33721,10125.80,0,93,3,5.11,7.70,0.07,0.24,0.91,0.30
-3.4101562,0.05994173,0.071505636,-0.011097757,0.23,0.91,0.3,33742,10125.10,0,93,3,4.34,4.20,0.70,0.23,0.91,0.30
-2.4101562,0.05294173,0.014505637,-0.0060977573,0.23,0.91,0.29,33772,10126.10,0,93,3,3.85,0.21,1.05,0.23,0.91,0.29
-2.4101562,0.04194173,-0.042494364,-0.0010977574,0.23,0.91,0.29,33787,10126.10,0,93,3,3.08,-3.78,1.40,0.23,0.91,0.29
-2.709961,0.03494173,-0.08649437,-0.0010977574,0.21,0.92,0.29,33802,10125.80,0,93,3,2.59,-6.86,1.40,0.21,0.92,0.29
-4.4101562,0.026941728,-0.11649437,-0.005097756,0.2,0.92,0.3,33803,10124.10,0,93,3,2.03,-8.96,1.12,0.20,0.92,0.30
-7.4101562,0.008941729,-0.14049438,0.0029022414,0.23,0.9,0.32,33825,10121.10,0,93,3,0.77,-10.64,1.68,0.23,0.90,0.32
-5.709961,-0.02005827,-0.15149437,0.039902244,0.25,0.89,0.34,33832,10122.80,0,93,3,-1.26,-11.41,4.27,0.25,0.89,0.34
-7.109375,-0.04305827,-0.15449436,0.10290225,0.26,0.89,0.34,33862,10121.40,0,93,3,-2.87,-11.62,8.68,0.26,0.89,0.34
-11.509766,-0.050058268,-0.14649437,0.16690224,0.24,0.93,0.34,33892,10117.00,0,93,3,-3.36,-11.06,13.16,0.24,0.93,0.34
-6.4101562,-0.040058274,-0.13849437,0.15890226,0.21,0.96,0.33,33893,10122.10,0,93,3,-2.66,-10.50,12.60,0.21,0.96,0.33
-9.80957,-0.016058272,-0.10549435,0.119902246,0.19,0.99,0.32,33900,10118.70,0,93,3,-0.98,-8.19,9.87,0.19,0.99,0.32
-9.509766,0.005941729,-0.053494368,0.032902244,0.19,0.98,0.32,33914,10119.00,0,93,3,0.56,-4.55,3.78,0.19,0.98,0.32
-11.509766,0.020941729,-0.006494362,-0.031097757,0.21,0.95,0.32,33937,10117.00,0,93,3,1.61,-1.26,-0.70,0.21,0.95,0.32
-11.509766,0.021941727,0.042505637,-0.05909776,0.24,0.93,0.31,33967,10117.00,0,93,3,1.68,2.17,-2.66,0.24,0.93,0.31
-12.509766,0.012941728,0.06050564,-0.050097756,0.26,0.92,0.31,33975,10116.00,0,93,3,1.05,3.43,-2.03,0.26,0.92,0.31
-13.509766,-5.8271457E-5,0.04350564,-0.027097756,0.26,0.93,0.3,33982,10115.00,0,93,3,0.14,2.24,-0.42,0.26,0.93,0.30
-13.509766,-0.013058271,0.015505638,-0.008097757,0.25,0.94,0.3,33997,10115.00,0,93,3,-0.77,0.28,0.91,0.25,0.94,0.30
-14.209961,-0.018058272,-0.023494363,0.0049022436,0.24,0.95,0.3,34012,10114.30,0,93,3,-1.12,-2.45,1.82,0.24,0.95,0.30
-17.609375,-0.013058271,-0.044494364,-0.0060977573,0.23,0.94,0.29,34035,10110.90,0,93,3,-0.77,-3.92,1.05,0.23,0.94,0.29
-13.209961,0.004941729,-0.044494364,-0.022097757,0.23,0.93,0.29,34065,10115.30,0,93,3,0.49,-3.92,-0.07,0.23,0.93,0.29
-16.609375,0.018941728,-0.037494365,-0.032097757,0.23,0.92,0.3,34066,10111.90,0,93,3,1.47,-3.43,-0.77,0.23,0.92,0.30
-18.609375,0.027941728,-0.02949436,-0.031097757,0.23,0.92,0.3,34080,10109.90,0,93,3,2.10,-2.87,-0.70,0.23,0.92,0.30
-16.20996,0.02494173,-0.026494365,-0.026097756,0.23,0.92,0.31,34095,10112.30,0,93,3,1.89,-2.66,-0.35,0.23,0.92,0.31
-17.30957,0.013941729,-0.024494361,-0.015097758,0.23,0.93,0.31,34154,10111.20,0,93,3,1.12,-2.52,0.42,0.23,0.93,0.31
-14.509766,0.007941728,-0.018494362,0.0049022436,0.24,0.94,0.31,34157,10114.00,0,93,3,0.70,-2.10,1.82,0.24,0.94,0.31
-17.30957,0.005941729,-0.012494361,0.017902244,0.24,0.94,0.3,34158,10111.20,0,93,3,0.56,-1.68,2.73,0.24,0.94,0.30
-18.30957,0.005941729,-0.0054943636,0.025902241,0.24,0.94,0.3,34159,10110.20,0,93,3,0.56,-1.19,3.29,0.24,0.94,0.30
-18.609375,0.009941728,-4.9436186E-4,0.012902245,0.24,0.94,0.29,34201,10109.90,0,93,3,0.84,-0.84,2.38,0.24,0.94,0.29
-17.609375,0.010941729,0.0055056377,0.0019022431,0.24,0.94,0.29,34209,10110.90,0,93,3,0.91,-0.42,1.61,0.24,0.94,0.29
-19.910156,0.015941728,0.004505637,-0.022097757,0.24,0.94,0.29,34214,10108.60,0,93,3,1.26,-0.49,-0.07,0.24,0.94,0.29
-16.20996,0.012941728,0.004505637,-0.041097756,0.24,0.94,0.29,34237,10112.30,0,93,3,1.05,-0.49,-1.40,0.24,0.94,0.29
-18.30957,0.010941729,-0.001494363,-0.056097757,0.23,0.93,0.29,34244,10110.20,0,93,3,0.91,-0.91,-2.45,0.23,0.93,0.29
-12.209961,0.005941729,-0.008494362,-0.06509776,0.23,0.93,0.29,34260,10116.30,0,93,3,0.56,-1.40,-3.08,0.23,0.93,0.29
-17.609375,-0.25705826,-0.014494363,-0.06309776,0.23,0.93,0.29,34276,10110.90,0,93,3,-17.85,-1.82,-2.94,0.23,0.93,0.29
-18.609375,-0.008058271,-0.015494363,-0.057097755,0.23,0.93,0.3,34298,10109.90,0,93,3,-0.42,-1.89,-2.52,0.23,0.93,0.30
-17.30957,-0.007058271,-0.012494361,-0.03709776,0.23,0.93,0.3,34305,10111.20,0,93,3,-0.35,-1.68,-1.12,0.23,0.93,0.30
-18.30957,-0.011058271,-0.008494362,-0.016097758,0.23,0.93,0.3,34327,10110.20,0,93,3,-0.63,-1.40,0.35,0.23,0.93,0.30
-15.209961,-0.017058272,-0.002494363,-0.004097756,0.22,0.93,0.31,34350,10113.30,0,93,3,-1.05,-0.98,1.19,0.22,0.93,0.31
-18.30957,-0.033058275,0.0015056375,-0.010097757,0.22,0.92,0.31,34357,10110.20,0,93,3,-2.17,-0.70,0.77,0.22,0.92,0.31
-17.609375,-0.052058272,0.011505637,-0.018097756,0.22,0.92,0.31,34379,10110.90,0,93,3,-3.50,0.00,0.21,0.22,0.92,0.31
-18.30957,-0.056058273,0.021505637,-0.022097757,0.23,0.93,0.31,34386,10110.20,0,93,3,-3.78,0.70,-0.07,0.23,0.93,0.31
-16.20996,-0.045058273,0.020505637,-0.026097756,0.23,0.94,0.3,34410,10112.30,0,93,3,-3.01,0.63,-0.35,0.23,0.94,0.30
-15.910156,-0.027058272,0.0055056377,-0.039097756,0.22,0.94,0.31,34447,10112.60,0,93,3,-1.75,-0.42,-1.26,0.22,0.94,0.31
-14.509766,-0.015058272,-0.001494363,-0.043097757,0.22,0.94,0.31,34455,10114.00,0,93,3,-0.91,-0.91,-1.54,0.22,0.94,0.31
-19.30957,-0.019058272,0.0025056377,-0.045097753,0.23,0.93,0.32,34477,10109.20,0,93,3,-1.19,-0.63,-1.68,0.23,0.93,0.32
-17.910156,-0.02005827,0.0065056374,-0.032097757,0.22,0.93,0.32,34515,10110.60,0,93,3,-1.26,-0.35,-0.77,0.22,0.93,0.32
-15.209961,-0.015058272,0.008505638,-0.024097757,0.21,0.94,0.32,34516,10113.30,0,93,3,-0.91,-0.21,-0.21,0.21,0.94,0.32
-15.209961,-0.006058272,0.014505637,-0.021097757,0.21,0.94,0.32,34537,10113.30,0,93,3,-0.28,0.21,0.00,0.21,0.94,0.32
-17.30957,-0.008058271,0.017505636,-0.020097757,0.21,0.93,0.32,34559,10111.20,0,93,3,-0.42,0.42,0.07,0.21,0.93,0.32
-15.209961,-0.007058271,0.025505638,-0.017097756,0.21,0.93,0.32,34567,10113.30,0,93,3,-0.35,0.98,0.28,0.21,0.93,0.32
-15.209961,-0.0030582715,0.028505638,-0.010097757,0.22,0.93,0.31,34582,10113.30,0,93,3,-0.07,1.19,0.77,0.22,0.93,0.31
-18.30957,9.4172824E-4,0.027505638,0.006902244,0.22,0.93,0.31,34605,10110.20,0,93,3,0.21,1.12,1.96,0.22,0.93,0.31
-10.209961,-0.0030582715,0.020505637,0.016902246,0.22,0.92,0.31,34627,10118.30,0,93,3,-0.07,0.63,2.66,0.22,0.92,0.31
-12.509766,-0.009058272,0.0125056375,0.027902246,0.22,0.93,0.31,34650,10116.00,0,93,3,-0.49,0.07,3.43,0.22,0.93,0.31
-14.209961,-0.011058271,0.0015056375,0.033902243,0.22,0.93,0.31,34665,10114.30,0,93,3,-0.63,-0.70,3.85,0.22,0.93,0.31
-13.209961,-0.025058271,-0.007494364,0.031902242,0.23,0.93,0.31,34687,10115.30,0,93,3,-1.61,-1.33,3.71,0.23,0.93,0.31
-12.209961,-0.03505827,-0.018494362,0.025902241,0.23,0.93,0.31,34710,10116.30,0,93,3,-2.31,-2.10,3.29,0.23,0.93,0.31
-15.209961,-0.04205827,-0.034494363,0.012902245,0.23,0.94,0.31,34732,10113.30,0,93,3,-2.80,-3.22,2.38,0.23,0.94,0.31
-10.209961,-0.03805827,-0.055494364,0.0029022414,0.23,0.94,0.31,34755,10118.30,0,93,3,-2.52,-4.69,1.68,0.23,0.94,0.31
-10.509766,-0.03805827,-0.05749436,-0.0060977573,0.22,0.93,0.32,34777,10118.00,0,93,3,-2.52,-4.83,1.05,0.22,0.93,0.32
-8.509766,-0.03705827,-0.052494366,-0.015097758,0.22,0.94,0.32,34800,10120.00,0,93,3,-2.45,-4.48,0.42,0.22,0.94,0.32
-7.8095703,-0.033058275,-0.04849436,-0.029097758,0.21,0.94,0.32,34807,10120.70,0,93,3,-2.17,-4.20,-0.56,0.21,0.94,0.32
-8.109375,-0.02605827,-0.049494363,-0.043097757,0.22,0.94,0.32,34830,10120.40,0,93,3,-1.68,-4.27,-1.54,0.22,0.94,0.32
-6.4101562,-0.016058272,-0.051494364,-0.05509776,0.22,0.93,0.32,34852,10122.10,0,93,3,-0.98,-4.41,-2.38,0.22,0.93,0.32
-6.109375,-0.023058271,-0.06049436,-0.05309776,0.23,0.93,0.32,34867,10122.40,0,93,3,-1.47,-5.04,-2.24,0.23,0.93,0.32
-4.4101562,-0.019058272,-0.070494354,-0.035097755,0.23,0.93,0.32,34889,10124.10,0,93,3,-1.19,-5.74,-0.98,0.23,0.93,0.32
-2.0097656,-0.0050582713,-0.06649436,-0.010097757,0.21,0.93,0.32,34920,10126.50,0,93,3,-0.21,-5.46,0.77,0.21,0.93,0.32
-2.0097656,0.007941728,-0.037494365,-0.005097756,0.2,0.93,0.33,34942,10126.50,0,93,3,0.70,-3.43,1.12,0.20,0.93,0.33
-3.0097656,0.013941729,-0.002494363,-0.010097757,0.2,0.93,0.33,34965,10125.50,0,93,3,1.12,-0.98,0.77,0.20,0.93,0.33
-2.0097656,0.010941729,0.027505638,-0.012097757,0.21,0.93,0.33,34980,10126.50,0,93,3,0.91,1.12,0.63,0.21,0.93,0.33
-2.0097656,0.022941729,0.037505638,-0.0020977557,0.22,0.93,0.32,35009,10126.50,0,93,3,1.75,1.82,1.33,0.22,0.93,0.32
-0.70996094,0.03594173,0.03650564,0.01990224,0.22,0.94,0.32,35039,10127.80,0,93,3,2.66,1.75,2.87,0.22,0.94,0.32
-1.0097656,0.03694173,0.029505637,0.012902245,0.22,0.93,0.32,35041,10127.50,0,93,3,2.73,1.26,2.38,0.22,0.93,0.32
0.29003906,0.02894173,0.017505636,-0.0010977574,0.22,0.92,0.32,35069,10128.80,0,93,3,2.17,0.42,1.40,0.22,0.92,0.32
2.9902344,0.01694173,0.010505637,-0.008097757,0.24,0.92,0.32,35070,10131.50,0,93,3,1.33,-0.07,0.91,0.24,0.92,0.32
-3.4101562,0.010941729,0.003505637,0.0039022435,0.24,0.93,0.31,35092,10125.10,0,93,3,0.91,-0.56,1.75,0.24,0.93,0.31
0.9902344,0.015941728,-0.010494363,0.018902242,0.23,0.93,0.31,35114,10129.50,0,93,3,1.26,-1.54,2.80,0.23,0.93,0.31
3.390625,0.01694173,-0.018494362,0.013902243,0.22,0.93,0.31,35137,10131.90,0,93,3,1.33,-2.10,2.45,0.22,0.93,0.31
-0.009765625,0.009941728,-0.016494364,0.005902244,0.22,0.93,0.32,35160,10128.50,0,93,3,0.84,-1.96,1.89,0.22,0.93,0.32
0.29003906,0.0069417283,-4.9436186E-4,0.0039022435,0.22,0.93,0.32,35182,10128.80,0,93,3,0.63,-0.84,1.75,0.22,0.93,0.32
-0.009765625,0.008941729,0.0065056374,0.008902242,0.22,0.94,0.31,35197,10128.50,0,93,3,0.77,-0.35,2.10,0.22,0.94,0.31
-0.41015625,0.017941728,0.016505636,0.018902242,0.22,0.93,0.31,35227,10128.10,0,93,3,1.40,0.35,2.80,0.22,0.93,0.31
-0.70996094,0.010941729,0.017505636,0.0039022435,0.22,0.93,0.32,35249,10127.80,0,93,3,0.91,0.42,1.75,0.22,0.93,0.32
-0.009765625,0.0069417283,0.017505636,-9.7757205E-5,0.23,0.93,0.31,35264,10128.50,0,93,3,0.63,0.42,1.47,0.23,0.93,0.31
