Pressure_Rel,GyroX_Rel,GyroY_Rel,GyroZ_Rel,AccX_Rel,AccY_Rel,AccZ_Rel,Timestamp,Pressure_abs,HeartRate,Oxygen,Status,GyroX,GyroY,GyroZ,AccX,AccY,AccZ
0,0,0,0,0,0,0,2902,10190.4,93,93,3,0.77,-1.68,-0.21,0.43,0.71,0.58
0,0,0,0,0,0,0,2924,10190.7,93,93,3,1.54,-0.98,0.56,0.44,0.7,0.58
0,0,0,0,0,0,0,2926,10190.7,93,93,3,1.26,-0.98,1.33,0.45,0.7,0.58
0,0,0,0,0,0,0,2939,10190.7,93,93,3,0.63,-1.4,1.96,0.45,0.69,0.58
0,0,0,0,0,0,0,2969,10191.8,93,93,3,-0.21,-2.03,1.89,0.44,0.7,0.58
0,0,0,0,0,0,0,2978,10191.8,93,93,3,-0.7,-2.03,1.75,0.44,0.7,0.58
0,0,0,0,0,0,0,2992,10191.1,93,93,3,-0.42,-1.33,2.1,0.44,0.71,0.58
0,0,0,0,0,0,0,3007,10190.7,93,93,3,0,-0.49,3.01,0.45,0.71,0.58
0,0,0,0,0,0,0,3024,10190.7,93,93,3,0.14,-0.14,3.85,0.45,0.71,0.58
0,0,0,0,0,0,0,3060,10193.5,93,93,3,0.35,-0.21,4.2,0.46,0.71,0.58
0,0,0,0,0,0,0,3062,10191.8,93,93,3,0.42,-0.7,3.92,0.47,0.71,0.58
0,0,0,0,0,0,0,3081,10192.8,0,94,3,0.91,-2.1,2.87,0.46,0.72,0.58
0,0,0,0,0,0,0,3096,10192.1,0,94,3,1.47,-2.24,1.19,0.45,0.71,0.58
0,0,0,0,0,0,0,3119,10192.1,0,94,3,1.68,-1.61,-0.21,0.44,0.72,0.58
0,0,0,0,0,0,0,3142,10191.8,0,94,3,1.75,-0.35,-0.84,0.44,0.7,0.58
0,0,0,0,0,0,0,3171,10195.8,0,94,3,1.05,0.35,0.28,0.45,0.71,0.58
0,0,0,0,0,0,0,3194,10189.7,0,94,3,1.33,0.28,0.91,0.45,0.71,0.57
0,0,0,0,0,0,0,3209,10192.8,0,94,3,2.24,0,1.54,0.45,0.71,0.57
0,0,0,0,0,0,0,3232,10193.4,0,94,3,2.38,-0.49,1.89,0.45,0.7,0.57
0,0,0,0,0,0,0,3239,10192.8,0,94,3,2.24,-0.63,2.1,0.45,0.7,0.57
0,0,0,0,0,0,0,3254,10194.1,0,94,3,1.68,-0.56,2.31,0.45,0.7,0.57
0,0,0,0,0,0,0,3294,10193.5,0,94,3,0.84,-0.28,2.59,0.45,0.7,0.57
0,0,0,0,0,0,0,3296,10194.8,0,94,3,0.28,0,2.52,0.45,0.71,0.58
0,0,0,0,0,0,0,3315,10196.2,0,94,3,-0.56,0.14,2.66,0.45,0.72,0.57
0,0,0,0,0,0,0,3330,10196.8,0,94,3,-0.28,0.21,3.15,0.45,0.73,0.57
0,0,0,0,0,0,0,3353,10197.2,0,94,3,0.42,-0.07,2.1,0.45,0.71,0.57
0,0,0,0,0,0,0,3374,10202.2,0,94,3,0.63,-0.84,1.47,0.46,0.71,0.57
0,0,0,0,0,0,0,3397,10198.2,0,94,3,1.05,-1.82,1.12,0.46,0.71,0.58
0,0,0,0,0,0,0,3420,10196.8,0,94,3,1.75,-1.89,0.56,0.45,0.71,0.57
0,0,0,0,0,0,0,3435,10198.2,0,94,3,1.96,-1.89,0.91,0.45,0.7,0.58
0,0,0,0,0,0,0,3456,10197.8,0,94,3,1.26,-1.89,0.98,0.45,0.7,0.59
0,0,0,0,0,0,0,3471,10198.5,0,94,3,0.42,-1.19,1.54,0.45,0.7,0.59
0,0,0,0,0,0,0,3486,10199.2,0,94,3,-0.14,-0.84,1.96,0.44,0.7,0.59
0,0,0,0,0,0,0,3510,10197.8,0,94,3,-0.21,-0.42,1.89,0.44,0.71,0.59
0,0,0,0,0,0,0,3525,10196.2,0,94,3,0.84,0,1.61,0.43,0.72,0.58
0,0,0,0,0,0,0,3547,10198.2,0,94,3,2.1,0.42,0.91,0.43,0.71,0.58
0,0,0,0,0,0,0,3562,10198.2,0,94,3,2.38,0.7,0.35,0.43,0.71,0.58
0,0,0,0,0,0,0,3577,10198.2,0,94,3,2.17,0.21,0.56,0.43,0.7,0.58
0,0,0,0,0,0,0,3599,10198.2,0,94,3,1.82,0,1.82,0.43,0.7,0.58
0,0,0,0,0,0,0,3622,10199.2,0,94,3,1.54,0,2.59,0.43,0.69,0.59
0,0,0,0,0,0,0,3637,10197.2,0,94,3,1.54,0.7,4.76,0.44,0.7,0.6
0,0,0,0,0,0,0,3660,10199.2,0,94,3,1.68,1.33,6.72,0.44,0.72,0.6
0,0,0,0,0,0,0,3675,10199.2,0,94,3,2.59,2.52,7.28,0.43,0.73,0.59
0,0,0,0,0,0,0,3689,10198.2,0,94,3,4.27,3.85,7.14,0.42,0.73,0.58
0,0,0,0,0,0,0,3705,10199.5,0,94,3,5.67,5.04,6.72,0.43,0.73,0.58
0,0,0,0,0,0,0,3720,10198.2,0,94,3,6.65,5.46,6.93,0.45,0.72,0.57
0,0,0,0,0,0,0,3742,10196.2,0,94,3,7.14,5.11,7.35,0.46,0.71,0.57
0,0,0,0,0,0,0,3757,10198.5,0,94,3,7.21,4.41,7.35,0.45,0.73,0.56
0,0,0,0,0,0,0,3772,10196.5,0,94,3,7.98,4.41,6.79,0.45,0.73,0.55
0,0,0,0,0,0,0,3795,10199.5,0,94,3,8.4,4.13,6.51,0.45,0.72,0.55
0,0,0,0,0,0,0,3802,10200.2,0,94,3,7.63,3.71,6.09,0.45,0.71,0.55
0,0,0,0,0,0,0,3817,10194.1,0,94,3,6.65,3.64,5.81,0.45,0.7,0.55
0,0,0,0,0,0,0,3832,10199.2,0,94,3,5.32,3.29,5.88,0.46,0.7,0.55
0,0,0,0,0,0,0,3854,10199.5,0,94,3,3.64,3.22,6.16,0.46,0.7,0.55
0,0,0,0,0,0,0,3869,10198.5,0,94,3,2.59,3.22,5.74,0.46,0.71,0.55
0,0,0,0,0,0,0,3884,10199.2,0,94,3,1.96,3.01,5.32,0.46,0.71,0.55
0,0,0,0,0,0,0,3899,10199.5,0,94,3,1.4,2.59,5.6,0.46,0.71,0.55
0,0,0,0,0,0,0,3930,10199.5,0,94,3,0.7,1.75,5.81,0.47,0.72,0.55
0,0,0,0,0,0,0,3932,10198.9,0,94,3,0.7,1.54,5.88,0.47,0.72,0.55
0,0,0,0,0,0,0,3952,10200.5,0,94,3,0.21,1.12,5.04,0.46,0.7,0.56
0,0,0,0,0,0,0,3967,10197.5,0,94,3,-1.47,0.56,3.64,0.46,0.7,0.56
0,0,0,0,0,0,0,3981,10199.5,0,94,3,-2.31,0.35,2.66,0.46,0.7,0.56
0,0,0,0,0,0,0,3997,10198.2,0,94,3,-2.31,0.21,2.38,0.47,0.71,0.56
0,0,0,0,0,0,0,4012,10198.5,0,94,3,-2.1,-0.49,2.31,0.47,0.71,0.56
0,0,0,0,0,0,0,4027,10198.5,0,94,3,-1.96,-0.98,2.73,0.47,0.71,0.56
0,0,0,0,0,0,0,4049,10198.5,0,94,3,-1.68,-1.47,2.94,0.47,0.71,0.57
0,0,0,0,0,0,0,4065,10198.5,0,94,3,-1.75,-1.75,2.8,0.47,0.71,0.57
0,0,0,0,0,0,0,4079,10198.5,0,94,3,-2.03,-1.68,2.87,0.47,0.71,0.57
0,0,0,0,0,0,0,4094,10197.8,0,94,3,-2.03,-1.47,2.8,0.47,0.71,0.57
0,0,0,0,0,0,0,4110,10199.5,0,94,3,-2.24,-1.68,2.38,0.47,0.7,0.57
0,0,0,0,0,0,0,4132,10197.8,0,94,3,-2.17,-1.89,2.24,0.47,0.7,0.57
0,0,0,0,0,0,0,4147,10197.5,0,94,3,-2.31,-2.17,1.89,0.47,0.7,0.58
0,0,0,0,0,0,0,4169,10197.5,0,94,3,-2.45,-2.38,1.54,0.47,0.7,0.58
0,0,0,0,0,0,0,4177,10197.8,0,94,3,-2.1,-2.38,1.05,0.47,0.7,0.58
0,0,0,0,0,0,0,4192,10201.9,0,94,3,-1.82,-2.1,0.84,0.47,0.69,0.58
0,0,0,0,0,0,0,4207,10197.8,0,94,3,-1.33,-1.68,0.98,0.46,0.69,0.58
0,0,0,0,0,0,0,4222,10196.5,0,94,3,-1.05,-1.12,0.91,0.46,0.7,0.58
0,0,0,0,0,0,0,4237,10196.5,0,94,3,-0.63,-0.21,0.7,0.47,0.7,0.58
0,0,0,0,0,0,0,4266,10196.5,0,94,3,-0.77,0,1.68,0.48,0.68,0.59
0,0,0,0,0,0,0,4282,10196.5,0,94,3,-2.03,-0.28,2.59,0.49,0.68,0.59
0,0,0,0,0,0,0,4304,10197.8,0,94,3,-3.08,-0.91,2.87,0.49,0.69,0.59
0,0,0,0,0,0,0,4306,10198.5,0,94,3,-3.57,-1.19,2.03,0.48,0.71,0.59
-4.4521484,0.0004892796,0.008875253,0.011836261,0.45,0.71,0.58,14331,10189.3,100,90,3,-0.21,-0.91,1.54,0.45,0.71,0.58
-3.3515625,0.0004892796,0.004875252,0.0068362616,0.44,0.72,0.58,14356,10190.4,100,90,3,-0.21,-1.19,1.19,0.44,0.72,0.58
-1.3515625,0.0034892794,-0.0041247476,-0.008163739,0.44,0.72,0.58,14371,10192.4,100,90,3,0,-1.82,0.14,0.44,0.72,0.58
0.6484375,0.0034892794,-0.0141247455,-0.013163739,0.44,0.71,0.58,14392,10194.4,100,90,3,0,-2.52,-0.21,0.44,0.71,0.58
1.6484375,0.0024892795,-0.0151247475,-0.0111637395,0.44,0.7,0.58,14414,10195.4,100,90,3,-0.07,-2.59,-0.07,0.44,0.7,0.58
1.6484375,-0.0015107205,-0.01612475,-0.00016373955,0.44,0.7,0.58,14444,10195.4,100,90,3,-0.35,-2.66,0.7,0.44,0.7,0.58
-1.3515625,0.0024892795,-0.0051247478,0.00983626,0.43,0.71,0.58,14466,10192.4,100,90,3,-0.07,-1.89,1.4,0.43,0.71,0.58
11.1484375,0.0044892794,0.0018752534,0.003836261,0.44,0.71,0.58,14495,10204.9,100,90,3,0.07,-1.4,0.98,0.44,0.71,0.58
6.448242,-0.0015107205,-0.0041247476,0.003836261,0.45,0.7,0.58,14503,10200.2,100,90,3,-0.35,-1.82,0.98,0.45,0.7,0.58
5.748047,-0.012510722,-0.008124746,0.011836261,0.45,0.71,0.57,14526,10199.5,100,90,3,-1.12,-2.1,1.54,0.45,0.71,0.57
8.047852,-0.01451072,-0.008124746,0.01883626,0.44,0.71,0.58,14541,10201.8,100,90,3,-1.26,-2.1,2.03,0.44,0.71,0.58
8.448242,-0.009510721,-0.011124747,0.013836259,0.44,0.71,0.57,14556,10202.2,100,90,3,-0.91,-2.31,1.68,0.44,0.71,0.57
8.047852,0.008489279,-0.0021247454,0.011836261,0.44,0.71,0.58,14579,10201.8,100,90,3,0.35,-1.68,1.54,0.44,0.71,0.58
9.1484375,0.014489279,0.00087525323,0.0058362614,0.44,0.71,0.58,14601,10202.9,100,90,3,0.77,-1.47,1.12,0.44,0.71,0.58
6.748047,0.00748928,0.011875253,0.0048362603,0.44,0.71,0.58,14645,10200.5,100,90,3,0.28,-0.7,1.05,0.44,0.71,0.58
6.0478516,-0.0075107208,0.015875254,0.002836261,0.44,0.71,0.58,14647,10199.8,100,90,3,-0.77,-0.42,0.91,0.44,0.71,0.58
6.748047,-0.0075107208,0.013875253,-0.002163739,0.45,0.71,0.57,14679,10200.5,100,90,3,-0.77,-0.56,0.56,0.45,0.71,0.57
6.0478516,-0.0015107205,0.00087525323,-0.0041637397,0.45,0.71,0.57,14713,10199.8,100,90,3,-0.35,-1.47,0.42,0.45,0.71,0.57
5.0478516,0.0024892795,-0.006124748,-0.009163739,0.44,0.7,0.58,14715,10198.8,100,90,3,-0.07,-1.96,0.07,0.44,0.7,0.58
5.0478516,-0.0035107208,-0.0051247478,-0.008163739,0.44,0.7,0.59,14729,10198.8,100,90,3,-0.49,-1.89,0.14,0.44,0.7,0.59
4.0478516,-0.01951072,-0.0021247454,-0.0041637397,0.44,0.71,0.59,14751,10197.8,100,90,3,-1.61,-1.68,0.42,0.44,0.71,0.59
6.0478516,-0.02151072,0.005875252,0.0018362598,0.44,0.71,0.59,14774,10199.8,100,90,3,-1.75,-1.12,0.84,0.44,0.71,0.59
4.0478516,-0.02151072,0.0068752533,0.003836261,0.44,0.71,0.58,14789,10197.8,100,90,3,-1.75,-1.05,0.98,0.44,0.71,0.58
3.0478516,-0.015510722,0.0028752517,0.0048362603,0.44,0.71,0.58,14811,10196.8,100,90,3,-1.33,-1.33,1.05,0.44,0.71,0.58
4.0478516,0.0034892794,-0.0011247471,0.003836261,0.44,0.71,0.58,14826,10197.8,100,90,3,0,-1.61,0.98,0.44,0.71,0.58
3.3476562,0.014489279,-0.0021247454,0.0058362614,0.44,0.71,0.58,14856,10197.1,100,90,3,0.77,-1.68,1.12,0.44,0.71,0.58
5.0478516,0.014489279,-0.0051247478,0.002836261,0.44,0.7,0.59,14870,10198.8,100,90,3,0.77,-1.89,0.91,0.44,0.7,0.59
-3.0517578,0.006489279,0.0028752517,0.00983626,0.44,0.7,0.58,14886,10190.7,100,90,3,0.21,-1.33,1.4,0.44,0.7,0.58
3.3476562,-0.0035107208,0.005875252,0.0068362616,0.44,0.7,0.58,14909,10197.1,100,90,3,-0.49,-1.12,1.19,0.44,0.7,0.58
4.0478516,-0.0015107205,0.004875252,0.003836261,0.44,0.71,0.58,14931,10197.8,100,90,3,-0.35,-1.19,0.98,0.44,0.71,0.58
3.0478516,0.00748928,-0.0011247471,0.003836261,0.45,0.71,0.58,14954,10196.8,100,90,3,0.28,-1.61,0.98,0.45,0.71,0.58
2.0478516,0.006489279,-0.011124747,0.011836261,0.45,0.7,0.58,14976,10195.8,100,90,3,0.21,-2.31,1.54,0.45,0.7,0.58
0.9482422,0.008489279,-0.022124747,0.016836261,0.44,0.71,0.58,15006,10194.7,100,90,3,0.35,-3.08,1.89,0.44,0.71,0.58
0.34765625,0.009489279,-0.011124747,0.00983626,0.44,0.71,0.58,15021,10194.1,100,90,3,0.42,-2.31,1.4,0.44,0.71,0.58
-1.0517578,0.009489279,-0.019124744,0.003836261,0.45,0.7,0.59,15036,10192.7,100,90,3,0.42,-2.87,0.98,0.45,0.7,0.59
-4.051758,0.01148928,-0.024124747,0.013836259,0.46,0.7,0.58,15052,10189.7,100,90,3,0.56,-3.22,1.68,0.46,0.7,0.58
-5.751953,0.02448928,-0.022124747,0.034836262,0.46,0.7,0.58,15067,10188,100,90,3,1.47,-3.08,3.15,0.46,0.7,0.58
-15.251953,0.03548928,-0.013124747,0.04983626,0.44,0.71,0.57,15089,10178.5,100,90,3,2.24,-2.45,4.2,0.44,0.71,0.57
-13.251953,0.04248928,0.0028752517,0.030836258,0.44,0.71,0.58,15111,10180.5,100,90,3,2.73,-1.33,2.87,0.44,0.71,0.58
-21.051758,0.032489277,0.016875252,0.0018362598,0.45,0.71,0.58,15134,10172.7,100,90,3,2.03,-0.35,0.84,0.45,0.71,0.58
-23.351562,0.010489279,0.012875253,0.0008362606,0.44,0.71,0.57,15156,10170.4,100,90,3,0.49,-0.63,0.77,0.44,0.71,0.57
-25.351562,0.0004892796,0.0068752533,0.003836261,0.45,0.71,0.57,15195,10168.4,100,90,3,-0.21,-1.05,0.98,0.45,0.71,0.57
-24.351562,-0.004510721,0.0018752534,0.011836261,0.45,0.71,0.57,15201,10169.4,100,90,3,-0.56,-1.4,1.54,0.45,0.71,0.57
-24.351562,-0.010510721,-0.006124748,0.014836261,0.45,0.7,0.57,15216,10169.4,100,90,3,-0.98,-1.96,1.75,0.45,0.7,0.57
-24.051758,-0.013510722,-0.008124746,0.02283626,0.45,0.71,0.58,15246,10169.7,100,90,3,-1.19,-2.1,2.31,0.45,0.71,0.58
-24.051758,-0.0065107206,0.00087525323,0.023836263,0.45,0.72,0.58,15253,10169.7,100,90,3,-0.7,-1.47,2.38,0.45,0.72,0.58
-23.051758,0.012489279,0.0028752517,0.011836261,0.44,0.72,0.58,15276,10170.7,100,90,3,0.63,-1.33,1.54,0.44,0.72,0.58
-22.051758,0.02648928,0.0078752525,0.003836261,0.44,0.72,0.58,15298,10171.7,100,90,3,1.61,-0.98,0.98,0.44,0.72,0.58
-22.652344,0.03048928,0.011875253,0.003836261,0.44,0.71,0.58,15329,10171.1,100,90,3,1.89,-0.7,0.98,0.44,0.71,0.58
-22.051758,0.020489281,0.018875252,0.0048362603,0.44,0.71,0.58,15336,10171.7,100,90,3,1.19,-0.21,1.05,0.44,0.71,0.58
-21.051758,0.010489279,0.022875253,0.0068362616,0.45,0.71,0.57,15350,10172.7,100,90,3,0.49,0.07,1.19,0.45,0.71,0.57
-21.051758,0.015489278,0.027875252,0.013836259,0.45,0.71,0.58,15374,10172.7,100,90,3,0.84,0.42,1.68,0.45,0.71,0.58
-19.652344,0.01748928,0.031875253,0.01883626,0.45,0.71,0.58,15395,10174.1,100,90,3,0.98,0.7,2.03,0.45,0.71,0.58
-16.952148,0.02348928,0.032875255,0.011836261,0.45,0.72,0.58,15427,10176.8,100,90,3,1.4,0.77,1.54,0.45,0.72,0.58
-22.051758,0.00748928,0.029875252,-0.003163739,0.45,0.7,0.58,15441,10171.7,100,90,3,0.28,0.56,0.49,0.45,0.7,0.58
-15.952148,-0.00851072,0.026875254,-0.00016373955,0.45,0.71,0.58,15470,10177.8,100,90,3,-0.84,0.35,0.7,0.45,0.71,0.58
-15.551758,0.0004892796,0.031875253,0.003836261,0.45,0.71,0.59,15486,10178.2,100,90,3,-0.21,0.7,0.98,0.45,0.71,0.59
-14.952148,0.009489279,0.031875253,-0.0041637397,0.45,0.72,0.59,15509,10178.8,100,90,3,0.42,0.7,0.42,0.45,0.72,0.59
-14.551758,0.022489281,0.032875255,-0.0071637398,0.45,0.71,0.59,15524,10179.2,100,90,3,1.33,0.77,0.21,0.45,0.71,0.59
-12.8515625,0.02648928,0.03487525,-0.003163739,0.46,0.71,0.59,15546,10180.9,100,90,3,1.61,0.91,0.49,0.46,0.71,0.59
-17.251953,0.03348928,0.043875255,-0.0041637397,0.45,0.71,0.6,15553,10176.5,100,90,3,2.1,1.54,0.42,0.45,0.71,0.6
-11.8515625,0.04048928,0.06287525,-0.003163739,0.45,0.71,0.59,15576,10181.9,100,90,3,2.59,2.87,0.49,0.45,0.71,0.59
-10.8515625,0.045489278,0.07587525,-0.0051637394,0.45,0.72,0.59,15614,10182.9,100,90,3,2.94,3.78,0.35,0.45,0.72,0.59
-7.8515625,0.05248928,0.07987525,-0.015163739,0.45,0.73,0.59,15621,10185.9,100,90,3,3.43,4.06,-0.35,0.45,0.73,0.59
-11.8515625,0.07248928,0.09287525,-0.02616374,0.44,0.72,0.58,15636,10181.9,100,90,3,4.83,4.97,-1.12,0.44,0.72,0.58
1.3476562,0.08248928,0.09787526,-0.041163743,0.44,0.71,0.58,15666,10195.1,100,90,3,5.53,5.32,-2.17,0.44,0.71,0.58
-1.0517578,0.07248928,0.09387525,-0.04016374,0.45,0.71,0.58,15688,10192.7,100,90,3,4.83,5.04,-2.1,0.45,0.71,0.58
1.3476562,0.06748928,0.08187525,-0.03316374,0.45,0.7,0.57,15703,10195.1,100,90,3,4.48,4.2,-1.61,0.45,0.7,0.57
4.748047,0.061489277,0.07187525,-0.031163739,0.44,0.7,0.58,15741,10198.5,100,90,3,4.06,3.5,-1.47,0.44,0.7,0.58
7.448242,0.04848928,0.058875255,-0.034163736,0.44,0.7,0.58,15748,10201.2,100,90,3,3.15,2.59,-1.68,0.44,0.7,0.58
9.448242,0.04648928,0.046875253,-0.041163743,0.44,0.7,0.59,15771,10203.2,100,90,3,3.01,1.75,-2.17,0.44,0.7,0.59
8.448242,0.03348928,0.03687525,-0.046163738,0.44,0.7,0.58,15785,10202.2,100,90,3,2.1,1.05,-2.52,0.44,0.7,0.58
14.547852,0.02948928,0.030875253,-0.04416374,0.44,0.69,0.59,15801,10208.3,100,90,3,1.82,0.63,-2.38,0.44,0.69,0.59
16.547852,0.02548928,0.025875254,-0.03616374,0.45,0.68,0.59,15816,10210.3,100,90,3,1.54,0.28,-1.82,0.45,0.68,0.59
15.547852,0.009489279,0.009875254,-0.02916374,0.45,0.68,0.59,15838,10209.3,100,90,3,0.42,-0.84,-1.33,0.45,0.68,0.59
15.847656,0.0044892794,-0.012124749,-0.03216374,0.45,0.69,0.59,15861,10209.6,100,90,3,0.07,-2.38,-1.54,0.45,0.69,0.59
15.547852,0.010489279,-0.030124748,-0.04916374,0.45,0.7,0.6,15895,10209.3,100,90,3,0.49,-3.64,-2.73,0.45,0.7,0.6
13.547852,0.013489279,-0.04212475,-0.082163736,0.45,0.7,0.61,15921,10207.3,100,90,3,0.7,-4.48,-5.04,0.45,0.7,0.61
13.847656,0.01648928,-0.058124743,-0.104163736,0.45,0.69,0.62,15943,10207.6,100,90,3,0.91,-5.6,-6.58,0.45,0.69,0.62
12.448242,-0.0015107205,-0.08212475,-0.13716374,0.45,0.71,0.62,15959,10206.2,100,90,3,-0.35,-7.28,-8.89,0.45,0.71,0.62
11.847656,0.0034892794,-0.11912475,-0.14416374,0.45,0.73,0.62,15996,10205.6,99,90,3,0,-9.87,-9.38,0.45,0.73,0.62
11.448242,0.02148928,-0.14012475,-0.14616375,0.44,0.74,0.62,16003,10205.2,99,90,3,1.26,-11.34,-9.52,0.44,0.74,0.62
10.748047,0.054489277,-0.16112477,-0.13716374,0.43,0.73,0.61,16026,10204.5,99,90,3,3.57,-12.81,-8.89,0.43,0.73,0.61
10.448242,0.08348928,-0.15912475,-0.12516373,0.43,0.71,0.62,16033,10204.2,99,90,3,5.6,-12.67,-8.05,0.43,0.71,0.62
9.748047,0.11048927,-0.14712475,-0.104163736,0.42,0.71,0.61,16048,10203.5,99,90,3,7.49,-11.83,-6.58,0.42,0.71,0.61
12.448242,0.12748928,-0.13312475,-0.09016374,0.42,0.7,0.6,16064,10206.2,99,90,3,8.68,-10.85,-5.6,0.42,0.7,0.6
10.748047,0.15448928,-0.12812476,-0.09616374,0.42,0.7,0.59,16086,10204.5,99,90,3,10.57,-10.5,-6.02,0.42,0.7,0.59
9.448242,0.1614893,-0.14112476,-0.12116374,0.41,0.71,0.58,16109,10203.2,99,90,3,11.06,-11.41,-7.77,0.41,0.71,0.58
8.448242,0.17248929,-0.15412475,-0.12416374,0.39,0.73,0.58,16132,10202.2,99,90,3,11.83,-12.32,-7.98,0.39,0.73,0.58
8.448242,0.16948928,-0.15412475,-0.13216373,0.38,0.73,0.6,16147,10202.2,99,90,3,11.62,-12.32,-8.54,0.38,0.73,0.6
5.748047,0.12648928,-0.16212475,-0.13216373,0.38,0.75,0.6,16169,10199.5,99,90,3,8.61,-12.88,-8.54,0.38,0.75,0.6
7.748047,0.12648928,-0.16112477,-0.12616374,0.38,0.77,0.57,16191,10201.5,99,90,3,8.61,-12.81,-8.12,0.38,0.77,0.57
7.448242,0.15648928,-0.18112475,-0.14016375,0.38,0.78,0.53,16229,10201.2,99,90,3,10.71,-14.21,-9.1,0.38,0.78,0.53
7.748047,0.19848928,-0.20712477,-0.12616374,0.4,0.77,0.51,16236,10201.5,99,90,3,13.65,-16.03,-8.12,0.4,0.77,0.51
7.748047,0.21148929,-0.22612476,-0.07816374,0.39,0.78,0.51,16258,10201.5,99,90,3,14.56,-17.36,-4.76,0.39,0.78,0.51
6.748047,0.20748928,-0.22112475,-0.02716374,0.37,0.8,0.48,16282,10200.5,99,90,3,14.28,-17.01,-1.19,0.37,0.8,0.48
6.448242,0.22548929,-0.20212476,-0.010163739,0.36,0.81,0.47,16296,10200.2,99,90,3,15.54,-15.68,0,0.36,0.81,0.47
6.748047,0.24048929,-0.16712475,-0.00016373955,0.36,0.81,0.47,16311,10200.5,99,90,3,16.59,-13.23,0.7,0.36,0.81,0.47
6.748047,0.2664893,-0.12212474,0.02283626,0.39,0.8,0.47,16334,10200.5,99,90,3,18.41,-10.08,2.31,0.39,0.8,0.47
6.448242,0.2664893,-0.09012475,0.05583626,0.4,0.79,0.45,16357,10200.2,99,90,3,18.41,-7.84,4.62,0.4,0.79,0.45
6.748047,0.2534893,-0.09412474,0.06983626,0.42,0.81,0.45,16379,10200.5,99,90,3,17.5,-8.12,5.6,0.42,0.81,0.45
5.748047,0.22548929,-0.12212474,0.07483626,0.42,0.82,0.44,16401,10199.5,99,90,3,15.54,-10.08,5.95,0.42,0.82,0.44
4.748047,0.21848929,-0.12512475,0.061836258,0.39,0.84,0.42,16424,10198.5,99,90,3,15.05,-10.29,5.04,0.39,0.84,0.42
4.748047,0.24748929,-0.07112475,0.057836264,0.4,0.83,0.43,16438,10198.5,99,90,3,17.08,-6.51,4.76,0.4,0.83,0.43
2.6484375,0.2554893,-0.019124744,0.087836266,0.43,0.8,0.44,16461,10196.4,99,90,3,17.64,-2.87,6.86,0.43,0.8,0.44
3.0478516,0.24848928,0.015875254,0.10983626,0.43,0.8,0.43,16484,10196.8,99,90,3,17.15,-0.42,8.4,0.43,0.8,0.43
0.6484375,0.2454893,0.03487525,0.09183626,0.42,0.81,0.41,16506,10194.4,99,90,3,16.94,0.91,7.14,0.42,0.81,0.41
1.6484375,0.23948929,0.054875255,0.04983626,0.42,0.82,0.41,16528,10195.4,99,90,3,16.52,2.31,4.2,0.42,0.82,0.41
1.6484375,0.23748927,0.06787525,0.013836259,0.43,0.8,0.4,16543,10195.4,99,90,3,16.38,3.22,1.68,0.43,0.8,0.4
0.6484375,0.23948929,0.073875256,0.008836262,0.44,0.79,0.4,16558,10194.4,99,90,3,16.52,3.64,1.33,0.44,0.79,0.4
-0.3515625,0.22248928,0.07587525,0.01983626,0.45,0.78,0.41,16573,10193.4,99,90,3,15.33,3.78,2.1,0.45,0.78,0.41
-1.3515625,0.1774893,0.083875254,0.026836261,0.46,0.78,0.42,16596,10192.4,99,90,3,12.18,4.34,2.59,0.46,0.78,0.42
-1.0517578,0.12248927,0.10387525,0.03983626,0.47,0.77,0.44,16618,10192.7,99,90,3,8.33,5.74,3.5,0.47,0.77,0.44
-3.4521484,0.10948928,0.12387525,0.07783626,0.47,0.81,0.43,16641,10190.3,99,90,3,7.42,7.14,6.16,0.47,0.81,0.43
-10.551758,0.15848929,0.18187524,0.10483626,0.47,0.86,0.4,16663,10183.2,99,90,3,10.85,11.2,8.05,0.47,0.86,0.4
-5.751953,0.22348928,0.22287524,0.101836264,0.46,0.85,0.4,16686,10188,99,90,3,15.4,14.07,7.84,0.46,0.85,0.4
-7.1523438,0.24648929,0.25687528,0.090836264,0.47,0.83,0.39,16709,10186.6,99,90,3,17.01,16.45,7.07,0.47,0.83,0.39
-10.152344,0.23748927,0.26787525,0.07783626,0.47,0.81,0.39,16723,10183.6,99,90,3,16.38,17.22,6.16,0.47,0.81,0.39
-9.152344,0.21748927,0.28387526,0.061836258,0.45,0.82,0.39,16746,10184.6,99,90,3,14.98,18.34,5.04,0.45,0.82,0.39
-10.152344,0.2054893,0.32687527,0.04283626,0.41,0.83,0.38,16768,10183.6,99,90,3,14.14,21.35,3.71,0.41,0.83,0.38
-10.551758,0.19748929,0.35487527,0.026836261,0.4,0.82,0.39,16783,10183.2,99,90,3,13.58,23.31,2.59,0.4,0.82,0.39
-11.551758,0.18248928,0.37187526,0.027836263,0.42,0.81,0.39,16806,10182.2,99,90,3,12.53,24.5,2.66,0.42,0.81,0.39
-11.551758,0.16948928,0.36187527,0.045836262,0.45,0.83,0.34,16821,10182.2,99,90,3,11.62,23.8,3.92,0.45,0.83,0.34
-11.152344,0.22548929,0.34887525,0.08683626,0.43,0.86,0.33,16844,10182.6,99,90,3,15.54,22.89,6.79,0.43,0.86,0.33
-11.551758,0.23048928,0.37287524,0.061836258,0.4,0.83,0.38,16866,10182.2,99,90,3,15.89,24.57,5.04,0.4,0.83,0.38
-15.551758,0.15248929,0.40187526,0.04283626,0.38,0.82,0.43,16881,10178.2,99,90,3,10.43,26.6,3.71,0.38,0.82,0.43
-11.551758,0.09448928,0.43687525,0.03383626,0.38,0.87,0.4,16904,10182.2,99,90,3,6.37,29.05,3.08,0.38,0.87,0.4
-10.152344,0.18048929,0.5018752,0.08483626,0.38,0.87,0.38,16926,10183.6,99,90,3,12.39,33.6,6.65,0.38,0.87,0.38
-10.551758,0.2054893,0.5668753,0.079836264,0.36,0.83,0.42,16948,10183.2,99,90,3,14.14,38.15,6.3,0.36,0.83,0.42
-12.251953,0.14548928,0.62487525,0.06983626,0.33,0.82,0.45,16970,10181.5,99,90,3,9.94,42.21,5.6,0.33,0.82,0.45
-9.152344,0.11448928,0.6728753,0.090836264,0.35,0.84,0.42,16993,10184.6,99,90,3,7.77,45.57,7.07,0.35,0.84,0.42
-13.251953,0.1554893,0.7198753,0.14783627,0.35,0.85,0.41,17016,10180.5,99,90,3,10.64,48.86,11.06,0.35,0.85,0.41
-11.152344,0.1614893,0.72687525,0.15283626,0.36,0.84,0.41,17038,10182.6,99,90,3,11.06,49.35,11.41,0.36,0.84,0.41
-11.8515625,0.13248928,0.71587527,0.14983626,0.36,0.84,0.42,17060,10181.9,99,90,3,9.03,48.58,11.2,0.36,0.84,0.42
-9.152344,0.11248928,0.67887527,0.15083627,0.37,0.85,0.42,17062,10184.6,99,90,3,7.63,45.99,11.27,0.37,0.85,0.42
-7.8515625,0.09948927,0.6268752,0.15283626,0.38,0.83,0.41,17084,10185.9,99,90,3,6.72,42.35,11.41,0.38,0.83,0.41
-8.152344,0.08048928,0.56087524,0.15883626,0.38,0.82,0.41,17107,10185.6,99,90,3,5.39,37.73,11.83,0.38,0.82,0.41
-9.152344,0.06848928,0.5068753,0.16483626,0.37,0.82,0.41,17129,10184.6,99,90,3,4.55,33.95,12.25,0.37,0.82,0.41
-9.152344,0.06248928,0.45287526,0.14083625,0.39,0.82,0.42,17151,10184.6,99,90,3,4.13,30.17,10.57,0.39,0.82,0.42
-10.551758,0.03348928,0.36487526,0.12083626,0.4,0.8,0.41,17174,10183.2,99,90,3,2.1,24.01,9.17,0.4,0.8,0.41
-7.8515625,0.01748928,0.27187526,0.10083626,0.39,0.81,0.42,17204,10185.9,99,90,3,0.98,17.5,7.77,0.39,0.81,0.42
-10.152344,0.006489279,0.21087524,0.07783626,0.4,0.81,0.43,17211,10183.6,99,90,3,0.21,13.23,6.16,0.4,0.81,0.43
-9.152344,-0.012510722,0.12887524,0.06483626,0.4,0.81,0.43,17234,10184.6,99,90,3,-1.12,7.49,5.25,0.4,0.81,0.43
-9.152344,-0.03251072,0.065875255,0.04983626,0.4,0.8,0.45,17256,10184.6,99,90,3,-2.52,3.08,4.2,0.4,0.8,0.45
-8.8515625,-0.058510724,0.013875253,0.04683626,0.39,0.81,0.48,17279,10184.9,99,90,3,-4.34,-0.56,3.99,0.39,0.81,0.48
-7.1523438,-0.07351072,0.0038752537,0.06283626,0.38,0.8,0.49,17294,10186.6,99,90,3,-5.39,-1.26,5.11,0.38,0.8,0.49
-6.8515625,-0.075510725,-0.0011247471,0.07283626,0.37,0.82,0.49,17316,10186.9,99,90,3,-5.53,-1.61,5.81,0.37,0.82,0.49
-6.751953,-0.07851072,-0.013124747,0.05983626,0.37,0.83,0.49,17338,10187,99,90,3,-5.74,-2.45,4.9,0.37,0.83,0.49
-5.1523438,-0.06951072,-0.024124747,0.04183626,0.37,0.82,0.49,17361,10188.6,99,90,3,-5.11,-3.22,3.64,0.37,0.82,0.49
-2.7519531,-0.052510723,-0.020124746,0.04283626,0.37,0.81,0.5,17376,10191,99,90,3,-3.92,-2.94,3.71,0.37,0.81,0.5
-2.0517578,-0.04751072,-0.0151247475,0.038836263,0.36,0.8,0.5,17398,10191.7,99,90,3,-3.57,-2.59,3.43,0.36,0.8,0.5
-0.051757812,-0.05651072,-0.0141247455,0.027836263,0.36,0.8,0.49,17429,10193.7,99,90,3,-4.2,-2.52,2.66,0.36,0.8,0.49
-0.7519531,-0.04351072,-0.006124748,0.03983626,0.37,0.81,0.48,17444,10193,99,90,3,-3.29,-1.96,3.5,0.37,0.81,0.48
0.6484375,-0.02451072,-0.008124746,0.071836255,0.39,0.8,0.47,17466,10194.4,99,90,3,-1.96,-2.1,5.74,0.39,0.8,0.47
0.9482422,-0.02251072,-0.012124749,0.096836254,0.4,0.81,0.49,17488,10194.7,99,90,3,-1.82,-2.38,7.49,0.4,0.81,0.49
0.9482422,-0.04951072,0.004875252,0.09383626,0.37,0.83,0.5,17527,10194.7,99,90,3,-3.71,-1.19,7.28,0.37,0.83,0.5
1.6484375,-0.06651072,0.27687526,0.043836262,0.35,0.84,0.5,17529,10195.4,99,90,3,-4.9,17.85,3.78,0.35,0.84,0.5
1.3476562,-0.07451072,0.042875253,-0.002163739,0.35,0.84,0.49,17540,10195.1,99,90,3,-5.46,1.47,0.56,0.35,0.84,0.49
1.9482422,-0.07251073,0.046875253,-0.037163742,0.37,0.83,0.48,17557,10195.7,99,90,3,-5.32,1.75,-1.89,0.37,0.83,0.48
0.9482422,-0.057510722,0.031875253,-0.04516374,0.39,0.82,0.45,17578,10194.7,99,90,3,-4.27,0.7,-2.45,0.39,0.82,0.45
2.3476562,-0.031510722,0.0068752533,-0.035163738,0.39,0.8,0.45,17601,10196.1,99,90,3,-2.45,-1.05,-1.75,0.39,0.8,0.45
2.3476562,-0.04951072,-0.025124745,-0.037163742,0.39,0.79,0.46,17624,10196.1,99,90,3,-3.71,-3.29,-1.89,0.39,0.79,0.46
2.3476562,-0.075510725,-0.050124742,-0.05316374,0.38,0.79,0.47,17646,10196.1,99,90,3,-5.53,-5.04,-3.01,0.38,0.79,0.47
1.3476562,-0.09551072,-0.070124745,-0.05316374,0.39,0.78,0.47,17668,10195.1,99,90,3,-6.93,-6.44,-3.01,0.39,0.78,0.47
1.9482422,-0.09951072,-0.08712475,-0.03216374,0.41,0.78,0.48,17683,10195.7,99,90,3,-7.21,-7.63,-1.54,0.41,0.78,0.48
3.3476562,-0.10151072,-0.12212474,0.0008362606,0.43,0.79,0.47,17713,10197.1,99,90,3,-7.35,-10.08,0.77,0.43,0.79,0.47
2.3476562,-0.11751073,-0.17112476,0.003836261,0.43,0.79,0.47,17728,10196.1,99,90,3,-8.47,-13.51,0.98,0.43,0.79,0.47
2.3476562,-0.13451071,-0.21312477,-0.008163739,0.42,0.79,0.48,17751,10196.1,99,90,3,-9.66,-16.45,0.14,0.42,0.79,0.48
-3.7519531,-0.13451071,-0.23412476,-0.019163739,0.41,0.8,0.49,17781,10190,99,90,3,-9.66,-17.92,-0.63,0.41,0.8,0.49
1.3476562,-0.12751071,-0.23512475,-0.02616374,0.41,0.8,0.51,17789,10195.1,99,90,3,-9.17,-17.99,-1.12,0.41,0.8,0.51
3.6484375,-0.11951072,-0.21812475,-0.030163739,0.4,0.8,0.52,17804,10197.4,99,90,3,-8.61,-16.8,-1.4,0.4,0.8,0.52
3.3476562,-0.09651072,-0.19412476,-0.019163739,0.4,0.81,0.52,17818,10197.1,99,90,3,-7,-15.12,-0.63,0.4,0.81,0.52
3.3476562,-0.058510724,-0.13112475,0.0018362598,0.39,0.81,0.53,17841,10197.1,99,90,3,-4.34,-10.71,0.84,0.39,0.81,0.53
1.3476562,-0.05151072,-0.052124746,-0.016163738,0.38,0.82,0.53,17871,10195.1,99,90,3,-3.85,-5.18,-0.42,0.38,0.82,0.53
1.3476562,-0.020510718,0.011875253,-0.05316374,0.37,0.82,0.53,17886,10195.1,99,90,3,-1.68,-0.7,-3.01,0.37,0.82,0.53
2.3476562,-0.14651072,0.08687526,-0.07816374,0.38,0.82,0.54,17909,10196.1,99,90,3,-10.5,4.55,-4.76,0.38,0.82,0.54
-3.4521484,-0.01451072,0.106875256,-0.08316374,0.39,0.76,0.5,17938,10190.3,99,90,3,-1.26,5.95,-5.11,0.39,0.76,0.5
2.6484375,0.11448928,0.11587525,-0.07316374,0.37,0.77,0.59,17953,10196.4,99,90,3,7.77,6.58,-4.41,0.37,0.77,0.59
-0.7519531,-0.12051073,0.08587526,-0.08016374,0.4,0.8,0.5,17977,10193,99,90,3,-8.68,4.48,-4.9,0.4,0.8,0.5
-2.4521484,-0.05151072,0.044875253,-0.07716374,0.39,0.78,0.5,17992,10191.3,99,90,3,-3.85,1.61,-4.69,0.39,0.78,0.5
3.0478516,0.02148928,-0.017124748,-0.08516374,0.36,0.76,0.48,18013,10196.8,99,90,3,1.26,-2.73,-5.25,0.36,0.76,0.48
8.047852,0.054489277,0.24387525,-0.08716374,0.35,0.83,0.61,18035,10201.8,99,90,3,3.57,15.54,-5.39,0.35,0.83,0.61
-5.1523438,0.08248928,0.0028752517,-0.07616374,0.34,0.78,0.48,18058,10188.6,99,90,3,5.53,-1.33,-4.62,0.34,0.78,0.48
5.748047,0.15348929,0.031875253,-0.067163736,0.36,0.84,0.48,18065,10199.5,99,90,3,10.5,0.7,-3.99,0.36,0.84,0.48
3.0478516,-0.071510725,0.08287525,-0.037163742,0.36,0.84,0.52,18096,10196.8,99,90,3,-5.25,4.27,-1.89,0.36,0.84,0.52
-4.751953,0.1394893,0.06687526,0.24183626,0.37,0.78,0.47,18112,10189,99,90,3,9.52,3.15,17.64,0.37,0.78,0.47
3.3476562,-0.07751072,0.09287525,0.0008362606,0.38,0.85,0.5,18133,10197.1,99,90,3,-5.67,4.97,0.77,0.38,0.85,0.5
-2.7519531,0.056489278,0.059875257,0.0008362606,0.39,0.79,0.46,18148,10191,99,90,3,3.71,2.66,0.77,0.39,0.79,0.46
4.6484375,-0.122510724,0.055875257,-0.034163736,0.36,0.82,0.51,18171,10198.4,99,90,3,-8.82,2.38,-1.68,0.36,0.82,0.51
-1.3515625,-0.09151072,0.023875253,-0.05216374,0.39,0.8,0.5,18194,10192.4,99,90,3,-6.65,0.14,-2.94,0.39,0.8,0.5
-6.4521484,-0.13551071,0.011875253,-0.06816374,0.39,0.86,0.53,18216,10187.3,99,90,3,-9.73,-0.7,-4.06,0.39,0.86,0.53
1.3476562,-0.09951072,-0.007124746,-0.08416374,0.37,0.84,0.5,18239,10195.1,99,90,3,-7.21,-2.03,-5.18,0.37,0.84,0.5
2.6484375,0.013489279,-0.030124748,-0.09516374,0.37,0.81,0.49,18262,10196.4,99,90,3,0.7,-3.64,-5.95,0.37,0.81,0.49
2.6484375,-0.009510721,-0.045124747,-0.09816374,0.38,0.8,0.5,18284,10196.4,99,90,3,-0.91,-4.69,-6.16,0.38,0.8,0.5
5.3476562,-0.01451072,-0.06012474,-0.09116374,0.37,0.79,0.5,18298,10199.1,99,90,3,-1.26,-5.74,-5.67,0.37,0.79,0.5
4.6484375,-0.01451072,-0.06512475,-0.08716374,0.35,0.8,0.51,18313,10198.4,99,90,3,-1.26,-6.09,-5.39,0.35,0.8,0.51
3.6484375,-0.02251072,-0.056124747,-0.08816374,0.35,0.8,0.51,18336,10197.4,99,90,3,-1.82,-5.46,-5.46,0.35,0.8,0.51
4.0478516,-0.028510721,-0.04212475,-0.082163736,0.35,0.8,0.5,18366,10197.8,99,90,3,-2.24,-4.48,-5.04,0.35,0.8,0.5
4.0478516,-0.03251072,-0.04012475,-0.092163734,0.35,0.81,0.5,18381,10197.8,99,90,3,-2.52,-4.34,-5.74,0.35,0.81,0.5
4.6484375,-0.04351072,-0.051124744,-0.10916374,0.35,0.8,0.51,18396,10198.4,99,90,3,-3.29,-5.11,-6.93,0.35,0.8,0.51
2.6484375,-0.059510723,-0.063124746,-0.12116374,0.34,0.8,0.5,18418,10196.4,99,90,3,-4.41,-5.95,-7.77,0.34,0.8,0.5
3.6484375,-0.07051072,-0.07612475,-0.12816374,0.34,0.81,0.51,18441,10197.4,99,90,3,-5.18,-6.86,-8.26,0.34,0.81,0.51
0.6484375,-0.06251072,-0.081124745,-0.115163736,0.34,0.8,0.51,18463,10194.4,99,90,3,-4.62,-7.21,-7.35,0.34,0.8,0.51
4.6484375,-0.059510723,-0.081124745,-0.09016374,0.35,0.79,0.52,18486,10198.4,99,90,3,-4.41,-7.21,-5.6,0.35,0.79,0.52
3.6484375,-0.06251072,-0.081124745,-0.06816374,0.34,0.8,0.52,18509,10197.4,99,90,3,-4.62,-7.21,-4.06,0.34,0.8,0.52
3.6484375,-0.05651072,-0.07912475,-0.06216374,0.33,0.81,0.52,18531,10197.4,99,90,3,-4.2,-7.07,-3.64,0.33,0.81,0.52
3.6484375,-0.04951072,-0.08212475,-0.06216374,0.33,0.82,0.52,18547,10197.4,99,90,3,-3.71,-7.28,-3.64,0.33,0.82,0.52
4.3476562,-0.03751072,-0.08512474,-0.06916374,0.34,0.82,0.51,18561,10198.1,99,90,3,-2.87,-7.49,-4.13,0.34,0.82,0.51
3.6484375,-0.01751072,-0.08312474,-0.06316374,0.34,0.81,0.52,18591,10197.4,99,90,3,-1.47,-7.35,-3.71,0.34,0.81,0.52
3.6484375,-0.01751072,-0.092124745,-0.04716374,0.34,0.79,0.53,18605,10197.4,99,90,3,-1.47,-7.98,-2.59,0.34,0.79,0.53
3.3476562,-0.033510722,-0.088124745,-0.03816374,0.34,0.79,0.53,18629,10197.1,99,90,3,-2.59,-7.7,-1.96,0.34,0.79,0.53
3.0478516,-0.035510723,-0.08212475,-0.03216374,0.33,0.81,0.52,18651,10196.8,99,90,3,-2.73,-7.28,-1.54,0.33,0.81,0.52
3.6484375,-0.02151072,-0.06512475,-0.028163739,0.32,0.8,0.52,18674,10197.4,99,90,3,-1.75,-6.09,-1.26,0.32,0.8,0.52
3.6484375,-0.0055107204,-0.04612475,-0.01416374,0.33,0.8,0.53,18688,10197.4,99,90,3,-0.63,-4.76,-0.28,0.33,0.8,0.53
3.0478516,-0.0115107205,-0.020124746,0.003836261,0.32,0.78,0.54,18710,10196.8,99,90,3,-1.05,-2.94,0.98,0.32,0.78,0.54
4.6484375,-0.020510718,0.015875254,0.02283626,0.32,0.79,0.54,18734,10198.4,99,90,3,-1.68,-0.42,2.31,0.32,0.79,0.54
4.0478516,-0.030510722,0.038875252,0.020836262,0.32,0.8,0.54,18764,10197.8,99,90,3,-2.38,1.19,2.17,0.32,0.8,0.54
3.6484375,-0.02251072,0.06887525,0.034836262,0.34,0.8,0.54,18779,10197.4,99,90,3,-1.82,3.29,3.15,0.34,0.8,0.54
4.6484375,-0.010510721,0.080875255,0.06483626,0.34,0.8,0.53,18794,10198.4,99,90,3,-0.98,4.13,5.25,0.34,0.8,0.53
6.0478516,0.00748928,0.09687526,0.08683626,0.34,0.8,0.53,18809,10199.8,99,90,3,0.28,5.25,6.79,0.34,0.8,0.53
4.6484375,0.02348928,0.10787526,0.08683626,0.33,0.8,0.53,18839,10198.4,99,90,3,1.4,6.02,6.79,0.33,0.8,0.53
4.6484375,0.02148928,0.12587525,0.07483626,0.33,0.8,0.53,18853,10198.4,99,90,3,1.26,7.28,5.95,0.33,0.8,0.53
4.0478516,0.0054892795,0.13787524,0.06683626,0.33,0.8,0.53,18886,10197.8,99,90,3,0.14,8.12,5.39,0.33,0.8,0.53
3.0478516,0.01148928,0.15287524,0.068836264,0.34,0.8,0.52,18899,10196.8,99,90,3,0.56,9.17,5.53,0.34,0.8,0.52
1.9482422,0.02348928,0.15787525,0.08083626,0.35,0.79,0.52,18921,10195.7,99,90,3,1.4,9.52,6.37,0.35,0.79,0.52
1.6484375,0.01148928,0.14487524,0.09383626,0.36,0.79,0.52,18945,10195.4,99,90,3,0.56,8.61,7.28,0.36,0.79,0.52
0.9482422,-0.0075107208,0.11787525,0.096836254,0.36,0.8,0.51,18966,10194.7,99,90,3,-0.77,6.72,7.49,0.36,0.8,0.51
-0.051757812,-0.0065107206,0.09287525,0.08683626,0.35,0.81,0.51,18982,10193.7,99,90,3,-0.7,4.97,6.79,0.35,0.81,0.51
-1.0517578,0.010489279,0.073875256,0.07083626,0.36,0.81,0.52,19003,10192.7,99,90,3,0.49,3.64,5.67,0.36,0.81,0.52
-1.0517578,0.02148928,0.058875255,0.06283626,0.36,0.8,0.52,19026,10192.7,99,90,3,1.26,2.59,5.11,0.36,0.8,0.52
-3.0517578,0.027489278,0.052875254,0.06483626,0.35,0.8,0.52,19041,10190.7,99,90,3,1.68,2.17,5.25,0.35,0.8,0.52
-8.152344,0.039489277,0.04587525,0.068836264,0.35,0.8,0.52,19063,10185.6,99,90,3,2.52,1.68,5.53,0.35,0.8,0.52
-8.152344,0.05248928,0.046875253,0.06783626,0.35,0.81,0.52,19078,10185.6,99,90,3,3.43,1.75,5.46,0.35,0.81,0.52
-10.152344,0.065489285,0.061875254,0.06983626,0.34,0.8,0.52,19101,10183.6,99,90,3,4.34,2.8,5.6,0.34,0.8,0.52
-13.251953,0.06748928,0.07787526,0.068836264,0.34,0.8,0.52,19124,10180.5,99,90,3,4.48,3.92,5.53,0.34,0.8,0.52
-14.251953,0.06248928,0.08187525,0.065836266,0.35,0.8,0.52,19146,10179.5,99,90,3,4.13,4.2,5.32,0.35,0.8,0.52
-14.251953,0.045489278,0.080875255,0.06783626,0.36,0.8,0.51,19169,10179.5,99,90,3,2.94,4.13,5.46,0.36,0.8,0.51
-13.251953,0.03348928,0.06687526,0.065836266,0.36,0.8,0.51,19191,10180.5,99,90,3,2.1,3.15,5.32,0.36,0.8,0.51
-14.251953,0.02948928,0.057875253,0.05283626,0.36,0.8,0.51,19213,10179.5,99,90,3,1.82,2.52,4.41,0.36,0.8,0.51
-13.251953,0.036489278,0.037875254,0.060836256,0.37,0.8,0.51,19236,10180.5,99,90,3,2.31,1.12,4.97,0.37,0.8,0.51
-9.8515625,0.04848928,0.020875253,0.05583626,0.37,0.81,0.51,19258,10183.9,99,90,3,3.15,-0.07,4.62,0.37,0.81,0.51
-13.251953,0.06348928,-0.00012474693,0.04083626,0.37,0.8,0.51,19274,10180.5,99,90,3,4.2,-1.54,3.57,0.37,0.8,0.51
-13.952148,0.07348928,-0.0031247474,0.043836262,0.37,0.79,0.52,19295,10179.8,99,90,3,4.9,-1.75,3.78,0.37,0.79,0.52
-13.251953,0.061489277,-0.0031247474,0.03583626,0.36,0.79,0.53,19310,10180.5,99,90,3,4.06,-1.75,3.22,0.36,0.79,0.53
-13.251953,0.047489278,0.013875253,0.032836262,0.36,0.8,0.53,19333,10180.5,99,90,3,3.08,-0.56,3.01,0.36,0.8,0.53
-13.952148,0.05348928,0.035875253,0.04683626,0.36,0.81,0.53,19356,10179.8,99,90,3,3.5,0.98,3.99,0.36,0.81,0.53
-13.251953,0.065489285,0.05687525,0.04783626,0.35,0.8,0.53,19379,10180.5,99,90,3,4.34,2.45,4.06,0.35,0.8,0.53
-13.251953,0.08048928,0.076875255,0.032836262,0.35,0.81,0.53,19401,10180.5,0,90,3,5.39,3.85,3.01,0.35,0.81,0.53
-13.251953,0.08748928,0.10587525,0.00783626,0.33,0.82,0.53,19428,10180.5,0,90,3,5.88,5.88,1.26,0.33,0.82,0.53
-11.8515625,0.12248927,0.15187526,-0.008163739,0.32,0.81,0.51,19453,10181.9,0,90,3,8.33,9.1,0.14,0.32,0.81,0.51
-16.952148,0.1554893,0.20287524,-0.009163739,0.33,0.78,0.51,19468,10176.8,0,90,3,10.64,12.67,0.07,0.33,0.78,0.51
-6.8515625,0.15948929,0.24287525,0.0068362616,0.33,0.74,0.51,19490,10186.9,0,90,3,10.92,15.47,1.19,0.33,0.74,0.51
-9.551758,0.13048929,0.25487524,-0.013163739,0.31,0.76,0.51,19505,10184.2,0,90,3,8.89,16.31,-0.21,0.31,0.76,0.51
-8.8515625,0.09648928,0.26087525,-0.04016374,0.32,0.76,0.51,19528,10184.9,0,90,3,6.51,16.73,-2.1,0.32,0.76,0.51
-8.8515625,0.065489285,0.24887525,-0.04416374,0.32,0.77,0.51,19543,10184.9,0,90,3,4.34,15.89,-2.38,0.32,0.77,0.51
-7.8515625,0.04648928,0.23087525,-0.03316374,0.34,0.79,0.5,19558,10185.9,0,90,3,3.01,14.63,-1.61,0.34,0.79,0.5
-7.4521484,0.03848928,0.18287526,-0.006163739,0.34,0.8,0.49,19581,10186.3,0,90,3,2.45,11.27,0.28,0.34,0.8,0.49
-5.751953,0.02348928,0.14287525,0.02283626,0.33,0.81,0.51,19603,10188,0,90,3,1.4,8.47,2.31,0.33,0.81,0.51
-5.1523438,-0.01751072,0.098875254,0.06283626,0.35,0.83,0.53,19626,10188.6,0,90,3,-1.47,5.39,5.11,0.35,0.83,0.53
-4.751953,-0.04251072,0.06487525,0.10783626,0.35,0.84,0.53,19648,10189,0,90,3,-3.22,3.01,8.26,0.35,0.84,0.53
-1.0517578,-0.04451072,0.051875252,0.13783626,0.35,0.84,0.52,19670,10192.7,0,90,3,-3.36,2.1,10.36,0.35,0.84,0.52
-0.7519531,-0.027510721,0.042875253,0.14383626,0.34,0.84,0.53,19693,10193,0,90,3,-2.17,1.47,10.78,0.34,0.84,0.53
0.9482422,-0.01751072,0.044875253,0.116836265,0.32,0.84,0.53,19715,10194.7,0,90,3,-1.47,1.61,8.89,0.32,0.84,0.53
4.3476562,-0.00851072,0.05687525,0.06983626,0.32,0.83,0.52,19731,10198.1,0,90,3,-0.84,2.45,5.6,0.32,0.83,0.52
6.3476562,0.008489279,0.072875254,0.05083626,0.32,0.81,0.51,19754,10200.1,0,90,3,0.35,3.57,4.27,0.32,0.81,0.51
11.448242,0.018489279,0.06987525,0.05283626,0.33,0.8,0.51,19776,10205.2,0,90,3,1.05,3.36,4.41,0.33,0.8,0.51
11.448242,0.015489278,0.057875253,0.06383626,0.34,0.8,0.51,19791,10205.2,0,90,3,0.84,2.52,5.18,0.34,0.8,0.51
7.748047,0.009489279,0.04187525,0.079836264,0.35,0.8,0.51,19814,10201.5,0,90,3,0.42,1.4,6.3,0.35,0.8,0.51
11.448242,0.010489279,0.029875252,0.10083626,0.34,0.81,0.51,19828,10205.2,0,90,3,0.49,0.56,7.77,0.34,0.81,0.51
10.448242,0.009489279,0.020875253,0.098836266,0.34,0.81,0.51,19851,10204.2,0,90,3,0.42,-0.07,7.63,0.34,0.81,0.51
12.448242,0.018489279,0.021875253,0.10583626,0.35,0.82,0.51,19874,10206.2,0,90,3,1.05,0,8.12,0.35,0.82,0.51
10.448242,0.01648928,0.019875253,0.09983626,0.34,0.82,0.52,19895,10204.2,0,90,3,0.91,-0.14,7.7,0.34,0.82,0.52
10.1484375,0.009489279,0.012875253,0.08883626,0.34,0.82,0.52,19918,10203.9,0,90,3,0.42,-0.63,6.93,0.34,0.82,0.52
10.748047,0.0044892794,0.011875253,0.071836255,0.34,0.82,0.53,19941,10204.5,0,90,3,0.07,-0.7,5.74,0.34,0.82,0.53
10.748047,0.00748928,0.024875253,0.07483626,0.35,0.82,0.52,19963,10204.5,0,90,3,0.28,0.21,5.95,0.35,0.82,0.52
10.448242,0.02148928,0.03487525,0.090836264,0.35,0.83,0.52,19986,10204.2,0,90,3,1.26,0.91,7.07,0.35,0.83,0.52
9.448242,0.03548928,0.040875256,0.09283626,0.35,0.83,0.51,20009,10203.2,0,90,3,2.24,1.33,7.21,0.35,0.83,0.51
11.1484375,0.050489277,0.026875254,0.08383626,0.35,0.82,0.5,20024,10204.9,0,90,3,3.29,0.35,6.58,0.35,0.82,0.5
11.448242,0.056489278,0.017875252,0.07483626,0.35,0.81,0.5,20046,10205.2,0,90,3,3.71,-0.28,5.95,0.35,0.81,0.5
8.448242,0.06648928,0.011875253,0.07483626,0.35,0.82,0.5,20062,10202.2,0,90,3,4.41,-0.7,5.95,0.35,0.82,0.5
9.448242,0.07048928,0.0078752525,0.07783626,0.35,0.83,0.49,20076,10203.2,0,90,3,4.69,-0.98,6.16,0.35,0.83,0.49
4.6484375,0.08548927,0.009875254,0.09283626,0.36,0.82,0.49,20105,10198.4,0,90,3,5.74,-0.84,7.21,0.36,0.82,0.49
9.448242,0.10648928,0.004875252,0.12183626,0.36,0.81,0.48,20120,10203.2,0,90,3,7.21,-1.19,9.24,0.36,0.81,0.48
9.448242,0.11448928,-0.0031247474,0.15083627,0.36,0.81,0.47,20136,10203.2,0,90,3,7.77,-1.75,11.27,0.36,0.81,0.47
9.748047,0.11048927,0.0068752533,0.19283625,0.36,0.78,0.47,20159,10203.5,0,90,3,7.49,-1.05,14.21,0.36,0.78,0.47
8.748047,0.09948927,0.035875253,0.25983626,0.35,0.76,0.48,20180,10202.5,0,90,3,6.72,0.98,18.9,0.35,0.76,0.48
8.448242,0.06248928,0.07187525,0.32883626,0.36,0.76,0.49,20203,10202.2,0,90,3,4.13,3.5,23.73,0.36,0.76,0.49
8.047852,0.022489281,0.091875255,0.38383627,0.37,0.77,0.48,20233,10201.8,0,90,3,1.33,4.9,27.58,0.37,0.77,0.48
4.6484375,-0.0035107208,0.091875255,0.36783624,0.38,0.79,0.47,20248,10198.4,97,91,3,-0.49,4.9,26.46,0.38,0.79,0.47
6.748047,0.0014892793,0.06687526,0.30683625,0.39,0.79,0.45,20286,10200.5,97,91,3,-0.14,3.15,22.19,0.39,0.79,0.45
7.3476562,0.01948928,0.027875252,0.19183627,0.39,0.8,0.46,20294,10201.1,97,91,3,1.12,0.42,14.14,0.39,0.8,0.46
5.748047,0.0034892794,-0.0151247475,0.11183626,0.42,0.8,0.49,20313,10199.5,97,91,3,0,-2.59,8.54,0.42,0.8,0.49
5.748047,-0.020510718,-0.051124744,0.06983626,0.44,0.79,0.51,20331,10199.5,97,91,3,-1.68,-5.11,5.6,0.44,0.79,0.51
5.748047,-0.059510723,-0.06812475,0.08083626,0.45,0.77,0.53,20346,10199.5,97,91,3,-4.41,-6.3,6.37,0.45,0.77,0.53
4.6484375,-0.075510725,-0.058124743,0.09983626,0.44,0.77,0.53,20368,10198.4,97,91,3,-5.53,-5.6,7.7,0.44,0.77,0.53
4.6484375,-0.06651072,-0.03512475,0.11083627,0.44,0.78,0.52,20383,10198.4,97,91,3,-4.9,-3.99,8.47,0.44,0.78,0.52
4.6484375,-0.041510724,-0.029124746,0.08883626,0.43,0.8,0.52,20407,10198.4,97,91,3,-3.15,-3.57,6.93,0.43,0.8,0.52
3.6484375,-0.02251072,-0.029124746,0.05583626,0.43,0.8,0.51,20428,10197.4,97,91,3,-1.82,-3.57,4.62,0.43,0.8,0.51
3.6484375,0.0004892796,-0.025124745,0.05083626,0.44,0.78,0.51,20451,10197.4,97,91,3,-0.21,-3.29,4.27,0.44,0.78,0.51
3.6484375,0.0024892795,-0.011124747,0.05883626,0.43,0.76,0.51,20474,10197.4,97,91,3,-0.07,-2.31,4.83,0.43,0.76,0.51
3.6484375,-0.0015107205,0.0028752517,0.060836256,0.43,0.77,0.49,20496,10197.4,97,91,3,-0.35,-1.33,4.97,0.43,0.77,0.49
2.6484375,-0.0015107205,0.009875254,0.027836263,0.43,0.78,0.48,20519,10196.4,97,91,3,-0.35,-0.84,2.66,0.43,0.78,0.48
1.6484375,-0.00851072,0.0068752533,-0.00016373955,0.44,0.77,0.49,20533,10195.4,97,91,3,-0.84,-1.05,0.7,0.44,0.77,0.49
0.6484375,-0.03251072,-0.0021247454,-0.01216374,0.45,0.76,0.49,20548,10194.4,97,91,3,-2.52,-1.68,-0.14,0.45,0.76,0.49
-0.051757812,-0.05151072,-0.006124748,-0.022163738,0.45,0.77,0.5,20571,10193.7,97,91,3,-3.85,-1.96,-0.84,0.45,0.77,0.5
-1.4521484,-0.06751072,-0.018124746,-0.04916374,0.44,0.78,0.5,20586,10192.3,97,91,3,-4.97,-2.8,-2.73,0.44,0.78,0.5
-1.4521484,-0.060510725,-0.029124746,-0.092163734,0.43,0.79,0.5,20609,10192.3,97,91,3,-4.48,-3.57,-5.74,0.43,0.79,0.5
-2.0517578,-0.04351072,-0.05412475,-0.14216374,0.43,0.79,0.5,20632,10191.7,97,91,3,-3.29,-5.32,-9.24,0.43,0.79,0.5
-3.4521484,-0.033510722,-0.084124744,-0.17416373,0.44,0.78,0.51,20654,10190.3,97,91,3,-2.59,-7.42,-11.48,0.44,0.78,0.51
-4.1523438,-0.034510724,-0.11212475,-0.18516374,0.43,0.76,0.52,20676,10189.6,97,91,3,-2.66,-9.38,-12.25,0.43,0.76,0.52
-4.4521484,-0.03851072,-0.12312474,-0.18216375,0.42,0.76,0.53,20699,10189.3,97,91,3,-2.94,-10.15,-12.04,0.42,0.76,0.53
-6.1523438,-0.04051072,-0.13012476,-0.18116374,0.4,0.76,0.53,20722,10187.6,97,91,3,-3.08,-10.64,-11.97,0.4,0.76,0.53
-8.152344,-0.028510721,-0.115124755,-0.16716373,0.39,0.79,0.53,20744,10185.6,97,91,3,-2.24,-9.59,-10.99,0.39,0.79,0.53
-7.1523438,-0.01651072,-0.09412474,-0.14616375,0.39,0.8,0.53,20758,10186.6,97,91,3,-1.4,-8.12,-9.52,0.39,0.8,0.53
-8.152344,-0.0015107205,-0.070124745,-0.11316374,0.39,0.79,0.53,20781,10185.6,97,91,3,-0.35,-6.44,-7.21,0.39,0.79,0.53
-8.152344,0.0024892795,-0.047124743,-0.09516374,0.38,0.79,0.52,20795,10185.6,97,91,3,-0.07,-4.83,-5.95,0.38,0.79,0.52
-8.551758,0.015489278,-0.02712475,-0.08516374,0.37,0.79,0.52,20818,10185.2,97,91,3,0.84,-3.43,-5.25,0.37,0.79,0.52
-9.152344,0.03048928,-0.008124746,-0.08716374,0.36,0.8,0.51,20834,10184.6,97,91,3,1.89,-2.1,-5.39,0.36,0.8,0.51
-7.4521484,0.047489278,0.009875254,-0.11216374,0.35,0.8,0.5,20856,10186.3,97,91,3,3.08,-0.84,-7.14,0.35,0.8,0.5
-8.152344,0.058489278,0.010875253,-0.12316374,0.37,0.79,0.5,20879,10185.6,97,91,3,3.85,-0.77,-7.91,0.37,0.79,0.5
-9.152344,0.051489275,0.017875252,-0.092163734,0.38,0.78,0.51,20901,10184.6,97,91,3,3.36,-0.28,-5.74,0.38,0.78,0.51
-9.152344,0.036489278,0.028875254,-0.04016374,0.38,0.78,0.52,20924,10184.6,97,91,3,2.31,0.49,-2.1,0.38,0.78,0.52
-9.152344,0.03748928,0.06687526,-0.010163739,0.36,0.79,0.52,20946,10184.6,97,91,3,2.38,3.15,0,0.36,0.79,0.52
-9.152344,0.04948928,0.12287526,-0.0041637397,0.34,0.8,0.53,20968,10184.6,97,91,3,3.22,7.07,0.42,0.34,0.8,0.53
-4.751953,0.07348928,0.20187525,0.00983626,0.34,0.79,0.54,20991,10189,97,91,3,4.9,12.6,1.4,0.34,0.79,0.54
-9.152344,0.09348928,0.27987525,0.05283626,0.34,0.78,0.54,21006,10184.6,97,91,3,6.3,18.06,4.41,0.34,0.78,0.54
-8.152344,0.10148928,0.34287524,0.101836264,0.34,0.78,0.54,21028,10185.6,97,91,3,6.86,22.47,7.84,0.34,0.78,0.54
-8.551758,0.09848928,0.36287528,0.10983626,0.36,0.77,0.52,21043,10185.2,97,91,3,6.65,23.87,8.4,0.36,0.77,0.52
-10.251953,0.086489275,0.33587524,0.10583626,0.39,0.78,0.49,21065,10183.5,97,91,3,5.81,21.98,8.12,0.39,0.78,0.49
-8.152344,0.07848928,0.26787525,0.12183626,0.41,0.8,0.47,21081,10185.6,97,91,3,5.25,17.22,9.24,0.41,0.8,0.47
-8.152344,0.08748928,0.20387524,0.14883626,0.39,0.8,0.47,21102,10185.6,97,91,3,5.88,12.74,11.13,0.39,0.8,0.47
-6.1523438,0.09448928,0.17787525,0.16283625,0.38,0.79,0.49,21126,10187.6,97,91,3,6.37,10.92,12.11,0.38,0.79,0.49
-8.152344,0.06948928,0.16487525,0.14483626,0.38,0.79,0.49,21148,10185.6,97,91,3,4.62,10.01,10.85,0.38,0.79,0.49
-9.8515625,0.02648928,0.11187526,0.10083626,0.39,0.8,0.48,21170,10183.9,97,91,3,1.61,6.3,7.77,0.39,0.8,0.48
-8.152344,0.008489279,0.065875255,0.06483626,0.4,0.82,0.48,21194,10185.6,97,91,3,0.35,3.08,5.25,0.4,0.82,0.48
-7.8515625,0.010489279,0.04587525,0.04883626,0.38,0.81,0.49,21216,10185.9,97,91,3,0.49,1.68,4.13,0.38,0.81,0.49
-9.8515625,0.018489279,0.046875253,0.034836262,0.37,0.81,0.5,21238,10183.9,97,91,3,1.05,1.75,3.15,0.37,0.81,0.5
-7.8515625,0.01948928,0.053875253,0.0048362603,0.37,0.79,0.51,21253,10185.9,97,91,3,1.12,2.24,1.05,0.37,0.79,0.51
-8.152344,0.018489279,0.06987525,-0.0011637397,0.37,0.79,0.51,21275,10185.6,97,91,3,1.05,3.36,0.63,0.37,0.79,0.51
-6.8515625,0.014489279,0.07887525,0.002836261,0.37,0.79,0.51,21298,10186.9,97,91,3,0.77,3.99,0.91,0.37,0.79,0.51
-5.8515625,-0.25251073,0.07487525,0.0018362598,0.38,0.79,0.51,21313,10187.9,97,91,3,-17.92,3.71,0.84,0.38,0.79,0.51
-6.1523438,-0.0065107206,0.06387525,-0.0051637394,0.38,0.8,0.5,21328,10187.6,97,91,3,-0.7,2.94,0.35,0.38,0.8,0.5
-8.8515625,-0.004510721,0.051875252,-0.017163739,0.38,0.8,0.51,21351,10184.9,97,91,3,-0.56,2.1,-0.49,0.38,0.8,0.51
-3.7519531,-0.004510721,0.038875252,-0.02416374,0.37,0.79,0.51,21373,10190,97,91,3,-0.56,1.19,-0.98,0.37,0.79,0.51
-2.7519531,-0.0115107205,0.022875253,-0.03316374,0.38,0.8,0.51,21395,10191,97,91,3,-1.05,0.07,-1.61,0.38,0.8,0.51
-0.7519531,-0.00851072,0.0078752525,-0.02916374,0.38,0.8,0.51,21411,10193,97,91,3,-0.84,-0.98,-1.33,0.38,0.8,0.51
-1.0517578,-0.015510722,-0.017124748,-0.04416374,0.38,0.81,0.51,21433,10192.7,97,91,3,-1.33,-2.73,-2.38,0.38,0.81,0.51
3.3476562,-0.0035107208,-0.056124747,-0.06216374,0.38,0.81,0.5,21457,10197.1,97,91,3,-0.49,-5.46,-3.64,0.38,0.81,0.5
6.3476562,-0.0075107208,-0.10612475,-0.08716374,0.39,0.81,0.5,21479,10200.1,97,91,3,-0.77,-8.96,-5.39,0.39,0.81,0.5
7.748047,-0.0015107205,-0.14912476,-0.09816374,0.38,0.81,0.5,21501,10201.5,97,91,3,-0.35,-11.97,-6.16,0.38,0.81,0.5
8.448242,0.012489279,-0.17612475,-0.104163736,0.38,0.81,0.51,21528,10202.2,97,91,3,0.63,-13.86,-6.58,0.38,0.81,0.51
10.448242,0.022489281,-0.19612476,-0.11016374,0.38,0.81,0.51,21539,10204.2,97,91,3,1.33,-15.26,-7,0.38,0.81,0.51
10.448242,0.03148928,-0.22012477,-0.11616374,0.39,0.8,0.51,21554,10204.2,97,91,3,1.96,-16.94,-7.42,0.39,0.8,0.51
10.448242,0.03848928,-0.24812473,-0.12316374,0.39,0.81,0.5,21568,10204.2,97,91,3,2.45,-18.9,-7.91,0.39,0.81,0.5
11.448242,0.051489275,-0.28612474,-0.13616374,0.38,0.82,0.5,21591,10205.2,97,91,3,3.36,-21.56,-8.82,0.38,0.82,0.5
9.448242,0.06748928,-0.31312475,-0.15216373,0.38,0.82,0.5,21613,10203.2,97,91,3,4.48,-23.45,-9.94,0.38,0.82,0.5
10.748047,0.08748928,-0.32512474,-0.17016374,0.37,0.82,0.5,21635,10204.5,97,91,3,5.88,-24.29,-11.2,0.37,0.82,0.5
8.448242,0.09248928,-0.31512475,-0.16916373,0.36,0.81,0.51,21658,10202.2,97,91,3,6.23,-23.59,-11.13,0.36,0.81,0.51
9.448242,0.10648928,-0.29212472,-0.16916373,0.35,0.83,0.51,21681,10203.2,97,91,3,7.21,-21.98,-11.13,0.35,0.83,0.51
9.448242,0.13248928,-0.24912475,-0.18916373,0.33,0.83,0.5,21703,10203.2,97,91,3,9.03,-18.97,-12.53,0.33,0.83,0.5
7.3476562,0.15948929,-0.19812475,-0.20016374,0.32,0.85,0.5,21726,10201.1,97,91,3,10.92,-15.4,-13.3,0.32,0.85,0.5
5.3476562,0.20248929,-0.13512474,-0.22416373,0.31,0.84,0.5,21741,10199.1,97,91,3,13.93,-10.99,-14.98,0.31,0.84,0.5
6.3476562,0.22848928,-0.07912475,-0.24016374,0.33,0.84,0.5,21763,10200.1,97,91,3,15.75,-7.07,-16.1,0.33,0.84,0.5
6.3476562,0.24948928,-0.048124745,-0.23116374,0.33,0.84,0.49,21778,10200.1,97,91,3,17.22,-4.9,-15.47,0.33,0.84,0.49
6.748047,0.2664893,-0.0141247455,-0.21716374,0.33,0.84,0.48,21800,10200.5,97,91,3,18.41,-2.52,-14.49,0.33,0.84,0.48
0.24804688,0.29848927,0.028875254,-0.21016374,0.31,0.85,0.48,21816,10194,97,91,3,20.65,0.49,-14,0.31,0.85,0.48
6.3476562,0.31748927,0.091875255,-0.20316374,0.31,0.84,0.48,21839,10200.1,97,91,3,21.98,4.9,-13.51,0.31,0.84,0.48
6.3476562,0.30448928,0.16287525,-0.18116374,0.31,0.82,0.48,21860,10200.1,97,91,3,21.07,9.87,-11.97,0.31,0.82,0.48
4.3476562,0.28448927,0.23887524,-0.13216373,0.3,0.82,0.48,21883,10198.1,97,91,3,19.67,15.19,-8.54,0.3,0.82,0.48
5.0478516,0.2594893,0.32687527,-0.06816374,0.29,0.82,0.48,21898,10198.8,97,91,3,17.92,21.35,-4.06,0.29,0.82,0.48
5.3476562,0.24248928,0.41787526,-0.0041637397,0.3,0.83,0.47,21928,10199.1,97,91,3,16.73,27.72,0.42,0.3,0.83,0.47
5.6484375,0.21748927,0.47087526,0.054836266,0.31,0.81,0.45,21944,10199.4,94,91,3,14.98,31.43,4.55,0.31,0.81,0.45
4.6484375,0.16748928,0.49387527,0.11483626,0.33,0.8,0.45,21966,10198.4,94,91,3,11.48,33.04,8.75,0.33,0.8,0.45
4.0478516,0.11248928,0.50787526,0.17783625,0.32,0.82,0.43,21988,10197.8,94,91,3,7.63,34.02,13.16,0.32,0.82,0.43
3.6484375,0.08448928,0.5208753,0.22983626,0.31,0.83,0.42,22011,10197.4,94,91,3,5.67,34.93,16.8,0.31,0.83,0.42
1.9482422,0.06848928,0.52287525,0.24583627,0.32,0.83,0.42,22033,10195.7,94,91,3,4.55,35.07,17.92,0.32,0.83,0.42
2.6484375,0.043489277,0.5118752,0.25383627,0.32,0.82,0.44,22048,10196.4,94,91,3,2.8,34.3,18.48,0.32,0.82,0.44
3.6484375,-0.0065107206,0.5028752,0.26583624,0.31,0.83,0.44,22063,10197.4,94,91,3,-0.7,33.67,19.32,0.31,0.83,0.44
1.2480469,-0.01751072,0.50987524,0.27783626,0.31,0.86,0.42,22078,10195,94,91,3,-1.47,34.16,20.16,0.31,0.86,0.42
1.6484375,0.014489279,0.52787524,0.28883624,0.32,0.86,0.43,22100,10195.4,94,91,3,0.77,35.42,20.93,0.32,0.86,0.43
0.24804688,0.03548928,0.52687526,0.28683627,0.33,0.84,0.45,22123,10194,94,91,3,2.24,35.35,20.79,0.33,0.84,0.45
1.6484375,0.02848928,0.5248752,0.28283626,0.32,0.85,0.46,22146,10195.4,94,91,3,1.75,35.21,20.51,0.32,0.85,0.46
1.6484375,0.03148928,0.53687525,0.27283627,0.32,0.87,0.46,22176,10195.4,94,91,3,1.96,36.05,19.81,0.32,0.87,0.46
0.6484375,0.06748928,0.5438753,0.26083624,0.32,0.87,0.47,22191,10194.4,94,91,3,4.48,36.54,18.97,0.32,0.87,0.47
-1.4521484,0.08948928,0.5398752,0.2528363,0.33,0.85,0.47,22213,10192.3,94,91,3,6.02,36.26,18.41,0.33,0.85,0.47
-0.45214844,0.108489275,0.5348753,0.26083624,0.33,0.85,0.47,22227,10193.3,94,91,3,7.35,35.91,18.97,0.33,0.85,0.47
-0.7519531,0.13248928,0.5248752,0.26983625,0.33,0.85,0.46,22250,10193,94,91,3,9.03,35.21,19.6,0.33,0.85,0.46
-1.4521484,0.1554893,0.5068753,0.27883625,0.33,0.84,0.46,22273,10192.3,94,91,3,10.64,33.95,20.23,0.33,0.84,0.46
-4.4521484,0.17948928,0.49487528,0.29283625,0.32,0.86,0.45,22295,10189.3,94,91,3,12.32,33.11,21.21,0.32,0.86,0.45
-3.4521484,0.20948929,0.4918753,0.28683627,0.32,0.85,0.45,22311,10190.3,94,91,3,14.42,32.9,20.79,0.32,0.85,0.45
-3.4521484,0.2274893,0.47687528,0.29183626,0.33,0.84,0.46,22333,10190.3,94,91,3,15.68,31.85,21.14,0.33,0.84,0.46
-5.4521484,0.22948928,0.46187526,0.31483626,0.33,0.83,0.46,22356,10188.3,94,91,3,15.82,30.8,22.75,0.33,0.83,0.46
-9.551758,0.22348928,0.46087524,0.35883623,0.33,0.83,0.45,22379,10184.2,94,91,3,15.4,30.73,25.83,0.33,0.83,0.45
-7.551758,0.2274893,0.46387526,0.38983625,0.33,0.82,0.45,22400,10186.2,94,91,3,15.68,30.94,28,0.33,0.82,0.45
-6.1523438,0.21048929,0.46787524,0.43483627,0.34,0.81,0.45,22453,10187.6,94,91,3,14.49,31.22,31.15,0.34,0.81,0.45
-7.8515625,0.17148928,0.48487526,0.49583626,0.34,0.79,0.46,22454,10185.9,94,91,3,11.76,32.41,35.42,0.34,0.79,0.46
-8.551758,0.12548928,0.5158753,0.5818363,0.36,0.78,0.45,22468,10185.2,94,91,3,8.54,34.58,41.44,0.36,0.78,0.45
-7.8515625,0.097489275,0.5338753,0.7018363,0.38,0.77,0.43,22491,10185.9,94,91,3,6.58,35.84,49.84,0.38,0.77,0.43
-8.8515625,0.07048928,0.54487526,0.83083624,0.39,0.77,0.43,22513,10184.9,94,91,3,4.69,36.61,58.87,0.39,0.77,0.43
-10.551758,0.0044892794,0.52787524,0.9388363,0.43,0.75,0.43,22528,10183.2,94,91,3,0.07,35.42,66.43,0.43,0.75,0.43
-10.8515625,-0.07351072,0.48887524,1.0058362,0.44,0.77,0.42,22551,10182.9,94,91,3,-5.39,32.69,71.12,0.44,0.77,0.42
-13.551758,-0.11851072,0.44687527,1.0338362,0.43,0.85,0.39,22565,10180.2,94,91,3,-8.54,29.75,73.08,0.43,0.85,0.39
-11.551758,-0.089510724,0.38987526,0.92283624,0.39,0.93,0.36,22588,10182.2,94,91,3,-6.51,25.76,65.31,0.39,0.93,0.36
-13.551758,-0.00051072077,0.33787528,0.7338363,0.4,0.96,0.37,22610,10180.2,94,91,3,-0.28,22.12,52.08,0.4,0.96,0.37
-12.551758,0.07848928,0.29787526,0.56483626,0.43,0.9,0.4,22633,10181.2,94,91,3,5.25,19.32,40.25,0.43,0.9,0.4
-11.551758,0.10948928,0.27987525,0.49083626,0.45,0.85,0.41,22648,10182.2,94,91,3,7.42,18.06,35.07,0.45,0.85,0.41
-11.551758,0.123489276,0.23887524,0.43583626,0.46,0.83,0.42,22671,10182.2,94,91,3,8.4,15.19,31.22,0.46,0.83,0.42
-11.251953,0.08848928,0.21487525,0.40983623,0.48,0.79,0.45,22693,10182.5,94,91,3,5.95,13.51,29.4,0.48,0.79,0.45
-11.251953,0.06448928,0.17887524,0.42183626,0.5,0.78,0.47,22716,10182.5,94,91,3,4.27,10.99,30.24,0.5,0.78,0.47
-13.251953,0.036489278,0.16087525,0.44883627,0.49,0.8,0.5,22738,10180.5,94,91,3,2.31,9.73,32.13,0.49,0.8,0.5
-11.551758,0.014489279,0.15487525,0.43083626,0.47,0.79,0.53,22761,10182.2,94,91,3,0.77,9.31,30.87,0.47,0.79,0.53
-9.251953,0.01148928,0.16387524,0.38883626,0.43,0.76,0.54,22784,10184.5,94,91,3,0.56,9.94,27.93,0.43,0.76,0.54
-10.551758,0.020489281,0.18387525,0.36283624,0.41,0.73,0.55,22806,10183.2,94,91,3,1.19,11.34,26.11,0.41,0.73,0.55
-11.251953,0.02448928,0.22587524,0.35683626,0.41,0.66,0.57,22813,10182.5,94,91,3,1.47,14.28,25.69,0.41,0.66,0.57
-10.251953,0.01748928,0.28587526,0.39583623,0.42,0.63,0.59,22836,10183.5,94,91,3,0.98,18.48,28.42,0.42,0.63,0.59
-9.551758,-0.01451072,0.32587528,0.47183627,0.45,0.63,0.6,22866,10184.2,0,91,3,-1.26,21.28,33.74,0.45,0.63,0.6
-6.4521484,-0.05651072,0.31887528,0.49283624,0.45,0.63,0.61,22881,10187.3,0,91,3,-4.2,20.79,35.21,0.45,0.63,0.61
-4.1523438,-0.07951072,0.30287525,0.46683627,0.43,0.62,0.58,22895,10189.6,0,91,3,-5.81,19.67,33.39,0.43,0.62,0.58
-5.4521484,-0.05651072,0.28187528,0.39483625,0.41,0.61,0.57,22918,10188.3,0,91,3,-4.2,18.2,28.35,0.41,0.61,0.57
-2.4521484,-0.057510722,0.25587523,0.30683625,0.41,0.59,0.58,22941,10191.3,0,91,3,-4.27,16.38,22.19,0.41,0.59,0.58
0.24804688,-0.11451072,0.23987526,0.24683626,0.45,0.59,0.62,22963,10194,0,91,3,-8.26,15.26,17.99,0.45,0.59,0.62
1.9482422,-0.24451073,0.18887524,0.21883628,0.52,0.64,0.64,22993,10195.7,0,91,3,-17.36,11.69,16.03,0.52,0.64,0.64
3.9482422,-0.34551072,0.13387525,0.21083626,0.56,0.67,0.64,23000,10197.7,0,91,3,-24.43,7.84,15.47,0.56,0.67,0.64
5.3476562,-0.4045107,0.076875255,0.21583626,0.56,0.71,0.61,23016,10199.1,0,91,3,-28.56,3.85,15.82,0.56,0.71,0.61
7.0478516,-0.39551073,0.025875254,0.19483626,0.55,0.75,0.59,23030,10200.8,0,91,3,-27.93,0.28,14.35,0.55,0.75,0.59
7.0478516,-0.3415107,-0.011124747,0.16683626,0.56,0.76,0.61,23045,10200.8,0,91,3,-24.15,-2.31,12.39,0.56,0.76,0.61
6.748047,-0.30051073,-0.03912475,0.12083626,0.54,0.77,0.61,23079,10200.5,0,91,3,-21.28,-4.27,9.17,0.54,0.77,0.61
9.047852,-0.23951072,-0.058124743,0.04183626,0.52,0.78,0.59,23094,10202.8,0,91,3,-17.01,-5.6,3.64,0.52,0.78,0.59
10.047852,-0.17451072,-0.09412474,-0.10316374,0.5,0.77,0.55,23105,10203.8,0,91,3,-12.46,-8.12,-6.51,0.5,0.77,0.55
8.047852,-0.13351072,-0.15712474,-0.24216373,0.49,0.74,0.53,23129,10201.8,0,91,3,-9.59,-12.53,-16.24,0.49,0.74,0.53
10.047852,-0.12751071,-0.22012477,-0.3131637,0.5,0.66,0.52,23151,10203.8,0,91,3,-9.17,-16.94,-21.21,0.5,0.66,0.52
9.748047,-0.16751072,-0.28212476,-0.3121637,0.51,0.58,0.53,23173,10203.5,0,91,3,-11.97,-21.28,-21.14,0.51,0.58,0.53
9.047852,-0.2345107,-0.33012474,-0.25416374,0.54,0.56,0.58,23196,10202.8,0,91,3,-16.66,-24.64,-17.08,0.54,0.56,0.58
10.047852,-0.3115107,-0.35612473,-0.14616375,0.57,0.56,0.61,23218,10203.8,0,91,3,-22.05,-26.46,-9.52,0.57,0.56,0.61
11.1484375,-0.33151072,-0.35912475,-0.05216374,0.57,0.61,0.61,23241,10204.9,0,91,3,-23.45,-26.67,-2.94,0.57,0.61,0.61
11.1484375,-0.2795107,-0.34612474,-0.04716374,0.54,0.68,0.61,23256,10204.9,0,91,3,-19.81,-25.76,-2.59,0.54,0.68,0.61
9.047852,-0.21851072,-0.32812473,-0.08916374,0.51,0.7,0.62,23279,10202.8,0,91,3,-15.54,-24.5,-5.53,0.51,0.7,0.62
10.047852,-0.14851072,-0.30712473,-0.14616375,0.5,0.72,0.63,23293,10203.8,0,91,3,-10.64,-23.03,-9.52,0.5,0.72,0.63
10.047852,-0.11251072,-0.2811247,-0.19116373,0.52,0.7,0.63,23310,10203.8,0,91,3,-8.12,-21.21,-12.67,0.52,0.7,0.63
11.1484375,-0.07851072,-0.25912473,-0.20116374,0.53,0.68,0.61,23323,10204.9,0,91,3,-5.74,-19.67,-13.37,0.53,0.68,0.61
9.047852,-0.048510723,-0.23012476,-0.16116373,0.53,0.66,0.6,23345,10202.8,0,91,3,-3.64,-17.64,-10.57,0.53,0.66,0.6
8.347656,-0.0075107208,-0.18712476,-0.10716374,0.55,0.63,0.58,23368,10202.1,0,91,3,-0.77,-14.63,-6.79,0.55,0.63,0.58
8.047852,0.027489278,-0.15112475,-0.031163739,0.55,0.64,0.58,23390,10201.8,0,91,3,1.68,-12.11,-1.47,0.55,0.64,0.58
9.047852,0.05948928,-0.115124755,0.01883626,0.55,0.65,0.57,23413,10202.8,0,91,3,3.92,-9.59,2.03,0.55,0.65,0.57
7.3476562,0.06748928,-0.081124745,0.05283626,0.56,0.66,0.58,23435,10201.1,0,91,3,4.48,-7.21,4.41,0.56,0.66,0.58
5.3476562,0.075489275,-0.047124743,0.087836266,0.55,0.68,0.57,23451,10199.1,0,91,3,5.04,-4.83,6.86,0.55,0.68,0.57
6.0478516,0.13048929,-0.021124749,0.08083626,0.56,0.7,0.54,23473,10199.8,0,91,3,8.89,-3.01,6.37,0.56,0.7,0.54
5.0478516,0.19848928,-0.0151247475,0.05083626,0.57,0.71,0.52,23496,10198.8,0,91,3,13.65,-2.59,4.27,0.57,0.71,0.52
6.748047,0.25248927,-0.0141247455,0.01983626,0.57,0.69,0.52,23521,10200.5,0,91,3,17.43,-2.52,2.1,0.57,0.69,0.52
6.0478516,0.2594893,-0.029124746,-0.013163739,0.58,0.69,0.51,23534,10199.8,0,91,3,17.92,-3.57,-0.21,0.58,0.69,0.51
4.3476562,0.24248928,-0.077124745,-0.05616374,0.6,0.69,0.49,23549,10198.1,0,91,3,16.73,-6.93,-3.22,0.6,0.69,0.49
4.6484375,0.2144893,-0.14112476,-0.10216374,0.61,0.69,0.48,23571,10198.4,0,91,3,14.77,-11.41,-6.44,0.61,0.69,0.48
3.9482422,0.1774893,-0.22612476,-0.14916374,0.61,0.68,0.46,23586,10197.7,0,91,3,12.18,-17.36,-9.73,0.61,0.68,0.46
5.0478516,0.14748928,-0.31712472,-0.19616374,0.61,0.69,0.45,23609,10198.8,0,91,3,10.08,-23.73,-13.02,0.61,0.69,0.45
-0.051757812,0.08948928,-0.43612477,-0.28616375,0.61,0.69,0.44,23631,10193.7,0,91,3,6.02,-32.06,-19.32,0.61,0.69,0.44
3.6484375,0.051489275,-0.5441247,-0.37516373,0.6,0.71,0.44,23654,10197.4,0,91,3,3.36,-39.62,-25.55,0.6,0.71,0.44
3.6484375,0.006489279,-0.6221248,-0.44216377,0.58,0.71,0.44,23676,10197.4,94,91,3,0.21,-45.08,-30.24,0.58,0.71,0.44
-0.051757812,-0.01451072,-0.67312473,-0.4971637,0.56,0.72,0.45,23698,10193.7,94,91,3,-1.26,-48.65,-34.09,0.56,0.72,0.45
2.2480469,-0.033510722,-0.7021247,-0.5381637,0.56,0.71,0.46,23721,10196,94,91,3,-2.59,-50.68,-36.96,0.56,0.71,0.46
1.2480469,-0.04451072,-0.71212476,-0.5271637,0.55,0.71,0.46,23736,10195,94,91,3,-3.36,-51.38,-36.19,0.55,0.71,0.46
-2.7519531,-0.02351072,-0.68212473,-0.49816376,0.53,0.72,0.48,23758,10191,94,91,3,-1.89,-49.28,-34.16,0.53,0.72,0.48
0.24804688,-0.010510721,-0.61012477,-0.4741637,0.51,0.72,0.5,23788,10194,94,91,3,-0.98,-44.24,-32.48,0.51,0.72,0.5
-1.4521484,-0.009510721,-0.5391247,-0.44816375,0.5,0.74,0.5,23795,10192.3,94,91,3,-0.91,-39.27,-30.66,0.5,0.74,0.5
-0.7519531,0.008489279,-0.45212474,-0.43216377,0.49,0.74,0.49,23818,10193,94,91,3,0.35,-33.18,-29.54,0.49,0.74,0.49
-0.7519531,0.014489279,-0.35612473,-0.43016374,0.49,0.74,0.49,23848,10193,94,91,3,0.77,-26.46,-29.4,0.49,0.74,0.49
-1.7519531,0.01748928,-0.26312473,-0.4051637,0.5,0.74,0.48,23856,10192,94,91,3,0.98,-19.95,-27.65,0.5,0.74,0.48
-0.7519531,-0.00051072077,-0.18312475,-0.38516372,0.49,0.74,0.46,23878,10193,94,91,3,-0.28,-14.35,-26.25,0.49,0.74,0.46
-3.7519531,-0.02351072,-0.13812475,-0.37016374,0.48,0.75,0.45,23900,10190,94,91,3,-1.89,-11.2,-25.2,0.48,0.75,0.45
-3.7519531,-0.02251072,-0.09712474,-0.35916376,0.48,0.76,0.43,23923,10190,94,91,3,-1.82,-8.33,-24.43,0.48,0.76,0.43
-4.1523438,-0.009510721,-0.070124745,-0.34016377,0.49,0.75,0.43,23945,10189.6,94,91,3,-0.91,-6.44,-23.1,0.49,0.75,0.43
-6.8515625,-0.015510722,-0.059124745,-0.30916375,0.49,0.76,0.43,23969,10186.9,94,91,3,-1.33,-5.67,-20.93,0.49,0.76,0.43
-7.8515625,-0.02251072,-0.050124742,-0.28316373,0.49,0.77,0.42,23991,10185.9,94,91,3,-1.82,-5.04,-19.11,0.49,0.77,0.42
-8.8515625,-0.03851072,-0.08712475,-0.2941637,0.49,0.78,0.41,24013,10184.9,94,91,3,-2.94,-7.63,-19.88,0.49,0.78,0.41
-11.952148,-0.041510724,-0.13612476,-0.29516375,0.49,0.78,0.4,24029,10181.8,94,91,3,-3.15,-11.06,-19.95,0.49,0.78,0.4
-9.8515625,-0.033510722,-0.15712474,-0.2801637,0.48,0.78,0.41,24051,10183.9,94,91,3,-2.59,-12.53,-18.9,0.48,0.78,0.41
-13.952148,-0.035510723,-0.17312475,-0.2751637,0.47,0.78,0.41,24066,10179.8,94,91,3,-2.73,-13.65,-18.55,0.47,0.78,0.41
-13.652344,-0.04251072,-0.17412476,-0.26916373,0.46,0.77,0.43,24095,10180.1,94,91,3,-3.22,-13.72,-18.13,0.46,0.77,0.43
-14.952148,-0.060510725,-0.15712474,-0.23416375,0.45,0.79,0.43,24111,10178.8,94,91,3,-4.48,-12.53,-15.68,0.45,0.79,0.43
-14.952148,-0.050510723,-0.12512475,-0.20616375,0.45,0.81,0.43,24132,10178.8,94,91,3,-3.78,-10.29,-13.72,0.45,0.81,0.43
-18.051758,-0.039510723,-0.117124744,-0.21916375,0.45,0.81,0.42,24148,10175.7,94,91,3,-3.01,-9.73,-14.63,0.45,0.81,0.42
-9.8515625,-0.033510722,-0.11412475,-0.23216374,0.45,0.8,0.42,24178,10183.9,94,91,3,-2.59,-9.52,-15.54,0.45,0.8,0.42
-13.251953,-0.01751072,-0.08512474,-0.21416374,0.43,0.81,0.43,24193,10180.5,94,91,3,-1.47,-7.49,-14.28,0.43,0.81,0.43
-14.952148,0.0044892794,-0.03212475,-0.20316374,0.41,0.82,0.44,24216,10178.8,94,91,3,0.07,-3.78,-13.51,0.41,0.82,0.44
-14.652344,0.02948928,0.040875256,-0.18116374,0.42,0.81,0.45,24239,10179.1,94,91,3,1.82,1.33,-11.97,0.42,0.81,0.45
-13.652344,0.056489278,0.10787526,-0.12916374,0.41,0.82,0.45,24261,10180.1,94,91,3,3.71,6.02,-8.33,0.41,0.82,0.45
-13.952148,0.07748928,0.18187524,-0.08816374,0.39,0.83,0.45,24283,10179.8,94,91,3,5.18,11.2,-5.46,0.39,0.83,0.45
-17.652344,0.11548928,0.28587526,-0.072163746,0.37,0.84,0.45,24305,10176.1,94,91,3,7.84,18.48,-4.34,0.37,0.84,0.45
-13.952148,0.15448928,0.38087526,-0.05916374,0.36,0.85,0.47,24321,10179.8,94,91,3,10.57,25.13,-3.43,0.36,0.85,0.47
-12.952148,0.21748927,0.54587525,-0.02716374,0.34,0.84,0.49,24343,10180.8,94,91,3,14.98,36.68,-1.19,0.34,0.84,0.49
-11.952148,0.2504893,0.7408753,0.011836261,0.33,0.83,0.5,24366,10181.8,94,91,3,17.29,50.33,1.54,0.33,0.83,0.5
-12.952148,0.2594893,0.88987523,0.016836261,0.36,0.83,0.47,24401,10180.8,94,91,3,17.92,60.76,1.89,0.36,0.83,0.47
-11.952148,0.2774893,0.9618753,0.028836261,0.39,0.82,0.44,24403,10181.8,94,91,3,19.18,65.8,2.73,0.39,0.82,0.44
-12.551758,0.28448927,0.98187524,0.06283626,0.41,0.81,0.42,24427,10181.2,94,91,3,19.67,67.2,5.11,0.41,0.81,0.42
-11.551758,0.24248928,0.93587524,0.09383626,0.43,0.78,0.41,24448,10182.2,94,91,3,16.73,63.98,7.28,0.43,0.78,0.41
-12.551758,0.15448928,0.80387527,0.08683626,0.45,0.79,0.39,24471,10181.2,94,91,3,10.57,54.74,6.79,0.45,0.79,0.39
-6.551758,0.06048928,0.65787524,0.09783626,0.46,0.79,0.38,24493,10187.2,94,91,3,3.99,44.52,7.56,0.46,0.79,0.38
-10.551758,0.0054892795,0.53087527,0.13783626,0.43,0.79,0.4,24516,10183.2,94,92,3,0.14,35.63,10.36,0.43,0.79,0.4
-9.551758,-0.0115107205,0.46487525,0.18383627,0.37,0.82,0.42,24538,10184.2,94,92,3,-1.05,31.01,13.58,0.37,0.82,0.42
-8.551758,0.008489279,0.46387526,0.19383626,0.34,0.84,0.44,24553,10185.2,94,92,3,0.35,30.94,14.28,0.34,0.84,0.44
-10.551758,0.039489277,0.46487525,0.18183625,0.33,0.85,0.45,24568,10183.2,94,92,3,2.52,31.01,13.44,0.33,0.85,0.45
-10.8515625,0.08148928,0.4688753,0.15883626,0.34,0.84,0.47,24591,10182.9,94,92,3,5.46,31.29,11.83,0.34,0.84,0.47
-9.551758,0.11848928,0.49687526,0.17483626,0.34,0.83,0.49,24621,10184.2,94,92,3,8.05,33.25,12.95,0.34,0.83,0.49
-8.551758,0.14748928,0.55087525,0.20583627,0.32,0.83,0.5,24636,10185.2,94,92,3,10.08,37.03,15.12,0.32,0.83,0.5
-9.551758,0.17248929,0.63887525,0.24583627,0.32,0.83,0.51,24651,10184.2,94,92,3,11.83,43.19,17.92,0.32,0.83,0.51
-9.251953,0.18848929,0.71587527,0.28183627,0.32,0.83,0.5,24673,10184.5,94,92,3,12.95,48.58,20.44,0.32,0.83,0.5
-7.551758,0.22448929,0.78787524,0.30483627,0.33,0.84,0.5,24696,10186.2,94,92,3,15.47,53.62,22.05,0.33,0.84,0.5
-6.551758,0.25648928,0.8448753,0.30983627,0.32,0.84,0.5,24725,10187.2,94,92,3,17.71,57.61,22.4,0.32,0.84,0.5
-6.551758,0.2664893,0.88287526,0.29683626,0.31,0.83,0.51,24741,10187.2,94,92,3,18.41,60.27,21.49,0.31,0.83,0.51
-7.551758,0.2634893,0.9038753,0.27883625,0.31,0.83,0.5,24763,10186.2,94,92,3,18.2,61.74,20.23,0.31,0.83,0.5
-5.4521484,0.27248928,0.91087526,0.25783628,0.32,0.84,0.49,24785,10188.3,94,92,3,18.83,62.23,18.76,0.32,0.84,0.49
-4.1523438,0.28448927,0.90187526,0.24583627,0.34,0.83,0.48,24800,10189.6,94,92,3,19.67,61.6,17.92,0.34,0.83,0.48
-3.4521484,0.28748927,0.8788753,0.25183624,0.35,0.82,0.48,24815,10190.3,94,92,3,19.88,59.99,18.34,0.35,0.82,0.48
-3.4521484,0.2574893,0.8128753,0.23983626,0.34,0.81,0.48,24845,10190.3,94,92,3,17.78,55.37,17.5,0.34,0.81,0.48
-1.0517578,0.21848929,0.73087525,0.21783626,0.34,0.82,0.48,24860,10192.7,94,92,3,15.05,49.63,15.96,0.34,0.82,0.48
0.6484375,0.18948929,0.64187527,0.18583627,0.34,0.83,0.46,24883,10194.4,94,92,3,13.02,43.4,13.72,0.34,0.83,0.46
-3.4521484,0.17548929,0.5398752,0.15383625,0.33,0.83,0.45,24929,10190.3,94,92,3,12.04,36.26,11.48,0.33,0.83,0.45
3.6484375,0.13848928,0.42187527,0.12183626,0.33,0.84,0.46,24930,10197.4,94,92,3,9.45,28,9.24,0.33,0.84,0.46
4.6484375,0.11248928,0.34487528,0.09383626,0.31,0.84,0.47,24944,10198.4,94,92,3,7.63,22.61,7.28,0.31,0.84,0.47
6.6484375,0.09548928,0.28787526,0.068836264,0.3,0.84,0.48,24966,10200.4,94,92,3,6.44,18.62,5.53,0.3,0.84,0.48
7.748047,0.08448928,0.23187524,0.05083626,0.3,0.84,0.48,24988,10201.5,94,92,3,5.67,14.7,4.27,0.3,0.84,0.48
8.748047,0.08848928,0.18487525,0.043836262,0.3,0.85,0.48,25011,10202.5,94,92,3,5.95,11.41,3.78,0.3,0.85,0.48
10.748047,0.08748928,0.15587525,0.045836262,0.29,0.84,0.49,25033,10204.5,94,92,3,5.88,9.38,3.92,0.29,0.84,0.49
10.448242,0.08748928,0.13587525,0.05283626,0.29,0.84,0.49,25048,10204.2,94,92,3,5.88,7.98,4.41,0.29,0.84,0.49
10.748047,0.07848928,0.11887526,0.05083626,0.29,0.84,0.49,25063,10204.5,94,92,3,5.25,6.79,4.27,0.29,0.84,0.49
13.1484375,0.07248928,0.10487525,0.054836266,0.29,0.84,0.49,25100,10206.9,94,92,3,4.83,5.81,4.55,0.29,0.84,0.49
12.748047,0.07648928,0.08687526,0.05583626,0.29,0.84,0.48,25108,10206.5,94,92,3,5.11,4.55,4.62,0.29,0.84,0.48
11.047852,0.07848928,0.065875255,0.05083626,0.29,0.84,0.48,25131,10204.8,94,92,3,5.25,3.08,4.27,0.29,0.84,0.48
13.1484375,0.06748928,0.048875254,0.045836262,0.3,0.84,0.48,25153,10206.9,94,92,3,4.48,1.89,3.92,0.3,0.84,0.48
12.1484375,0.05248928,0.035875253,0.037836257,0.29,0.84,0.48,25175,10205.9,94,92,3,3.43,0.98,3.36,0.29,0.84,0.48
12.1484375,0.043489277,0.037875254,0.030836258,0.29,0.85,0.48,25198,10205.9,94,92,3,2.8,1.12,2.87,0.29,0.85,0.48
10.748047,0.043489277,0.030875253,0.021836262,0.29,0.84,0.48,25221,10204.5,94,92,3,2.8,0.63,2.24,0.29,0.84,0.48
11.047852,0.04248928,0.026875254,0.00983626,0.29,0.84,0.48,25236,10204.8,94,92,3,2.73,0.35,1.4,0.29,0.84,0.48
10.448242,0.03048928,0.026875254,0.0048362603,0.29,0.84,0.48,25257,10204.2,94,92,3,1.89,0.35,1.05,0.29,0.84,0.48
10.047852,0.01948928,0.024875253,0.0068362616,0.29,0.84,0.48,25280,10203.8,94,92,3,1.12,0.21,1.19,0.29,0.84,0.48
9.748047,0.006489279,0.027875252,0.02483626,0.29,0.84,0.47,25302,10203.5,94,92,3,0.21,0.42,2.45,0.29,0.84,0.47
10.448242,0.0044892794,0.030875253,0.037836257,0.29,0.83,0.48,25318,10204.2,94,92,3,0.07,0.63,3.36,0.29,0.83,0.48
9.748047,-0.013510722,0.028875254,0.04883626,0.29,0.83,0.49,25345,10203.5,94,92,3,-1.19,0.49,4.13,0.29,0.83,0.49
9.047852,-0.030510722,0.03687525,0.06683626,0.29,0.83,0.49,25363,10202.8,94,92,3,-2.38,1.05,5.39,0.29,0.83,0.49
9.748047,-0.045510724,0.059875257,0.09983626,0.28,0.83,0.49,25385,10203.5,95,92,3,-3.43,2.66,7.7,0.28,0.83,0.49
9.047852,-0.039510723,0.10087526,0.13283627,0.27,0.83,0.62,25408,10202.8,95,92,3,-3.01,5.53,10.01,0.27,0.83,0.62
8.047852,-0.04951072,0.14087525,0.16083626,0.27,0.82,0.5,25431,10201.8,95,92,3,-3.71,8.33,11.97,0.27,0.82,0.5
8.047852,-0.07351072,0.16287525,0.17983626,0.28,0.82,0.5,25453,10201.8,95,92,3,-5.39,9.87,13.3,0.28,0.82,0.5
6.0478516,-0.08051072,0.18187524,0.19883627,0.3,0.83,0.49,25476,10199.8,95,92,3,-5.88,11.2,14.63,0.3,0.83,0.49
8.047852,-0.07051072,0.17887524,0.21483625,0.31,0.83,0.49,25498,10201.8,95,92,3,-5.18,10.99,15.75,0.31,0.83,0.49
7.0478516,-0.07651072,0.17187525,0.21583626,0.31,0.82,0.5,25528,10200.8,95,92,3,-5.6,10.5,15.82,0.31,0.82,0.5
7.0478516,-0.071510725,0.16887525,0.22283626,0.31,0.82,0.5,25535,10200.8,95,92,3,-5.25,10.29,16.31,0.31,0.82,0.5
6.6484375,-0.06751072,0.16587524,0.22583626,0.31,0.82,0.51,25550,10200.4,95,92,3,-4.97,10.08,16.52,0.31,0.82,0.51
6.0478516,-0.06551072,0.16887525,0.23183627,0.31,0.81,0.52,25565,10199.8,95,92,3,-4.83,10.29,16.94,0.31,0.81,0.52
6.0478516,-0.08351073,0.17387526,0.24283625,0.31,0.81,0.52,25588,10199.8,95,92,3,-6.09,10.64,17.71,0.31,0.81,0.52
6.3476562,-0.093510725,0.18587524,0.25783628,0.31,0.8,0.53,25610,10200.1,95,92,3,-6.79,11.48,18.76,0.31,0.8,0.53
4.948242,-0.09051072,0.21487525,0.26883626,0.31,0.82,0.52,25633,10198.7,95,92,3,-6.58,13.51,19.53,0.31,0.82,0.52
-3.1523438,-0.07251073,0.25087526,0.27883625,0.3,0.81,0.53,25656,10190.6,95,92,3,-5.32,16.03,20.23,0.3,0.81,0.53
4.948242,-0.07251073,0.28487527,0.27383626,0.3,0.81,0.53,25679,10198.7,95,92,3,-5.32,18.41,19.88,0.3,0.81,0.53
4.948242,-0.06351072,0.31387526,0.26883626,0.3,0.82,0.54,25695,10198.7,95,92,3,-4.69,20.44,19.53,0.3,0.82,0.54
1.9482422,-0.03851072,0.33787528,0.25783628,0.31,0.82,0.54,25715,10195.7,95,92,3,-2.94,22.12,18.76,0.31,0.82,0.54
2.2480469,-0.027510721,0.34787527,0.24283625,0.31,0.81,0.54,25738,10196,95,92,3,-2.17,22.82,17.71,0.31,0.81,0.54
0.9482422,-0.02251072,0.35387525,0.22583626,0.31,0.8,0.54,25760,10194.7,95,92,3,-1.82,23.24,16.52,0.31,0.8,0.54
0.9482422,0.013489279,0.36987528,0.22683626,0.31,0.81,0.56,25783,10194.7,95,92,3,0.7,24.36,16.59,0.31,0.81,0.56
-2.1523438,0.04848928,0.40287527,0.25183624,0.31,0.81,0.57,25798,10191.6,95,92,3,3.15,26.67,18.34,0.31,0.81,0.57
-3.1523438,0.075489275,0.43687525,0.27383626,0.3,0.8,0.57,25813,10190.6,95,92,3,5.04,29.05,19.88,0.3,0.8,0.57
-2.1523438,0.08448928,0.46187526,0.27783626,0.3,0.8,0.57,25828,10191.6,95,92,3,5.67,30.8,20.16,0.3,0.8,0.57
-4.1523438,0.09648928,0.49287528,0.27783626,0.3,0.8,0.56,25851,10189.6,95,92,3,6.51,32.97,20.16,0.3,0.8,0.56
-5.1523438,0.11548928,0.5298753,0.28083628,0.3,0.8,0.56,25873,10188.6,95,92,3,7.84,35.56,20.37,0.3,0.8,0.56
-5.1523438,0.11548928,0.5528752,0.27283627,0.3,0.78,0.57,25896,10188.6,95,92,3,7.84,37.17,19.81,0.3,0.78,0.57
-7.1523438,0.10548928,0.57387525,0.26883626,0.31,0.78,0.57,25918,10186.6,95,92,3,7.14,38.64,19.53,0.31,0.78,0.57
-8.251953,0.09548928,0.5798753,0.27483624,0.32,0.78,0.56,25942,10185.5,95,92,3,6.44,39.06,19.95,0.32,0.78,0.56
-9.8515625,0.11448928,0.58287525,0.28783625,0.32,0.79,0.56,25963,10183.9,95,92,3,7.77,39.27,20.86,0.32,0.79,0.56
-9.8515625,0.1394893,0.58687526,0.29283625,0.32,0.79,0.56,25978,10183.9,95,92,3,9.52,39.55,21.21,0.32,0.79,0.56
-10.952148,0.1404893,0.57287526,0.26483625,0.31,0.79,0.57,26000,10182.8,95,92,3,9.59,38.57,19.25,0.31,0.79,0.57
-10.952148,0.1394893,0.5708753,0.2618363,0.32,0.78,0.57,26024,10182.8,95,92,3,9.52,38.43,19.04,0.32,0.78,0.57
-10.952148,0.1334893,0.5708753,0.26483625,0.31,0.78,0.58,26038,10182.8,95,92,3,9.1,38.43,19.25,0.31,0.78,0.58
-12.251953,0.12048927,0.5668753,0.26083624,0.31,0.77,0.58,26053,10181.5,95,92,3,8.19,38.15,18.97,0.31,0.77,0.58
-10.952148,0.10148928,0.55887526,0.24283625,0.3,0.78,0.57,26076,10182.8,95,92,3,6.86,37.59,17.71,0.3,0.78,0.57
-9.8515625,0.08748928,0.52787524,0.21383627,0.31,0.79,0.57,26091,10183.9,95,92,3,5.88,35.42,15.68,0.31,0.79,0.57
-11.952148,0.08448928,0.47087526,0.18983626,0.33,0.8,0.56,26113,10181.8,95,92,3,5.67,31.43,14,0.33,0.8,0.56
-11.952148,0.10448928,0.40787527,0.16183627,0.32,0.79,0.56,26143,10181.8,95,92,3,7.07,27.02,12.04,0.32,0.79,0.56
-11.952148,0.12548928,0.36587527,0.15983626,0.3,0.8,0.58,26158,10181.8,95,92,3,8.54,24.08,11.9,0.3,0.8,0.58
-11.952148,0.13448928,0.35287526,0.15283626,0.28,0.79,0.59,26181,10181.8,95,92,3,9.17,23.17,11.41,0.28,0.79,0.59
-11.952148,0.13248928,0.35187528,0.13283627,0.27,0.79,0.59,26203,10181.8,95,92,3,9.03,23.1,10.01,0.27,0.79,0.59
-13.251953,0.13148929,0.36387527,0.13183625,0.27,0.79,0.6,26225,10180.5,95,92,3,8.96,23.94,9.94,0.27,0.79,0.6
-11.952148,0.14148928,0.38387525,0.12683627,0.26,0.8,0.6,26248,10181.8,95,92,3,9.66,25.34,9.59,0.26,0.8,0.6
-10.551758,0.15848929,0.39487526,0.11283626,0.25,0.81,0.59,26270,10183.2,95,92,3,10.85,26.11,8.61,0.25,0.81,0.59
-10.952148,0.17548929,0.40587524,0.10683625,0.26,0.81,0.58,26294,10182.8,95,92,3,12.04,26.88,8.19,0.26,0.81,0.58
-11.952148,0.19248928,0.41287526,0.10983626,0.25,0.8,0.58,26311,10181.8,95,92,3,13.23,27.37,8.4,0.25,0.8,0.58
-10.952148,0.20048928,0.40887526,0.10683625,0.25,0.79,0.59,26323,10182.8,95,92,3,13.79,27.09,8.19,0.25,0.79,0.59
-10.952148,0.20448928,0.41987526,0.116836265,0.24,0.8,0.59,26346,10182.8,95,92,3,14.07,27.86,8.89,0.24,0.8,0.59
-11.952148,0.20748928,0.43487525,0.13183625,0.24,0.8,0.59,26369,10181.8,95,92,3,14.28,28.91,9.94,0.24,0.8,0.59
-11.551758,0.2054893,0.44587526,0.13783626,0.24,0.8,0.58,26384,10182.2,95,92,3,14.14,29.68,10.36,0.24,0.8,0.58
-11.251953,0.19048929,0.43087524,0.123836264,0.25,0.8,0.57,26406,10182.5,95,92,3,13.09,28.63,9.38,0.25,0.8,0.57
-9.8515625,0.19148928,0.40287527,0.11983627,0.25,0.81,0.56,26430,10183.9,95,92,3,13.16,26.67,9.1,0.25,0.81,0.56
-9.8515625,0.20248929,0.37387526,0.10983626,0.25,0.82,0.56,26451,10183.9,95,92,3,13.93,24.64,8.4,0.25,0.82,0.56
-9.8515625,0.20048928,0.34087527,0.08383626,0.24,0.82,0.56,26473,10183.9,95,92,3,13.79,22.33,6.58,0.24,0.82,0.56
-8.8515625,0.20048928,0.31687525,0.07783626,0.23,0.82,0.56,26495,10184.9,95,92,3,13.79,20.65,6.16,0.23,0.82,0.56
-8.8515625,0.2054893,0.30487525,0.07583626,0.23,0.82,0.56,26518,10184.9,95,92,3,14.14,19.81,6.02,0.23,0.82,0.56
-9.251953,0.1864893,0.28987527,0.07383626,0.23,0.81,0.55,26540,10184.5,95,92,3,12.81,18.76,5.88,0.23,0.81,0.55
-5.551758,0.16348928,0.26787525,0.06783626,0.23,0.81,0.55,26556,10188.2,95,92,3,11.2,17.22,5.46,0.23,0.81,0.55
-5.8515625,0.1334893,0.24087524,0.060836256,0.23,0.81,0.54,26571,10187.9,95,92,3,9.1,15.33,4.97,0.23,0.81,0.54
-4.1523438,0.097489275,0.19687524,0.051836263,0.23,0.81,0.54,26594,10189.6,95,92,3,6.58,12.25,4.34,0.23,0.81,0.54
-3.8515625,0.06348928,0.13587525,0.04183626,0.25,0.8,0.53,26616,10189.9,95,92,3,4.2,7.98,3.64,0.25,0.8,0.53
-5.551758,0.047489278,0.08287525,0.06283626,0.25,0.81,0.53,26638,10188.2,95,92,3,3.08,4.27,5.11,0.25,0.81,0.53
-0.051757812,0.03048928,0.03487525,0.07083626,0.23,0.82,0.53,26661,10193.7,95,92,3,1.89,0.91,5.67,0.23,0.82,0.53
1.9482422,0.015489278,0.0078752525,0.05883626,0.22,0.82,0.54,26677,10195.7,95,92,3,0.84,-0.98,4.83,0.22,0.82,0.54
1.2480469,-0.0025107202,0.0018752534,0.043836262,0.21,0.82,0.55,26698,10195,95,92,3,-0.42,-1.4,3.78,0.21,0.82,0.55
5.6484375,-0.028510721,-0.0031247474,0.03183626,0.21,0.82,0.56,26721,10199.4,95,92,3,-2.24,-1.75,2.94,0.21,0.82,0.56
6.3476562,-0.028510721,0.004875252,0.04283626,0.22,0.83,0.56,26744,10200.1,95,92,3,-2.24,-1.19,3.71,0.22,0.83,0.56
9.347656,-0.0115107205,0.018875252,0.06683626,0.21,0.83,0.56,26766,10203.1,95,92,3,-1.05,-0.21,5.39,0.21,0.83,0.56
8.047852,0.0014892793,0.033875253,0.07283626,0.21,0.82,0.57,26787,10201.8,95,92,3,-0.14,0.84,5.81,0.21,0.82,0.57
9.748047,-0.0015107205,0.03487525,0.07383626,0.22,0.82,0.56,26802,10203.5,95,92,3,-0.35,0.91,5.88,0.22,0.82,0.56
10.448242,-0.0035107208,0.030875253,0.07383626,0.23,0.83,0.56,26817,10204.2,95,92,3,-0.49,0.63,5.88,0.23,0.83,0.56
11.748047,0.008489279,0.022875253,0.07383626,0.23,0.83,0.55,26844,10205.5,95,92,3,0.35,0.07,5.88,0.23,0.83,0.55
9.347656,0.01148928,0.0028752517,0.06283626,0.23,0.83,0.55,26870,10203.1,95,92,3,0.56,-1.33,5.11,0.23,0.83,0.55
10.748047,0.03848928,0.0028752517,0.051836263,0.22,0.84,0.56,26885,10204.5,95,92,3,2.45,-1.33,4.34,0.22,0.84,0.56
10.448242,0.058489278,0.012875253,0.045836262,0.21,0.83,0.57,26908,10204.2,95,92,3,3.85,-0.63,3.92,0.21,0.83,0.57
8.347656,0.06748928,0.033875253,0.045836262,0.22,0.81,0.56,26930,10202.1,95,92,3,4.48,0.84,3.92,0.22,0.81,0.56
9.748047,0.06448928,0.052875254,0.04983626,0.22,0.81,0.57,26953,10203.5,95,92,3,4.27,2.17,4.2,0.22,0.81,0.57
8.347656,0.05948928,0.076875255,0.06383626,0.22,0.82,0.56,26976,10202.1,95,92,3,3.92,3.85,5.18,0.22,0.82,0.56
1.6484375,0.05248928,0.095875256,0.060836256,0.22,0.83,0.55,26998,10195.4,95,92,3,3.43,5.18,4.97,0.22,0.83,0.55
5.6484375,0.051489275,0.09687526,0.051836263,0.23,0.82,0.55,27013,10199.4,95,92,3,3.36,5.25,4.34,0.23,0.82,0.55
7.0478516,0.051489275,0.09687526,0.05583626,0.23,0.82,0.55,27035,10200.8,95,92,3,3.36,5.25,4.62,0.23,0.82,0.55
6.6484375,0.051489275,0.095875256,0.06683626,0.23,0.82,0.55,27058,10200.4,95,92,3,3.36,5.18,5.39,0.23,0.82,0.55
5.6484375,0.054489277,0.091875255,0.068836264,0.23,0.82,0.55,27074,10199.4,95,92,3,3.57,4.9,5.53,0.23,0.82,0.55
5.6484375,0.03848928,0.08187525,0.06383626,0.23,0.82,0.55,27096,10199.4,95,92,3,2.45,4.2,5.18,0.23,0.82,0.55
7.3476562,0.03848928,0.072875254,0.06383626,0.23,0.82,0.55,27117,10201.1,95,92,3,2.45,3.57,5.18,0.23,0.82,0.55
4.3476562,0.043489277,0.07487525,0.065836266,0.24,0.83,0.55,27133,10198.1,95,92,3,2.8,3.71,5.32,0.24,0.83,0.55
2.9482422,0.02948928,0.07087526,0.05283626,0.23,0.82,0.55,27155,10196.7,95,92,3,1.82,3.43,4.41,0.23,0.82,0.55
2.6484375,0.0054892795,0.057875253,0.028836261,0.24,0.82,0.55,27178,10196.4,95,92,3,0.14,2.52,2.73,0.24,0.82,0.55
2.6484375,-0.0025107202,0.043875255,0.026836261,0.25,0.82,0.54,27201,10196.4,95,92,3,-0.42,1.54,2.59,0.25,0.82,0.54
1.6484375,-0.009510721,-0.23312475,0.023836263,0.25,0.81,0.54,27223,10195.4,95,92,3,-0.91,-17.85,2.38,0.25,0.81,0.54
1.6484375,-0.0065107206,0.0078752525,0.03383626,0.24,0.82,0.55,27245,10195.4,95,92,3,-0.7,-0.98,3.08,0.24,0.82,0.55
-5.551758,0.0044892794,0.017875252,0.045836262,0.23,0.83,0.55,27268,10188.2,95,92,3,0.07,-0.28,3.92,0.23,0.83,0.55
2.2480469,0.009489279,0.024875253,0.04083626,0.23,0.83,0.55,27290,10196,95,92,3,0.42,0.21,3.57,0.23,0.83,0.55
-1.7519531,0.01148928,0.030875253,0.02483626,0.23,0.82,0.55,27305,10192,95,92,3,0.56,0.63,2.45,0.23,0.82,0.55
-3.4521484,0.01148928,0.033875253,0.021836262,0.24,0.81,0.55,27321,10190.3,95,92,3,0.56,0.84,2.24,0.24,0.81,0.55
-1.4521484,0.013489279,0.037875254,0.02983626,0.25,0.81,0.55,27343,10192.3,95,92,3,0.7,1.12,2.8,0.25,0.81,0.55
-2.4521484,0.014489279,0.03687525,0.03983626,0.25,0.83,0.55,27374,10191.3,95,92,3,0.77,1.05,3.5,0.25,0.83,0.55
-2.4521484,0.01948928,0.029875252,0.023836263,0.23,0.83,0.55,27403,10191.3,95,92,3,1.12,0.56,2.38,0.23,0.83,0.55
2.6484375,0.02548928,0.022875253,-0.00016373955,0.23,0.83,0.55,27411,10196.4,95,92,3,1.54,0.07,0.7,0.23,0.83,0.55
-3.1523438,0.02548928,0.023875253,-0.006163739,0.24,0.82,0.56,27428,10190.6,95,92,3,1.54,0.14,0.28,0.24,0.82,0.56
-3.4521484,0.015489278,0.027875252,0.0008362606,0.24,0.81,0.56,27447,10190.3,95,92,3,0.84,0.42,0.77,0.24,0.81,0.56
-3.4521484,0.014489279,0.029875252,0.011836261,0.23,0.82,0.55,27471,10190.3,95,92,3,0.77,0.56,1.54,0.23,0.82,0.55
-4.4521484,0.03148928,0.031875253,0.014836261,0.23,0.83,0.55,27493,10189.3,95,92,3,1.96,0.7,1.75,0.23,0.83,0.55
-3.4521484,0.032489277,0.027875252,-0.0011637397,0.23,0.82,0.55,27515,10190.3,95,92,3,2.03,0.42,0.63,0.23,0.82,0.55
-9.551758,0.02848928,0.030875253,-0.013163739,0.23,0.82,0.55,27546,10184.2,95,92,3,1.75,0.63,-0.21,0.23,0.82,0.55
-5.551758,0.02548928,0.03687525,-0.006163739,0.23,0.82,0.55,27553,10188.2,95,92,3,1.54,1.05,0.28,0.23,0.82,0.55
-7.1523438,0.02948928,0.037875254,-0.0051637394,0.23,0.82,0.55,27568,10186.6,95,92,3,1.82,1.12,0.35,0.23,0.82,0.55
-8.251953,0.022489281,0.033875253,-0.0051637394,0.23,0.82,0.55,27591,10185.5,95,92,3,1.33,0.84,0.35,0.23,0.82,0.55
-9.551758,0.015489278,0.024875253,-0.006163739,0.24,0.82,0.55,27613,10184.2,95,92,3,0.84,0.21,0.28,0.24,0.82,0.55
-10.251953,0.02448928,0.021875253,0.0018362598,0.23,0.83,0.54,27648,10183.5,95,92,3,1.47,0,0.84,0.23,0.83,0.54
-13.251953,0.027489278,0.013875253,-0.00016373955,0.23,0.83,0.54,27658,10180.5,95,92,3,1.68,-0.56,0.7,0.23,0.83,0.54
-11.251953,0.02348928,0.00087525323,-0.008163739,0.23,0.83,0.54,27681,10182.5,95,92,3,1.4,-1.47,0.14,0.23,0.83,0.54
-9.551758,0.02348928,-0.0031247474,-0.0051637394,0.23,0.83,0.54,27703,10184.2,95,92,3,1.4,-1.75,0.35,0.23,0.83,0.54
-10.251953,0.02348928,-0.006124748,-0.009163739,0.22,0.83,0.54,27718,10183.5,95,92,3,1.4,-1.96,0.07,0.22,0.83,0.54
-10.551758,0.01948928,-0.012124749,-0.01216374,0.23,0.82,0.54,27748,10183.2,95,92,3,1.12,-2.38,-0.14,0.23,0.82,0.54
-9.251953,0.02448928,0.00087525323,-0.003163739,0.22,0.83,0.54,27763,10184.5,95,92,3,1.47,-1.47,0.49,0.22,0.83,0.54
-7.551758,0.02548928,0.008875253,-0.0051637394,0.22,0.84,0.54,27801,10186.2,95,92,3,1.54,-0.91,0.35,0.22,0.84,0.54
-9.251953,0.02148928,0.012875253,-0.016163738,0.22,0.84,0.54,27802,10184.5,95,92,3,1.26,-0.63,-0.42,0.22,0.84,0.54
-8.8515625,0.01948928,0.012875253,-0.02516374,0.22,0.83,0.54,27815,10184.9,95,92,3,1.12,-0.63,-1.05,0.22,0.83,0.54
-9.551758,0.013489279,0.008875253,-0.030163739,0.22,0.83,0.53,27837,10184.2,95,92,3,0.7,-0.91,-1.4,0.22,0.83,0.53
-14.3515625,0.0054892795,0.0028752517,-0.02616374,0.23,0.83,0.53,27860,10179.4,95,92,3,0.14,-1.33,-1.12,0.23,0.83,0.53
-8.251953,-0.0015107205,-0.007124746,-0.022163738,0.22,0.83,0.53,27883,10185.5,95,92,3,-0.35,-2.03,-0.84,0.22,0.83,0.53
-7.551758,0.0034892794,-0.008124746,-0.01216374,0.22,0.84,0.53,27905,10186.2,95,92,3,0,-2.1,-0.14,0.22,0.84,0.53
-7.551758,0.0034892794,-0.0051247478,-0.0111637395,0.21,0.83,0.54,27920,10186.2,95,92,3,0,-1.89,-0.07,0.21,0.83,0.54
-6.1523438,-0.00851072,-0.0031247474,-0.009163739,0.22,0.83,0.54,27943,10187.6,95,92,3,-0.84,-1.75,0.07,0.22,0.83,0.54
-5.1523438,-0.0065107206,0.0038752537,0.013836259,0.22,0.83,0.54,27966,10188.6,95,92,3,-0.7,-1.26,1.68,0.22,0.83,0.54
-3.4521484,0.0044892794,0.008875253,0.030836258,0.22,0.83,0.53,27988,10190.3,95,92,3,0.07,-0.91,2.87,0.22,0.83,0.53
-4.1523438,0.009489279,0.010875253,0.032836262,0.21,0.83,0.53,28011,10189.6,95,92,3,0.42,-0.77,3.01,0.21,0.83,0.53
-2.7519531,0.012489279,0.019875253,0.032836262,0.22,0.84,0.54,28033,10191,95,92,3,0.63,-0.14,3.01,0.22,0.84,0.54
-0.051757812,0.012489279,0.030875253,0.028836261,0.21,0.84,0.54,28048,10193.7,95,92,3,0.63,0.63,2.73,0.21,0.84,0.54
-0.051757812,0.009489279,0.04187525,0.01983626,0.21,0.83,0.54,28063,10193.7,95,92,3,0.42,1.4,2.1,0.21,0.83,0.54
3.9482422,0.0024892795,0.050875254,0.014836261,0.22,0.82,0.54,28078,10197.7,95,92,3,-0.07,2.03,1.75,0.22,0.82,0.54
3.9482422,-0.009510721,0.057875253,0.016836261,0.23,0.82,0.54,28100,10197.7,95,92,3,-0.91,2.52,1.89,0.23,0.82,0.54
4.948242,-0.02151072,0.049875252,0.016836261,0.23,0.82,0.54,28124,10198.7,95,92,3,-1.75,1.96,1.89,0.23,0.82,0.54
4.948242,-0.039510723,0.032875255,-0.0011637397,0.23,0.82,0.54,28145,10198.7,95,92,3,-3.01,0.77,0.63,0.23,0.82,0.54
6.0478516,-0.057510722,0.00087525323,-0.02016374,0.24,0.82,0.54,28167,10199.8,95,92,3,-4.27,-1.47,-0.7,0.24,0.82,0.54
7.0478516,-0.064510725,-0.021124749,-0.02316374,0.24,0.83,0.54,28190,10200.8,95,92,3,-4.76,-3.01,-0.91,0.24,0.83,0.54
7.3476562,-0.06851072,-0.04012475,-0.028163739,0.23,0.83,0.55,28205,10201.1,95,92,3,-5.04,-4.34,-1.26,0.23,0.83,0.55
6.0478516,-0.07351072,-0.063124746,-0.034163736,0.22,0.83,0.55,28227,10199.8,95,92,3,-5.39,-5.95,-1.68,0.22,0.83,0.55
6.0478516,-0.06751072,-0.07812475,-0.028163739,0.24,0.83,0.55,28251,10199.8,95,92,3,-4.97,-7,-1.26,0.24,0.83,0.55
6.0478516,-0.05451072,-0.09112474,-0.01816374,0.24,0.83,0.55,28273,10199.8,95,92,3,-4.06,-7.91,-0.56,0.24,0.83,0.55
3.9482422,-0.04451072,-0.10212475,-0.02616374,0.22,0.84,0.55,28295,10197.7,95,92,3,-3.36,-8.68,-1.12,0.22,0.84,0.55
4.948242,-0.03651072,-0.10912474,-0.04416374,0.21,0.84,0.55,28317,10198.7,95,92,3,-2.8,-9.17,-2.38,0.21,0.84,0.55
4.948242,-0.030510722,-0.11212475,-0.05516374,0.21,0.83,0.55,28325,10198.7,95,92,3,-2.38,-9.38,-3.15,0.21,0.83,0.55
2.6484375,-0.02151072,-0.10012475,-0.04316374,0.21,0.82,0.56,28350,10196.4,95,92,3,-1.75,-8.54,-2.31,0.21,0.82,0.56
4.948242,-0.0035107208,-0.07512475,-0.016163738,0.21,0.83,0.56,28371,10198.7,95,92,3,-0.49,-6.79,-0.42,0.21,0.83,0.56
3.2480469,0.013489279,-0.052124746,0.00783626,0.21,0.82,0.56,28394,10197,95,92,3,0.7,-5.18,1.26,0.21,0.82,0.56
3.9482422,0.02448928,-0.022124747,0.028836261,0.21,0.83,0.55,28416,10197.7,95,92,3,1.47,-3.08,2.73,0.21,0.83,0.55
9.347656,0.036489278,0.00087525323,0.027836263,0.21,0.84,0.55,28438,10203.1,95,92,3,2.31,-1.47,2.66,0.21,0.84,0.55
2.9482422,0.047489278,0.016875252,0.02283626,0.21,0.83,0.54,28468,10196.7,95,92,3,3.08,-0.35,2.31,0.21,0.83,0.54
3.9482422,0.04248928,0.011875253,0.0058362614,0.23,0.82,0.54,28483,10197.7,95,92,3,2.73,-0.7,1.12,0.23,0.82,0.54
2.2480469,0.027489278,0.0068752533,0.0058362614,0.24,0.82,0.54,28505,10196,95,92,3,1.68,-1.05,1.12,0.24,0.82,0.54
2.9482422,0.012489279,0.0028752517,0.011836261,0.23,0.82,0.54,28520,10196.7,95,92,3,0.63,-1.33,1.54,0.23,0.82,0.54
1.2480469,-0.0025107202,-0.006124748,0.01083626,0.23,0.82,0.54,28544,10195,95,92,3,-0.42,-1.96,1.47,0.23,0.82,0.54
-0.051757812,-0.010510721,-0.009124748,0.01083626,0.23,0.82,0.54,28558,10193.7,95,92,3,-0.98,-2.17,1.47,0.23,0.82,0.54
1.2480469,-0.01651072,-0.009124748,0.00783626,0.23,0.83,0.54,28587,10195,95,92,3,-1.4,-2.17,1.26,0.23,0.83,0.54
1.2480469,-0.02151072,-0.0041247476,-0.00016373955,0.23,0.83,0.55,28603,10195,95,92,3,-1.75,-1.82,0.7,0.23,0.83,0.55
0.54785156,-0.030510722,-0.012124749,-0.017163739,0.23,0.82,0.54,28618,10194.3,95,92,3,-2.38,-2.38,-0.49,0.23,0.82,0.54
-0.051757812,-0.02351072,-0.0151247475,-0.01816374,0.23,0.82,0.54,28640,10193.7,95,92,3,-1.89,-2.59,-0.56,0.23,0.82,0.54
0.24804688,-0.02151072,-0.011124747,0.24483626,0.23,0.82,0.55,28662,10194,95,92,3,-1.75,-2.31,17.85,0.23,0.82,0.55
-0.7519531,-0.03651072,-0.0151247475,-0.019163739,0.23,0.82,0.55,28685,10193,95,92,3,-2.8,-2.59,-0.63,0.23,0.82,0.55
0.24804688,-0.05351072,-0.031124746,-0.03616374,0.23,0.82,0.55,28708,10194,95,92,3,-3.99,-3.71,-1.82,0.23,0.82,0.55
2.2480469,-0.046510722,-0.037124746,-0.031163739,0.23,0.83,0.56,28738,10196,95,92,3,-3.5,-4.13,-1.47,0.23,0.83,0.56
-1.7519531,-0.03751072,-0.03912475,-0.02716374,0.22,0.83,0.56,28753,10192,95,92,3,-2.87,-4.27,-1.19,0.22,0.83,0.56
-1.7519531,-0.031510722,-0.044124745,-0.02316374,0.22,0.82,0.56,28776,10192,95,92,3,-2.45,-4.62,-0.91,0.22,0.82,0.56
-1.7519531,-0.02451072,-0.04612475,-0.01416374,0.22,0.82,0.56,28790,10192,95,92,3,-1.96,-4.76,-0.28,0.22,0.82,0.56
-1.7519531,-0.02151072,-0.041124746,-0.003163739,0.22,0.82,0.57,28805,10192,95,92,3,-1.75,-4.41,0.49,0.22,0.82,0.57
-1.7519531,-0.02351072,-0.04012475,0.0008362606,0.22,0.81,0.57,28821,10192,95,92,3,-1.89,-4.34,0.77,0.22,0.81,0.57
-1.7519531,-0.028510721,-0.047124743,0.0018362598,0.22,0.81,0.56,28843,10192,95,92,3,-2.24,-4.83,0.84,0.22,0.81,0.56
-2.8515625,-0.015510722,-0.04912474,-0.0011637397,0.23,0.82,0.56,28865,10190.9,95,92,3,-1.33,-4.97,0.63,0.23,0.82,0.56
-6.551758,-0.0035107208,-0.045124747,-0.0051637394,0.22,0.83,0.56,28888,10187.2,95,92,3,-0.49,-4.69,0.35,0.22,0.83,0.56
-3.8515625,-0.00051072077,-0.038124748,-0.022163738,0.22,0.83,0.56,28911,10189.9,95,92,3,-0.28,-4.2,-0.84,0.22,0.83,0.56
-4.8515625,-0.0035107208,-0.03512475,-0.02616374,0.23,0.83,0.56,28933,10188.9,95,92,3,-0.49,-3.99,-1.12,0.23,0.83,0.56
-5.1523438,0.006489279,-0.026124744,-0.01216374,0.23,0.83,0.55,28948,10188.6,95,92,3,0.21,-3.36,-0.14,0.23,0.83,0.55
-6.8515625,0.01648928,-0.019124744,-0.006163739,0.22,0.82,0.55,28971,10186.9,95,92,3,0.91,-2.87,0.28,0.22,0.82,0.55
-6.551758,0.013489279,-0.0141247455,-0.009163739,0.22,0.82,0.55,28994,10187.2,95,92,3,0.7,-2.52,0.07,0.22,0.82,0.55
-7.8515625,0.014489279,-0.0021247454,-0.0011637397,0.22,0.82,0.55,29017,10185.9,95,92,3,0.77,-1.68,0.63,0.22,0.82,0.55
-11.952148,0.00748928,0.005875252,0.012836261,0.22,0.82,0.55,29037,10181.8,95,92,3,0.28,-1.12,1.61,0.22,0.82,0.55
-9.952148,0.009489279,0.016875252,0.02583626,0.23,0.82,0.54,29053,10183.8,95,92,3,0.42,-0.35,2.52,0.23,0.82,0.54
-9.952148,0.0054892795,0.025875254,0.03583626,0.22,0.82,0.54,29067,10183.8,95,92,3,0.14,0.28,3.22,0.22,0.82,0.54
-9.551758,-0.00051072077,0.022875253,0.03683626,0.22,0.83,0.54,29082,10184.2,95,92,3,-0.28,0.07,3.29,0.22,0.83,0.54
-10.952148,-0.0035107208,0.027875252,0.03983626,0.22,0.82,0.54,29105,10182.8,95,92,3,-0.49,0.42,3.5,0.22,0.82,0.54
-11.952148,-0.02451072,0.024875253,0.034836262,0.23,0.82,0.54,29128,10181.8,95,92,3,-1.96,0.21,3.15,0.23,0.82,0.54
-12.251953,-0.03251072,0.020875253,0.038836263,0.24,0.82,0.54,29150,10181.5,95,92,3,-2.52,-0.07,3.43,0.24,0.82,0.54
-12.652344,-0.039510723,0.008875253,0.051836263,0.24,0.83,0.54,29172,10181.1,95,92,3,-3.01,-0.91,4.34,0.24,0.83,0.54
-12.652344,-0.027510721,0.0018752534,0.05083626,0.23,0.82,0.54,29195,10181.1,95,92,3,-2.17,-1.4,4.27,0.23,0.82,0.54
-11.652344,-0.01951072,-0.00012474693,0.054836266,0.23,0.82,0.56,29218,10182.1,95,92,3,-1.61,-1.54,4.55,0.23,0.82,0.56
-11.952148,-0.02351072,0.013875253,0.05983626,0.23,0.82,0.57,29237,10181.8,95,92,3,-1.89,-0.56,4.9,0.23,0.82,0.57
-11.652344,-0.02451072,0.025875254,0.06683626,0.22,0.82,0.56,29255,10182.1,95,92,3,-1.96,0.28,5.39,0.22,0.82,0.56
-14.652344,-0.0055107204,0.049875252,0.06783626,0.22,0.82,0.56,29277,10179.1,95,92,3,-0.63,1.96,5.46,0.22,0.82,0.56
-13.251953,-0.0015107205,0.059875257,0.06783626,0.23,0.82,0.56,29300,10180.5,95,92,3,-0.35,2.66,5.46,0.23,0.82,0.56
-11.652344,-0.0015107205,0.06887525,0.07483626,0.24,0.82,0.57,29315,10182.1,95,92,3,-0.35,3.29,5.95,0.24,0.82,0.57
-11.952148,0.0024892795,0.07587525,0.08083626,0.24,0.81,0.56,29330,10181.8,95,92,3,-0.07,3.78,6.37,0.24,0.81,0.56
-11.652344,-0.0025107202,0.06787525,0.07783626,0.26,0.81,0.55,29353,10182.1,95,92,3,-0.42,3.22,6.16,0.26,0.81,0.55
-11.652344,0.0014892793,0.046875253,0.08483626,0.27,0.82,0.54,29375,10182.1,95,92,3,-0.14,1.75,6.65,0.27,0.82,0.54
-14.652344,0.01748928,0.032875255,0.08283626,0.26,0.82,0.55,29397,10179.1,95,92,3,0.98,0.77,6.51,0.26,0.82,0.55
-11.251953,0.01648928,0.017875252,0.06383626,0.26,0.82,0.55,29421,10182.5,95,92,3,0.91,-0.28,5.18,0.26,0.82,0.55
-13.652344,0.0044892794,0.010875253,0.04683626,0.26,0.81,0.55,29443,10180.1,95,92,3,0.07,-0.77,3.99,0.26,0.81,0.55
-11.652344,-0.009510721,0.005875252,0.026836261,0.26,0.82,0.55,29465,10182.1,95,92,3,-0.91,-1.12,2.59,0.26,0.82,0.55
-11.652344,-0.02151072,-0.008124746,-0.006163739,0.26,0.82,0.54,29488,10182.1,95,92,3,-1.75,-2.1,0.28,0.26,0.82,0.54
-9.551758,-0.020510718,-0.023124749,-0.035163738,0.26,0.82,0.53,29502,10184.2,95,92,3,-1.68,-3.15,-1.75,0.26,0.82,0.53
-10.952148,-0.02351072,-0.036124744,-0.064163744,0.24,0.81,0.55,29526,10182.8,95,92,3,-1.89,-4.06,-3.78,0.24,0.81,0.55
-12.652344,-0.034510724,-0.04012475,-0.07716374,0.24,0.79,0.56,29547,10181.1,95,92,3,-2.66,-4.34,-4.69,0.24,0.79,0.56
-10.952148,-0.05351072,-0.03512475,-0.07316374,0.24,0.78,0.57,29563,10182.8,95,92,3,-3.99,-3.99,-4.41,0.24,0.78,0.57
-10.952148,-0.071510725,-0.018124746,-0.051163737,0.24,0.79,0.58,29578,10182.8,95,92,3,-5.25,-2.8,-2.87,0.24,0.79,0.58
-10.952148,-0.07451072,-0.0021247454,-0.02616374,0.22,0.81,0.58,29601,10182.8,95,92,3,-5.46,-1.68,-1.12,0.22,0.81,0.58
-9.551758,-0.04951072,0.008875253,-0.01416374,0.22,0.83,0.57,29623,10184.2,95,92,3,-3.71,-0.91,-0.28,0.22,0.83,0.57
-9.251953,-0.01651072,0.014875253,-0.010163739,0.22,0.83,0.57,29638,10184.5,95,92,3,-1.4,-0.49,0,0.22,0.83,0.57
-7.551758,0.015489278,0.027875252,-0.003163739,0.21,0.82,0.57,29660,10186.2,95,92,3,0.84,0.42,0.49,0.21,0.82,0.57
-5.551758,0.03348928,0.035875253,0.003836261,0.22,0.81,0.58,29683,10188.2,0,92,3,2.1,0.98,0.98,0.22,0.81,0.58
-5.551758,0.010489279,0.03687525,-0.00016373955,0.22,0.79,0.58,29705,10188.2,0,92,3,0.49,1.05,0.7,0.22,0.79,0.58
-1.4521484,-0.0115107205,0.044875253,0.016836261,0.24,0.8,0.58,29728,10192.3,0,92,3,-1.05,1.61,1.89,0.24,0.8,0.58
-5.551758,-0.02151072,0.046875253,0.03983626,0.24,0.8,0.57,29750,10188.2,0,92,3,-1.75,1.75,3.5,0.24,0.8,0.57
-1.4521484,-0.02251072,0.047875255,0.04983626,0.24,0.8,0.57,29773,10192.3,0,92,3,-1.82,1.82,4.2,0.24,0.8,0.57
0.54785156,-0.01951072,0.052875254,0.05583626,0.23,0.81,0.58,29795,10194.3,0,92,3,-1.61,2.17,4.62,0.23,0.81,0.58
1.5478516,-0.0115107205,0.06887525,0.060836256,0.22,0.81,0.58,29810,10195.3,0,92,3,-1.05,3.29,4.97,0.22,0.81,0.58
4.6484375,-0.0065107206,0.08587526,0.061836258,0.22,0.8,0.58,29825,10198.4,0,92,3,-0.7,4.48,5.04,0.22,0.8,0.58
5.6484375,-0.00051072077,0.11487526,0.068836264,0.23,0.78,0.6,29858,10199.4,0,92,3,-0.28,6.51,5.53,0.23,0.78,0.6
5.6484375,-0.0055107204,0.14087525,0.07883626,0.23,0.78,0.6,29878,10199.4,0,92,3,-0.63,8.33,6.23,0.23,0.78,0.6
2.2480469,0.0044892794,0.16487525,0.087836266,0.22,0.79,0.59,29893,10196,0,92,3,0.07,10.01,6.86,0.22,0.79,0.59
5.3476562,0.015489278,0.16987525,0.08083626,0.23,0.79,0.6,29917,10199.1,0,92,3,0.84,10.36,6.37,0.23,0.79,0.6
4.948242,0.010489279,0.16487525,0.08683626,0.24,0.8,0.61,29930,10198.7,0,92,3,0.49,10.01,6.79,0.24,0.8,0.61
5.6484375,0.02948928,0.16587524,0.11983627,0.25,0.81,0.6,29953,10199.4,0,92,3,1.82,10.08,9.1,0.25,0.81,0.6
5.6484375,0.056489278,0.16087525,0.14083625,0.25,0.81,0.59,29976,10199.4,0,92,3,3.71,9.73,10.57,0.25,0.81,0.59
5.948242,0.07048928,0.13987525,0.13183625,0.26,0.81,0.57,29997,10199.7,0,92,3,4.69,8.26,9.94,0.26,0.81,0.57
3.6484375,0.07448927,0.109875254,0.108836256,0.27,0.82,0.56,30020,10197.4,0,92,3,4.97,6.16,8.33,0.27,0.82,0.56
4.6484375,0.07148928,0.084875256,0.07483626,0.26,0.81,0.56,30043,10198.4,0,92,3,4.76,4.41,5.95,0.26,0.81,0.56
4.948242,0.058489278,0.06387525,0.038836263,0.26,0.8,0.57,30057,10198.7,0,92,3,3.85,2.94,3.43,0.26,0.8,0.57
4.6484375,0.039489277,0.047875255,0.01083626,0.25,0.81,0.58,30073,10198.4,0,92,3,2.52,1.82,1.47,0.25,0.81,0.58
3.6484375,0.03448928,0.039875254,-0.0011637397,0.25,0.81,0.57,30087,10197.4,0,92,3,2.17,1.26,0.63,0.25,0.81,0.57
3.6484375,0.047489278,0.037875254,-0.006163739,0.37,0.82,0.57,30110,10197.4,0,92,3,3.08,1.12,0.28,0.37,0.82,0.57
2.6484375,0.058489278,0.022875253,-0.008163739,0.25,0.81,0.57,30133,10196.4,0,92,3,3.85,0.07,0.14,0.25,0.81,0.57
2.6484375,0.05348928,0.010875253,-0.019163739,0.24,0.81,0.56,30155,10196.4,0,92,3,3.5,-0.77,-0.63,0.24,0.81,0.56
2.9482422,0.045489278,-0.0011247471,-0.02916374,0.24,0.81,0.56,30178,10196.7,0,92,3,2.94,-1.61,-1.33,0.24,0.81,0.56
0.54785156,0.036489278,-0.024124747,-0.041163743,0.24,0.8,0.56,30201,10194.3,0,92,3,2.31,-3.22,-2.17,0.24,0.8,0.56
1.9482422,0.02848928,-0.028124748,-0.03316374,0.24,0.8,0.56,30215,10195.7,0,92,3,1.75,-3.5,-1.61,0.24,0.8,0.56
1.9482422,0.02648928,-0.029124746,-0.02416374,0.23,0.81,0.56,30238,10195.7,0,92,3,1.61,-3.57,-0.98,0.23,0.81,0.56
0.54785156,0.03148928,-0.018124746,-0.017163739,0.22,0.82,0.56,30260,10194.3,0,92,3,1.96,-2.8,-0.49,0.22,0.82,0.56
0.9482422,0.02948928,-0.0021247454,-0.016163738,0.22,0.81,0.56,30282,10194.7,0,92,3,1.82,-1.68,-0.42,0.22,0.81,0.56
0.9482422,0.02448928,0.017875252,-0.013163739,0.22,0.81,0.57,30305,10194.7,0,92,3,1.47,-0.28,-0.21,0.22,0.81,0.57
0.54785156,0.013489279,0.030875253,-0.010163739,0.22,0.81,0.57,30320,10194.3,0,92,3,0.7,0.63,0,0.22,0.81,0.57
0.54785156,-0.0035107208,0.03487525,-0.003163739,0.23,0.8,0.56,30334,10194.3,0,92,3,-0.49,0.91,0.49,0.23,0.8,0.56
1.5478516,-0.020510718,0.022875253,-0.002163739,0.24,0.8,0.55,30365,10195.3,0,92,3,-1.68,0.07,0.56,0.24,0.8,0.55
-5.1523438,-0.010510721,0.022875253,0.01883626,0.23,0.81,0.56,30380,10188.6,0,92,3,-0.98,0.07,2.03,0.23,0.81,0.56
-0.7519531,-0.012510722,0.023875253,0.01883626,0.22,0.82,0.57,30403,10193,0,92,3,-1.12,0.14,2.03,0.22,0.82,0.57
0.24804688,-0.020510718,0.019875253,0.0048362603,0.22,0.82,0.57,30432,10194,0,92,3,-1.68,-0.14,1.05,0.22,0.82,0.57
-2.1523438,-0.00851072,0.017875252,0.002836261,0.23,0.82,0.57,30448,10191.6,0,92,3,-0.84,-0.28,0.91,0.23,0.82,0.57
-1.4521484,0.006489279,0.017875252,0.008836262,0.22,0.82,0.58,30463,10192.3,0,92,3,0.21,-0.28,1.33,0.22,0.82,0.58
-2.4521484,0.014489279,0.027875252,0.021836262,0.22,0.8,0.58,30485,10191.3,0,92,3,0.77,0.42,2.24,0.22,0.8,0.58
-2.1523438,0.006489279,0.046875253,0.037836257,0.22,0.79,0.59,30538,10191.6,0,92,3,0.21,1.75,3.36,0.22,0.79,0.59
-4.1523438,0.013489279,0.08587526,0.07383626,0.21,0.8,0.59,30539,10189.6,0,92,3,0.7,4.48,5.88,0.21,0.8,0.59
-4.4521484,0.020489281,0.10487525,0.08483626,0.21,0.81,0.58,30553,10189.3,0,92,3,1.19,5.81,6.65,0.21,0.81,0.58
-5.1523438,0.02548928,0.113875255,0.08083626,0.22,0.81,0.57,30568,10188.6,0,92,3,1.54,6.44,6.37,0.22,0.81,0.57
-5.1523438,0.03348928,0.11587525,0.076836266,0.23,0.81,0.56,30583,10188.6,0,92,3,2.1,6.58,6.09,0.23,0.81,0.56
-5.8515625,0.051489275,0.11887526,0.07783626,0.23,0.82,0.56,30606,10187.9,0,92,3,3.36,6.79,6.16,0.23,0.82,0.56
-7.251953,0.05248928,0.12287526,0.07583626,0.23,0.81,0.57,30628,10186.5,0,92,3,3.43,7.07,6.02,0.23,0.81,0.57
-7.251953,0.03048928,0.12687525,0.06783626,0.23,0.8,0.57,30650,10186.5,0,92,3,1.89,7.35,5.46,0.23,0.8,0.57
-9.251953,0.01648928,0.12687525,0.065836266,0.23,0.81,0.57,30665,10184.5,0,92,3,0.91,7.35,5.32,0.23,0.81,0.57
-11.251953,0.01748928,0.12187526,0.06983626,0.24,0.82,0.56,30688,10182.5,0,92,3,0.98,7,5.6,0.24,0.82,0.56
-11.251953,0.014489279,0.10187525,0.043836262,0.23,0.81,0.56,30711,10182.5,0,92,3,0.77,5.6,3.78,0.23,0.81,0.56
-10.952148,0.010489279,0.087875254,0.03383626,0.24,0.81,0.57,30733,10182.8,0,92,3,0.49,4.62,3.08,0.24,0.81,0.57
-14.3515625,0.01648928,0.08687526,0.028836261,0.23,0.81,0.57,30755,10179.4,0,92,3,0.91,4.55,2.73,0.23,0.81,0.57
-11.251953,0.01748928,0.08187525,0.01883626,0.23,0.82,0.57,30778,10182.5,0,92,3,0.98,4.2,2.03,0.23,0.82,0.57
-11.251953,0.01948928,0.07187525,0.0008362606,0.23,0.82,0.57,30793,10182.5,0,92,3,1.12,3.5,0.77,0.23,0.82,0.57
-12.251953,0.02548928,0.058875255,-0.26616377,0.22,0.83,0.57,30808,10181.5,0,92,3,1.54,2.59,-17.92,0.22,0.83,0.57
-10.551758,0.03548928,0.048875254,-0.019163739,0.22,0.82,0.57,30823,10183.2,0,92,3,2.24,1.89,-0.63,0.22,0.82,0.57
-12.251953,0.04248928,0.03487525,-0.034163736,0.22,0.81,0.57,30844,10181.5,0,92,3,2.73,0.91,-1.68,0.22,0.81,0.57
-11.251953,0.03848928,0.033875253,-0.02916374,0.22,0.82,0.57,30867,10182.5,0,92,3,2.45,0.84,-1.33,0.22,0.82,0.57
-14.3515625,0.03748928,0.025875254,-0.028163739,0.22,0.82,0.56,30890,10179.4,0,92,3,2.38,0.28,-1.26,0.22,0.82,0.56
-11.952148,0.02848928,0.011875253,-0.037163742,0.22,0.81,0.56,30912,10181.8,0,92,3,1.75,-0.7,-1.89,0.22,0.81,0.56
-11.251953,0.01148928,-0.0051247478,-0.04516374,0.22,0.81,0.56,30935,10182.5,0,92,3,0.56,-1.89,-2.45,0.22,0.81,0.56
-11.251953,0.012489279,-0.023124749,-0.046163738,0.22,0.82,0.55,30958,10182.5,0,92,3,0.63,-3.15,-2.52,0.22,0.82,0.55
-11.251953,0.02148928,-0.034124747,-0.04916374,0.21,0.82,0.56,30980,10182.5,0,92,3,1.26,-3.92,-2.73,0.21,0.82,0.56
-6.1523438,0.012489279,-0.047124743,-0.05216374,0.22,0.81,0.57,31002,10187.6,0,92,3,0.63,-4.83,-2.94,0.22,0.81,0.57
-10.251953,0.012489279,-0.04312475,-0.031163739,0.22,0.82,0.56,31025,10183.5,0,92,3,0.63,-4.55,-1.47,0.22,0.82,0.56
-10.251953,0.027489278,-0.031124746,-0.016163738,0.21,0.82,0.56,31040,10183.5,0,92,3,1.68,-3.71,-0.42,0.21,0.82,0.56
-9.251953,0.02348928,-0.033124745,-0.02316374,0.21,0.82,0.56,31063,10184.5,0,92,3,1.4,-3.85,-0.91,0.21,0.82,0.56
-5.1523438,0.013489279,-0.03212475,-0.03616374,0.2,0.82,0.56,31078,10188.6,0,92,3,0.7,-3.78,-1.82,0.2,0.82,0.56
-8.251953,0.0014892793,-0.031124746,-0.051163737,0.21,0.82,0.56,31100,10185.5,0,92,3,-0.14,-3.71,-2.87,0.21,0.82,0.56
-8.251953,-0.0065107206,-0.034124747,-0.058163736,0.22,0.81,0.57,31115,10185.5,0,92,3,-0.7,-3.92,-3.36,0.22,0.81,0.57
-8.251953,-0.01851072,-0.037124746,-0.05616374,0.23,0.81,0.56,31138,10185.5,0,92,3,-1.54,-4.13,-3.22,0.23,0.81,0.56
-8.251953,-0.020510718,-0.04912474,-0.05016374,0.22,0.82,0.56,31167,10185.5,0,92,3,-1.68,-4.97,-2.8,0.22,0.82,0.56
-7.251953,-0.0075107208,-0.06012474,-0.05316374,0.21,0.83,0.56,31183,10186.5,0,92,3,-0.77,-5.74,-3.01,0.21,0.83,0.56
-5.1523438,0.0044892794,-0.07212474,-0.058163736,0.21,0.82,0.57,31205,10188.6,0,92,3,0.07,-6.58,-3.36,0.21,0.82,0.57
-5.1523438,0.01148928,-0.06712475,-0.041163743,0.21,0.82,0.57,31227,10188.6,0,92,3,0.56,-6.23,-2.17,0.21,0.82,0.57
-6.1523438,0.020489281,-0.052124746,-0.01816374,0.21,0.82,0.56,31250,10187.6,0,92,3,1.19,-5.18,-0.56,0.21,0.82,0.56
-4.1523438,0.02948928,-0.034124747,-0.003163739,0.21,0.81,0.57,31272,10189.6,0,92,3,1.82,-3.92,0.49,0.21,0.81,0.57
-9.251953,0.02148928,-0.03212475,-0.003163739,0.21,0.82,0.56,31288,10184.5,0,92,3,1.26,-3.78,0.49,0.21,0.82,0.56
2.9482422,0.014489279,-0.021124749,0.0018362598,0.21,0.82,0.56,31310,10196.7,0,92,3,0.77,-3.01,0.84,0.21,0.82,0.56
-2.1523438,0.010489279,-0.017124748,0.0018362598,0.21,0.82,0.56,31325,10191.6,0,92,3,0.49,-2.73,0.84,0.21,0.82,0.56
-0.7519531,0.006489279,-0.017124748,-0.0051637394,0.22,0.82,0.55,31340,10193,0,92,3,0.21,-2.73,0.35,0.22,0.82,0.55
-1.1523438,-0.0065107206,-0.021124749,-0.01216374,0.22,0.82,0.55,31363,10192.6,0,92,3,-0.7,-3.01,-0.14,0.22,0.82,0.55
0.9482422,-0.0055107204,-0.022124747,-0.01416374,0.22,0.82,0.55,31386,10194.7,95,91,3,-0.63,-3.08,-0.28,0.22,0.82,0.55
0.9482422,-0.010510721,-0.036124744,-0.035163738,0.22,0.82,0.55,31401,10194.7,95,91,3,-0.98,-4.06,-1.75,0.22,0.82,0.55
1.9482422,-0.025510719,-0.050124742,-0.05216374,0.22,0.83,0.55,31423,10195.7,95,91,3,-2.03,-5.04,-2.94,0.22,0.83,0.55
2.9482422,-0.02651072,-0.05712475,-0.058163736,0.22,0.83,0.55,31446,10196.7,95,91,3,-2.1,-5.53,-3.36,0.22,0.83,0.55
2.9482422,-0.02251072,-0.06712475,-0.064163744,0.21,0.82,0.55,31468,10196.7,95,91,3,-1.82,-6.23,-3.78,0.21,0.82,0.55
2.9482422,-0.01651072,-0.070124745,-0.05016374,0.21,0.82,0.56,31491,10196.7,95,91,3,-1.4,-6.44,-2.8,0.21,0.82,0.56
8.347656,-0.020510718,-0.06412475,-0.04416374,0.2,0.83,0.56,31513,10202.1,95,91,3,-1.68,-6.02,-2.38,0.2,0.83,0.56
4.248047,-0.02251072,-0.05312475,-0.03916374,0.2,0.83,0.56,31535,10198,95,91,3,-1.82,-5.25,-2.03,0.2,0.83,0.56
4.248047,-0.02151072,-0.048124745,-0.04516374,0.2,0.83,0.56,31550,10198,95,91,3,-1.75,-4.9,-2.45,0.2,0.83,0.56
2.2480469,-0.02251072,-0.051124744,-0.046163738,0.2,0.82,0.56,31565,10196,95,91,3,-1.82,-5.11,-2.52,0.2,0.82,0.56
2.9482422,-0.02651072,-0.04912474,-0.041163743,0.2,0.82,0.56,31580,10196.7,95,91,3,-2.1,-4.97,-2.17,0.2,0.82,0.56
2.2480469,-0.02651072,-0.044124745,-0.03616374,0.2,0.82,0.56,31603,10196,95,91,3,-2.1,-4.62,-1.82,0.2,0.82,0.56
2.2480469,-0.03851072,-0.050124742,-0.03216374,0.21,0.81,0.56,31625,10196,95,91,3,-2.94,-5.04,-1.54,0.21,0.81,0.56
2.9482422,-0.04951072,-0.062124744,-0.02516374,0.22,0.81,0.56,31656,10196.7,95,91,3,-3.71,-5.88,-1.05,0.22,0.81,0.56
2.2480469,-0.04351072,-0.06912474,-0.008163739,0.22,0.82,0.56,31670,10196,95,91,3,-3.29,-6.37,0.14,0.22,0.82,0.56
1.9482422,-0.041510724,-0.07512475,-0.0051637394,0.21,0.82,0.56,31693,10195.7,95,91,3,-3.15,-6.79,0.35,0.21,0.82,0.56
0.9482422,-0.04351072,-0.08312474,-0.016163738,0.2,0.83,0.57,31709,10194.7,95,91,3,-3.29,-7.35,-0.42,0.2,0.83,0.57
3.2480469,-0.03251072,-0.07812475,-0.02116374,0.21,0.83,0.57,31730,10197,95,91,3,-2.52,-7,-0.77,0.21,0.83,0.57
0.24804688,-0.02451072,-0.07212474,-0.02016374,0.21,0.82,0.58,31752,10194,95,91,3,-1.96,-6.58,-0.7,0.21,0.82,0.58
0.54785156,-0.02351072,-0.061124742,-0.010163739,0.21,0.81,0.58,31775,10194.3,95,91,3,-1.89,-5.81,0,0.21,0.81,0.58
-0.7519531,-0.020510718,-0.05312475,-0.0041637397,0.21,0.82,0.57,31790,10193,95,91,3,-1.68,-5.25,0.42,0.21,0.82,0.57
1.2480469,-0.01451072,-0.04912474,-0.002163739,0.21,0.82,0.57,31805,10195,95,91,3,-1.26,-4.97,0.56,0.21,0.82,0.57
0.24804688,-0.0075107208,-0.04312475,-0.0071637398,0.21,0.82,0.57,31820,10194,95,91,3,-0.77,-4.55,0.21,0.21,0.82,0.57
-1.1523438,-0.0055107204,-0.04312475,-0.0111637395,0.21,0.82,0.57,31843,10192.6,95,91,3,-0.63,-4.55,-0.07,0.21,0.82,0.57
-1.7519531,-0.00851072,-0.04912474,-0.02016374,0.22,0.81,0.56,31865,10192,95,91,3,-0.84,-4.97,-0.7,0.22,0.81,0.56
-1.7519531,-0.0065107206,-0.055124745,-0.02916374,0.22,0.82,0.57,31880,10192,95,91,3,-0.7,-5.39,-1.33,0.22,0.82,0.57
-1.1523438,-0.013510722,-0.06912474,-0.04416374,0.22,0.83,0.56,31902,10192.6,95,91,3,-1.19,-6.37,-2.38,0.22,0.83,0.56
-2.8515625,-0.009510721,-0.08612475,-0.06916374,0.22,0.83,0.56,31926,10190.9,95,91,3,-0.91,-7.56,-4.13,0.22,0.83,0.56
-2.8515625,0.00748928,-0.09812474,-0.08016374,0.22,0.84,0.56,31947,10190.9,95,91,3,0.28,-8.4,-4.9,0.22,0.84,0.56
-2.8515625,0.02948928,-0.09712474,-0.082163736,0.22,0.84,0.56,31970,10190.9,95,91,3,1.82,-8.33,-5.04,0.22,0.84,0.56
-2.8515625,0.04248928,-0.09012475,-0.08516374,0.21,0.83,0.57,31993,10190.9,95,91,3,2.73,-7.84,-5.25,0.21,0.83,0.57
-0.15234375,0.044489276,-0.08012474,-0.08416374,0.21,0.82,0.56,32015,10193.6,95,91,3,2.87,-7.14,-5.18,0.21,0.82,0.56
-5.8515625,0.047489278,-0.07412474,-0.07616374,0.21,0.82,0.56,32030,10187.9,95,91,3,3.08,-6.72,-4.62,0.21,0.82,0.56
-3.1523438,0.04648928,-0.070124745,-0.07016374,0.21,0.82,0.56,32053,10190.6,95,91,3,3.01,-6.44,-4.2,0.21,0.82,0.56
-5.8515625,0.04648928,-0.06712475,-0.064163744,0.21,0.82,0.55,32077,10187.9,95,91,3,3.01,-6.23,-3.78,0.21,0.82,0.55
-2.8515625,0.04048928,-0.063124746,-0.05916374,0.21,0.82,0.55,32083,10190.9,95,91,3,2.59,-5.95,-3.43,0.21,0.82,0.55
-4.1523438,0.03748928,-0.05312475,-0.04816374,0.2,0.82,0.55,32106,10189.6,95,91,3,2.38,-5.25,-2.66,0.2,0.82,0.55
-4.8515625,0.02848928,-0.052124746,-0.03916374,0.2,0.82,0.55,32128,10188.9,95,91,3,1.75,-5.18,-2.03,0.2,0.82,0.55
-3.8515625,0.02548928,-0.050124742,-0.02916374,0.21,0.82,0.55,32150,10189.9,95,91,3,1.54,-5.04,-1.33,0.21,0.82,0.55
-4.8515625,0.022489281,-0.045124747,-0.016163738,0.21,0.82,0.55,32165,10188.9,95,91,3,1.33,-4.69,-0.42,0.21,0.82,0.55
-4.8515625,0.0024892795,-0.04612475,-0.0041637397,0.21,0.82,0.55,32187,10188.9,95,91,3,-0.07,-4.76,0.42,0.21,0.82,0.55
-3.8515625,-0.00851072,-0.044124745,-0.00016373955,0.21,0.82,0.55,32210,10189.9,0,91,3,-0.84,-4.62,0.7,0.21,0.82,0.55
-5.8515625,-0.010510721,-0.044124745,-0.003163739,0.21,0.83,0.55,32233,10187.9,0,91,3,-0.98,-4.62,0.49,0.21,0.83,0.55
-6.551758,-0.0075107208,-0.04012475,0.0018362598,0.21,0.82,0.55,32255,10187.2,0,91,3,-0.77,-4.34,0.84,0.21,0.82,0.55
-5.8515625,0.006489279,-0.02712475,0.011836261,0.21,0.83,0.56,32278,10187.9,0,91,3,0.21,-3.43,1.54,0.21,0.83,0.56
-8.952148,0.00748928,-0.013124747,0.015836261,0.21,0.83,0.56,32300,10184.8,0,91,3,0.28,-2.45,1.82,0.21,0.83,0.56
-8.551758,0.0044892794,-0.007124746,0.0068362616,0.21,0.83,0.55,32315,10185.2,0,91,3,0.07,-2.03,1.19,0.21,0.83,0.55
-9.251953,0.00748928,-0.0051247478,0.002836261,0.21,0.84,0.55,32330,10184.5,0,91,3,0.28,-1.89,0.91,0.21,0.84,0.55
-13.952148,0.01648928,-0.011124747,-0.00016373955,0.22,0.84,0.54,32353,10179.8,0,91,3,0.91,-2.31,0.7,0.22,0.84,0.54
-7.8515625,0.027489278,-0.019124744,0.0018362598,0.22,0.83,0.54,32376,10185.9,0,91,3,1.68,-2.87,0.84,0.22,0.83,0.54
-10.251953,0.03148928,-0.031124746,-0.002163739,0.22,0.83,0.54,32398,10183.5,0,91,3,1.96,-3.71,0.56,0.22,0.83,0.54
-11.952148,0.03048928,-0.034124747,-0.003163739,0.21,0.82,0.55,32421,10181.8,0,91,3,1.89,-3.92,0.49,0.21,0.82,0.55
-11.952148,0.03348928,-0.022124747,0.008836262,0.21,0.83,0.55,32443,10181.8,0,91,3,2.1,-3.08,1.33,0.21,0.83,0.55
-12.952148,0.03448928,-0.009124748,0.00783626,0.21,0.83,0.55,32458,10180.8,0,91,3,2.17,-2.17,1.26,0.21,0.83,0.55
-9.952148,0.02448928,-0.0021247454,0.00983626,0.21,0.82,0.55,32487,10183.8,0,91,3,1.47,-1.68,1.4,0.21,0.82,0.55
-8.952148,0.02348928,0.004875252,0.01883626,0.22,0.83,0.54,32502,10184.8,0,91,3,1.4,-1.19,2.03,0.22,0.83,0.54
-13.652344,0.03748928,0.008875253,0.02983626,0.21,0.84,0.54,32525,10180.1,0,91,3,2.38,-0.91,2.8,0.21,0.84,0.54
-13.3515625,0.04148928,0.012875253,0.021836262,0.21,0.84,0.54,32540,10180.4,0,91,3,2.66,-0.63,2.24,0.21,0.84,0.54
-15.051758,0.043489277,0.010875253,0.017836262,0.21,0.83,0.54,32556,10178.7,0,91,3,2.8,-0.77,1.96,0.21,0.83,0.54
-14.652344,0.03748928,0.009875254,0.014836261,0.22,0.83,0.54,32577,10179.1,0,91,3,2.38,-0.84,1.75,0.22,0.83,0.54
-12.652344,0.039489277,0.012875253,0.01883626,0.23,0.83,0.54,32600,10181.1,0,91,3,2.52,-0.63,2.03,0.23,0.83,0.54
-12.952148,0.04248928,0.013875253,0.02583626,0.22,0.83,0.54,32615,10180.8,0,91,3,2.73,-0.56,2.52,0.22,0.83,0.54
-12.652344,0.03348928,0.012875253,0.023836263,0.22,0.83,0.54,32638,10181.1,0,91,3,2.1,-0.63,2.38,0.22,0.83,0.54
-13.3515625,0.03448928,0.020875253,0.021836262,0.21,0.83,0.54,32652,10180.4,0,91,3,2.17,-0.07,2.24,0.21,0.83,0.54
-12.652344,0.03548928,0.031875253,0.016836261,0.21,0.83,0.54,32675,10181.1,0,91,3,2.24,0.7,1.89,0.21,0.83,0.54
-12.652344,0.02848928,0.039875254,0.016836261,0.22,0.83,0.53,32698,10181.1,0,91,3,1.75,1.26,1.89,0.22,0.83,0.53
-12.652344,0.02548928,0.042875253,0.026836261,0.22,0.84,0.53,32720,10181.1,0,91,3,1.54,1.47,2.59,0.22,0.84,0.53
-11.652344,0.02948928,0.04187525,0.032836262,0.22,0.83,0.53,32742,10182.1,0,91,3,1.82,1.4,3.01,0.22,0.83,0.53
-10.952148,0.03348928,0.040875256,0.034836262,0.22,0.83,0.53,32765,10182.8,0,91,3,2.1,1.33,3.15,0.22,0.83,0.53
-11.952148,0.020489281,0.042875253,0.03683626,0.21,0.83,0.54,32787,10181.8,0,91,3,1.19,1.47,3.29,0.21,0.83,0.54
-10.652344,0.012489279,0.047875255,0.04183626,0.22,0.83,0.54,32802,10183.1,0,91,3,0.63,1.82,3.64,0.22,0.83,0.54
-12.952148,0.006489279,0.058875255,0.038836263,0.21,0.83,0.54,32817,10180.8,0,91,3,0.21,2.59,3.43,0.21,0.83,0.54
-9.551758,0.0014892793,0.06387525,0.04283626,0.21,0.84,0.54,32832,10184.2,0,91,3,-0.14,2.94,3.71,0.21,0.84,0.54
-9.551758,0.0044892794,0.06687526,0.04183626,0.22,0.84,0.53,32862,10184.2,0,91,3,0.07,3.15,3.64,0.22,0.84,0.53
-9.952148,0.012489279,0.07187525,0.04883626,0.22,0.83,0.53,32878,10183.8,0,91,3,0.63,3.5,4.13,0.22,0.83,0.53
-8.551758,0.015489278,0.07587525,0.054836266,0.22,0.83,0.53,32900,10185.2,0,91,3,0.84,3.78,4.55,0.22,0.83,0.53
-7.551758,0.006489279,0.07887525,0.05883626,0.22,0.83,0.54,32923,10186.2,0,91,3,0.21,3.99,4.83,0.22,0.83,0.54
-6.8515625,-0.0055107204,0.07887525,0.057836264,0.22,0.83,0.54,32938,10186.9,0,91,3,-0.63,3.99,4.76,0.22,0.83,0.54
-4.8515625,-0.010510721,0.07587525,0.06283626,0.23,0.83,0.53,32960,10188.9,0,91,3,-0.98,3.78,5.11,0.23,0.83,0.53
-6.551758,-0.0015107205,0.07587525,0.06683626,0.23,0.84,0.53,32983,10187.2,0,91,3,-0.35,3.78,5.39,0.23,0.84,0.53
-2.1523438,0.0054892795,0.06987525,0.05583626,0.23,0.83,0.54,33006,10191.6,0,91,3,0.14,3.36,4.62,0.23,0.83,0.54
0.24804688,0.0054892795,0.06887525,0.03983626,0.23,0.83,0.54,33027,10194,0,91,3,0.14,3.29,3.5,0.23,0.83,0.54
2.5478516,0.0024892795,0.06987525,0.03583626,0.23,0.83,0.54,33042,10196.3,0,91,3,-0.07,3.36,3.22,0.23,0.83,0.54
2.9482422,0.0054892795,0.065875255,0.026836261,0.23,0.83,0.54,33057,10196.7,0,91,3,0.14,3.08,2.59,0.23,0.83,0.54
3.6484375,0.0014892793,0.058875255,0.013836259,0.23,0.83,0.55,33080,10197.4,0,91,3,-0.14,2.59,1.68,0.23,0.83,0.55
3.6484375,-0.0065107206,0.051875252,0.013836259,0.24,0.83,0.55,33095,10197.4,0,91,3,-0.7,2.1,1.68,0.24,0.83,0.55
3.2480469,0.0014892793,0.055875257,0.01983626,0.23,0.83,0.55,33110,10197,0,91,3,-0.14,2.38,2.1,0.23,0.83,0.55
5.3476562,0.0014892793,0.04587525,0.00783626,0.23,0.83,0.55,33133,10199.1,0,91,3,-0.14,1.68,1.26,0.23,0.83,0.55
2.2480469,-0.0055107204,0.026875254,-0.016163738,0.23,0.83,0.54,33156,10196,0,91,3,-0.63,0.35,-0.42,0.23,0.83,0.54
3.6484375,-0.0055107204,0.009875254,-0.02716374,0.23,0.83,0.54,33185,10197.4,0,91,3,-0.63,-0.84,-1.19,0.23,0.83,0.54
3.6484375,0.0054892795,-0.0021247454,-0.031163739,0.22,0.84,0.55,33200,10197.4,0,91,3,0.14,-1.68,-1.47,0.22,0.84,0.55
1.9482422,0.01148928,-0.012124749,-0.03916374,0.22,0.84,0.55,33223,10195.7,0,91,3,0.56,-2.38,-2.03,0.22,0.84,0.55
3.6484375,0.009489279,-0.01612475,-0.05016374,0.21,0.83,0.55,33245,10197.4,0,91,3,0.42,-2.66,-2.8,0.21,0.83,0.55
4.6484375,0.01148928,-0.0051247478,-0.04016374,0.21,0.83,0.55,33268,10198.4,0,91,3,0.56,-1.89,-2.1,0.21,0.83,0.55
2.9482422,0.010489279,0.0018752534,-0.034163736,0.21,0.82,0.55,33290,10196.7,0,91,3,0.49,-1.4,-1.68,0.21,0.82,0.55
2.5478516,0.0004892796,0.008875253,-0.02416374,0.21,0.82,0.54,33305,10196.3,0,91,3,-0.21,-0.91,-0.98,0.21,0.82,0.54
-0.45214844,-0.009510721,0.013875253,-0.013163739,0.21,0.82,0.54,33320,10193.3,0,91,3,-0.91,-0.56,-0.21,0.21,0.82,0.54
1.5478516,-0.01951072,0.015875254,-0.01216374,0.2,0.83,0.55,33335,10195.3,0,91,3,-1.61,-0.42,-0.14,0.2,0.83,0.55
2.2480469,-0.031510722,0.017875252,-0.002163739,0.2,0.82,0.54,33365,10196,0,91,3,-2.45,-0.28,0.56,0.2,0.82,0.54
-0.45214844,-0.03651072,0.021875253,0.01883626,0.21,0.82,0.55,33380,10193.3,0,91,3,-2.8,0,2.03,0.21,0.82,0.55
1.5478516,-0.041510724,0.029875252,0.038836263,0.2,0.82,0.55,33402,10195.3,0,91,3,-3.15,0.56,3.43,0.2,0.82,0.55
0.54785156,-0.04951072,0.037875254,0.05283626,0.2,0.83,0.55,33425,10194.3,0,91,3,-3.71,1.12,4.41,0.2,0.83,0.55
1.5478516,-0.05351072,0.025875254,0.04283626,0.2,0.84,0.55,33441,10195.3,0,91,3,-3.99,0.28,3.71,0.2,0.84,0.55
-1.4521484,-0.04751072,0.008875253,0.03683626,0.21,0.84,0.54,33463,10192.3,0,91,3,-3.57,-0.91,3.29,0.21,0.84,0.54
-1.7519531,-0.03251072,-0.0051247478,0.03183626,0.21,0.84,0.55,33485,10192,0,91,3,-2.52,-1.89,2.94,0.21,0.84,0.55
-1.1523438,-0.02251072,-0.013124747,0.026836261,0.21,0.83,0.56,33508,10192.6,0,91,3,-1.82,-2.45,2.59,0.21,0.83,0.56
-1.4521484,-0.025510719,-0.021124749,0.008836262,0.21,0.83,0.56,33530,10192.3,0,91,3,-2.03,-3.01,1.33,0.21,0.83,0.56
-0.15234375,-0.02151072,-0.023124749,0.0018362598,0.22,0.83,0.55,33545,10193.6,0,91,3,-1.75,-3.15,0.84,0.22,0.83,0.55
-1.4521484,-0.00851072,-0.020124746,-0.00016373955,0.22,0.83,0.56,33560,10192.3,0,91,3,-0.84,-2.94,0.7,0.22,0.83,0.56
-0.45214844,0.0014892793,-0.01612475,0.0018362598,0.22,0.83,0.56,33576,10193.3,0,91,3,-0.14,-2.66,0.84,0.22,0.83,0.56
-2.8515625,-0.00051072077,-0.018124746,-0.003163739,0.22,0.82,0.56,33598,10190.9,0,91,3,-0.28,-2.8,0.49,0.22,0.82,0.56
-0.15234375,-0.01651072,-0.029124746,-0.01416374,0.23,0.82,0.55,33620,10193.6,0,91,3,-1.4,-3.57,-0.28,0.23,0.82,0.55
-2.4521484,-0.02151072,-0.03912475,-0.01816374,0.23,0.82,0.55,33642,10191.3,0,91,3,-1.75,-4.27,-0.56,0.23,0.82,0.55
-2.1523438,-0.035510723,-0.07512475,-0.034163736,0.24,0.82,0.54,33665,10191.6,0,91,3,-2.73,-6.79,-1.68,0.24,0.82,0.54
-2.1523438,-0.048510723,-0.117124744,-0.04316374,0.24,0.83,0.54,33688,10191.6,0,91,3,-3.64,-9.73,-2.31,0.24,0.83,0.54
-1.8515625,-0.04351072,-0.16312476,-0.05416374,0.25,0.84,0.54,33710,10191.9,0,91,3,-3.29,-12.95,-3.08,0.25,0.84,0.54
-2.4521484,-0.04251072,-0.21812475,-0.08416374,0.24,0.83,0.54,33733,10191.3,0,91,3,-3.22,-16.8,-5.18,0.24,0.83,0.54
-3.4521484,-0.05451072,-0.27912474,-0.11116374,0.25,0.82,0.54,33748,10190.3,0,91,3,-4.06,-21.07,-7.07,0.25,0.82,0.54
-1.8515625,-0.04451072,-0.32612476,-0.11216374,0.24,0.83,0.54,33770,10191.9,0,91,3,-3.36,-24.36,-7.14,0.24,0.83,0.54
-2.4521484,-0.02951072,-0.35312474,-0.11816374,0.23,0.82,0.55,33793,10191.3,0,91,3,-2.31,-26.25,-7.56,0.23,0.82,0.55
-3.4521484,-0.03851072,-0.37112474,-0.13016373,0.23,0.81,0.55,33809,10190.3,0,91,3,-2.94,-27.51,-8.4,0.23,0.81,0.55
-4.1523438,-0.04751072,-0.38012472,-0.13216373,0.23,0.82,0.55,33823,10189.6,0,91,3,-3.57,-28.14,-8.54,0.23,0.82,0.55
-4.551758,-0.04351072,-0.37512475,-0.12416374,0.22,0.82,0.55,33846,10189.2,0,91,3,-3.29,-27.79,-7.98,0.22,0.82,0.55
-4.551758,-0.041510724,-0.35012475,-0.119163744,0.22,0.82,0.56,33861,10189.2,0,91,3,-3.15,-26.04,-7.63,0.22,0.82,0.56
-6.251953,-0.055510722,-0.31712472,-0.11416374,0.21,0.81,0.56,33883,10187.5,0,91,3,-4.13,-23.73,-7.28,0.21,0.81,0.56
-6.251953,-0.03751072,-0.25612473,-0.08016374,0.21,0.82,0.57,33906,10187.5,0,91,3,-2.87,-19.46,-4.9,0.21,0.82,0.57
-7.551758,-0.02651072,-0.19012475,-0.05416374,0.2,0.81,0.57,33928,10186.2,99,91,3,-2.1,-14.84,-3.08,0.2,0.81,0.57
-6.251953,-0.030510722,-0.12412474,-0.034163736,0.2,0.82,0.57,33950,10187.5,99,91,3,-2.38,-10.22,-1.68,0.2,0.82,0.57
-7.251953,-0.030510722,-0.044124745,-0.015163739,0.2,0.83,0.57,33973,10186.5,99,91,3,-2.38,-4.62,-0.35,0.2,0.83,0.57
-8.551758,-0.02451072,0.010875253,-0.0071637398,0.21,0.83,0.56,33996,10185.2,99,91,3,-1.96,-0.77,0.21,0.21,0.83,0.56
-8.551758,-0.01451072,0.03487525,-0.002163739,0.23,0.82,0.55,34018,10185.2,99,91,3,-1.26,0.91,0.56,0.23,0.82,0.55
-9.251953,-0.0025107202,0.052875254,0.003836261,0.24,0.82,0.55,34033,10184.5,99,91,3,-0.42,2.17,0.98,0.24,0.82,0.55
-8.551758,-0.0025107202,0.055875257,0.0048362603,0.23,0.82,0.55,34062,10185.2,99,91,3,-0.42,2.38,1.05,0.23,0.82,0.55
-10.251953,-0.0065107206,0.055875257,0.008836262,0.23,0.82,0.54,34070,10183.5,99,91,3,-0.7,2.38,1.33,0.23,0.82,0.54
-9.952148,-0.0055107204,0.053875253,0.012836261,0.24,0.82,0.54,34085,10183.8,99,91,3,-0.63,2.24,1.61,0.24,0.82,0.54
-11.251953,0.0044892794,0.048875254,0.021836262,0.24,0.83,0.54,34108,10182.5,99,91,3,0.07,1.89,2.24,0.24,0.83,0.54
-12.652344,0.006489279,0.042875253,0.01883626,0.23,0.83,0.55,34130,10181.1,99,91,3,0.21,1.47,2.03,0.23,0.83,0.55
-12.952148,-0.0075107208,0.027875252,0.003836261,0.24,0.82,0.55,34146,10180.8,99,91,3,-0.77,0.42,0.98,0.24,0.82,0.55
-12.3515625,-0.0065107206,0.018875252,0.011836261,0.24,0.82,0.54,34168,10181.4,99,91,3,-0.7,-0.21,1.54,0.24,0.82,0.54
-12.3515625,0.013489279,0.015875254,0.020836262,0.24,0.82,0.55,34191,10181.4,99,91,3,0.7,-0.42,2.17,0.24,0.82,0.55
-14.3515625,0.014489279,0.0078752525,0.01883626,0.24,0.82,0.55,34213,10179.4,99,91,3,0.77,-0.98,2.03,0.24,0.82,0.55
-15.3515625,0.018489279,0.016875252,0.020836262,0.23,0.83,0.55,34235,10178.4,99,91,3,1.05,-0.35,2.17,0.23,0.83,0.55
-13.652344,0.02548928,0.037875254,0.02483626,0.22,0.83,0.56,34257,10180.1,99,91,3,1.54,1.12,2.45,0.22,0.83,0.56
-13.652344,0.03448928,0.060875252,0.02983626,0.22,0.82,0.56,34280,10180.1,99,91,3,2.17,2.73,2.8,0.22,0.82,0.56
-14.3515625,0.03448928,0.084875256,0.03583626,0.23,0.82,0.56,34302,10179.4,99,91,3,2.17,4.41,3.22,0.23,0.82,0.56
-14.3515625,0.03348928,0.11287525,0.054836266,0.23,0.82,0.56,34317,10179.4,99,91,3,2.1,6.37,4.55,0.23,0.82,0.56
-15.051758,0.036489278,0.13487525,0.06283626,0.21,0.83,0.56,34332,10178.7,99,91,3,2.31,7.91,5.11,0.21,0.83,0.56
-13.3515625,0.04148928,0.16787525,0.057836264,0.21,0.83,0.55,34363,10180.4,99,91,3,2.66,10.22,4.76,0.21,0.83,0.55
-13.3515625,0.04148928,0.18487525,0.04683626,0.22,0.83,0.55,34377,10180.4,99,91,3,2.66,11.41,3.99,0.22,0.83,0.55
-13.3515625,0.050489277,0.20087524,0.043836262,0.23,0.83,0.54,34400,10180.4,99,91,3,3.29,12.53,3.78,0.23,0.83,0.54
-13.3515625,0.050489277,0.19987525,0.03983626,0.23,0.82,0.54,34423,10180.4,99,91,3,3.29,12.46,3.5,0.23,0.82,0.54
-14.3515625,0.03748928,0.19187525,0.034836262,0.22,0.82,0.54,34438,10179.4,99,91,3,2.38,11.9,3.15,0.22,0.82,0.54
-13.3515625,0.03148928,0.18287526,0.03383626,0.23,0.83,0.54,34461,10180.4,99,91,3,1.96,11.27,3.08,0.23,0.83,0.54
-13.3515625,0.02548928,0.16287525,0.03383626,0.23,0.83,0.54,34483,10180.4,99,91,3,1.54,9.87,3.08,0.23,0.83,0.54
-10.251953,0.02648928,0.13787524,0.04083626,0.23,0.83,0.54,34505,10183.5,99,91,3,1.61,8.12,3.57,0.23,0.83,0.54
-12.652344,0.02848928,0.11487526,0.04683626,0.23,0.83,0.54,34527,10181.1,99,91,3,1.75,6.51,3.99,0.23,0.83,0.54
-11.251953,0.03348928,0.09987526,0.04983626,0.22,0.83,0.54,34543,10182.5,99,91,3,2.1,5.46,4.2,0.22,0.83,0.54
-11.251953,0.03848928,0.091875255,0.054836266,0.22,0.83,0.54,34558,10182.5,99,91,3,2.45,4.9,4.55,0.22,0.83,0.54
-10.251953,0.04148928,0.09087525,0.05883626,0.21,0.83,0.55,34581,10183.5,99,91,3,2.66,4.83,4.83,0.21,0.83,0.55
-11.251953,0.04048928,0.098875254,0.061836258,0.21,0.83,0.55,34595,10182.5,99,91,3,2.59,5.39,5.04,0.21,0.83,0.55
-7.251953,0.036489278,0.10787526,0.05983626,0.21,0.83,0.55,34626,10186.5,99,91,3,2.31,6.02,4.9,0.21,0.83,0.55
-12.3515625,0.04048928,0.12287526,0.061836258,0.21,0.83,0.54,34632,10181.4,99,91,3,2.59,7.07,5.04,0.21,0.83,0.54
-4.1523438,0.050489277,0.14387526,0.06483626,0.21,0.83,0.55,34656,10189.6,99,91,3,3.29,8.54,5.25,0.21,0.83,0.55
-4.8515625,0.050489277,0.16687524,0.065836266,0.2,0.83,0.55,34677,10188.9,99,91,3,3.29,10.15,5.32,0.2,0.83,0.55
-7.251953,0.04648928,0.19287525,0.076836266,0.2,0.83,0.55,34700,10186.5,99,91,3,3.01,11.97,6.09,0.2,0.83,0.55
-2.8515625,0.04948928,0.21787526,0.08483626,0.21,0.82,0.55,34723,10190.9,99,91,3,3.22,13.72,6.65,0.21,0.82,0.55
0.9482422,0.04948928,0.23987526,0.09483626,0.21,0.82,0.55,34745,10194.7,99,91,3,3.22,15.26,7.35,0.21,0.82,0.55
1.9482422,0.03848928,0.24387525,0.098836266,0.22,0.83,0.55,34768,10195.7,99,92,3,2.45,15.54,7.63,0.22,0.83,0.55
1.9482422,0.036489278,0.23187524,0.08683626,0.22,0.83,0.53,34790,10195.7,99,92,3,2.31,14.7,6.79,0.22,0.83,0.53
2.2480469,0.054489277,0.20787525,0.08083626,0.23,0.84,0.52,34805,10196,99,92,3,3.57,13.02,6.37,0.23,0.84,0.52
2.9482422,0.07748928,0.17287524,0.07283626,0.24,0.83,0.52,34820,10196.7,99,92,3,5.18,10.57,5.81,0.24,0.83,0.52
2.2480469,0.08048928,0.13287525,0.068836264,0.25,0.82,0.53,34835,10196,99,92,3,5.39,7.77,5.53,0.25,0.82,0.53
2.5478516,0.05548928,0.07187525,0.061836258,0.25,0.81,0.55,34857,10196.3,99,92,3,3.64,3.5,5.04,0.25,0.81,0.55
1.9482422,0.010489279,0.022875253,0.04483626,0.24,0.82,0.55,34880,10195.7,99,92,3,0.49,0.07,3.85,0.24,0.82,0.55
1.2480469,-0.01651072,-0.011124747,0.02283626,0.22,0.83,0.55,34902,10195,99,92,3,-1.4,-2.31,2.31,0.22,0.83,0.55
2.2480469,-0.03751072,-0.036124744,-0.0011637397,0.22,0.83,0.56,34926,10196,99,92,3,-2.87,-4.06,0.63,0.22,0.83,0.56
1.2480469,-0.046510722,-0.04212475,-0.01416374,0.22,0.83,0.56,34948,10195,99,92,3,-3.5,-4.48,-0.28,0.22,0.83,0.56
