Pressure_Rel,GyroX_Rel,GyroY_Rel,GyroZ_Rel,AccX_Rel,AccY_Rel,AccZ_Rel,Timestamp,Pressure_abs,HeartRate,Oxygen,Status,GyroX,GyroY,GyroZ,AccX,AccY,AccZ
0.0,0.0,0.0,0.0,0.0,0.0,0.0,4198,10105.20,0,0,0,12.39,4.13,4.06,0.42,0.69,0.72
0.0,0.0,0.0,0.0,0.0,0.0,0.0,4214,10104.50,0,0,0,1.26,-1.61,8.05,0.42,0.66,0.67
0.0,0.0,0.0,0.0,0.0,0.0,0.0,4229,10105.20,0,0,0,-3.22,-3.71,10.78,0.41,0.67,0.61
0.0,0.0,0.0,0.0,0.0,0.0,0.0,4244,10105.60,0,0,0,0.49,-0.63,10.64,0.40,0.65,0.58
0.0,0.0,0.0,0.0,0.0,0.0,0.0,4259,10105.20,0,0,0,7.49,3.50,10.92,0.41,0.66,0.58
0.0,0.0,0.0,0.0,0.0,0.0,0.0,4281,10106.60,0,0,0,7.56,6.44,10.08,0.41,0.65,0.60
0.0,0.0,0.0,0.0,0.0,0.0,0.0,4296,10104.50,0,0,0,8.75,9.24,10.43,0.41,0.69,0.66
0.0,0.0,0.0,0.0,0.0,0.0,0.0,4311,10105.60,0,0,0,15.75,8.75,11.62,0.40,0.72,0.70
0.0,0.0,0.0,0.0,0.0,0.0,0.0,4326,10105.20,0,0,0,15.40,4.83,14.70,0.42,0.72,0.69
0.0,0.0,0.0,0.0,0.0,0.0,0.0,4341,10106.60,0,0,0,6.51,4.13,19.18,0.43,0.69,0.67
0.0,0.0,0.0,0.0,0.0,0.0,0.0,4355,10104.50,0,0,0,-0.07,3.50,21.07,0.44,0.66,0.65
0.0,0.0,0.0,0.0,0.0,0.0,0.0,4380,10106.60,0,0,0,0.63,4.13,19.46,0.47,0.63,0.63
0.0,0.0,0.0,0.0,0.0,0.0,0.0,4393,10105.60,0,0,0,9.52,7.35,17.15,0.49,0.61,0.65
0.0,0.0,0.0,0.0,0.0,0.0,0.0,4408,10104.50,0,0,0,12.04,7.21,12.95,0.49,0.61,0.66
0.0,0.0,0.0,0.0,0.0,0.0,0.0,4423,10105.60,0,0,0,14.84,7.21,13.02,0.50,0.62,0.66
0.0,0.0,0.0,0.0,0.0,0.0,0.0,4438,10105.60,0,0,0,8.68,5.88,11.83,0.50,0.62,0.65
0.0,0.0,0.0,0.0,0.0,0.0,0.0,4454,10105.60,0,0,0,8.12,4.76,12.67,0.51,0.61,0.64
0.0,0.0,0.0,0.0,0.0,0.0,0.0,4476,10105.60,0,0,0,4.34,2.80,10.64,0.52,0.57,0.62
0.0,0.0,0.0,0.0,0.0,0.0,0.0,4491,10104.50,0,0,0,1.82,2.87,8.12,0.52,0.58,0.61
0.0,0.0,0.0,0.0,0.0,0.0,0.0,4513,10106.60,0,0,0,3.29,3.64,4.62,0.51,0.57,0.61
0.0,0.0,0.0,0.0,0.0,0.0,0.0,4520,10105.60,0,0,0,8.82,6.65,2.17,0.50,0.61,0.63
0.0,0.0,0.0,0.0,0.0,0.0,0.0,4536,10105.60,0,0,0,14.98,7.28,2.03,0.50,0.61,0.66
0.0,0.0,0.0,0.0,0.0,0.0,0.0,4550,10105.60,0,0,0,8.26,3.08,1.26,0.49,0.61,0.63
0.0,0.0,0.0,0.0,0.0,0.0,0.0,4566,10105.60,0,0,0,5.32,4.27,2.45,0.48,0.64,0.62
0.0,0.0,0.0,0.0,0.0,0.0,0.0,4588,10106.20,0,0,0,4.06,3.01,3.43,0.48,0.62,0.64
0.0,0.0,0.0,0.0,0.0,0.0,0.0,4603,10105.60,0,0,0,0.98,-1.47,4.76,0.48,0.64,0.62
0.0,0.0,0.0,0.0,0.0,0.0,0.0,4619,10105.60,0,0,0,-1.82,-1.40,4.41,0.48,0.64,0.61
0.0,0.0,0.0,0.0,0.0,0.0,0.0,4633,10104.50,0,0,0,-1.68,-1.05,4.55,0.47,0.63,0.61
0.0,0.0,0.0,0.0,0.0,0.0,0.0,4649,10105.60,0,0,0,-2.10,-0.84,3.15,0.47,0.65,0.61
0.0,0.0,0.0,0.0,0.0,0.0,0.0,4671,10104.90,0,0,0,0.70,-0.77,2.87,0.47,0.65,0.60
0.0,0.0,0.0,0.0,0.0,0.0,0.0,4691,10105.60,0,0,0,-2.59,-0.14,2.52,0.48,0.66,0.60
0.0,0.0,0.0,0.0,0.0,0.0,0.0,4705,10105.20,0,0,0,-4.90,1.33,3.08,0.48,0.66,0.61
0.0,0.0,0.0,0.0,0.0,0.0,0.0,4718,10105.60,0,0,0,-2.38,2.38,3.01,0.48,0.68,0.65
0.0,0.0,0.0,0.0,0.0,0.0,0.0,4731,10106.20,0,0,0,1.68,0.84,4.62,0.49,0.66,0.66
0.0,0.0,0.0,0.0,0.0,0.0,0.0,4746,10105.60,0,0,0,-3.92,-1.82,4.90,0.50,0.64,0.66
0.0,0.0,0.0,0.0,0.0,0.0,0.0,4768,10108.60,0,0,0,-7.91,-3.01,4.34,0.51,0.63,0.64
0.0,0.0,0.0,0.0,0.0,0.0,0.0,4783,10105.60,0,0,0,-7.14,-3.78,2.52,0.51,0.61,0.61
0.0,0.0,0.0,0.0,0.0,0.0,0.0,4797,10104.50,0,0,0,-4.48,-1.12,-0.42,0.51,0.62,0.59
0.0,0.0,0.0,0.0,0.0,0.0,0.0,4812,10105.60,0,0,0,1.47,2.52,-2.38,0.50,0.63,0.62
0.0,0.0,0.0,0.0,0.0,0.0,0.0,4828,10105.90,0,0,0,3.99,2.03,-3.43,0.50,0.64,0.65
0.0,0.0,0.0,0.0,0.0,0.0,0.0,4850,10105.20,0,0,0,2.03,0.00,-2.10,0.50,0.64,0.67
0.0,0.0,0.0,0.0,0.0,0.0,0.0,4865,10105.60,0,0,0,-3.85,-3.43,-1.61,0.49,0.64,0.65
0.0,0.0,0.0,0.0,0.0,0.0,0.0,4887,10105.60,0,0,0,-6.58,-4.34,-1.05,0.49,0.63,0.64
0.0,0.0,0.0,0.0,0.0,0.0,0.0,4896,10105.60,0,0,0,-5.11,-2.45,-2.24,0.48,0.63,0.62
0.0,0.0,0.0,0.0,0.0,0.0,0.0,4911,10105.60,0,0,0,2.24,-0.56,-3.50,0.47,0.63,0.62
0.0,0.0,0.0,0.0,0.0,0.0,0.0,4933,10105.60,0,0,0,5.88,0.28,-3.85,0.47,0.65,0.65
0.0,0.0,0.0,0.0,0.0,0.0,0.0,4947,10103.90,0,0,0,2.59,-2.10,-1.96,0.47,0.65,0.67
0.0,0.0,0.0,0.0,0.0,0.0,0.0,4963,10105.60,0,0,0,-6.23,-5.39,-0.77,0.46,0.65,0.64
0.0,0.0,0.0,0.0,0.0,0.0,0.0,4986,10105.60,0,0,0,-6.79,-4.13,1.05,0.47,0.63,0.62
0.0,0.0,0.0,0.0,0.0,0.0,0.0,4993,10105.60,0,0,0,-6.86,-3.15,-0.49,0.47,0.62,0.61
0.0,0.0,0.0,0.0,0.0,0.0,0.0,5008,10105.60,0,0,0,-2.52,-0.49,-3.08,0.46,0.64,0.60
0.0,0.0,0.0,0.0,0.0,0.0,0.0,5023,10105.60,0,0,0,2.94,2.17,-2.73,0.46,0.64,0.62
0.0,0.0,0.0,0.0,0.0,0.0,0.0,5046,10105.60,0,0,0,-1.54,2.24,-1.68,0.46,0.64,0.65
0.0,0.0,0.0,0.0,0.0,0.0,0.0,5067,10105.60,0,0,0,-3.64,0.70,-0.07,0.47,0.66,0.67
0.0,0.0,0.0,0.0,0.0,0.0,0.0,5075,10105.60,0,0,0,-3.15,-2.10,0.84,0.47,0.64,0.67
0.0,0.0,0.0,0.0,0.0,0.0,0.0,5098,10104.50,0,0,0,-4.76,-2.66,1.61,0.48,0.64,0.64
0.0,0.0,0.0,0.0,0.0,0.0,0.0,5106,10105.60,0,0,0,-5.67,-1.40,1.68,0.48,0.62,0.63
0.0,0.0,0.0,0.0,0.0,0.0,0.0,5121,10105.60,0,0,0,-6.09,-0.91,-0.21,0.48,0.61,0.63
0.0,0.0,0.0,0.0,0.0,0.0,0.0,5144,10105.90,0,0,0,-4.83,-0.07,-2.52,0.48,0.62,0.63
0.0,0.0,0.0,0.0,0.0,0.0,0.0,5166,10105.60,0,0,0,-0.98,0.77,-2.73,0.47,0.65,0.64
0.0,0.0,0.0,0.0,0.0,0.0,0.0,5173,10105.60,0,0,0,1.40,1.61,-1.75,0.48,0.66,0.66
0.0,0.0,0.0,0.0,0.0,0.0,0.0,5188,10105.60,0,0,0,-2.10,-0.28,-0.56,0.48,0.64,0.67
0.0,0.0,0.0,0.0,0.0,0.0,0.0,5203,10105.60,0,0,0,-4.06,-1.75,-0.56,0.48,0.64,0.66
0.0,0.0,0.0,0.0,0.0,0.0,0.0,5234,10105.60,0,0,0,-3.71,-3.08,-0.84,0.48,0.64,0.64
0.0,0.0,0.0,0.0,0.0,0.0,0.0,5237,10104.20,0,0,0,-2.73,-1.40,-0.91,0.48,0.63,0.64
0.0,0.0,0.0,0.0,0.0,0.0,0.0,5255,10105.60,0,0,0,-2.38,-0.21,-1.61,0.48,0.62,0.65
0.0,0.0,0.0,0.0,0.0,0.0,0.0,5271,10104.90,0,0,0,0.42,-1.05,-2.59,0.47,0.64,0.67
0.0,0.0,0.0,0.0,0.0,0.0,0.0,5293,10105.90,0,0,0,1.19,-2.73,-2.45,0.47,0.64,0.66
0.0,0.0,0.0,0.0,0.0,0.0,0.0,5316,10105.60,0,0,0,-0.42,-1.89,-1.19,0.47,0.64,0.66
0.0,0.0,0.0,0.0,0.0,0.0,0.0,5317,10105.60,0,0,0,-4.97,-2.73,-1.47,0.47,0.62,0.65
0.0,0.0,0.0,0.0,0.0,0.0,0.0,5338,10105.60,0,0,0,-4.55,-3.01,-3.43,0.47,0.63,0.64
0.0,0.0,0.0,0.0,0.0,0.0,0.0,5353,10104.50,0,0,0,0.70,-0.84,-4.06,0.46,0.63,0.64
0.0,0.0,0.0,0.0,0.0,0.0,0.0,5368,10105.90,0,0,0,2.59,-0.14,-4.13,0.47,0.65,0.66
0.0,0.0,0.0,0.0,0.0,0.0,0.0,5383,10106.90,0,0,0,0.56,-1.33,-2.73,0.47,0.65,0.67
0.0,0.0,0.0,0.0,0.0,0.0,0.0,5399,10104.50,0,0,0,-3.85,-3.22,-2.03,0.47,0.64,0.67
0.0,0.0,0.0,0.0,0.0,0.0,0.0,5421,10106.60,0,0,0,-3.29,-2.87,-2.17,0.46,0.64,0.65
0.0,0.0,0.0,0.0,0.0,0.0,0.0,5436,10105.60,0,0,0,-0.98,-1.61,-3.64,0.46,0.62,0.65
0.0,0.0,0.0,0.0,0.0,0.0,0.0,5461,10105.60,0,0,0,0.63,-0.42,-5.67,0.47,0.63,0.66
0.0,0.0,0.0,0.0,0.0,0.0,0.0,5466,10105.60,0,0,0,3.01,-0.91,-5.11,0.46,0.65,0.68
0.0,0.0,0.0,0.0,0.0,0.0,0.0,5481,10105.60,0,0,0,3.29,-3.36,-4.34,0.45,0.67,0.68
0.0,0.0,0.0,0.0,0.0,0.0,0.0,5496,10105.60,0,0,0,2.66,-3.99,-1.40,0.44,0.67,0.66
0.0,0.0,0.0,0.0,0.0,0.0,0.0,5511,10105.60,0,0,0,-0.42,-3.22,0.77,0.45,0.63,0.65
0.0,0.0,0.0,0.0,0.0,0.0,0.0,5534,10105.60,0,0,0,-3.01,-3.36,-0.42,0.46,0.63,0.66
0.0,0.0,0.0,0.0,0.0,0.0,0.0,5549,10105.60,0,0,0,2.17,-5.11,-2.73,0.45,0.63,0.65
0.0,0.0,0.0,0.0,0.0,0.0,0.0,5564,10105.60,0,0,0,4.97,-4.90,-3.22,0.45,0.64,0.62
0.0,0.0,0.0,0.0,0.0,0.0,0.0,5578,10105.60,0,0,0,4.06,-1.33,-1.75,0.44,0.67,0.63
0.0,0.0,0.0,0.0,0.0,0.0,0.0,5593,10105.60,0,0,0,7.14,-1.05,1.26,0.44,0.67,0.65
0.0,0.0,0.0,0.0,0.0,0.0,0.0,5615,10105.60,0,0,0,0.91,-4.76,1.96,0.45,0.63,0.65
0.0,0.0,0.0,0.0,0.0,0.0,0.0,5630,10105.60,0,0,0,-0.21,-3.92,2.52,0.45,0.65,0.64
0.0,0.0,0.0,0.0,0.0,0.0,0.0,5645,10104.50,0,0,0,-0.35,-4.83,1.82,0.45,0.62,0.64
0.0,0.0,0.0,0.0,0.0,0.0,0.0,5661,10106.60,0,0,0,0.35,-3.85,0.98,0.45,0.64,0.63
0.0,0.0,0.0,0.0,0.0,0.0,0.0,5677,10105.60,0,0,0,4.27,-2.52,1.82,0.44,0.64,0.62
0.0,0.0,0.0,0.0,0.0,0.0,0.0,5691,10106.60,0,0,0,1.75,-2.45,1.75,0.44,0.63,0.62
0.0,0.0,0.0,0.0,0.0,0.0,0.0,5720,10105.60,0,0,0,2.73,-0.77,2.52,0.44,0.65,0.75
0.0,0.0,0.0,0.0,0.0,0.0,0.0,5728,10105.60,0,0,0,6.23,-0.42,2.87,0.44,0.66,0.64
0.0,0.0,0.0,0.0,0.0,0.0,0.0,5743,10105.60,0,0,0,4.83,-1.33,5.39,0.45,0.65,0.64
0.0,0.0,0.0,0.0,0.0,0.0,0.0,5758,10106.60,0,0,0,-2.66,-1.40,6.79,0.44,0.64,0.64
0.0,0.0,0.0,0.0,0.0,0.0,0.0,5773,10105.90,0,0,0,-1.54,17.78,7.35,0.44,0.64,0.64
0.0,0.0,0.0,0.0,0.0,0.0,0.0,5789,10105.60,0,0,0,4.06,0.84,7.21,0.45,0.63,0.66
0.0,0.0,0.0,0.0,0.0,0.0,0.0,5812,10106.60,0,0,0,3.50,-0.28,5.81,0.45,0.63,0.65
3.0761719,-0.04069721,0.09745797,-0.044613093,0.35,0.87,0.38,15838,10110.60,0,0,1,-3.15,2.73,-4.55,0.35,0.87,0.38
4.076172,-0.03369721,0.09545797,-0.020613087,0.36,0.85,0.39,15854,10111.60,0,0,1,-2.66,2.59,-2.87,0.36,0.85,0.39
5.076172,-0.039697208,0.099457964,-6.1308965E-4,0.36,0.84,0.4,15876,10112.60,0,0,1,-3.08,2.87,-1.47,0.36,0.84,0.40
3.7763672,-0.04769721,0.10345797,0.01938691,0.35,0.84,0.4,15890,10111.30,0,0,1,-3.64,3.15,-0.07,0.35,0.84,0.40
1.0761719,-0.050697207,0.10345797,0.02938691,0.35,0.85,0.4,15905,10108.60,0,0,1,-3.85,3.15,0.63,0.35,0.85,0.40
4.076172,-0.052697208,0.09845796,0.02938691,0.35,0.85,0.41,15921,10111.60,0,0,1,-3.99,2.80,0.63,0.35,0.85,0.41
5.076172,-0.05669721,0.09845796,0.02238691,0.35,0.85,0.41,15935,10112.60,0,0,1,-4.27,2.80,0.14,0.35,0.85,0.41
4.076172,-0.064697206,0.099457964,0.01638691,0.36,0.85,0.41,15958,10111.60,0,0,1,-4.83,2.87,-0.28,0.36,0.85,0.41
2.0761719,-0.05669721,0.10345797,0.03038691,0.36,0.85,0.42,15984,10109.60,0,0,1,-4.27,3.15,0.70,0.36,0.85,0.42
4.076172,-0.04769721,0.09745797,0.039386913,0.36,0.86,0.41,16014,10111.60,0,0,1,-3.64,2.73,1.33,0.36,0.86,0.41
4.376953,-0.03869721,0.09445797,0.039386913,0.36,0.86,0.41,16033,10111.90,0,0,1,-3.01,2.52,1.33,0.36,0.86,0.41
4.076172,-0.024697207,0.09545797,0.04338691,0.35,0.86,0.42,16056,10111.60,0,0,1,-2.03,2.59,1.61,0.35,0.86,0.42
4.076172,-0.022697207,0.10545796,0.03738691,0.35,0.86,0.42,16070,10111.60,0,0,1,-1.89,3.29,1.19,0.35,0.86,0.42
3.0761719,-0.022697207,0.08745797,0.02538691,0.35,0.86,0.42,16085,10110.60,0,0,1,-1.89,2.03,0.35,0.35,0.86,0.42
10.176758,-0.02769721,0.077457964,0.014386911,0.35,0.85,0.41,16107,10117.70,0,0,1,-2.24,1.33,-0.42,0.35,0.85,0.41
4.076172,-0.03869721,0.06945796,0.00938691,0.36,0.85,0.42,16122,10111.60,0,0,1,-3.01,0.77,-0.77,0.36,0.85,0.42
1.0761719,-0.04069721,0.054457966,0.01538691,0.35,0.86,0.41,16137,10108.60,0,0,1,-3.15,-0.28,-0.35,0.35,0.86,0.41
3.0761719,-0.035697207,0.032457966,0.01638691,0.35,0.87,0.42,16152,10110.60,0,0,1,-2.80,-1.82,-0.28,0.35,0.87,0.42
4.076172,-0.022697207,0.01045797,0.01138691,0.34,0.86,0.42,16168,10111.60,0,0,1,-1.89,-3.36,-0.63,0.34,0.86,0.42
4.076172,-0.016697206,-5.4203346E-4,-0.0036130883,0.34,0.86,0.42,16183,10111.60,0,0,1,-1.47,-4.13,-1.68,0.34,0.86,0.42
3.0761719,-0.023697209,0.006457966,-0.019613089,0.34,0.85,0.43,16205,10110.60,0,0,1,-1.96,-3.64,-2.80,0.34,0.85,0.43
4.076172,-0.026697207,0.006457966,-0.010613091,0.34,0.85,0.42,16228,10111.60,0,0,1,-2.17,-3.64,-2.17,0.34,0.85,0.42
4.076172,-0.021697208,-0.010542031,-0.0036130883,0.33,0.87,0.42,16251,10111.60,0,0,1,-1.82,-4.83,-1.68,0.33,0.87,0.42
4.076172,-0.012697208,-0.014542032,-0.0016130898,0.33,0.85,0.43,16272,10111.60,0,0,1,-1.19,-5.11,-1.54,0.33,0.85,0.43
4.376953,-0.019697204,-0.0015420318,-0.00261309,0.33,0.85,0.43,16296,10111.90,0,0,1,-1.68,-4.20,-1.61,0.33,0.85,0.43
4.076172,-0.023697209,0.009457964,0.0033869091,0.32,0.86,0.43,16318,10111.60,0,0,1,-1.96,-3.43,-1.19,0.32,0.86,0.43
5.076172,-0.014697208,0.018457968,0.02138691,0.32,0.86,0.43,16340,10112.60,0,0,1,-1.33,-2.80,0.07,0.32,0.86,0.43
5.076172,-0.0066972068,0.023457967,0.02438691,0.32,0.86,0.43,16355,10112.60,0,0,1,-0.77,-2.45,0.28,0.32,0.86,0.43
6.076172,-0.0016972064,0.029457968,0.03038691,0.33,0.86,0.42,16370,10113.60,0,0,1,-0.42,-2.03,0.70,0.33,0.86,0.42
5.376953,0.004302793,0.030457966,0.03338691,0.33,0.86,0.42,16385,10112.90,0,0,1,0.00,-1.96,0.91,0.33,0.86,0.42
4.376953,0.0053027933,0.029457968,0.03238691,0.33,0.87,0.42,16399,10111.90,0,0,1,0.07,-2.03,0.84,0.33,0.87,0.42
5.376953,0.009302793,0.031457968,0.03638691,0.33,0.86,0.42,16418,10112.90,0,0,1,0.35,-1.89,1.12,0.33,0.86,0.42
3.0761719,0.012302794,0.03545797,0.03538691,0.33,0.86,0.42,16438,10110.60,0,0,1,0.56,-1.61,1.05,0.33,0.86,0.42
5.376953,0.011302793,0.045457967,0.031386912,0.32,0.86,0.42,16453,10112.90,0,0,1,0.49,-0.91,0.77,0.32,0.86,0.42
5.076172,0.018302795,0.053457968,0.04238691,0.33,0.85,0.42,16476,10112.60,0,0,1,0.98,-0.35,1.54,0.33,0.85,0.42
7.076172,0.011302793,0.037457965,0.039386913,0.34,0.86,0.41,16498,10114.60,0,0,1,0.49,-1.47,1.33,0.34,0.86,0.41
5.076172,0.0013027934,0.022457968,0.04538691,0.34,0.86,0.41,16521,10112.60,0,0,1,-0.21,-2.52,1.75,0.34,0.86,0.41
4.376953,0.0063027935,0.025457967,0.05138691,0.33,0.86,0.42,16543,10111.90,0,0,1,0.14,-2.31,2.17,0.33,0.86,0.42
4.376953,0.008302793,0.027457966,0.03838691,0.33,0.87,0.41,16565,10111.90,0,0,1,0.28,-2.17,1.26,0.33,0.87,0.41
5.076172,0.0053027933,0.027457966,0.03438691,0.33,0.86,0.42,16588,10112.60,0,0,1,0.07,-2.17,0.98,0.33,0.86,0.42
4.376953,-6.972067E-4,0.030457966,0.03238691,0.34,0.86,0.42,16603,10111.90,0,0,1,-0.35,-1.96,0.84,0.34,0.86,0.42
5.376953,-0.0066972068,0.041457966,0.046386912,0.34,0.86,0.42,16632,10112.90,0,0,1,-0.77,-1.19,1.82,0.34,0.86,0.42
3.7763672,-0.007697206,0.048457965,0.05038691,0.34,0.86,0.42,16640,10111.30,0,0,1,-0.84,-0.70,2.10,0.34,0.86,0.42
5.376953,-0.012697208,0.047457967,0.046386912,0.33,0.86,0.42,16655,10112.90,0,0,1,-1.19,-0.77,1.82,0.33,0.86,0.42
5.376953,-0.008697207,0.047457967,0.03638691,0.33,0.87,0.42,16670,10112.90,0,0,1,-0.91,-0.77,1.12,0.33,0.87,0.42
4.776367,-0.0056972066,0.054457966,0.01838691,0.33,0.87,0.41,16685,10112.30,0,0,1,-0.70,-0.28,-0.14,0.33,0.87,0.41
6.4765625,-0.0046972064,0.062457968,0.01138691,0.33,0.86,0.42,16708,10114.00,0,0,1,-0.63,0.28,-0.63,0.33,0.86,0.42
4.376953,-0.0046972064,0.060457967,0.01938691,0.34,0.86,0.42,16730,10111.90,0,0,1,-0.63,0.14,-0.07,0.34,0.86,0.42
5.076172,-6.972067E-4,0.052457966,0.02938691,0.34,0.86,0.42,16753,10112.60,0,0,1,-0.35,-0.42,0.63,0.34,0.86,0.42
4.376953,0.002302793,0.044457965,0.02938691,0.33,0.86,0.42,16775,10111.90,0,0,1,-0.14,-0.98,0.63,0.33,0.86,0.42
4.376953,0.002302793,0.045457967,0.01838691,0.33,0.86,0.42,16797,10111.90,0,0,1,-0.14,-0.91,-0.14,0.33,0.86,0.42
5.376953,0.002302793,0.048457965,0.02438691,0.33,0.86,0.42,16820,10112.90,0,0,1,-0.14,-0.70,0.28,0.33,0.86,0.42
3.3769531,0.002302793,0.049457967,0.02638691,0.33,0.86,0.42,16846,10110.90,0,0,1,-0.14,-0.63,0.42,0.33,0.86,0.42
5.376953,0.003302793,0.051457968,0.02438691,0.33,0.86,0.42,16866,10112.90,0,0,1,-0.07,-0.49,0.28,0.33,0.86,0.42
5.376953,0.0013027934,0.053457968,0.02238691,0.33,0.86,0.42,16880,10112.90,0,0,1,-0.21,-0.35,0.14,0.33,0.86,0.42
5.376953,-0.002697207,0.050457966,0.02038691,0.33,0.86,0.42,16895,10112.90,0,0,1,-0.49,-0.56,0.00,0.33,0.86,0.42
4.376953,-0.0036972072,0.049457967,0.01838691,0.32,0.86,0.42,16911,10111.90,0,0,1,-0.56,-0.63,-0.14,0.32,0.86,0.42
6.4765625,-0.002697207,0.051457968,0.02838691,0.33,0.86,0.42,16926,10114.00,0,0,1,-0.49,-0.49,0.56,0.33,0.86,0.42
4.376953,-0.0056972066,0.037457965,0.02638691,0.33,0.86,0.41,16948,10111.90,0,0,1,-0.70,-1.47,0.42,0.33,0.86,0.41
5.376953,-0.0106972065,0.023457967,0.02338691,0.33,0.86,0.42,16970,10112.90,0,0,1,-1.05,-2.45,0.21,0.33,0.86,0.42
5.076172,-0.011697208,0.021457966,0.039386913,0.33,0.85,0.42,16993,10112.60,0,0,1,-1.12,-2.59,1.33,0.33,0.85,0.42
4.376953,-0.018697206,0.019457966,0.04838691,0.32,0.86,0.42,17015,10111.90,0,0,1,-1.61,-2.73,1.96,0.32,0.86,0.42
5.376953,-0.009697207,0.0114579685,0.04738691,0.33,0.86,0.42,17038,10112.90,0,0,1,-0.98,-3.29,1.89,0.33,0.86,0.42
5.776367,-0.0046972064,0.006457966,0.046386912,0.33,0.86,0.42,17053,10113.30,0,0,1,-0.63,-3.64,1.82,0.33,0.86,0.42
4.376953,-0.0056972066,0.009457964,0.05538691,0.33,0.86,0.43,17075,10111.90,0,0,1,-0.70,-3.43,2.45,0.33,0.86,0.43
5.376953,-0.0106972065,0.019457966,0.058386914,0.33,0.85,0.43,17097,10112.90,0,0,1,-1.05,-2.73,2.66,0.33,0.85,0.43
4.376953,-0.020697206,0.020457964,0.06338691,0.34,0.85,0.43,17120,10111.90,0,0,1,-1.75,-2.66,3.01,0.34,0.85,0.43
5.376953,-0.025697205,0.027457966,0.07638691,0.34,0.85,0.42,17135,10112.90,0,0,1,-2.10,-2.17,3.92,0.34,0.85,0.42
5.376953,-0.021697208,0.026457965,0.07938691,0.34,0.86,0.42,17151,10112.90,0,0,1,-1.82,-2.24,4.13,0.34,0.86,0.42
4.776367,-0.013697206,0.027457966,0.07738691,0.34,0.86,0.42,17165,10112.30,0,0,1,-1.26,-2.17,3.99,0.34,0.86,0.42
5.776367,-0.013697206,0.030457966,0.07238691,0.34,0.86,0.42,17180,10113.30,0,0,1,-1.26,-1.96,3.64,0.34,0.86,0.42
4.376953,-0.018697206,0.03545797,0.05238691,0.35,0.86,0.42,17202,10111.90,0,0,1,-1.61,-1.61,2.24,0.35,0.86,0.42
5.376953,-0.019697204,0.043457966,0.046386912,0.34,0.85,0.42,17225,10112.90,0,0,1,-1.68,-1.05,1.82,0.34,0.85,0.42
5.076172,-0.016697206,0.050457966,0.03838691,0.34,0.86,0.42,17247,10112.60,0,0,1,-1.47,-0.56,1.26,0.34,0.86,0.42
7.776367,-0.013697206,0.04645797,0.02238691,0.34,0.86,0.42,17270,10115.30,0,0,1,-1.26,-0.84,0.14,0.34,0.86,0.42
5.776367,-0.020697206,0.034457967,0.0033869091,0.35,0.86,0.42,17285,10113.30,0,0,1,-1.75,-1.68,-1.19,0.35,0.86,0.42
0.6767578,-0.021697208,0.03545797,0.01238691,0.35,0.86,0.42,17307,10108.20,0,0,1,-1.82,-1.61,-0.56,0.35,0.86,0.42
9.776367,-0.019697204,0.036457967,0.01938691,0.34,0.85,0.43,17330,10117.30,0,0,1,-1.68,-1.54,-0.07,0.34,0.85,0.43
6.376953,-0.015697207,0.036457967,0.02238691,0.33,0.86,0.43,17353,10113.90,0,0,1,-1.40,-1.54,0.14,0.33,0.86,0.43
5.376953,-0.009697207,0.039457966,0.014386911,0.33,0.86,0.42,17368,10112.90,0,0,1,-0.98,-1.33,-0.42,0.33,0.86,0.42
0.6767578,-0.0046972064,0.041457966,-0.0016130898,0.33,0.86,0.42,17383,10108.20,0,0,1,-0.63,-1.19,-1.54,0.33,0.86,0.42
5.776367,-0.002697207,0.042457968,-0.0056130905,0.34,0.86,0.42,17398,10113.30,0,0,1,-0.49,-1.12,-1.82,0.34,0.86,0.42
5.376953,-0.0056972066,0.041457966,-0.00261309,0.34,0.85,0.42,17421,10112.90,0,0,1,-0.70,-1.19,-1.61,0.34,0.85,0.42
5.776367,-0.011697208,0.038457967,0.0053869104,0.34,0.85,0.42,17436,10113.30,0,0,1,-1.12,-1.40,-1.05,0.34,0.85,0.42
4.776367,-0.013697206,0.027457966,0.008386911,0.33,0.86,0.42,17458,10112.30,0,0,1,-1.26,-2.17,-0.84,0.33,0.86,0.42
5.776367,-0.008697207,0.031457968,0.01138691,0.33,0.85,0.43,17480,10113.30,0,0,1,-0.91,-1.89,-0.63,0.33,0.85,0.43
6.076172,-0.008697207,0.041457966,0.00938691,0.33,0.85,0.43,17503,10113.60,0,0,1,-0.91,-1.19,-0.77,0.33,0.85,0.43
5.376953,-0.015697207,0.043457966,0.01338691,0.33,0.85,0.43,17518,10112.90,0,0,1,-1.40,-1.05,-0.49,0.33,0.85,0.43
5.776367,-0.012697208,0.040457968,0.01738691,0.34,0.86,0.43,17540,10113.30,0,0,1,-1.19,-1.26,-0.21,0.34,0.86,0.43
4.776367,-0.013697206,0.033457965,0.02238691,0.33,0.86,0.42,17578,10112.30,0,0,1,-1.26,-1.75,0.14,0.33,0.86,0.42
5.376953,-0.014697208,0.030457966,0.01838691,0.33,0.86,0.43,17585,10112.90,0,0,1,-1.33,-1.96,-0.14,0.33,0.86,0.43
5.776367,-0.018697206,0.031457968,0.0053869104,0.33,0.86,0.43,17600,10113.30,0,0,1,-1.61,-1.89,-1.05,0.33,0.86,0.43
5.776367,-0.018697206,0.034457967,0.0063869096,0.33,0.85,0.43,17622,10113.30,0,0,1,-1.61,-1.68,-0.98,0.33,0.85,0.43
-0.3232422,-0.018697206,0.033457965,0.00738691,0.33,0.86,0.43,17637,10107.20,0,0,1,-1.61,-1.75,-0.91,0.33,0.86,0.43
5.776367,-0.017697208,0.032457966,0.0063869096,0.33,0.85,0.43,17653,10113.30,0,0,1,-1.54,-1.82,-0.98,0.33,0.85,0.43
5.776367,-0.016697206,0.030457966,0.00738691,0.33,0.85,0.43,17667,10113.30,0,0,1,-1.47,-1.96,-0.91,0.33,0.85,0.43
6.776367,-0.012697208,0.024457965,0.008386911,0.33,0.86,0.43,17683,10114.30,0,0,1,-1.19,-2.38,-0.84,0.33,0.86,0.43
5.776367,-0.012697208,0.023457967,0.01238691,0.33,0.86,0.43,17713,10113.30,0,0,1,-1.19,-2.45,-0.56,0.33,0.86,0.43
6.076172,-0.011697208,0.025457967,0.01338691,0.32,0.85,0.43,17728,10113.60,0,0,1,-1.12,-2.31,-0.49,0.32,0.85,0.43
6.776367,-0.017697208,0.026457965,0.0053869104,0.32,0.86,0.43,17750,10114.30,0,0,1,-1.54,-2.24,-1.05,0.32,0.86,0.43
4.776367,-0.013697206,0.028457968,0.0033869091,0.32,0.85,0.43,17773,10112.30,0,0,1,-1.26,-2.10,-1.19,0.32,0.85,0.43
3.7763672,-0.022697207,0.032457966,0.008386911,0.33,0.85,0.43,17788,10111.30,0,0,1,-1.89,-1.82,-0.84,0.33,0.85,0.43
4.776367,-0.02769721,0.026457965,0.00938691,0.33,0.86,0.43,17810,10112.30,0,0,1,-2.24,-2.24,-0.77,0.33,0.86,0.43
6.376953,-0.024697207,0.022457968,0.01038691,0.33,0.86,0.43,17840,10113.90,0,0,1,-2.03,-2.52,-0.70,0.33,0.86,0.43
5.776367,-0.024697207,0.015457965,0.01338691,0.33,0.85,0.43,17856,10113.30,0,0,1,-2.03,-3.01,-0.49,0.33,0.85,0.43
5.076172,-0.026697207,0.014457967,0.01838691,0.32,0.84,0.44,17870,10112.60,0,0,1,-2.17,-3.08,-0.14,0.32,0.84,0.44
6.076172,-0.03369721,0.015457965,0.02838691,0.32,0.83,0.44,17892,10113.60,0,0,1,-2.66,-3.01,0.56,0.32,0.83,0.44
11.4765625,-0.039697208,0.020457964,0.04138691,0.32,0.83,0.44,17916,10119.00,0,0,1,-3.08,-2.66,1.47,0.32,0.83,0.44
6.776367,-0.052697208,0.026457965,0.068386905,0.32,0.82,0.44,17922,10114.30,0,0,1,-3.99,-2.24,3.36,0.32,0.82,0.44
5.776367,-0.06869721,0.029457968,0.099386916,0.33,0.82,0.44,17938,10113.30,0,0,1,-5.11,-2.03,5.53,0.33,0.82,0.44
7.076172,-0.08269721,0.03545797,0.1513869,0.33,0.83,0.45,17960,10114.60,0,0,1,-6.09,-1.61,9.17,0.33,0.83,0.45
7.076172,-0.08269721,0.045457967,0.20038691,0.32,0.85,0.43,17983,10114.60,0,0,1,-6.09,-0.91,12.60,0.32,0.85,0.43
7.076172,-0.030697208,0.044457965,0.13238691,0.26,0.93,0.43,18005,10114.60,0,0,1,-2.45,-0.98,7.84,0.26,0.93,0.43
5.076172,0.061302792,0.042457968,-0.02361309,0.29,0.98,0.44,18020,10112.60,0,0,1,3.99,-1.12,-3.08,0.29,0.98,0.44
4.376953,0.1363028,0.07645796,-0.102613084,0.38,0.92,0.47,18043,10111.90,0,0,1,9.24,1.26,-8.61,0.38,0.92,0.47
7.076172,0.1763028,0.09845796,-0.09461309,0.41,0.87,0.48,18066,10114.60,0,0,1,12.04,2.80,-8.05,0.41,0.87,0.48
6.076172,0.1983028,0.08245797,-0.06961309,0.39,0.84,0.48,18087,10113.60,0,0,1,13.58,1.68,-6.30,0.39,0.84,0.48
10.176758,0.19930279,0.063457966,-0.07561308,0.37,0.83,0.47,18125,10117.70,0,0,1,13.65,0.35,-6.72,0.37,0.83,0.47
6.076172,0.1953028,0.077457964,-0.08961309,0.35,0.84,0.45,18127,10113.60,0,0,1,13.37,1.33,-7.70,0.35,0.84,0.45
6.776367,0.1823028,0.10445797,-0.1286131,0.33,0.87,0.43,18140,10114.30,0,0,1,12.46,3.22,-10.43,0.33,0.87,0.43
2.7763672,0.1733028,0.11745797,-0.1866131,0.33,0.86,0.43,18155,10110.30,0,0,1,11.83,4.13,-14.49,0.33,0.86,0.43
6.076172,0.1543028,0.12045797,-0.2166131,0.33,0.84,0.42,18170,10113.60,0,0,1,10.50,4.34,-16.59,0.33,0.84,0.42
6.376953,0.1303028,0.10245797,-0.2206131,0.33,0.83,0.42,18185,10113.90,0,0,1,8.82,3.08,-16.87,0.33,0.83,0.42
5.076172,0.1133028,0.09645797,-0.16861309,0.33,0.83,0.42,18207,10112.60,0,0,1,7.63,2.66,-13.23,0.33,0.83,0.42
11.176758,0.10730279,0.08645797,-0.11461308,0.32,0.85,0.42,18235,10118.70,0,0,1,7.21,1.96,-9.45,0.32,0.85,0.42
6.076172,0.101302795,0.07245797,-0.08561309,0.31,0.86,0.42,18252,10113.60,0,0,1,6.79,0.98,-7.42,0.31,0.86,0.42
7.076172,0.0913028,0.07945797,-0.07261309,0.27,0.87,0.42,18275,10114.60,0,0,1,6.09,1.47,-6.51,0.27,0.87,0.42
7.076172,0.08530279,0.10545796,-0.056613088,0.25,0.87,0.42,18298,10114.60,0,0,1,5.67,3.29,-5.39,0.25,0.87,0.42
9.076172,0.08930279,0.13045797,-0.02361309,0.25,0.86,0.42,18320,10116.60,0,0,1,5.95,5.04,-3.08,0.25,0.86,0.42
5.076172,0.08530279,0.14745797,0.01938691,0.26,0.85,0.41,18342,10112.60,0,0,1,5.67,6.23,-0.07,0.26,0.85,0.41
6.076172,0.07030279,0.15345797,0.05938691,0.26,0.85,0.41,18357,10113.60,0,0,1,4.62,6.65,2.73,0.26,0.85,0.41
5.076172,0.048302792,0.14945796,0.099386916,0.26,0.84,0.41,18373,10112.60,0,0,1,3.08,6.37,5.53,0.26,0.84,0.41
8.076172,0.017302793,0.15045796,0.1463869,0.27,0.83,0.41,18402,10115.60,0,0,1,0.91,6.44,8.82,0.27,0.83,0.41
6.776367,-0.013697206,0.14645797,0.1863869,0.27,0.84,0.4,18417,10114.30,0,0,1,-1.26,6.16,11.62,0.27,0.84,0.40
8.076172,-0.039697208,0.12645797,0.21638691,0.28,0.85,0.4,18425,10115.60,0,0,1,-3.08,4.76,13.72,0.28,0.85,0.40
6.076172,-0.06269721,0.10545796,0.2633869,0.29,0.85,0.39,18470,10113.60,0,0,1,-4.69,3.29,17.01,0.29,0.85,0.39
7.076172,-0.08569721,0.09045797,0.31738693,0.28,0.84,0.39,18472,10114.60,0,0,1,-6.30,2.24,20.79,0.28,0.84,0.39
7.4765625,-0.12169721,0.061457966,0.3523869,0.28,0.85,0.38,18485,10115.00,0,0,1,-8.82,0.21,23.24,0.28,0.85,0.38
9.076172,-0.1416972,0.030457966,0.3653869,0.28,0.86,0.38,18527,10116.60,0,0,1,-10.22,-1.96,24.15,0.28,0.86,0.38
7.076172,-0.1546972,0.024457965,0.38638693,0.28,0.86,0.38,18540,10114.60,0,0,1,-11.13,-2.38,25.62,0.28,0.86,0.38
7.076172,-0.15369721,0.031457968,0.4073869,0.29,0.87,0.37,18553,10114.60,0,0,1,-11.06,-1.89,27.09,0.29,0.87,0.37
7.076172,-0.1396972,0.027457966,0.4023869,0.3,0.89,0.36,18575,10114.60,0,0,1,-10.08,-2.17,26.74,0.30,0.89,0.36
8.076172,-0.1386972,0.0024579652,0.3843869,0.32,0.86,0.39,18597,10115.60,0,0,1,-10.01,-3.92,25.48,0.32,0.86,0.39
1.3769531,-0.1576972,-0.010542031,0.39438692,0.33,0.83,0.41,18613,10108.90,0,0,1,-11.34,-4.83,26.18,0.33,0.83,0.41
7.4765625,-0.18769719,-0.016542036,0.4183869,0.34,0.83,0.42,18643,10115.00,0,0,1,-13.44,-5.25,27.86,0.34,0.83,0.42
7.776367,-0.1956972,-0.020542037,0.4273869,0.34,0.86,0.42,18650,10115.30,0,0,1,-14.00,-5.53,28.49,0.34,0.86,0.42
10.4765625,-0.1796972,-0.022542033,0.4033869,0.34,0.89,0.42,18666,10118.00,0,0,1,-12.88,-5.67,26.81,0.34,0.89,0.42
8.4765625,-0.1506972,-0.019542035,0.36838692,0.36,0.87,0.43,18681,10116.00,0,0,1,-10.85,-5.46,24.36,0.36,0.87,0.43
9.076172,-0.1346972,-0.0035420358,0.3383869,0.38,0.83,0.45,18712,10116.60,0,0,1,-9.73,-4.34,22.26,0.38,0.83,0.45
8.4765625,-0.1386972,0.018457968,0.3373869,0.41,0.83,0.45,18732,10116.00,0,0,1,-10.01,-2.80,22.19,0.41,0.83,0.45
7.4765625,-0.11369721,0.016457967,0.31738693,0.42,0.84,0.45,18747,10115.00,0,0,1,-8.26,-2.94,20.79,0.42,0.84,0.45
7.4765625,-0.08769721,0.009457964,0.2913869,0.44,0.83,0.46,18785,10115.00,0,0,1,-6.44,-3.43,18.97,0.44,0.83,0.46
8.4765625,-0.08369721,0.030457966,0.2823869,0.44,0.8,0.48,18793,10116.00,0,0,1,-6.16,-1.96,18.34,0.44,0.80,0.48
10.4765625,-0.07969721,0.047457967,0.2423869,0.43,0.84,0.48,18815,10118.00,0,0,1,-5.88,-0.77,15.54,0.43,0.84,0.48
8.4765625,-0.041697208,0.043457966,0.14838691,0.43,0.87,0.48,18830,10116.00,0,0,1,-3.22,-1.05,8.96,0.43,0.87,0.48
8.076172,0.015302793,0.025457967,-0.017613092,0.41,0.91,0.49,18852,10115.60,0,0,1,0.77,-2.31,-2.66,0.41,0.91,0.49
7.4765625,0.07030279,0.025457967,-0.1636131,0.38,0.96,0.48,18875,10115.00,0,0,1,4.62,-2.31,-12.88,0.38,0.96,0.48
12.176758,0.14630279,0.038457967,-0.30161312,0.34,1.01,0.47,18890,10119.70,0,0,1,9.94,-1.40,-22.54,0.34,1.01,0.47
5.376953,0.23930281,0.08045797,-0.4316131,0.36,1.0,0.47,18906,10112.90,0,0,1,16.45,1.54,-31.64,0.36,1.00,0.47
5.376953,0.31830278,0.13745797,-0.4926131,0.38,0.94,0.46,18921,10112.90,0,0,1,21.98,5.53,-35.91,0.38,0.94,0.46
3.3769531,0.36230278,0.16445796,-0.5156131,0.41,0.89,0.45,18935,10110.90,0,0,1,25.06,7.42,-37.52,0.41,0.89,0.45
6.376953,0.3563028,0.13445798,-0.52661306,0.44,0.82,0.44,18957,10113.90,0,0,1,24.64,5.32,-38.29,0.44,0.82,0.44
6.376953,0.3303028,0.053457968,-0.52161306,0.45,0.8,0.41,18980,10113.90,0,0,1,22.82,-0.35,-37.94,0.45,0.80,0.41
4.776367,0.2983028,-0.056542035,-0.52161306,0.44,0.79,0.4,19010,10112.30,0,0,1,20.58,-8.05,-37.94,0.44,0.79,0.40
1.3769531,0.24930279,-0.15454203,-0.53961307,0.41,0.81,0.39,19025,10108.90,0,0,1,17.15,-14.91,-39.20,0.41,0.81,0.39
6.776367,0.2363028,-0.21754202,-0.55961305,0.36,0.85,0.39,19040,10114.30,0,0,1,16.24,-19.32,-40.60,0.36,0.85,0.39
5.776367,0.2483028,-0.22554201,-0.55361307,0.34,0.84,0.42,19063,10113.30,0,0,1,17.08,-19.88,-40.18,0.34,0.84,0.42
3.3769531,0.2263028,-0.21054202,-0.52261305,0.32,0.83,0.43,19085,10110.90,0,0,1,15.54,-18.83,-38.01,0.32,0.83,0.43
4.376953,0.1883028,-0.19054203,-0.47161308,0.3,0.83,0.44,19107,10111.90,0,0,1,12.88,-17.43,-34.44,0.30,0.83,0.44
5.376953,0.16830279,-0.16154203,-0.4126131,0.28,0.85,0.43,19123,10112.90,0,0,1,11.48,-15.40,-30.31,0.28,0.85,0.43
6.376953,0.1723028,-0.12254202,-0.3476131,0.26,0.87,0.42,19137,10113.90,0,0,1,11.76,-12.67,-25.76,0.26,0.87,0.42
8.4765625,0.1773028,-0.07554203,-0.2966131,0.24,0.87,0.42,19160,10116.00,0,0,1,12.11,-9.38,-22.19,0.24,0.87,0.42
6.376953,0.1763028,-0.033542033,-0.2596131,0.23,0.87,0.41,19197,10113.90,0,0,1,12.04,-6.44,-19.60,0.23,0.87,0.41
5.776367,0.1643028,0.026457965,-0.2076131,0.21,0.87,0.4,19199,10113.30,0,0,1,11.20,-2.24,-15.96,0.21,0.87,0.40
6.376953,0.1623028,0.08945797,-0.14661309,0.22,0.88,0.37,19212,10113.90,0,0,1,11.06,2.17,-11.69,0.22,0.88,0.37
6.376953,0.1573028,0.11245797,-0.08261309,0.23,0.88,0.35,19234,10113.90,0,0,1,10.71,3.78,-7.21,0.23,0.88,0.35
8.076172,0.1513028,0.10345797,-0.027613087,0.23,0.89,0.34,19258,10115.60,0,0,1,10.29,3.15,-3.36,0.23,0.89,0.34
7.776367,0.1353028,0.09045797,0.01238691,0.24,0.87,0.34,19287,10115.30,0,0,1,9.17,2.24,-0.56,0.24,0.87,0.34
7.776367,0.105302796,0.08045797,0.06038691,0.22,0.89,0.35,19302,10115.30,0,0,1,7.07,1.54,2.80,0.22,0.89,0.35
7.776367,0.08130279,0.08445796,0.07738691,0.23,0.91,0.34,19325,10115.30,0,0,1,5.39,1.82,3.99,0.23,0.91,0.34
7.776367,0.07730279,0.06745797,0.06638691,0.24,0.92,0.33,19355,10115.30,0,0,1,5.11,0.63,3.22,0.24,0.92,0.33
7.4765625,0.07030279,0.054457966,0.061386906,0.24,0.92,0.33,19363,10115.00,0,0,1,4.62,-0.28,2.87,0.24,0.92,0.33
8.076172,0.07030279,0.040457968,0.06638691,0.24,0.91,0.33,19378,10115.60,0,0,1,4.62,-1.26,3.22,0.24,0.91,0.33
6.776367,0.0653028,0.026457965,0.07538691,0.24,0.91,0.33,19392,10114.30,0,0,1,4.27,-2.24,3.85,0.24,0.91,0.33
6.776367,0.060302794,0.012457967,0.08238691,0.24,0.92,0.33,19415,10114.30,0,0,1,3.92,-3.22,4.34,0.24,0.92,0.33
6.076172,0.064302795,0.008457966,0.08938691,0.24,0.92,0.32,19422,10113.60,0,0,1,4.20,-3.50,4.83,0.24,0.92,0.32
7.4765625,0.07530279,4.5796856E-4,0.09338691,0.25,0.92,0.33,19445,10115.00,0,0,1,4.97,-4.06,5.11,0.25,0.92,0.33
7.076172,0.061302792,-0.004542034,0.10538691,0.26,0.91,0.33,19461,10114.60,0,0,1,3.99,-4.41,5.95,0.26,0.91,0.33
7.076172,0.05230279,-0.012542028,0.12338691,0.26,0.9,0.32,19482,10114.60,0,0,1,3.36,-4.97,7.21,0.26,0.90,0.32
7.4765625,0.04030279,-0.019542035,0.14138691,0.25,0.92,0.31,19505,10115.00,0,0,1,2.52,-5.46,8.47,0.25,0.92,0.31
6.776367,0.049302794,-0.019542035,0.14438692,0.25,0.93,0.31,19527,10114.30,0,0,1,3.15,-5.46,8.68,0.25,0.93,0.31
6.776367,0.061302792,-0.012542028,0.1433869,0.27,0.92,0.31,19550,10114.30,0,0,1,3.99,-4.97,8.61,0.27,0.92,0.31
7.776367,0.04030279,-0.018542033,0.14038691,0.29,0.91,0.32,19572,10115.30,0,0,1,2.52,-5.39,8.40,0.29,0.91,0.32
7.376953,0.013302793,-0.041542035,0.13538691,0.28,0.91,0.31,19595,10114.90,0,0,1,0.63,-7.00,8.05,0.28,0.91,0.31
7.776367,0.016302792,-0.062542036,0.14238691,0.28,0.91,0.31,19610,10115.30,0,0,1,0.84,-8.47,8.54,0.28,0.91,0.31
7.4765625,0.0073027927,-0.06854203,0.14838691,0.28,0.91,0.31,19624,10115.00,0,0,1,0.21,-8.89,8.96,0.28,0.91,0.31
8.776367,-0.008697207,-0.064542025,0.1533869,0.27,0.92,0.31,19647,10116.30,0,0,1,-0.91,-8.61,9.31,0.27,0.92,0.31
9.076172,-0.0066972068,-0.06354204,0.1463869,0.27,0.93,0.3,19654,10116.60,0,0,1,-0.77,-8.54,8.82,0.27,0.93,0.30
8.776367,-0.0046972064,-0.06554204,0.1373869,0.27,0.92,0.31,19685,10116.30,0,0,1,-0.63,-8.68,8.19,0.27,0.92,0.31
9.776367,-0.0016972064,-0.069542035,0.13338691,0.28,0.9,0.31,19692,10117.30,0,0,1,-0.42,-8.96,7.91,0.28,0.90,0.31
11.776367,-0.008697207,-0.08154203,0.1393869,0.28,0.9,0.32,19715,10119.30,0,0,1,-0.91,-9.80,8.33,0.28,0.90,0.32
11.776367,-0.016697206,-0.08854203,0.15438691,0.28,0.91,0.32,19745,10119.30,0,0,1,-1.47,-10.29,9.38,0.28,0.91,0.32
12.776367,-0.016697206,-0.08154203,0.1773869,0.28,0.92,0.32,19760,10120.30,0,0,1,-1.47,-9.80,10.99,0.28,0.92,0.32
11.776367,-0.0066972068,-0.06354204,0.1883869,0.29,0.91,0.32,19782,10119.30,0,0,1,-0.77,-8.54,11.76,0.29,0.91,0.32
11.776367,-0.017697208,-0.04754203,0.19838691,0.29,0.9,0.33,19805,10119.30,0,0,1,-1.54,-7.42,12.46,0.29,0.90,0.33
11.176758,-0.03469721,-0.03554203,0.20638691,0.29,0.9,0.32,19835,10118.70,0,0,1,-2.73,-6.58,13.02,0.29,0.90,0.32
11.776367,-0.03869721,-0.01354203,0.2013869,0.29,0.91,0.33,19850,10119.30,0,0,1,-3.01,-5.04,12.67,0.29,0.91,0.33
12.176758,-0.026697207,0.019457966,0.19438691,0.29,0.91,0.33,19865,10119.70,0,0,1,-2.17,-2.73,12.18,0.29,0.91,0.33
10.776367,-0.021697208,0.056457967,0.1933869,0.29,0.91,0.33,19888,10118.30,0,0,1,-1.82,-0.14,12.11,0.29,0.91,0.33
12.176758,-0.018697206,0.09845796,0.20038691,0.31,0.9,0.33,19910,10119.70,0,0,1,-1.61,2.80,12.60,0.31,0.90,0.33
7.776367,-0.017697208,0.13145797,0.2183869,0.32,0.9,0.33,19925,10115.30,0,0,1,-1.54,5.11,13.86,0.32,0.90,0.33
11.776367,-0.013697206,0.14745797,0.2253869,0.32,0.9,0.32,19932,10119.30,0,0,1,-1.26,6.23,14.35,0.32,0.90,0.32
10.776367,-0.012697208,0.16645797,0.2213869,0.32,0.91,0.32,19955,10118.30,0,0,1,-1.19,7.56,14.07,0.32,0.91,0.32
13.176758,-0.012697208,0.17945798,0.1933869,0.32,0.92,0.32,19977,10120.70,0,0,1,-1.19,8.47,12.11,0.32,0.92,0.32
11.776367,-0.0056972066,0.19945797,0.16338691,0.33,0.91,0.32,20001,10119.30,0,0,1,-0.70,9.87,10.01,0.33,0.91,0.32
11.776367,0.0063027935,0.22845797,0.15738691,0.34,0.9,0.32,20023,10119.30,0,0,1,0.14,11.90,9.59,0.34,0.90,0.32
11.776367,0.023302794,0.24145798,0.16938691,0.34,0.91,0.31,20046,10119.30,0,0,1,1.33,12.81,10.43,0.34,0.91,0.31
14.876953,0.047302794,0.23545797,0.1753869,0.35,0.91,0.31,20075,10122.40,0,0,1,3.01,12.39,10.85,0.35,0.91,0.31
11.776367,0.048302792,0.23245798,0.1713869,0.36,0.89,0.32,20082,10119.30,0,0,1,3.08,12.18,10.57,0.36,0.89,0.32
12.776367,0.027302794,0.23345797,0.17238691,0.36,0.87,0.32,20112,10120.30,0,0,1,1.61,12.25,10.64,0.36,0.87,0.32
11.776367,0.023302794,0.22645797,0.1803869,0.36,0.89,0.31,20122,10119.30,0,0,1,1.33,11.76,11.20,0.36,0.89,0.31
14.176758,0.023302794,0.21245797,0.1743869,0.37,0.89,0.31,20135,10121.70,0,0,1,1.33,10.78,10.78,0.37,0.89,0.31
12.776367,0.028302792,0.19045797,0.16338691,0.37,0.89,0.31,20150,10120.30,0,0,1,1.68,9.24,10.01,0.37,0.89,0.31
11.776367,0.030302793,0.17445797,0.1513869,0.37,0.88,0.31,20172,10119.30,0,0,1,1.82,8.12,9.17,0.37,0.88,0.31
10.776367,0.030302793,0.16345796,0.14838691,0.37,0.89,0.32,20188,10118.30,0,0,1,1.82,7.35,8.96,0.37,0.89,0.32
11.776367,0.028302792,0.15845796,0.1533869,0.38,0.88,0.33,20218,10119.30,0,0,1,1.68,7.00,9.31,0.38,0.88,0.33
12.176758,0.013302793,0.16145797,0.1523869,0.37,0.88,0.33,20239,10119.70,0,0,1,0.63,7.21,9.24,0.37,0.88,0.33
8.076172,0.008302793,0.15645798,0.12638691,0.37,0.89,0.33,20254,10115.60,0,0,1,0.28,6.86,7.42,0.37,0.89,0.33
15.176758,-6.972067E-4,0.14945796,0.09838691,0.38,0.88,0.33,20270,10122.70,0,0,1,-0.35,6.37,5.46,0.38,0.88,0.33
12.4765625,-0.008697207,0.12645797,0.095386915,0.39,0.86,0.34,20293,10120.00,0,0,1,-0.91,4.76,5.25,0.39,0.86,0.34
11.776367,-0.016697206,0.10445797,0.10138691,0.37,0.87,0.35,20315,10119.30,0,0,1,-1.47,3.22,5.67,0.37,0.87,0.35
10.776367,-0.024697207,0.08245797,0.06738691,0.35,0.88,0.34,20345,10118.30,0,0,1,-2.03,1.68,3.29,0.35,0.88,0.34
17.176758,-0.042697206,0.06445797,0.01338691,0.35,0.88,0.36,20352,10124.70,0,0,1,-3.29,0.42,-0.49,0.35,0.88,0.36
11.776367,-0.043697204,0.049457967,-0.011613091,0.38,0.88,0.34,20375,10119.30,0,0,1,-3.36,-0.63,-2.24,0.38,0.88,0.34
11.4765625,-0.018697206,0.03545797,0.01238691,0.4,0.87,0.35,20390,10119.00,0,0,1,-1.61,-1.61,-0.56,0.40,0.87,0.35
13.176758,-0.0046972064,0.014457967,0.04838691,0.41,0.86,0.37,20406,10120.70,0,0,1,-0.63,-3.08,1.96,0.41,0.86,0.37
12.176758,-0.002697207,-0.021542031,0.06738691,0.39,0.87,0.38,20420,10119.70,0,0,1,-0.49,-5.60,3.29,0.39,0.87,0.38
15.176758,-0.013697206,-0.038542036,0.05938691,0.36,0.88,0.39,20436,10122.70,0,0,1,-1.26,-6.79,2.73,0.36,0.88,0.39
11.176758,-0.007697206,-0.028542038,0.01238691,0.35,0.9,0.39,20458,10118.70,0,0,1,-0.84,-6.09,-0.56,0.35,0.90,0.39
9.4765625,0.038302794,0.012457967,-0.007613091,0.35,0.89,0.38,20480,10117.00,0,0,1,2.38,-3.22,-1.96,0.35,0.89,0.38
6.076172,0.097302794,0.053457968,0.02638691,0.36,0.87,0.38,20502,10113.60,0,0,1,6.51,-0.35,0.42,0.36,0.87,0.38
14.176758,0.1253028,0.07845797,0.058386914,0.35,0.87,0.37,20525,10121.70,0,0,1,8.47,1.40,2.66,0.35,0.87,0.37
13.776367,0.1403028,0.107457966,0.08638691,0.36,0.86,0.37,20555,10121.30,0,0,1,9.52,3.43,4.62,0.36,0.86,0.37
12.176758,0.1443028,0.14145796,0.10138691,0.36,0.87,0.36,20563,10119.70,0,0,1,9.80,5.81,5.67,0.36,0.87,0.36
11.176758,0.1363028,0.16845797,0.10838691,0.36,0.86,0.36,20585,10118.70,0,0,1,9.24,7.70,6.16,0.36,0.86,0.36
12.176758,0.12230279,0.18845798,0.124386914,0.37,0.85,0.36,20608,10119.70,0,0,1,8.26,9.10,7.28,0.37,0.85,0.36
12.4765625,0.10730279,0.20445797,0.1513869,0.37,0.86,0.35,20622,10120.00,0,0,1,7.21,10.22,9.17,0.37,0.86,0.35
10.076172,0.10630279,0.20745797,0.1523869,0.38,0.88,0.34,20637,10117.60,0,0,1,7.14,10.43,9.24,0.38,0.88,0.34
11.176758,0.111302786,0.19045797,0.14038691,0.4,0.88,0.33,20653,10118.70,0,0,1,7.49,9.24,8.40,0.40,0.88,0.33
12.4765625,0.105302796,0.16445796,0.12938692,0.41,0.88,0.32,20667,10120.00,0,0,1,7.07,7.42,7.63,0.41,0.88,0.32
13.176758,0.10730279,0.14045796,0.12338691,0.4,0.89,0.31,20689,10120.70,0,0,1,7.21,5.74,7.21,0.40,0.89,0.31
12.176758,0.1133028,0.13245797,0.10538691,0.39,0.88,0.31,20712,10119.70,0,0,1,7.63,5.18,5.95,0.39,0.88,0.31
12.176758,0.10930279,0.13145797,0.084386915,0.38,0.87,0.31,20727,10119.70,0,0,1,7.35,5.11,4.48,0.38,0.87,0.31
11.176758,0.094302796,0.14145796,0.08138691,0.38,0.87,0.31,20749,10118.70,0,0,1,6.30,5.81,4.27,0.38,0.87,0.31
17.476562,0.082302794,0.15345797,0.08238691,0.37,0.88,0.31,20772,10125.00,0,0,1,5.46,6.65,4.34,0.37,0.88,0.31
12.4765625,0.058302794,0.15245797,0.06638691,0.37,0.88,0.3,20795,10120.00,0,0,1,3.78,6.58,3.22,0.37,0.88,0.30
11.4765625,0.041302793,0.15045796,0.054386914,0.38,0.88,0.3,20817,10119.00,0,0,1,2.59,6.44,2.38,0.38,0.88,0.30
11.176758,0.023302794,0.14345796,0.04938691,0.39,0.88,0.3,20833,10118.70,0,0,1,1.33,5.95,2.03,0.39,0.88,0.30
12.176758,3.02793E-4,0.11245797,0.046386912,0.39,0.88,0.3,20854,10119.70,0,0,1,-0.28,3.78,1.82,0.39,0.88,0.30
12.4765625,-0.011697208,0.09345797,0.05138691,0.39,0.88,0.29,20877,10120.00,0,0,1,-1.12,2.45,2.17,0.39,0.88,0.29
11.4765625,-0.021697208,0.077457964,0.05238691,0.38,0.88,0.3,20893,10119.00,0,0,1,-1.82,1.33,2.24,0.38,0.88,0.30
13.4765625,-0.030697208,0.06545797,0.046386912,0.38,0.89,0.3,20915,10121.00,0,0,1,-2.45,0.49,1.82,0.38,0.89,0.30
12.4765625,-0.036697205,0.052457966,0.03038691,0.38,0.89,0.3,20922,10120.00,0,0,1,-2.87,-0.42,0.70,0.38,0.89,0.30
12.176758,-0.04769721,0.041457966,0.02338691,0.38,0.89,0.31,20938,10119.70,0,0,1,-3.64,-1.19,0.21,0.38,0.89,0.31
11.176758,-0.053697206,0.025457967,0.01238691,0.38,0.89,0.31,20961,10118.70,0,0,1,-4.06,-2.31,-0.56,0.38,0.89,0.31
12.176758,-0.05669721,0.015457965,0.0063869096,0.39,0.89,0.31,20967,10119.70,0,0,1,-4.27,-3.01,-0.98,0.39,0.89,0.31
14.176758,-0.053697206,0.007457968,0.0013869088,0.38,0.89,0.32,20990,10121.70,0,0,1,-4.06,-3.57,-1.33,0.38,0.89,0.32
11.4765625,-0.053697206,-0.008542035,-0.017613092,0.38,0.89,0.32,21005,10119.00,0,0,1,-4.06,-4.69,-2.66,0.38,0.89,0.32
11.176758,-0.061697207,-0.029542033,-0.03861309,0.39,0.88,0.32,21021,10118.70,0,0,1,-4.62,-6.16,-4.13,0.39,0.88,0.32
12.4765625,-0.05769721,-0.040542033,-0.04261309,0.39,0.89,0.32,21037,10120.00,0,0,1,-4.34,-6.93,-4.41,0.39,0.89,0.32
12.4765625,-0.052697208,-0.051542033,-0.041613095,0.39,0.89,0.33,21050,10120.00,0,0,1,-3.99,-7.70,-4.34,0.39,0.89,0.33
12.4765625,-0.04969721,-0.06054203,-0.037613086,0.38,0.88,0.33,21065,10120.00,0,0,1,-3.78,-8.33,-4.06,0.38,0.88,0.33
12.4765625,-0.048697207,-0.06554204,-0.04361309,0.37,0.88,0.33,21080,10120.00,0,0,1,-3.71,-8.68,-4.48,0.37,0.88,0.33
10.776367,-0.052697208,-0.06654203,-0.045613088,0.37,0.89,0.33,21102,10118.30,0,0,1,-3.99,-8.75,-4.62,0.37,0.89,0.33
11.4765625,-0.050697207,-0.064542025,-0.052613087,0.37,0.89,0.33,21118,10119.00,0,0,1,-3.85,-8.61,-5.11,0.37,0.89,0.33
11.4765625,-0.043697204,-0.06054203,-0.05761309,0.37,0.89,0.33,21133,10119.00,0,0,1,-3.36,-8.33,-5.46,0.37,0.89,0.33
11.4765625,-0.035697207,-0.053542037,-0.06061309,0.37,0.89,0.33,21162,10119.00,0,0,1,-2.80,-7.84,-5.67,0.37,0.89,0.33
11.4765625,-0.03469721,-0.04754203,-0.062613085,0.36,0.87,0.34,21164,10119.00,0,0,1,-2.73,-7.42,-5.81,0.36,0.87,0.34
11.4765625,-0.04469721,-0.039542038,-0.062613085,0.36,0.87,0.35,21177,10119.00,0,0,1,-3.43,-6.86,-5.81,0.36,0.87,0.35
10.4765625,-0.060697213,-0.038542036,-0.073613085,0.36,0.87,0.35,21200,10118.00,0,0,1,-4.55,-6.79,-6.58,0.36,0.87,0.35
12.4765625,-0.07169721,-0.028542038,-0.08061309,0.35,0.88,0.35,21215,10120.00,0,0,1,-5.32,-6.09,-7.07,0.35,0.88,0.35
11.176758,-0.07069721,-0.009542037,-0.08061309,0.34,0.89,0.34,21230,10118.70,0,0,1,-5.25,-4.76,-7.07,0.34,0.89,0.34
11.4765625,-0.05969721,0.009457964,-0.084613085,0.34,0.89,0.34,21245,10119.00,0,0,1,-4.48,-3.43,-7.35,0.34,0.89,0.34
10.4765625,-0.05869721,0.019457966,-0.092613086,0.34,0.89,0.34,21260,10118.00,0,0,1,-4.41,-2.73,-7.91,0.34,0.89,0.34
9.776367,-0.05869721,0.022457968,-0.08961309,0.35,0.88,0.35,21275,10117.30,0,0,1,-4.41,-2.52,-7.70,0.35,0.88,0.35
10.4765625,-0.05769721,0.030457966,-0.07761309,0.35,0.87,0.35,21290,10118.00,0,0,1,-4.34,-1.96,-6.86,0.35,0.87,0.35
11.776367,-0.05669721,0.042457968,-0.056613088,0.34,0.87,0.35,21321,10119.30,0,0,1,-4.27,-1.12,-5.39,0.34,0.87,0.35
12.4765625,-0.05769721,0.053457968,-0.045613088,0.33,0.88,0.35,21327,10120.00,0,0,1,-4.34,-0.35,-4.62,0.33,0.88,0.35
10.4765625,-0.053697206,0.061457966,-0.04361309,0.33,0.88,0.35,21345,10118.00,0,0,1,-4.06,0.21,-4.48,0.33,0.88,0.35
10.776367,-0.04769721,0.07245797,-0.037613086,0.33,0.88,0.36,21365,10118.30,0,0,1,-3.64,0.98,-4.06,0.33,0.88,0.36
10.4765625,-0.043697204,0.08645797,-0.03261309,0.33,0.89,0.35,21372,10118.00,0,0,1,-3.36,1.96,-3.71,0.33,0.89,0.35
9.776367,-0.03469721,0.099457964,-0.027613087,0.33,0.89,0.35,21395,10117.30,0,0,1,-2.73,2.87,-3.36,0.33,0.89,0.35
8.776367,-0.025697205,0.10145797,-0.020613087,0.33,0.89,0.35,21410,10116.30,0,0,1,-2.10,3.01,-2.87,0.33,0.89,0.35
9.4765625,-0.008697207,0.099457964,-0.01261309,0.34,0.89,0.35,21425,10117.00,0,0,1,-0.91,2.87,-2.31,0.34,0.89,0.35
11.4765625,-0.0016972064,0.09545797,-0.009613089,0.34,0.88,0.35,21439,10119.00,0,0,1,-0.42,2.59,-2.10,0.34,0.88,0.35
9.4765625,0.0013027934,0.092457965,-0.008613089,0.33,0.88,0.35,21455,10117.00,0,0,1,-0.21,2.38,-2.03,0.33,0.88,0.35
10.076172,0.0013027934,0.09345797,-0.0066130906,0.33,0.89,0.35,21478,10117.60,0,0,1,-0.21,2.45,-1.89,0.33,0.89,0.35
8.776367,-0.0036972072,0.09145796,-0.011613091,0.33,0.89,0.35,21493,10116.30,0,0,1,-0.56,2.31,-2.24,0.33,0.89,0.35
6.776367,3.02793E-4,0.09445797,-0.0066130906,0.33,0.89,0.35,21507,10114.30,0,0,1,-0.28,2.52,-1.89,0.33,0.89,0.35
8.776367,3.02793E-4,0.09545797,-0.0016130898,0.33,0.89,0.35,21522,10116.30,0,0,1,-0.28,2.59,-1.54,0.33,0.89,0.35
8.4765625,-0.002697207,0.09045797,0.0033869091,0.33,0.89,0.35,21537,10116.00,0,0,1,-0.49,2.24,-1.19,0.33,0.89,0.35
7.376953,-0.012697208,0.08645797,0.00738691,0.32,0.89,0.35,21552,10114.90,0,0,1,-1.19,1.96,-0.91,0.32,0.89,0.35
11.4765625,-0.018697206,0.07545797,0.0043869093,0.32,0.88,0.35,21575,10119.00,0,0,1,-1.61,1.19,-1.12,0.32,0.88,0.35
3.6767578,-0.023697209,0.06845797,0.0043869093,0.33,0.88,0.35,21590,10111.20,0,0,1,-1.96,0.70,-1.12,0.33,0.88,0.35
8.4765625,-0.02769721,0.063457966,0.0063869096,0.33,0.89,0.35,21605,10116.00,0,0,1,-2.24,0.35,-0.98,0.33,0.89,0.35
8.776367,-0.02769721,-0.19754204,0.01138691,0.33,0.89,0.35,21620,10116.30,0,0,1,-2.24,-17.92,-0.63,0.33,0.89,0.35
7.776367,-0.031697206,0.04645797,0.01038691,0.33,0.89,0.34,21635,10115.30,0,0,1,-2.52,-0.84,-0.70,0.33,0.89,0.34
7.776367,-0.02969721,0.033457965,0.01238691,0.33,0.89,0.35,21650,10115.30,0,0,1,-2.38,-1.75,-0.56,0.33,0.89,0.35
7.776367,-0.030697208,0.022457968,0.01938691,0.32,0.88,0.35,21672,10115.30,0,0,1,-2.45,-2.52,-0.07,0.32,0.88,0.35
7.776367,-0.031697206,0.019457966,0.02038691,0.32,0.88,0.36,21689,10115.30,0,0,1,-2.52,-2.73,0.00,0.32,0.88,0.36
10.776367,-0.030697208,0.01745797,0.02638691,0.31,0.89,0.35,21703,10118.30,0,0,1,-2.45,-2.87,0.42,0.31,0.89,0.35
7.776367,-0.030697208,0.018457968,0.02538691,0.32,0.9,0.36,21718,10115.30,0,0,1,-2.45,-2.80,0.35,0.32,0.90,0.36
8.776367,-0.023697209,0.021457966,0.02038691,0.32,0.9,0.35,21733,10116.30,0,0,1,-1.96,-2.59,0.00,0.32,0.90,0.35
7.776367,-0.020697206,0.027457966,0.01638691,0.32,0.89,0.36,21755,10115.30,0,0,1,-1.75,-2.17,-0.28,0.32,0.89,0.36
5.776367,-0.019697204,0.029457968,0.02138691,0.32,0.89,0.36,21777,10113.30,0,0,1,-1.68,-2.03,0.07,0.32,0.89,0.36
6.776367,-0.011697208,0.028457968,0.03338691,0.32,0.89,0.36,21800,10114.30,0,0,1,-1.12,-2.10,0.91,0.32,0.89,0.36
7.076172,-0.007697206,0.025457967,0.04438691,0.32,0.89,0.35,21823,10114.60,0,0,1,-0.84,-2.31,1.68,0.32,0.89,0.35
3.6767578,-0.002697207,0.022457968,0.04738691,0.33,0.89,0.35,21852,10111.20,0,0,1,-0.49,-2.52,1.89,0.33,0.89,0.35
7.376953,-0.0066972068,0.019457966,0.05138691,0.33,0.89,0.36,21860,10114.90,0,0,1,-0.77,-2.73,2.17,0.33,0.89,0.36
7.776367,-0.0036972072,0.023457967,0.057386912,0.32,0.89,0.35,21875,10115.30,0,0,1,-0.56,-2.45,2.59,0.32,0.89,0.35
5.776367,-0.0016972064,0.027457966,0.057386912,0.32,0.89,0.36,21890,10113.30,0,0,1,-0.42,-2.17,2.59,0.32,0.89,0.36
10.4765625,0.0013027934,0.028457968,0.05538691,0.32,0.89,0.35,21908,10118.00,0,0,1,-0.21,-2.10,2.45,0.32,0.89,0.35
6.776367,-6.972067E-4,0.029457968,0.05038691,0.32,0.89,0.35,21920,10114.30,0,0,1,-0.35,-2.03,2.10,0.32,0.89,0.35
5.776367,3.02793E-4,0.031457968,0.04938691,0.32,0.88,0.35,21944,10113.30,0,0,1,-0.28,-1.89,2.03,0.32,0.88,0.35
7.076172,-0.0036972072,0.040457968,0.05638691,0.32,0.88,0.36,21965,10114.60,0,0,1,-0.56,-1.26,2.52,0.32,0.88,0.36
6.076172,-0.0036972072,0.037457965,0.05638691,0.32,0.89,0.35,21980,10113.60,0,0,1,-0.56,-1.47,2.52,0.32,0.89,0.35
7.076172,0.012302794,0.027457966,0.04938691,0.33,0.89,0.35,22002,10114.60,0,0,3,0.56,-2.17,2.03,0.33,0.89,0.35
7.076172,0.014302793,0.015457965,0.04238691,0.33,0.89,0.35,22025,10114.60,0,0,3,0.70,-3.01,1.54,0.33,0.89,0.35
6.076172,0.004302793,-0.0015420318,0.03338691,0.33,0.88,0.35,22054,10113.60,0,0,3,0.00,-4.20,0.91,0.33,0.88,0.35
7.076172,-0.0036972072,-0.034542035,0.02438691,0.34,0.89,0.34,22071,10114.60,0,0,3,-0.56,-6.51,0.28,0.34,0.89,0.34
-0.0234375,0.0063027935,-0.05754203,0.02638691,0.34,0.89,0.35,22093,10107.50,0,0,3,0.14,-8.12,0.42,0.34,0.89,0.35
10.076172,0.004302793,-0.062542036,0.027386911,0.34,0.89,0.35,22107,10117.60,0,0,3,0.00,-8.47,0.49,0.34,0.89,0.35
3.3769531,-0.007697206,-0.06354204,0.01838691,0.34,0.88,0.35,22122,10110.90,0,0,3,-0.84,-8.54,-0.14,0.34,0.88,0.35
5.076172,-0.013697206,-0.059542034,0.00938691,0.33,0.88,0.35,22137,10112.60,0,0,3,-1.26,-8.26,-0.77,0.33,0.88,0.35
7.076172,-0.016697206,-0.053542037,0.0053869104,0.33,0.89,0.36,22167,10114.60,0,0,3,-1.47,-7.84,-1.05,0.33,0.89,0.36
6.076172,-0.012697208,-0.04754203,0.01238691,0.33,0.88,0.36,22177,10113.60,0,0,3,-1.19,-7.42,-0.56,0.33,0.88,0.36
6.076172,-0.013697206,-0.041542035,0.01538691,0.32,0.88,0.36,22195,10113.60,0,0,3,-1.26,-7.00,-0.35,0.32,0.88,0.36
6.076172,-0.020697206,-0.025542032,0.01938691,0.32,0.89,0.35,22213,10113.60,0,0,3,-1.75,-5.88,-0.07,0.32,0.89,0.35
7.076172,-0.023697209,-0.0025420338,0.01838691,0.32,0.88,0.35,22239,10114.60,0,0,3,-1.96,-4.27,-0.14,0.32,0.88,0.35
4.076172,-0.02969721,0.009457964,0.02038691,0.33,0.89,0.36,22250,10111.60,0,0,3,-2.38,-3.43,0.00,0.33,0.89,0.36
4.776367,-0.021697208,0.01745797,0.03238691,0.33,0.89,0.36,22287,10112.30,0,0,3,-1.82,-2.87,0.84,0.33,0.89,0.36
3.6767578,-0.012697208,0.024457965,0.046386912,0.33,0.88,0.36,22294,10111.20,0,0,3,-1.19,-2.38,1.82,0.33,0.88,0.36
4.076172,-0.0046972064,0.030457966,0.06738691,0.33,0.88,0.36,22318,10111.60,0,0,3,-0.63,-1.96,3.29,0.33,0.88,0.36
3.0761719,0.003302793,0.040457968,0.069386914,0.33,0.89,0.36,22340,10110.60,0,0,3,-0.07,-1.26,3.43,0.33,0.89,0.36
8.076172,0.009302793,0.051457968,0.07038691,0.33,0.89,0.36,22354,10115.60,0,0,3,0.35,-0.49,3.50,0.33,0.89,0.36
4.076172,0.017302793,0.060457967,0.07038691,0.34,0.89,0.36,22378,10111.60,0,0,3,0.91,0.14,3.50,0.34,0.89,0.36
3.0761719,0.013302793,0.058457967,0.057386912,0.34,0.89,0.35,22393,10110.60,0,0,3,0.63,0.00,2.59,0.34,0.89,0.35
3.3769531,0.009302793,0.06545797,0.04838691,0.34,0.89,0.36,22408,10110.90,0,0,3,0.35,0.49,1.96,0.34,0.89,0.36
2.0761719,0.018302795,0.058457967,0.054386914,0.34,0.88,0.36,22423,10109.60,0,0,3,0.98,0.00,2.38,0.34,0.88,0.36
3.0761719,0.014302793,0.058457967,0.05038691,0.34,0.89,0.36,22437,10110.60,0,0,3,0.70,0.00,2.10,0.34,0.89,0.36
2.0761719,0.010302793,0.047457967,0.03738691,0.34,0.89,0.36,22453,10109.60,0,0,3,0.42,-0.77,1.19,0.34,0.89,0.36
3.3769531,0.023302794,0.050457966,0.03338691,0.34,0.89,0.35,22467,10110.90,0,0,3,1.33,-0.56,0.91,0.34,0.89,0.35
2.0761719,0.029302794,0.053457968,0.027386911,0.33,0.89,0.35,22490,10109.60,0,0,3,1.75,-0.35,0.49,0.33,0.89,0.35
3.0761719,0.028302792,0.047457967,0.02238691,0.34,0.89,0.36,22505,10110.60,0,0,3,1.68,-0.77,0.14,0.34,0.89,0.36
3.3769531,0.032302793,0.039457966,0.01538691,0.34,0.89,0.36,22520,10110.90,0,0,3,1.96,-1.33,-0.35,0.34,0.89,0.36
5.376953,0.028302792,0.032457966,0.02238691,0.34,0.89,0.35,22535,10112.90,0,0,3,1.68,-1.82,0.14,0.34,0.89,0.35
5.076172,0.034302793,0.027457966,0.03438691,0.34,0.89,0.35,22550,10112.60,0,0,3,2.10,-2.17,0.98,0.34,0.89,0.35
8.076172,0.036302794,0.018457968,0.04138691,0.34,0.89,0.35,22565,10115.60,0,0,3,2.24,-2.80,1.47,0.34,0.89,0.35
8.076172,0.054302793,0.014457967,0.04238691,0.33,0.9,0.34,22588,10115.60,0,0,3,3.50,-3.08,1.54,0.33,0.90,0.34
11.4765625,0.05730279,0.012457967,0.01338691,0.33,0.9,0.34,22604,10119.00,0,0,3,3.71,-3.22,-0.49,0.33,0.90,0.34
13.176758,0.056302793,0.018457968,-0.01461309,0.33,0.89,0.35,22618,10120.70,0,0,3,3.64,-2.80,-2.45,0.33,0.89,0.35
14.176758,0.048302792,0.019457966,-0.024613092,0.33,0.89,0.35,22632,10121.70,0,0,3,3.08,-2.73,-3.15,0.33,0.89,0.35
16.476562,0.050302792,0.014457967,-0.02161309,0.33,0.89,0.35,22647,10124.00,0,0,3,3.22,-3.08,-2.94,0.33,0.89,0.35
19.576172,0.04630279,0.0114579685,-0.017613092,0.33,0.89,0.34,22662,10127.10,0,0,3,2.94,-3.29,-2.66,0.33,0.89,0.34
21.876953,0.053302795,0.0044579655,-0.009613089,0.33,0.9,0.34,22678,10129.40,0,0,3,3.43,-3.78,-2.10,0.33,0.90,0.34
24.576172,0.06330279,0.0044579655,-0.0016130898,0.33,0.89,0.34,22693,10132.10,0,0,3,4.13,-3.78,-1.54,0.33,0.89,0.34
26.576172,0.058302794,0.01045797,0.0063869096,0.32,0.87,0.35,22715,10134.10,0,0,3,3.78,-3.36,-0.98,0.32,0.87,0.35
22.576172,0.056302793,0.01745797,0.01038691,0.32,0.88,0.34,22730,10130.10,0,0,3,3.64,-2.87,-0.70,0.32,0.88,0.34
25.576172,0.050302792,0.022457968,0.01338691,0.32,0.89,0.33,22745,10133.10,0,0,3,3.22,-2.52,-0.49,0.32,0.89,0.33
26.576172,0.038302794,0.030457966,0.01038691,0.33,0.89,0.33,22760,10134.10,0,0,3,2.38,-1.96,-0.70,0.33,0.89,0.33
21.576172,0.029302794,0.038457967,0.01638691,0.33,0.88,0.34,22775,10129.10,0,0,3,1.75,-1.40,-0.28,0.33,0.88,0.34
26.576172,0.028302792,0.044457965,0.031386912,0.33,0.88,0.34,22789,10134.10,0,0,3,1.68,-0.98,0.77,0.33,0.88,0.34
26.276367,0.024302792,0.03545797,0.05238691,0.33,0.89,0.33,22812,10133.80,0,0,3,1.40,-1.61,2.24,0.33,0.89,0.33
26.576172,0.020302795,0.020457964,0.062386908,0.34,0.9,0.33,22827,10134.10,0,0,3,1.12,-2.66,2.94,0.34,0.90,0.33
25.576172,0.011302793,0.008457966,0.04938691,0.34,0.9,0.33,22842,10133.10,0,0,3,0.49,-3.50,2.03,0.34,0.90,0.33
20.576172,0.0063027935,0.007457968,0.03738691,0.34,0.89,0.33,22857,10128.10,0,0,3,0.14,-3.57,1.19,0.34,0.89,0.33
25.576172,-0.007697206,0.008457966,0.02338691,0.33,0.89,0.33,22873,10133.10,0,0,3,-0.84,-3.50,0.21,0.33,0.89,0.33
26.276367,-0.015697207,0.024457965,0.01738691,0.32,0.89,0.34,22887,10133.80,0,0,3,-1.40,-2.38,-0.21,0.32,0.89,0.34
23.576172,-0.013697206,0.016457967,0.01838691,0.32,0.9,0.34,22910,10131.10,0,0,3,-1.26,-2.94,-0.14,0.32,0.90,0.34
24.576172,-0.013697206,0.01045797,0.01538691,0.33,0.9,0.34,22925,10132.10,0,0,3,-1.26,-3.36,-0.35,0.33,0.90,0.34
23.576172,-0.011697208,0.01045797,0.00738691,0.33,0.9,0.33,22940,10131.10,0,0,3,-1.12,-3.36,-0.91,0.33,0.90,0.33
24.576172,-0.002697207,0.020457964,0.014386911,0.33,0.9,0.34,22955,10132.10,0,0,3,-0.49,-2.66,-0.42,0.33,0.90,0.34
22.576172,-0.002697207,0.022457968,0.01338691,0.33,0.89,0.34,22970,10130.10,0,0,3,-0.49,-2.52,-0.49,0.33,0.89,0.34
21.576172,-0.0046972064,0.016457967,0.01638691,0.33,0.9,0.34,22984,10129.10,0,0,3,-0.63,-2.94,-0.28,0.33,0.90,0.34
22.576172,-0.002697207,0.013457965,0.02338691,0.33,0.89,0.34,22999,10130.10,0,0,3,-0.49,-3.15,0.21,0.33,0.89,0.34
22.176758,-0.0016972064,0.016457967,0.027386911,0.32,0.89,0.35,23023,10129.70,0,0,3,-0.42,-2.94,0.49,0.32,0.89,0.35
22.576172,0.0013027934,0.032457966,0.03238691,0.32,0.9,0.35,23038,10130.10,0,0,3,-0.21,-1.82,0.84,0.32,0.90,0.35
23.576172,0.008302793,0.062457968,0.03438691,0.31,0.91,0.36,23052,10131.10,0,0,3,0.28,0.28,0.98,0.31,0.91,0.36
22.576172,0.031302795,0.10345797,0.02938691,0.3,0.91,0.36,23067,10130.10,0,0,3,1.89,3.15,0.63,0.30,0.91,0.36
21.876953,0.054302793,0.14945796,0.02538691,0.3,0.9,0.36,23083,10129.40,0,0,3,3.50,6.37,0.35,0.30,0.90,0.36
21.576172,0.07730279,0.19545798,0.027386911,0.29,0.9,0.37,23097,10129.10,0,0,3,5.11,9.59,0.49,0.29,0.90,0.37
20.876953,0.105302796,0.25745797,0.03838691,0.28,0.91,0.37,23120,10128.40,0,0,3,7.07,13.93,1.26,0.28,0.91,0.37
20.876953,0.1253028,0.31645796,0.04338691,0.29,0.91,0.37,23135,10128.40,0,0,3,8.47,18.06,1.61,0.29,0.91,0.37
20.576172,0.1303028,0.36645797,0.03438691,0.3,0.91,0.36,23157,10128.10,0,0,3,8.82,21.56,0.98,0.30,0.91,0.36
20.576172,0.1303028,0.39545798,0.02438691,0.31,0.9,0.35,23165,10128.10,0,0,3,8.82,23.59,0.28,0.31,0.90,0.35
21.876953,0.1323028,0.41445798,0.02238691,0.31,0.89,0.34,23179,10129.40,0,0,3,8.96,24.92,0.14,0.31,0.89,0.34
21.176758,0.1263028,0.41945797,0.03038691,0.32,0.88,0.33,23195,10128.70,0,0,3,8.54,25.27,0.70,0.32,0.88,0.33
19.576172,0.111302786,0.40745798,0.04238691,0.32,0.88,0.33,23217,10127.10,0,0,3,7.49,24.43,1.54,0.32,0.88,0.33
20.876953,0.08730279,0.38445798,0.05138691,0.33,0.88,0.32,23233,10128.40,0,0,3,5.81,22.82,2.17,0.33,0.88,0.32
19.876953,0.06230279,0.34145796,0.062386908,0.33,0.88,0.32,23255,10127.40,0,0,3,4.06,19.81,2.94,0.33,0.88,0.32
15.876953,0.038302794,0.30845797,0.08938691,0.33,0.88,0.32,23270,10123.40,0,0,3,2.38,17.50,4.83,0.33,0.88,0.32
19.876953,0.019302793,0.26945797,0.10938691,0.33,0.88,0.32,23292,10127.40,0,0,3,1.05,14.77,6.23,0.33,0.88,0.32
20.876953,0.010302793,0.21445797,0.11538691,0.33,0.89,0.32,23314,10128.40,0,0,3,0.42,10.92,6.65,0.33,0.89,0.32
19.576172,-6.972067E-4,0.18345797,0.12538691,0.31,0.89,0.33,23338,10127.10,0,0,3,-0.35,8.75,7.35,0.31,0.89,0.33
19.876953,-0.0066972068,0.18245797,0.1313869,0.3,0.89,0.34,23353,10127.40,0,0,3,-0.77,8.68,7.77,0.30,0.89,0.34
19.476562,-0.009697207,0.18545797,0.1313869,0.3,0.89,0.34,23375,10127.00,0,0,3,-0.98,8.89,7.77,0.30,0.89,0.34
14.776367,-0.011697208,0.19345796,0.13438691,0.31,0.89,0.35,23390,10122.30,0,0,3,-1.12,9.45,7.98,0.31,0.89,0.35
19.876953,-0.018697206,0.19545798,0.13538691,0.31,0.9,0.35,23413,10127.40,0,0,3,-1.61,9.59,8.05,0.31,0.90,0.35
19.876953,-0.011697208,0.20045796,0.1453869,0.31,0.89,0.35,23435,10127.40,0,0,3,-1.12,9.94,8.75,0.31,0.89,0.35
18.876953,-0.011697208,0.20945796,0.1583869,0.31,0.89,0.36,23437,10126.40,0,0,3,-1.12,10.57,9.66,0.31,0.89,0.36
19.876953,-0.008697207,0.23145796,0.1613869,0.3,0.9,0.36,23458,10127.40,0,0,3,-0.91,12.11,9.87,0.30,0.90,0.36
19.876953,0.004302793,0.25245798,0.1523869,0.3,0.9,0.36,23480,10127.40,0,0,3,0.00,13.58,9.24,0.30,0.90,0.36
18.876953,0.015302793,0.28145796,0.1433869,0.31,0.9,0.38,23502,10126.40,0,0,3,0.77,15.61,8.61,0.31,0.90,0.38
17.876953,0.030302793,0.32245797,0.15038691,0.31,0.89,0.38,23532,10125.40,0,0,3,1.82,18.48,9.10,0.31,0.89,0.38
17.876953,0.04430279,0.35345796,0.1613869,0.31,0.89,0.38,23547,10125.40,0,0,3,2.80,20.65,9.87,0.31,0.89,0.38
18.876953,0.05230279,0.36845797,0.15438691,0.32,0.89,0.36,23570,10126.40,0,0,3,3.36,21.70,9.38,0.32,0.89,0.36
17.876953,0.060302794,0.36545798,0.14138691,0.33,0.89,0.36,23584,10125.40,0,0,3,3.92,21.49,8.47,0.33,0.89,0.36
18.876953,0.058302794,0.35045797,0.14238691,0.33,0.88,0.36,23608,10126.40,0,0,3,3.78,20.44,8.54,0.33,0.88,0.36
17.876953,0.04630279,0.34945798,0.15438691,0.32,0.88,0.37,23630,10125.40,0,0,3,2.94,20.37,9.38,0.32,0.88,0.37
18.876953,0.039302792,0.34745798,0.15638691,0.31,0.89,0.37,23644,10126.40,0,0,3,2.45,20.23,9.52,0.31,0.89,0.37
17.876953,0.041302793,0.35245797,0.1583869,0.3,0.89,0.37,23660,10125.40,0,0,3,2.59,20.58,9.66,0.30,0.89,0.37
17.876953,0.043302793,0.36445796,0.15638691,0.3,0.89,0.38,23682,10125.40,0,0,3,2.73,21.42,9.52,0.30,0.89,0.38
17.876953,0.05530279,0.38845798,0.1643869,0.3,0.89,0.39,23698,10125.40,0,0,3,3.57,23.10,10.08,0.30,0.89,0.39
16.876953,0.06230279,0.43245798,0.1733869,0.29,0.88,0.4,23720,10124.40,0,0,3,4.06,26.18,10.71,0.29,0.88,0.40
18.176758,0.0663028,0.48645794,0.1803869,0.28,0.88,0.41,23742,10125.70,0,0,3,4.34,29.96,11.20,0.28,0.88,0.41
16.876953,0.08430279,0.590458,0.1993869,0.25,0.89,0.44,23765,10124.40,0,0,3,5.60,37.24,12.53,0.25,0.89,0.44
20.876953,0.1523028,0.815458,0.23838691,0.2,0.92,0.47,23794,10128.40,0,0,3,10.36,52.99,15.26,0.20,0.92,0.47
17.876953,0.23930281,1.082458,0.26438692,0.18,0.92,0.5,23802,10125.40,0,0,3,16.45,71.68,17.08,0.18,0.92,0.50
16.876953,0.3063028,1.350458,0.2713869,0.19,0.9,0.52,23824,10124.40,0,0,3,21.14,90.44,17.57,0.19,0.90,0.52
17.176758,0.35930282,1.626458,0.29238692,0.2,0.89,0.53,23848,10124.70,0,0,3,24.85,109.76,19.04,0.20,0.89,0.53
16.876953,0.3953028,1.869458,0.32338688,0.21,0.89,0.51,23870,10124.40,0,0,3,27.37,126.77,21.21,0.21,0.89,0.51
17.876953,0.4233028,1.989458,0.3293869,0.23,0.89,0.38,23884,10125.40,0,0,3,29.33,135.17,21.63,0.23,0.89,0.38
16.876953,0.4453028,2.060458,0.3343869,0.24,0.88,0.48,23907,10124.40,0,0,3,30.87,140.14,21.98,0.24,0.88,0.48
15.176758,0.4693028,2.087458,0.3443869,0.26,0.87,0.46,23922,10122.70,0,0,3,32.55,142.03,22.68,0.26,0.87,0.46
19.176758,0.4933028,2.097458,0.3653869,0.28,0.88,0.45,23945,10126.70,0,0,3,34.23,142.73,24.15,0.28,0.88,0.45
16.176758,0.50730276,2.044458,0.3843869,0.3,0.87,0.43,23960,10123.70,0,0,3,35.21,139.02,25.48,0.30,0.87,0.43
16.176758,0.4903028,1.9224579,0.3833869,0.31,0.87,0.4,23982,10123.70,0,0,3,34.02,130.48,25.41,0.31,0.87,0.40
16.176758,0.4413028,1.727458,0.3723869,0.31,0.86,0.39,24004,10123.70,0,0,3,30.59,116.83,24.64,0.31,0.86,0.39
16.176758,0.3853028,1.531458,0.3793869,0.32,0.86,0.37,24027,10123.70,0,0,3,26.67,103.11,25.13,0.32,0.86,0.37
16.176758,0.3443028,1.333458,0.40138692,0.32,0.87,0.36,24042,10123.70,0,0,3,23.80,89.25,26.67,0.32,0.87,0.36
16.176758,0.3023028,1.134458,0.4203869,0.3,0.87,0.35,24064,10123.70,0,0,3,20.86,75.32,28.00,0.30,0.87,0.35
17.176758,0.2663028,0.94345796,0.4413869,0.29,0.88,0.36,24088,10124.70,0,0,3,18.34,61.95,29.47,0.29,0.88,0.36
16.176758,0.2373028,0.75045794,0.4393869,0.28,0.9,0.35,24111,10123.70,0,0,3,16.31,48.44,29.33,0.28,0.90,0.35
9.076172,0.2293028,0.630458,0.4413869,0.27,0.9,0.35,24133,10116.60,0,0,3,15.75,40.04,29.47,0.27,0.90,0.35
15.176758,0.2203028,0.51745796,0.42938688,0.25,0.9,0.35,24148,10122.70,0,0,3,15.12,32.13,28.63,0.25,0.90,0.35
13.776367,0.2073028,0.42745796,0.4023869,0.25,0.91,0.35,24163,10121.30,0,0,3,14.21,25.83,26.74,0.25,0.91,0.35
15.176758,0.20030281,0.35845798,0.3733869,0.24,0.91,0.36,24178,10122.70,0,0,3,13.72,21.00,24.71,0.24,0.91,0.36
14.176758,0.1913028,0.29245794,0.3473869,0.23,0.91,0.37,24201,10121.70,0,0,3,13.09,16.38,22.89,0.23,0.91,0.37
12.076172,0.16530281,0.24645796,0.32438692,0.24,0.9,0.38,24222,10119.60,0,0,3,11.27,13.16,21.28,0.24,0.90,0.38
12.076172,0.1423028,0.20845798,0.2893869,0.23,0.92,0.37,24267,10119.60,0,0,3,9.66,10.50,18.83,0.23,0.92,0.37
13.176758,0.1383028,0.18045796,0.2473869,0.22,0.92,0.37,24269,10120.70,0,0,3,9.38,8.54,15.89,0.22,0.92,0.37
11.4765625,0.13430281,0.17145796,0.2153869,0.23,0.91,0.38,24283,10119.00,0,0,3,9.10,7.91,13.65,0.23,0.91,0.38
9.4765625,0.10330279,0.17245796,0.19838691,0.23,0.9,0.38,24305,10117.00,0,0,3,6.93,7.98,12.46,0.23,0.90,0.38
9.4765625,0.064302795,0.17545795,0.1873869,0.23,0.9,0.38,24329,10117.00,0,0,3,4.20,8.19,11.69,0.23,0.90,0.38
9.076172,0.050302792,0.17045797,0.1733869,0.23,0.92,0.37,24350,10116.60,0,0,3,3.22,7.84,10.71,0.23,0.92,0.37
8.376953,0.058302794,0.16645797,0.1613869,0.23,0.92,0.37,24364,10115.90,0,0,3,3.78,7.56,9.87,0.23,0.92,0.37
8.376953,0.0663028,0.16045797,0.1583869,0.23,0.91,0.37,24387,10115.90,0,0,3,4.34,7.14,9.66,0.23,0.91,0.37
9.076172,0.07030279,0.15145797,0.14838691,0.23,0.91,0.37,24402,10116.60,0,0,3,4.62,6.51,8.96,0.23,0.91,0.37
8.076172,0.0663028,0.14845797,0.1533869,0.24,0.9,0.37,24427,10115.60,0,0,3,4.34,6.30,9.31,0.24,0.90,0.37
8.376953,0.05730279,0.15045796,0.1533869,0.23,0.91,0.37,24433,10115.90,0,0,3,3.71,6.44,9.31,0.23,0.91,0.37
3.3769531,0.06330279,0.17645797,0.1623869,0.22,0.92,0.37,24456,10110.90,0,0,3,4.13,8.26,9.94,0.22,0.92,0.37
8.376953,0.072302796,0.21145797,0.15738691,0.21,0.92,0.38,24485,10115.90,0,0,3,4.76,10.71,9.59,0.21,0.92,0.38
9.776367,0.0913028,0.28345796,0.15038691,0.18,0.92,0.4,24517,10117.30,0,0,3,6.09,15.75,9.10,0.18,0.92,0.40
8.376953,0.1443028,0.43145797,0.17838691,0.14,0.92,0.43,24518,10115.90,0,0,3,9.80,26.11,11.06,0.14,0.92,0.43
8.376953,0.22130279,0.718458,0.2423869,0.12,0.92,0.47,24537,10115.90,0,0,3,15.19,46.20,15.54,0.12,0.92,0.47
8.376953,0.2953028,1.0204579,0.3003869,0.1,0.91,0.48,24561,10115.90,0,0,3,20.37,67.34,19.60,0.10,0.91,0.48
10.776367,0.3383028,1.323458,0.3253869,0.11,0.92,0.47,24582,10118.30,0,0,3,23.38,88.55,21.35,0.11,0.92,0.47
8.776367,0.3853028,1.543458,0.3193869,0.14,0.92,0.46,24605,10116.30,0,0,3,26.67,103.95,20.93,0.14,0.92,0.46
9.4765625,0.4343028,1.678458,0.33638692,0.17,0.92,0.44,24620,10117.00,0,0,3,30.10,113.40,22.12,0.17,0.92,0.44
10.4765625,0.4613028,1.762458,0.3543869,0.21,0.91,0.43,24637,10118.00,0,0,3,31.99,119.28,23.38,0.21,0.91,0.43
9.4765625,0.4583028,1.785458,0.36838692,0.24,0.89,0.4,24668,10117.00,0,0,3,31.78,120.89,24.36,0.24,0.89,0.40
8.776367,0.4383028,1.760458,0.3743869,0.26,0.89,0.39,24672,10116.30,0,0,3,30.38,119.14,24.78,0.26,0.89,0.39
8.376953,0.4123028,1.7054579,0.3823869,0.27,0.89,0.37,24688,10115.90,0,0,3,28.56,115.29,25.34,0.27,0.89,0.37
8.776367,0.3543028,1.578458,0.3713869,0.29,0.89,0.34,24724,10116.30,0,0,3,24.50,106.40,24.57,0.29,0.89,0.34
8.376953,0.2853028,1.387458,0.3513869,0.31,0.89,0.32,24739,10115.90,0,0,3,19.67,93.03,23.17,0.31,0.89,0.32
8.776367,0.2363028,1.184458,0.3383869,0.3,0.91,0.3,24754,10116.30,0,0,3,16.24,78.82,22.26,0.30,0.91,0.30
8.776367,0.2343028,0.981458,0.3153869,0.27,0.94,0.3,24785,10116.30,0,0,3,16.10,64.61,20.65,0.27,0.94,0.30
9.4765625,0.2263028,0.81145793,0.27638692,0.27,0.93,0.31,24792,10117.00,0,0,3,15.54,52.71,17.92,0.27,0.93,0.31
9.4765625,0.2013028,0.65745795,0.2273869,0.24,0.93,0.31,24815,10117.00,0,0,3,13.79,41.93,14.49,0.24,0.93,0.31
7.376953,0.20030281,0.55445796,0.2023869,0.21,0.94,0.34,24837,10114.90,0,0,3,13.72,34.72,12.74,0.21,0.94,0.34
9.4765625,0.1983028,0.506458,0.1863869,0.2,0.93,0.35,24860,10117.00,0,0,3,13.58,31.36,11.62,0.20,0.93,0.35
10.776367,0.1733028,0.47845796,0.1673869,0.19,0.92,0.35,24875,10118.30,0,0,3,11.83,29.40,10.29,0.19,0.92,0.35
9.776367,0.14130281,0.450458,0.1613869,0.19,0.9,0.35,24898,10117.30,0,0,3,9.59,27.44,9.87,0.19,0.90,0.35
9.776367,0.119302794,0.43845797,0.17238691,0.19,0.91,0.35,24912,10117.30,0,0,3,8.05,26.60,10.64,0.19,0.91,0.35
10.776367,0.10630279,0.44145796,0.19238691,0.17,0.91,0.34,24934,10118.30,0,0,3,7.14,26.81,12.04,0.17,0.91,0.34
10.776367,0.08730279,0.443458,0.2093869,0.16,0.92,0.35,24949,10118.30,0,0,3,5.81,26.95,13.23,0.16,0.92,0.35
11.776367,0.053302795,0.45145798,0.23138691,0.17,0.9,0.35,24972,10119.30,0,0,3,3.43,27.51,14.77,0.17,0.90,0.35
13.076172,0.036302794,0.48845798,0.2773869,0.16,0.9,0.37,24995,10120.60,0,0,3,2.24,30.10,17.99,0.16,0.90,0.37
18.876953,0.028302792,0.578458,0.3583869,0.15,0.89,0.38,25017,10126.40,0,0,3,1.68,36.40,23.66,0.15,0.89,0.38
13.776367,-0.016697206,0.673458,0.4213869,0.16,0.85,0.4,25033,10121.30,0,0,3,-1.47,43.05,28.07,0.16,0.85,0.40
14.4765625,-0.12169721,0.73545796,0.50438696,0.2,0.82,0.42,25055,10122.00,0,0,3,-8.82,47.39,33.88,0.20,0.82,0.42
14.776367,-0.2276972,0.76345795,0.59338695,0.22,0.83,0.41,25077,10122.30,0,0,3,-16.24,49.35,40.11,0.22,0.83,0.41
15.776367,-0.3086972,0.761458,0.6383869,0.19,0.89,0.39,25100,10123.30,0,0,3,-21.91,49.21,43.26,0.19,0.89,0.39
15.776367,-0.26969722,0.77145797,0.6193869,0.16,0.98,0.38,25122,10123.30,0,0,3,-19.18,49.91,41.93,0.16,0.98,0.38
15.776367,-0.15969719,0.80445796,0.5103869,0.11,1.08,0.36,25137,10123.30,0,0,3,-11.48,52.22,34.30,0.11,1.08,0.36
15.776367,0.05530279,0.806458,0.2543869,0.03,1.29,0.25,25161,10123.30,0,0,3,3.57,52.36,16.38,0.03,1.29,0.25
14.776367,0.4373028,0.727458,-0.1786131,0.05,1.42,0.22,25168,10122.30,0,0,3,30.31,46.83,-13.93,0.05,1.42,0.22
15.776367,0.86030275,0.67045796,-0.54661304,0.14,1.38,0.31,25197,10123.30,0,0,3,59.92,42.84,-39.69,0.14,1.38,0.31
14.776367,1.2573028,0.66345793,-0.8806131,0.29,1.1,0.47,25212,10122.30,0,0,3,87.71,42.35,-63.07,0.29,1.10,0.47
17.176758,1.3123027,0.70045793,-0.90761304,0.31,0.91,0.52,25227,10124.70,0,0,3,91.56,44.94,-64.96,0.31,0.91,0.52
18.176758,1.1033027,0.678458,-0.78061306,0.32,0.76,0.49,25257,10125.70,0,0,3,76.93,43.40,-56.07,0.32,0.76,0.49
12.076172,0.7683028,0.5254579,-0.5116131,0.31,0.67,0.37,25272,10119.60,0,0,3,53.48,32.69,-37.24,0.31,0.67,0.37
21.176758,0.3863028,0.31745794,-0.2456131,0.28,0.68,0.26,25295,10128.70,0,0,3,26.74,18.13,-18.62,0.28,0.68,0.26
20.876953,0.043302793,0.09045797,-0.028613092,0.29,0.64,0.2,25317,10128.40,0,0,3,2.73,2.24,-3.43,0.29,0.64,0.20
20.176758,-0.2706972,-0.22254202,0.22238691,0.29,0.68,0.19,25340,10127.70,0,0,3,-19.25,-19.67,14.14,0.29,0.68,0.19
21.176758,-0.6676972,-0.539542,0.51438695,0.31,0.66,0.26,25362,10128.70,0,0,3,-47.04,-41.86,34.58,0.31,0.66,0.26
24.276367,-0.9656972,-0.79254204,0.73138696,0.28,0.73,0.29,25377,10131.80,0,0,3,-67.90,-59.57,49.77,0.28,0.73,0.29
23.176758,-1.1496972,-0.984542,0.88138694,0.22,0.79,0.28,25400,10130.70,0,0,3,-80.78,-73.01,60.27,0.22,0.79,0.28
16.876953,-1.2356973,-1.148542,0.8973869,0.16,0.89,0.3,25407,10124.40,0,0,3,-86.80,-84.49,61.39,0.16,0.89,0.30
23.176758,-1.3296973,-1.263542,0.7713869,0.09,1.03,0.3,25430,10130.70,0,0,3,-93.38,-92.54,52.57,0.09,1.03,0.30
20.176758,-1.1916972,-1.360542,0.5973869,0.14,1.05,0.35,25460,10127.70,0,0,3,-83.72,-99.33,40.39,0.14,1.05,0.35
11.076172,-1.1536973,-1.417542,0.4763869,0.29,0.96,0.44,25461,10118.60,0,0,3,-81.06,-103.32,31.92,0.29,0.96,0.44
13.4765625,-1.0726973,-1.378542,0.5353869,0.13,1.0,0.42,25482,10121.00,0,0,3,-75.39,-100.59,36.05,0.13,1.00,0.42
19.876953,-0.70569724,-1.174542,0.46738693,0.09,1.16,0.44,25505,10127.40,0,0,3,-49.70,-86.31,31.29,0.09,1.16,0.44
17.176758,-0.35369718,-0.86554205,0.24438691,0.12,1.08,0.55,25527,10124.70,0,0,3,-25.06,-64.68,15.68,0.12,1.08,0.55
17.476562,-0.23669721,-0.56154203,0.03638691,0.19,0.98,0.54,25549,10125.00,0,0,3,-16.87,-43.40,1.12,0.19,0.98,0.54
16.176758,-0.12169721,-0.38654202,-0.17661309,0.2,1.1,0.41,25572,10123.70,0,0,3,-8.82,-31.15,-13.79,0.20,1.10,0.41
16.176758,0.2013028,-0.26354206,-0.36261308,0.22,1.13,0.43,25603,10123.70,0,0,3,13.79,-22.54,-26.81,0.22,1.13,0.43
17.476562,0.5183028,-0.12754203,-0.53061306,0.2,1.13,0.43,25617,10125.00,0,0,3,35.98,-13.02,-38.57,0.20,1.13,0.43
16.176758,0.7253028,-0.07454203,-0.7136131,0.22,1.12,0.43,25632,10123.70,0,0,3,50.47,-9.31,-51.38,0.22,1.12,0.43
17.176758,0.86030275,-0.023542028,-0.871613,0.27,1.04,0.44,25647,10124.70,0,0,3,59.92,-5.74,-62.44,0.27,1.04,0.44
19.876953,0.9193028,0.032457966,-0.92961305,0.3,0.93,0.45,25663,10127.40,0,0,3,64.05,-1.82,-66.50,0.30,0.93,0.45
20.176758,0.9013028,0.043457966,-0.93461305,0.28,0.89,0.42,25678,10127.70,0,0,3,62.79,-1.05,-66.85,0.28,0.89,0.42
21.576172,0.8053028,0.008457966,-0.8766131,0.29,0.84,0.37,25700,10129.10,0,0,3,56.07,-3.50,-62.79,0.29,0.84,0.37
15.4765625,0.6563028,-0.08954203,-0.7776131,0.31,0.79,0.32,25737,10123.00,0,0,3,45.64,-10.36,-55.86,0.31,0.79,0.32
24.576172,0.44330278,-0.26154202,-0.6236131,0.33,0.73,0.29,25746,10132.10,0,0,3,30.73,-22.40,-45.08,0.33,0.73,0.29
22.576172,0.1593028,-0.47554207,-0.4336131,0.34,0.71,0.26,25768,10130.10,0,0,3,10.85,-37.38,-31.78,0.34,0.71,0.26
22.576172,-0.1286972,-0.73254204,-0.2406131,0.34,0.72,0.25,25790,10130.10,0,0,3,-9.31,-55.37,-18.27,0.34,0.72,0.25
23.576172,-0.4306972,-1.015542,-0.061613083,0.32,0.73,0.26,25827,10131.10,0,0,3,-30.45,-75.18,-5.74,0.32,0.73,0.26
22.576172,-0.6586972,-1.2895421,0.07938691,0.25,0.84,0.24,25828,10130.10,0,0,3,-46.41,-94.36,4.13,0.25,0.84,0.24
21.576172,-0.7566972,-1.484542,0.13438691,0.22,0.88,0.28,25872,10129.10,0,0,3,-53.27,-108.01,7.98,0.22,0.88,0.28
19.476562,-0.8546972,-1.6055421,0.16338691,0.25,0.85,0.35,25875,10127.00,0,0,3,-60.13,-116.48,10.01,0.25,0.85,0.35
21.876953,-0.92469716,-1.693542,0.16338691,0.24,0.92,0.33,25894,10129.40,0,0,3,-65.03,-122.64,10.01,0.24,0.92,0.33
22.176758,-0.90169716,-1.760542,0.11138691,0.21,0.98,0.33,25925,10129.70,0,0,3,-63.42,-127.33,6.37,0.21,0.98,0.33
22.576172,-0.8186972,-1.765542,0.04538691,0.22,0.97,0.37,25926,10130.10,0,0,3,-57.61,-127.68,1.75,0.22,0.97,0.37
25.576172,-0.7546972,-1.728542,0.00738691,0.24,0.93,0.41,25939,10133.10,0,0,3,-53.13,-125.09,-0.91,0.24,0.93,0.41
21.576172,-0.6816972,-1.6415421,-0.03161309,0.18,1.01,0.4,25962,10129.10,0,0,3,-48.02,-119.00,-3.64,0.18,1.01,0.40
22.876953,-0.48769718,-1.449542,-0.17161308,0.17,1.07,0.43,25985,10130.40,0,0,3,-34.44,-105.56,-13.44,0.17,1.07,0.43
18.476562,-0.2526972,-1.220542,-0.2856131,0.18,1.04,0.45,26008,10126.00,0,0,3,-17.99,-89.53,-21.42,0.18,1.04,0.45
21.876953,-0.06569721,-0.968542,-0.37461308,0.17,1.05,0.42,26037,10129.40,0,0,3,-4.90,-71.89,-27.65,0.17,1.05,0.42
21.876953,0.10730279,-0.716542,-0.4876131,0.21,1.0,0.44,26052,10129.40,0,0,3,7.21,-54.25,-35.56,0.21,1.00,0.44
21.876953,0.1953028,-0.53754205,-0.50361305,0.24,0.92,0.44,26067,10129.40,0,0,3,13.37,-41.72,-36.68,0.24,0.92,0.44
23.576172,0.1913028,-0.40554202,-0.4396131,0.26,0.86,0.41,26090,10131.10,0,0,3,13.09,-32.48,-32.20,0.26,0.86,0.41
21.876953,0.1353028,-0.29854202,-0.32061312,0.25,0.83,0.39,26119,10129.40,0,0,3,9.17,-24.99,-23.87,0.25,0.83,0.39
22.576172,0.068302795,-0.23254204,-0.22461309,0.24,0.82,0.37,26135,10130.10,0,0,3,4.48,-20.37,-17.15,0.24,0.82,0.37
21.576172,-0.015697207,-0.18054202,-0.1376131,0.25,0.8,0.37,26150,10129.10,0,0,3,-1.40,-16.73,-11.06,0.25,0.80,0.37
21.576172,-0.11069721,-0.13654202,-0.026613088,0.25,0.79,0.36,26165,10129.10,0,0,3,-8.05,-13.65,-3.29,0.25,0.79,0.36
24.876953,-0.1946972,-0.10554202,0.07938691,0.24,0.83,0.32,26179,10132.40,0,0,3,-13.93,-11.48,4.13,0.24,0.83,0.32
21.576172,-0.2356972,-0.09254202,0.1713869,0.22,0.89,0.28,26203,10129.10,0,0,3,-16.80,-10.57,10.57,0.22,0.89,0.28
22.576172,-0.2116972,-0.09454203,0.1743869,0.22,0.92,0.3,26232,10130.10,0,0,3,-15.12,-10.71,10.78,0.22,0.92,0.30
21.876953,-0.1856972,-0.08354202,0.15438691,0.24,0.91,0.34,26269,10129.40,0,0,3,-13.30,-9.94,9.38,0.24,0.91,0.34
22.876953,-0.1996972,-0.052542035,0.15738691,0.27,0.91,0.36,26271,10130.40,0,0,3,-14.28,-7.77,9.59,0.27,0.91,0.36
23.576172,-0.1706972,-0.04654203,0.1463869,0.25,0.96,0.34,26292,10131.10,0,0,3,-12.25,-7.35,8.82,0.25,0.96,0.34
23.576172,-0.10169721,-0.045542035,0.09638692,0.26,0.98,0.35,26315,10131.10,0,0,3,-7.42,-7.28,5.32,0.26,0.98,0.35
23.876953,-0.05169721,-0.034542035,0.046386912,0.27,0.94,0.37,26338,10131.40,0,0,3,-3.92,-6.51,1.82,0.27,0.94,0.37
22.876953,-0.04969721,-0.012542028,0.00938691,0.28,0.92,0.37,26352,10130.40,0,0,3,-3.78,-4.97,-0.77,0.28,0.92,0.37
16.776367,-0.04569721,-0.010542031,-0.009613089,0.26,0.93,0.35,26374,10124.30,0,0,3,-3.50,-4.83,-2.10,0.26,0.93,0.35
25.876953,-0.021697208,-0.019542035,-0.034613088,0.27,0.93,0.35,26391,10133.40,0,0,3,-1.82,-5.46,-3.85,0.27,0.93,0.35
22.576172,0.002302793,-0.020542037,-0.04761309,0.26,0.92,0.36,26404,10130.10,0,0,3,-0.14,-5.53,-4.76,0.26,0.92,0.36
21.876953,0.011302793,-0.01354203,-0.04261309,0.26,0.89,0.37,26420,10129.40,0,0,3,0.49,-5.04,-4.41,0.26,0.89,0.37
18.876953,-0.0016972064,-0.0025420338,-0.028613092,0.25,0.89,0.37,26447,10126.40,0,0,3,-0.42,-4.27,-3.43,0.25,0.89,0.37
21.876953,-0.009697207,0.014457967,-0.0046130903,0.25,0.89,0.36,26457,10129.40,0,0,3,-0.98,-3.08,-1.75,0.25,0.89,0.36
22.876953,-0.0036972072,0.026457965,0.01938691,0.25,0.9,0.36,26487,10130.40,0,0,3,-0.56,-2.24,-0.07,0.25,0.90,0.36
23.876953,-0.0016972064,0.043457966,0.03838691,0.26,0.9,0.36,26517,10131.40,0,0,3,-0.42,-1.05,1.26,0.26,0.90,0.36
22.876953,-0.0036972072,0.050457966,0.05538691,0.26,0.91,0.36,26525,10130.40,0,0,3,-0.56,-0.56,2.45,0.26,0.91,0.36
20.876953,-0.007697206,0.053457968,0.058386914,0.27,0.91,0.36,26555,10128.40,0,0,3,-0.84,-0.35,2.66,0.27,0.91,0.36
21.876953,-0.011697208,0.058457967,0.06538691,0.27,0.91,0.36,26577,10129.40,0,0,3,-1.12,0.00,3.15,0.27,0.91,0.36
20.876953,-0.013697206,0.063457966,0.06538691,0.27,0.92,0.35,26596,10128.40,0,0,3,-1.26,0.35,3.15,0.27,0.92,0.35
21.576172,-6.972067E-4,0.061457966,0.05038691,0.27,0.93,0.34,26615,10129.10,0,0,3,-0.35,0.21,2.10,0.27,0.93,0.34
23.176758,0.018302795,0.06445797,0.031386912,0.27,0.92,0.34,26647,10130.70,0,0,3,0.98,0.42,0.77,0.27,0.92,0.34
22.176758,0.025302794,0.07245797,0.01538691,0.28,0.91,0.35,26648,10129.70,0,0,3,1.47,0.98,-0.35,0.28,0.91,0.35
19.876953,0.0063027935,0.081457965,0.01738691,0.29,0.88,0.36,26662,10127.40,0,0,3,0.14,1.61,-0.21,0.29,0.88,0.36
20.876953,-0.026697207,0.07845797,0.02938691,0.29,0.87,0.37,26691,10128.40,0,0,3,-2.17,1.40,0.63,0.29,0.87,0.37
21.176758,-0.067697205,0.06845797,0.03238691,0.28,0.89,0.36,26712,10128.70,0,0,3,-5.04,0.70,0.84,0.28,0.89,0.36
20.876953,-0.08069721,0.059457965,0.01838691,0.27,0.9,0.35,26720,10128.40,0,0,3,-5.95,0.07,-0.14,0.27,0.90,0.35
22.176758,-0.05669721,0.059457965,-0.007613091,0.27,0.89,0.34,26749,10129.70,0,0,3,-4.27,0.07,-1.96,0.27,0.89,0.34
21.176758,-0.014697208,0.06945796,-0.04761309,0.27,0.9,0.34,26772,10128.70,0,0,3,-1.33,0.77,-4.76,0.27,0.90,0.34
12.776367,-6.972067E-4,0.07245797,-0.03961309,0.28,0.89,0.36,26802,10120.30,0,0,3,-0.35,0.98,-4.20,0.28,0.89,0.36
21.876953,-0.021697208,0.073457964,-0.011613091,0.28,0.91,0.37,26810,10129.40,0,0,3,-1.82,1.05,-2.24,0.28,0.91,0.37
20.476562,-0.041697208,0.07245797,0.0023869108,0.26,0.93,0.37,26825,10128.00,0,0,3,-3.22,0.98,-1.26,0.26,0.93,0.37
19.176758,-0.050697207,0.07145797,-0.009613089,0.27,0.93,0.37,26847,10126.70,0,0,3,-3.85,0.91,-2.10,0.27,0.93,0.37
20.176758,-0.036697205,0.07645796,-0.03161309,0.27,0.92,0.37,26870,10127.70,0,0,3,-2.87,1.26,-3.64,0.27,0.92,0.37
23.176758,-0.019697204,0.077457964,-0.04261309,0.26,0.92,0.36,26885,10130.70,0,0,3,-1.68,1.33,-4.41,0.26,0.92,0.36
20.176758,-0.008697207,0.07645796,-0.04361309,0.26,0.91,0.37,26907,10127.70,0,0,3,-0.91,1.26,-4.48,0.26,0.91,0.37
19.176758,0.0013027934,0.06445797,-0.03161309,0.26,0.9,0.36,26922,10126.70,0,0,3,-0.21,0.42,-3.64,0.26,0.90,0.36
20.176758,0.016302792,0.061457966,-0.013613092,0.25,0.9,0.35,26937,10127.70,0,0,3,0.84,0.21,-2.38,0.25,0.90,0.35
21.176758,0.049302794,0.05745797,0.0053869104,0.24,0.9,0.35,26967,10128.70,0,0,3,3.15,-0.07,-1.05,0.24,0.90,0.35
20.476562,0.08130279,0.048457965,0.01038691,0.24,0.91,0.35,26974,10128.00,0,0,3,5.39,-0.70,-0.70,0.24,0.91,0.35
19.176758,0.093302794,0.042457968,0.00938691,0.24,0.91,0.36,26998,10126.70,0,0,3,6.23,-1.12,-0.77,0.24,0.91,0.36
19.176758,0.09530279,0.042457968,0.01638691,0.25,0.92,0.36,27020,10126.70,0,0,3,6.37,-1.12,-0.28,0.25,0.92,0.36
20.176758,0.09830279,0.043457966,0.03838691,0.26,0.92,0.36,27042,10127.70,0,0,3,6.58,-1.05,1.26,0.26,0.92,0.36
15.176758,0.100302786,0.047457967,0.06038691,0.25,0.91,0.36,27065,10122.70,0,0,3,6.72,-0.77,2.80,0.25,0.91,0.36
19.476562,0.10730279,0.05545797,0.068386905,0.24,0.92,0.35,27087,10127.00,0,0,3,7.21,-0.21,3.36,0.24,0.92,0.35
18.176758,0.11030279,0.06845797,0.05238691,0.23,0.92,0.35,27110,10125.70,0,0,3,7.42,0.70,2.24,0.23,0.92,0.35
18.176758,0.104302794,0.07645796,0.03538691,0.23,0.91,0.34,27132,10125.70,0,0,3,7.00,1.26,1.05,0.23,0.91,0.34
16.476562,0.094302796,0.07545797,0.02538691,0.23,0.93,0.33,27147,10124.00,0,0,3,6.30,1.19,0.35,0.23,0.93,0.33
15.4765625,0.09830279,0.06845797,0.02238691,0.24,0.94,0.32,27162,10123.00,0,0,3,6.58,0.70,0.14,0.24,0.94,0.32
15.4765625,0.100302786,0.052457966,0.01738691,0.24,0.93,0.32,27177,10123.00,0,0,3,6.72,-0.42,-0.21,0.24,0.93,0.32
14.4765625,0.08630279,0.031457968,0.00738691,0.25,0.92,0.33,27200,10122.00,0,0,3,5.74,-1.89,-0.91,0.25,0.92,0.33
13.4765625,0.06230279,0.018457968,0.0013869088,0.25,0.91,0.34,27223,10121.00,0,0,3,4.06,-2.80,-1.33,0.25,0.91,0.34
13.4765625,0.032302793,0.006457966,0.0013869088,0.25,0.92,0.33,27245,10121.00,0,0,3,1.96,-3.64,-1.33,0.25,0.92,0.33
12.4765625,0.023302794,-0.0015420318,0.0033869091,0.23,0.94,0.32,27267,10120.00,0,0,3,1.33,-4.20,-1.19,0.23,0.94,0.32
11.4765625,0.036302794,0.0054579675,-0.0066130906,0.22,0.94,0.31,27290,10119.00,0,0,3,2.24,-3.71,-1.89,0.22,0.94,0.31
12.776367,0.043302793,0.019457966,-0.01661309,0.23,0.93,0.32,27305,10120.30,0,0,3,2.73,-2.73,-2.59,0.23,0.93,0.32
11.4765625,0.025302794,0.045457967,-0.013613092,0.23,0.92,0.32,27329,10119.00,0,0,3,1.47,-0.91,-2.38,0.23,0.92,0.32
11.4765625,0.008302793,0.06545797,-0.010613091,0.22,0.93,0.32,27349,10119.00,0,0,3,0.28,0.49,-2.17,0.22,0.93,0.32
11.4765625,-0.0016972064,0.07645796,-0.015613088,0.22,0.93,0.32,27372,10119.00,0,0,3,-0.42,1.26,-2.52,0.22,0.93,0.32
11.4765625,-0.012697208,0.08445796,-0.026613088,0.22,0.92,0.32,27395,10119.00,0,0,3,-1.19,1.82,-3.29,0.22,0.92,0.32
12.4765625,-0.020697206,0.09445797,-0.03161309,0.22,0.92,0.33,27402,10120.00,0,0,3,-1.75,2.52,-3.64,0.22,0.92,0.33
12.4765625,-0.042697206,0.10145797,-0.030613089,0.22,0.92,0.34,27424,10120.00,0,0,3,-3.29,3.01,-3.57,0.22,0.92,0.34
12.4765625,-0.054697208,0.099457964,-0.027613087,0.22,0.93,0.34,27447,10120.00,0,0,3,-4.13,2.87,-3.36,0.22,0.93,0.34
10.776367,-0.055697206,0.10345797,-0.022613091,0.21,0.92,0.33,27470,10118.30,0,0,3,-4.20,3.15,-3.01,0.21,0.92,0.33
11.4765625,-0.03869721,0.10545796,-0.013613092,0.21,0.91,0.33,27485,10119.00,0,0,3,-3.01,3.29,-2.38,0.21,0.91,0.33
11.776367,-0.02769721,0.09045797,0.0013869088,0.22,0.91,0.35,27500,10119.30,0,0,3,-2.24,2.24,-1.33,0.22,0.91,0.35
14.776367,-0.02769721,0.073457964,0.01838691,0.22,0.91,0.34,27522,10122.30,0,0,3,-2.24,1.05,-0.14,0.22,0.91,0.34
11.776367,-0.017697208,0.060457967,0.03038691,0.21,0.93,0.34,27545,10119.30,0,0,3,-1.54,0.14,0.70,0.21,0.93,0.34
11.076172,-0.011697208,0.05545797,0.03338691,0.2,0.94,0.33,27567,10118.60,0,0,3,-1.12,-0.21,0.91,0.20,0.94,0.33
11.776367,-0.002697207,0.051457968,0.02238691,0.19,0.94,0.34,27597,10119.30,0,0,3,-0.49,-0.49,0.14,0.19,0.94,0.34
11.776367,-0.0016972064,0.054457966,0.02238691,0.19,0.93,0.35,27604,10119.30,0,0,3,-0.42,-0.28,0.14,0.19,0.93,0.35
11.776367,-0.0046972064,0.063457966,0.02938691,0.2,0.92,0.35,27619,10119.30,0,0,3,-0.63,0.35,0.63,0.20,0.92,0.35
11.776367,-0.008697207,0.081457965,0.05638691,0.21,0.92,0.35,27635,10119.30,0,0,3,-0.91,1.61,2.52,0.21,0.92,0.35
11.776367,-0.0016972064,0.09845796,0.08738691,0.21,0.93,0.35,27658,10119.30,0,0,3,-0.42,2.80,4.69,0.21,0.93,0.35
11.076172,0.008302793,0.10445797,0.09738691,0.21,0.93,0.34,27680,10118.60,0,0,3,0.28,3.22,5.39,0.21,0.93,0.34
10.776367,0.028302792,0.10845797,0.10138691,0.22,0.93,0.33,27687,10118.30,0,0,3,1.68,3.50,5.67,0.22,0.93,0.33
10.776367,0.047302794,0.10245797,0.08338691,0.23,0.93,0.33,27717,10118.30,0,0,3,3.01,3.08,4.41,0.23,0.93,0.33
10.776367,0.06230279,0.10445797,0.07238691,0.23,0.93,0.34,27732,10118.30,0,0,3,4.06,3.22,3.64,0.23,0.93,0.34
10.376953,0.06330279,0.099457964,0.07538691,0.24,0.92,0.34,27754,10117.90,0,0,3,4.13,2.87,3.85,0.24,0.92,0.34
14.076172,0.053302795,0.09345797,0.09038691,0.24,0.92,0.34,27784,10121.60,0,0,3,3.43,2.45,4.90,0.24,0.92,0.34
7.676758,0.036302794,0.073457964,0.08338691,0.24,0.92,0.34,27793,10115.20,0,0,3,2.24,1.05,4.41,0.24,0.92,0.34
11.776367,0.023302794,0.056457967,0.06338691,0.24,0.92,0.34,27815,10119.30,0,0,3,1.33,-0.14,3.01,0.24,0.92,0.34
12.4765625,0.011302793,0.047457967,0.05038691,0.25,0.92,0.34,27837,10120.00,0,0,3,0.49,-0.77,2.10,0.25,0.92,0.34
11.076172,0.009302793,0.042457968,0.05338691,0.24,0.92,0.34,27860,10118.60,0,0,3,0.35,-1.12,2.31,0.24,0.92,0.34
12.076172,0.013302793,0.032457966,0.058386914,0.24,0.93,0.34,27875,10119.60,0,0,3,0.63,-1.82,2.66,0.24,0.93,0.34
12.4765625,0.021302793,0.030457966,0.05338691,0.23,0.93,0.35,27889,10120.00,0,0,3,1.19,-1.96,2.31,0.23,0.93,0.35
11.776367,0.032302793,0.031457968,0.04138691,0.23,0.93,0.35,27912,10119.30,0,0,3,1.96,-1.89,1.47,0.23,0.93,0.35
11.076172,0.04430279,0.038457967,0.02838691,0.23,0.93,0.35,27928,10118.60,0,0,3,2.80,-1.40,0.56,0.23,0.93,0.35
16.776367,0.047302794,0.04645797,0.02538691,0.23,0.93,0.34,27942,10124.30,0,0,3,3.01,-0.84,0.35,0.23,0.93,0.34
13.076172,0.05130279,0.053457968,0.01738691,0.22,0.93,0.34,27964,10120.60,0,0,3,3.29,-0.35,-0.21,0.22,0.93,0.34
15.176758,0.06330279,0.050457966,0.0033869091,0.23,0.93,0.33,27987,10122.70,78,0,3,4.13,-0.56,-1.19,0.23,0.93,0.33
15.176758,0.07730279,0.049457967,-0.0056130905,0.23,0.93,0.33,28002,10122.70,78,0,3,5.11,-0.63,-1.82,0.23,0.93,0.33
15.176758,0.07430279,0.044457965,-0.011613091,0.23,0.92,0.33,28032,10122.70,78,0,3,4.90,-0.98,-2.24,0.23,0.92,0.33
15.176758,0.072302796,0.037457965,-0.008613089,0.22,0.92,0.33,28047,10122.70,78,0,3,4.76,-1.47,-2.03,0.22,0.92,0.33
17.176758,0.0693028,0.033457965,-0.0046130903,0.22,0.93,0.32,28077,10124.70,78,0,3,4.55,-1.75,-1.75,0.22,0.93,0.32
16.176758,0.07530279,0.034457967,0.0063869096,0.22,0.93,0.32,28100,10123.70,78,0,3,4.97,-1.68,-0.98,0.22,0.93,0.32
17.176758,0.079302795,0.037457965,0.01238691,0.22,0.93,0.32,28107,10124.70,78,0,3,5.25,-1.47,-0.56,0.22,0.93,0.32
18.176758,0.082302794,0.044457965,-0.23461309,0.22,0.93,0.31,28122,10125.70,78,0,3,5.46,-0.98,-17.85,0.22,0.93,0.31
20.476562,0.079302795,0.044457965,0.02638691,0.22,0.94,0.31,28137,10128.00,78,0,3,5.25,-0.98,0.42,0.22,0.94,0.31
19.176758,0.07730279,0.04645797,0.02838691,0.22,0.93,0.31,28161,10126.70,78,0,3,5.11,-0.84,0.56,0.22,0.93,0.31
20.176758,0.06730279,0.05545797,0.02538691,0.21,0.93,0.31,28175,10127.70,78,0,3,4.41,-0.21,0.35,0.21,0.93,0.31
21.176758,0.060302794,0.05545797,0.02238691,0.22,0.92,0.3,28197,10128.70,78,0,3,3.92,-0.21,0.14,0.22,0.92,0.30
21.176758,0.050302792,0.056457967,0.03238691,0.23,0.92,0.3,28212,10128.70,78,0,3,3.22,-0.14,0.84,0.23,0.92,0.30
22.576172,0.042302795,0.048457965,0.04438691,0.23,0.92,0.3,28235,10130.10,78,0,3,2.66,-0.70,1.68,0.23,0.92,0.30
23.176758,0.027302794,0.041457966,0.03838691,0.23,0.93,0.3,28258,10130.70,78,0,3,1.61,-1.19,1.26,0.23,0.93,0.30
25.576172,0.011302793,0.039457966,0.03438691,0.23,0.92,0.31,28272,10133.10,78,0,3,0.49,-1.33,0.98,0.23,0.92,0.31
25.576172,-6.972067E-4,0.040457968,0.03238691,0.23,0.92,0.31,28295,10133.10,78,0,3,-0.35,-1.26,0.84,0.23,0.92,0.31
26.276367,-0.015697207,0.036457967,0.03838691,0.23,0.92,0.31,28325,10133.80,78,0,3,-1.40,-1.54,1.26,0.23,0.92,0.31
24.876953,-0.018697206,0.034457967,0.046386912,0.23,0.94,0.3,28339,10132.40,78,0,3,-1.61,-1.68,1.82,0.23,0.94,0.30
26.576172,-0.015697207,0.031457968,0.04338691,0.22,0.94,0.31,28354,10134.10,78,0,3,-1.40,-1.89,1.61,0.22,0.94,0.31
27.276367,-0.0066972068,0.031457968,0.03438691,0.22,0.94,0.32,28369,10134.80,78,0,3,-0.77,-1.89,0.98,0.22,0.94,0.32
25.576172,-0.0066972068,0.038457967,0.02938691,0.23,0.94,0.32,28385,10133.10,78,0,3,-0.77,-1.40,0.63,0.23,0.94,0.32
25.876953,0.0013027934,0.049457967,0.031386912,0.22,0.93,0.32,28408,10133.40,78,0,3,-0.21,-0.63,0.77,0.22,0.93,0.32
28.576172,0.003302793,0.05745797,0.031386912,0.22,0.93,0.32,28422,10136.10,78,0,3,-0.07,-0.07,0.77,0.22,0.93,0.32
26.576172,0.0063027935,0.07145797,0.039386913,0.22,0.93,0.33,28437,10134.10,78,0,3,0.14,0.91,1.33,0.22,0.93,0.33
26.276367,0.008302793,0.08345797,0.04538691,0.21,0.93,0.32,28464,10133.80,78,0,3,0.28,1.75,1.75,0.21,0.93,0.32
27.576172,0.013302793,0.099457964,0.04338691,0.22,0.93,0.32,28482,10135.10,78,0,3,0.63,2.87,1.61,0.22,0.93,0.32
26.576172,0.016302792,0.10445797,0.04138691,0.22,0.93,0.31,28513,10134.10,78,0,3,0.84,3.22,1.47,0.22,0.93,0.31
25.176758,0.018302795,0.10345797,0.039386913,0.23,0.93,0.31,28535,10132.70,78,0,3,0.98,3.15,1.33,0.23,0.93,0.31
28.576172,0.015302793,0.09845796,0.040386908,0.23,0.93,0.31,28547,10136.10,78,0,3,0.77,2.80,1.40,0.23,0.93,0.31
25.576172,0.0053027933,0.088457964,0.039386913,0.23,0.93,0.32,28565,10133.10,78,0,3,0.07,2.10,1.33,0.23,0.93,0.32
26.276367,3.02793E-4,0.081457965,0.04238691,0.22,0.93,0.31,28587,10133.80,78,0,3,-0.28,1.61,1.54,0.22,0.93,0.31
25.576172,0.003302793,0.07645796,0.03838691,0.22,0.94,0.32,28610,10133.10,78,0,3,-0.07,1.26,1.26,0.22,0.94,0.32
27.576172,0.003302793,0.07245797,0.03838691,0.22,0.93,0.31,28640,10135.10,78,0,3,-0.07,0.98,1.26,0.22,0.93,0.31
26.876953,0.002302793,0.06945796,0.04138691,0.23,0.93,0.32,28641,10134.40,78,0,3,-0.14,0.77,1.47,0.23,0.93,0.32
26.576172,0.002302793,0.070457965,0.05138691,0.23,0.93,0.32,28662,10134.10,78,0,3,-0.14,0.84,2.17,0.23,0.93,0.32
26.576172,0.0053027933,0.06745797,0.05938691,0.22,0.94,0.32,28677,10134.10,78,0,3,0.07,0.63,2.73,0.22,0.94,0.32
22.576172,-6.972067E-4,0.06545797,0.054386914,0.21,0.93,0.32,28699,10130.10,78,0,3,-0.35,0.49,2.38,0.21,0.93,0.32
27.576172,-0.009697207,0.06445797,0.040386908,0.21,0.94,0.32,28715,10135.10,78,0,3,-0.98,0.42,1.40,0.21,0.94,0.32
26.876953,-0.0066972068,0.07145797,0.031386912,0.22,0.93,0.32,28737,10134.40,78,0,3,-0.77,0.91,0.77,0.22,0.93,0.32
25.576172,0.002302793,0.074457966,0.03538691,0.22,0.93,0.32,28775,10133.10,78,0,3,-0.14,1.12,1.05,0.22,0.93,0.32
26.576172,0.0063027935,0.06945796,0.03738691,0.22,0.93,0.32,28776,10134.10,78,0,3,0.14,0.77,1.19,0.22,0.93,0.32
26.876953,0.004302793,0.06945796,0.03538691,0.22,0.93,0.33,28797,10134.40,78,0,3,0.00,0.77,1.05,0.22,0.93,0.33
26.576172,-0.002697207,0.066457964,0.03738691,0.22,0.92,0.32,28819,10134.10,78,0,3,-0.49,0.56,1.19,0.22,0.92,0.32
26.876953,-0.0056972066,0.063457966,0.04438691,0.22,0.93,0.32,28842,10134.40,78,0,3,-0.70,0.35,1.68,0.22,0.93,0.32
22.876953,-6.972067E-4,0.063457966,0.04438691,0.22,0.94,0.32,28864,10130.40,78,0,3,-0.35,0.35,1.68,0.22,0.94,0.32
32.676758,0.003302793,0.061457966,0.03838691,0.22,0.94,0.33,28880,10140.20,78,0,3,-0.07,0.21,1.26,0.22,0.94,0.33
28.576172,0.0013027934,0.063457966,0.02938691,0.22,0.93,0.33,28895,10136.10,78,0,3,-0.21,0.35,0.63,0.22,0.93,0.33
26.876953,-0.008697207,0.06445797,0.02138691,0.22,0.93,0.33,28917,10134.40,78,0,3,-0.91,0.42,0.07,0.22,0.93,0.33
24.876953,-0.0106972065,0.06445797,0.01638691,0.22,0.93,0.32,28932,10132.40,78,0,3,-1.05,0.42,-0.28,0.22,0.93,0.32
26.876953,-6.972067E-4,0.061457966,0.01238691,0.22,0.93,0.32,28955,10134.40,78,0,3,-0.35,0.21,-0.56,0.22,0.93,0.32
25.176758,0.004302793,0.05545797,0.01338691,0.22,0.93,0.32,28992,10132.70,78,0,3,0.00,-0.21,-0.49,0.22,0.93,0.32
28.876953,0.0053027933,0.051457968,0.02438691,0.22,0.93,0.33,28994,10136.40,78,0,3,0.07,-0.49,0.28,0.22,0.93,0.33
27.876953,0.0063027935,0.048457965,0.03238691,0.21,0.92,0.33,29015,10135.40,78,0,3,0.14,-0.70,0.84,0.21,0.92,0.33
27.276367,0.002302793,0.047457967,0.03738691,0.21,0.94,0.32,29037,10134.80,78,0,3,-0.14,-0.77,1.19,0.21,0.94,0.32
27.576172,0.010302793,0.044457965,0.03238691,0.21,0.94,0.32,29063,10135.10,78,0,3,0.42,-0.98,0.84,0.21,0.94,0.32
26.876953,0.015302793,0.045457967,0.03038691,0.22,0.93,0.33,29083,10134.40,78,0,3,0.77,-0.91,0.70,0.22,0.93,0.33
25.876953,0.014302793,0.048457965,0.03838691,0.22,0.92,0.33,29105,10133.40,78,0,3,0.70,-0.70,1.26,0.22,0.92,0.33
25.876953,0.012302794,0.04645797,0.04138691,0.22,0.93,0.33,29120,10133.40,78,0,3,0.56,-0.84,1.47,0.22,0.93,0.33
26.876953,0.010302793,0.043457966,0.04938691,0.22,0.93,0.32,29143,10134.40,78,0,3,0.42,-1.05,2.03,0.22,0.93,0.32
29.576172,0.014302793,0.037457965,0.04938691,0.22,0.93,0.32,29149,10137.10,78,0,3,0.70,-1.47,2.03,0.22,0.93,0.32
26.276367,0.025302794,0.034457967,0.05538691,0.21,0.94,0.31,29172,10133.80,78,0,3,1.47,-1.68,2.45,0.21,0.94,0.31
25.876953,0.035302795,0.029457968,0.05938691,0.22,0.94,0.32,29186,10133.40,78,0,3,2.17,-2.03,2.73,0.22,0.94,0.32
25.876953,0.031302795,0.028457968,0.05038691,0.21,0.93,0.33,29210,10133.40,78,0,3,1.89,-2.10,2.10,0.21,0.93,0.33
24.876953,0.013302793,0.029457968,0.04238691,0.22,0.92,0.32,29225,10132.40,78,0,3,0.63,-2.03,1.54,0.22,0.92,0.32
25.876953,0.002302793,0.031457968,0.046386912,0.23,0.93,0.31,29247,10133.40,78,0,3,-0.14,-1.89,1.82,0.23,0.93,0.31
24.876953,-0.002697207,0.019457966,0.046386912,0.23,0.93,0.31,29268,10132.40,78,0,3,-0.49,-2.73,1.82,0.23,0.93,0.31
24.176758,-0.021697208,-0.022542033,0.02838691,0.24,0.92,0.31,29293,10131.70,78,0,3,-1.82,-5.67,0.56,0.24,0.92,0.31
25.576172,-0.05769721,-0.07654202,0.0033869091,0.25,0.92,0.3,29314,10133.10,78,0,3,-4.34,-9.45,-1.19,0.25,0.92,0.30
23.876953,-0.09669721,-0.14554203,-0.020613087,0.27,0.91,0.3,29337,10131.40,78,0,3,-7.07,-14.28,-2.87,0.27,0.91,0.30
25.176758,-0.1486972,-0.244542,-0.044613093,0.27,0.91,0.29,29367,10132.70,78,0,3,-10.71,-21.21,-4.55,0.27,0.91,0.29
20.476562,-0.17869721,-0.32154202,-0.056613088,0.27,0.91,0.29,29375,10128.00,78,0,3,-12.81,-26.60,-5.39,0.27,0.91,0.29
22.176758,-0.2026972,-0.39354202,-0.06361309,0.27,0.92,0.28,29390,10129.70,78,0,3,-14.49,-31.64,-5.88,0.27,0.92,0.28
21.176758,-0.2146972,-0.46254206,-0.08261309,0.26,0.93,0.3,29412,10128.70,78,0,3,-15.33,-36.47,-7.21,0.26,0.93,0.30
17.176758,-0.2206972,-0.51054204,-0.092613086,0.25,0.93,0.31,29419,10124.70,78,0,3,-15.75,-39.83,-7.91,0.25,0.93,0.31
19.176758,-0.2166972,-0.540542,-0.09461309,0.25,0.93,0.32,29434,10126.70,78,0,3,-15.47,-41.93,-8.05,0.25,0.93,0.32
19.176758,-0.2146972,-0.5485421,-0.08561309,0.24,0.92,0.34,29479,10126.70,78,0,3,-15.33,-42.49,-7.42,0.24,0.92,0.34
18.176758,-0.1986972,-0.52354205,-0.06661309,0.22,0.93,0.34,29481,10125.70,78,0,3,-14.21,-40.74,-6.09,0.22,0.93,0.34
17.476562,-0.16969721,-0.47854203,-0.07161309,0.2,0.94,0.35,29502,10125.00,78,0,3,-12.18,-37.59,-6.44,0.20,0.94,0.35
17.176758,-0.1406972,-0.42454204,-0.07861309,0.2,0.94,0.36,29532,10124.70,78,0,3,-10.15,-33.81,-6.93,0.20,0.94,0.36
18.176758,-0.11369721,-0.34954202,-0.07261309,0.21,0.93,0.37,29547,10125.70,78,0,3,-8.26,-28.56,-6.51,0.21,0.93,0.37
16.176758,-0.09369721,-0.269542,-0.048613086,0.21,0.92,0.36,29570,10123.70,78,0,3,-6.86,-22.96,-4.83,0.21,0.92,0.36
16.476562,-0.075697206,-0.20754203,-0.028613092,0.22,0.92,0.35,29599,10124.00,78,0,3,-5.60,-18.62,-3.43,0.22,0.92,0.35
16.476562,-0.06269721,-0.16954203,-0.01461309,0.22,0.92,0.35,29607,10124.00,78,0,3,-4.69,-15.96,-2.45,0.22,0.92,0.35
16.476562,-0.05869721,-0.14054203,-0.00261309,0.22,0.92,0.35,29630,10124.00,78,0,3,-4.41,-13.93,-1.61,0.22,0.92,0.35
16.476562,-0.046697207,-0.10954203,0.01138691,0.22,0.92,0.35,29659,10124.00,78,0,3,-3.57,-11.76,-0.63,0.22,0.92,0.35
16.476562,-0.028697208,-0.07654202,0.02638691,0.22,0.92,0.35,29667,10124.00,78,0,3,-2.31,-9.45,0.42,0.22,0.92,0.35
16.476562,-0.022697207,-0.048542026,0.03738691,0.22,0.92,0.34,29675,10124.00,78,0,3,-1.89,-7.49,1.19,0.22,0.92,0.34
15.4765625,-0.023697209,-0.03554203,0.03638691,0.23,0.92,0.34,29690,10123.00,78,0,3,-1.96,-6.58,1.12,0.23,0.92,0.34
18.476562,-0.037697207,-0.018542033,0.04338691,0.23,0.91,0.35,29712,10126.00,80,0,3,-2.94,-5.39,1.61,0.23,0.91,0.35
17.476562,-0.046697207,-0.008542035,0.05138691,0.24,0.92,0.34,29734,10125.00,80,0,3,-3.57,-4.69,2.17,0.24,0.92,0.34
16.176758,-0.050697207,-0.025542032,0.05138691,0.25,0.92,0.33,29757,10123.70,80,0,3,-3.85,-5.88,2.17,0.25,0.92,0.33
15.4765625,-0.050697207,-0.06154203,0.04438691,0.26,0.92,0.32,29779,10123.00,80,0,3,-3.85,-8.40,1.68,0.26,0.92,0.32
16.476562,-0.05169721,-0.09054203,0.04438691,0.25,0.91,0.33,29802,10124.00,80,0,3,-3.92,-10.43,1.68,0.25,0.91,0.33
15.4765625,-0.061697207,-0.12154204,0.04838691,0.25,0.91,0.34,29832,10123.00,80,0,3,-4.62,-12.60,1.96,0.25,0.91,0.34
16.476562,-0.07169721,-0.13854203,0.05238691,0.25,0.91,0.34,29848,10124.00,80,0,3,-5.32,-13.79,2.24,0.25,0.91,0.34
17.476562,-0.064697206,-0.13554204,0.05938691,0.24,0.92,0.34,29869,10125.00,80,0,3,-4.83,-13.58,2.73,0.24,0.92,0.34
16.476562,-0.05869721,-0.13654202,0.05238691,0.24,0.92,0.34,29884,10124.00,80,0,3,-4.41,-13.65,2.24,0.24,0.92,0.34
16.476562,-0.05769721,-0.12954202,0.04438691,0.24,0.92,0.35,29899,10124.00,80,0,3,-4.34,-13.16,1.68,0.24,0.92,0.35
17.476562,-0.05769721,-0.12254202,0.03338691,0.24,0.92,0.35,29914,10125.00,80,0,3,-4.34,-12.67,0.91,0.24,0.92,0.35
19.776367,-0.05769721,-0.10954203,0.02138691,0.24,0.93,0.35,29930,10127.30,80,0,3,-4.34,-11.76,0.07,0.24,0.93,0.35
17.476562,-0.04069721,-0.08254203,0.02438691,0.24,0.93,0.35,29952,10125.00,80,0,3,-3.15,-9.87,0.28,0.24,0.93,0.35
17.776367,-0.020697206,-0.04754203,0.02038691,0.23,0.93,0.35,29974,10125.30,80,0,3,-1.75,-7.42,0.00,0.23,0.93,0.35
18.776367,3.02793E-4,0.009457964,0.01838691,0.22,0.93,0.37,29997,10126.30,80,0,3,-0.28,-3.43,-0.14,0.22,0.93,0.37
20.876953,0.027302794,0.07545797,0.01938691,0.22,0.93,0.37,30028,10128.40,80,0,3,1.61,1.19,-0.07,0.22,0.93,0.37
19.176758,0.04530279,0.14645797,0.02538691,0.22,0.92,0.37,30035,10126.70,80,0,3,2.87,6.16,0.35,0.22,0.92,0.37
19.476562,0.058302794,0.20245796,0.031386912,0.22,0.92,0.36,30057,10127.00,80,0,3,3.78,10.08,0.77,0.22,0.92,0.36
19.176758,0.072302796,0.24045797,0.03038691,0.23,0.93,0.35,30079,10126.70,80,0,3,4.76,12.74,0.70,0.23,0.93,0.35
19.776367,0.0803028,0.26645797,0.02638691,0.23,0.93,0.35,30102,10127.30,80,0,3,5.32,14.56,0.42,0.23,0.93,0.35
21.876953,0.08930279,0.28245798,0.01738691,0.23,0.93,0.34,30117,10129.40,80,0,3,5.95,15.68,-0.21,0.23,0.93,0.34
20.876953,0.10330279,0.29845795,0.02238691,0.24,0.93,0.34,30139,10128.40,80,0,3,6.93,16.80,0.14,0.24,0.93,0.34
22.876953,0.12230279,0.30845797,0.027386911,0.23,0.93,0.34,30154,10130.40,80,0,3,8.26,17.50,0.49,0.23,0.93,0.34
21.876953,0.1313028,0.31745794,0.02938691,0.23,0.93,0.34,30169,10129.40,80,0,3,8.89,18.13,0.63,0.23,0.93,0.34
22.876953,0.13930279,0.32145798,0.03038691,0.22,0.93,0.34,30184,10130.40,80,0,3,9.45,18.41,0.70,0.22,0.93,0.34
17.776367,0.1383028,0.32345796,0.02538691,0.23,0.92,0.34,30207,10125.30,80,0,3,9.38,18.55,0.35,0.23,0.92,0.34
23.576172,0.1403028,0.33145797,0.03438691,0.23,0.92,0.34,30237,10131.10,80,0,3,9.52,19.11,0.98,0.23,0.92,0.34
24.576172,0.14130281,0.33445796,0.05138691,0.23,0.92,0.33,30252,10132.10,80,0,3,9.59,19.32,2.17,0.23,0.92,0.33
24.876953,0.1483028,0.33145797,0.06338691,0.23,0.91,0.34,30274,10132.40,80,0,3,10.08,19.11,3.01,0.23,0.91,0.34
27.876953,0.1433028,0.31745794,0.07238691,0.23,0.91,0.33,30297,10135.40,80,0,3,9.73,18.13,3.64,0.23,0.91,0.33
26.876953,0.12130278,0.29745796,0.06438691,0.23,0.91,0.33,30319,10134.40,80,0,3,8.19,16.73,3.08,0.23,0.91,0.33
29.576172,0.10330279,0.27245796,0.06638691,0.24,0.92,0.32,30343,10137.10,80,0,3,6.93,14.98,3.22,0.24,0.92,0.32
27.876953,0.08830279,0.24245797,0.06538691,0.24,0.92,0.32,30364,10135.40,80,0,3,5.88,12.88,3.15,0.24,0.92,0.32
28.276367,0.07430279,0.21345797,0.062386908,0.24,0.92,0.32,30372,10135.80,80,0,3,4.90,10.85,2.94,0.24,0.92,0.32
30.276367,0.060302794,0.19245797,0.06538691,0.24,0.92,0.32,30402,10137.80,80,0,3,3.92,9.38,3.15,0.24,0.92,0.32
28.276367,0.05230279,0.17045797,0.07138691,0.23,0.93,0.32,30411,10135.80,80,0,3,3.36,7.84,3.57,0.23,0.93,0.32
29.876953,0.047302794,0.15445796,0.069386914,0.23,0.93,0.32,30425,10137.40,80,0,3,3.01,6.72,3.43,0.23,0.93,0.32
30.276367,0.049302794,0.14445797,0.05938691,0.23,0.93,0.32,30439,10137.80,80,0,3,3.15,6.02,2.73,0.23,0.93,0.32
30.276367,0.05130279,0.12945797,0.05238691,0.23,0.93,0.32,30469,10137.80,80,0,3,3.29,4.97,2.24,0.23,0.93,0.32
30.276367,0.042302795,0.11945797,0.04238691,0.22,0.93,0.32,30484,10137.80,80,0,3,2.66,4.27,1.54,0.22,0.93,0.32
31.276367,0.04030279,0.11745797,0.04238691,0.22,0.93,0.32,30507,10138.80,80,0,3,2.52,4.13,1.54,0.22,0.93,0.32
30.276367,0.04530279,0.10845797,0.03538691,0.22,0.93,0.32,30537,10137.80,85,0,3,2.87,3.50,1.05,0.22,0.93,0.32
31.276367,0.04630279,0.09645797,0.03238691,0.22,0.93,0.32,30545,10138.80,85,0,3,2.94,2.66,0.84,0.22,0.93,0.32
31.576172,0.038302794,0.092457965,0.02538691,0.22,0.93,0.32,30581,10139.10,85,0,3,2.38,2.38,0.35,0.22,0.93,0.32
31.576172,0.037302792,0.088457964,0.02438691,0.22,0.93,0.33,30597,10139.10,85,0,3,2.31,2.10,0.28,0.22,0.93,0.33
32.276367,0.039302792,0.08445796,0.031386912,0.22,0.93,0.32,30613,10139.80,85,0,3,2.45,1.82,0.77,0.22,0.93,0.32
32.276367,0.04630279,0.08045797,0.03738691,0.22,0.92,0.32,30627,10139.80,85,0,3,2.94,1.54,1.19,0.22,0.92,0.32
32.276367,0.04530279,0.07845797,0.05038691,0.22,0.93,0.32,30642,10139.80,85,0,3,2.87,1.40,2.10,0.22,0.93,0.32
34.276367,0.04630279,0.07145797,0.062386908,0.22,0.94,0.32,30658,10141.80,85,0,3,2.94,0.91,2.94,0.22,0.94,0.32
31.276367,0.04530279,0.06845797,0.061386906,0.21,0.93,0.32,30679,10138.80,85,0,3,2.87,0.70,2.87,0.21,0.93,0.32
32.57617,0.037302792,0.06545797,0.05038691,0.22,0.93,0.32,30695,10140.10,85,0,3,2.31,0.49,2.10,0.22,0.93,0.32
33.57617,0.030302793,0.06945796,0.04938691,0.22,0.93,0.32,30717,10141.10,85,0,3,1.82,0.77,2.03,0.22,0.93,0.32
30.576172,0.032302793,0.074457966,0.04938691,0.22,0.93,0.32,30739,10138.10,85,0,3,1.96,1.12,2.03,0.22,0.93,0.32
32.976562,0.042302795,0.07145797,0.058386914,0.22,0.94,0.31,30762,10140.50,85,0,3,2.66,0.91,2.66,0.22,0.94,0.31
32.276367,0.04630279,0.06845797,0.05038691,0.22,0.93,0.31,30777,10139.80,85,0,3,2.94,0.70,2.10,0.22,0.93,0.31
35.676758,0.04430279,0.06845797,0.040386908,0.23,0.93,0.31,30799,10143.20,85,0,3,2.80,0.70,1.40,0.23,0.93,0.31
32.276367,0.038302794,0.06945796,0.03438691,0.23,0.93,0.31,30822,10139.80,85,0,3,2.38,0.77,0.98,0.23,0.93,0.31
33.976562,0.031302795,0.070457965,0.04138691,0.23,0.93,0.31,30845,10141.50,85,0,3,1.89,0.84,1.47,0.23,0.93,0.31
26.576172,0.031302795,0.07645796,0.04438691,0.22,0.93,0.31,30867,10134.10,85,0,3,1.89,1.26,1.68,0.22,0.93,0.31
32.57617,0.029302794,0.08345797,0.03838691,0.22,0.93,0.31,30882,10140.10,85,0,3,1.75,1.75,1.26,0.22,0.93,0.31
31.576172,0.026302792,0.08645797,0.03638691,0.22,0.93,0.32,30898,10139.10,85,0,3,1.54,1.96,1.12,0.22,0.93,0.32
29.876953,0.018302795,0.09345797,0.02838691,0.23,0.93,0.31,30912,10137.40,85,0,3,0.98,2.45,0.56,0.23,0.93,0.31
30.576172,0.008302793,0.09445797,0.02538691,0.23,0.93,0.31,30928,10138.10,85,0,3,0.28,2.52,0.35,0.23,0.93,0.31
31.976562,0.0013027934,0.08745797,0.02538691,0.23,0.93,0.31,30949,10139.50,85,0,3,-0.21,2.03,0.35,0.23,0.93,0.31
36.976562,-0.0056972066,0.081457965,0.02838691,0.22,0.93,0.31,30972,10144.50,85,0,3,-0.70,1.61,0.56,0.22,0.93,0.31
31.576172,-0.0016972064,0.074457966,0.031386912,0.22,0.94,0.31,30987,10139.10,85,0,3,-0.42,1.12,0.77,0.22,0.94,0.31
31.576172,0.0013027934,0.074457966,0.031386912,0.22,0.93,0.31,31011,10139.10,85,0,3,-0.21,1.12,0.77,0.22,0.93,0.31
31.976562,-0.002697207,0.074457966,0.031386912,0.21,0.93,0.32,31047,10139.50,85,0,3,-0.49,1.12,0.77,0.21,0.93,0.32
30.976562,-0.013697206,0.073457964,0.02638691,0.21,0.93,0.31,31054,10138.50,85,0,3,-1.26,1.05,0.42,0.21,0.93,0.31
30.976562,-0.011697208,0.06445797,0.00938691,0.21,0.94,0.31,31077,10138.50,85,0,3,-1.12,0.42,-0.77,0.21,0.94,0.31
30.576172,-0.0036972072,0.061457966,3.869105E-4,0.22,0.94,0.31,31100,10138.10,85,0,3,-0.56,0.21,-1.40,0.22,0.94,0.31
32.276367,0.0063027935,0.056457967,-0.00261309,0.22,0.94,0.31,31114,10139.80,85,0,3,0.14,-0.14,-1.61,0.22,0.94,0.31
30.576172,0.009302793,0.054457966,0.0033869091,0.22,0.94,0.31,31130,10138.10,85,0,3,0.35,-0.28,-1.19,0.22,0.94,0.31
32.276367,0.014302793,0.051457968,0.0063869096,0.21,0.95,0.31,31145,10139.80,85,0,3,0.70,-0.49,-0.98,0.21,0.95,0.31
28.876953,0.018302795,0.050457966,0.0053869104,0.2,0.95,0.31,31160,10136.40,85,0,3,0.98,-0.56,-1.05,0.20,0.95,0.31
30.976562,0.020302795,0.048457965,-0.009613089,0.2,0.94,0.31,31174,10138.50,85,0,3,1.12,-0.70,-2.10,0.20,0.94,0.31
30.576172,0.011302793,0.05545797,-0.019613089,0.2,0.93,0.32,31197,10138.10,85,0,3,0.49,-0.21,-2.80,0.20,0.93,0.32
31.276367,0.011302793,0.063457966,-0.015613088,0.2,0.93,0.31,31212,10138.80,85,0,3,0.49,0.35,-2.52,0.20,0.93,0.31
32.276367,0.013302793,0.06745797,0.0013869088,0.2,0.93,0.31,31235,10139.80,85,0,3,0.63,0.63,-1.33,0.20,0.93,0.31
31.276367,0.012302794,0.06745797,0.01938691,0.2,0.94,0.31,31257,10138.80,85,0,3,0.56,0.63,-0.07,0.20,0.94,0.31
30.576172,0.014302793,0.06545797,0.027386911,0.2,0.94,0.31,31280,10138.10,85,0,3,0.70,0.49,0.49,0.20,0.94,0.31
30.976562,0.015302793,0.06545797,0.02938691,0.2,0.93,0.31,31309,10138.50,85,0,3,0.77,0.49,0.63,0.20,0.93,0.31
29.876953,0.013302793,0.06745797,0.03438691,0.21,0.94,0.32,31324,10137.40,85,0,3,0.63,0.63,0.98,0.21,0.94,0.32
30.976562,0.009302793,0.070457965,0.03738691,0.2,0.94,0.31,31348,10138.50,85,0,3,0.35,0.84,1.19,0.20,0.94,0.31
30.976562,0.008302793,0.060457967,0.03438691,0.2,0.94,0.32,31362,10138.50,85,0,3,0.28,0.14,0.98,0.20,0.94,0.32
30.976562,0.009302793,0.05745797,0.02638691,0.2,0.94,0.31,31379,10138.50,85,0,3,0.35,-0.07,0.42,0.20,0.94,0.31
28.876953,0.0063027935,0.052457966,0.02338691,0.2,0.94,0.31,31391,10136.40,85,0,3,0.14,-0.42,0.21,0.20,0.94,0.31
32.276367,0.0053027933,0.053457968,0.02938691,0.21,0.93,0.31,31407,10139.80,85,0,3,0.07,-0.35,0.63,0.21,0.93,0.31
30.276367,0.0053027933,0.048457965,0.03038691,0.21,0.93,0.31,31430,10137.80,85,0,3,0.07,-0.70,0.70,0.21,0.93,0.31
29.276367,0.004302793,0.045457967,0.03438691,0.2,0.93,0.31,31444,10136.80,85,0,3,0.00,-0.91,0.98,0.20,0.93,0.31
30.276367,0.0063027935,0.043457966,0.03438691,0.2,0.93,0.32,31474,10137.80,85,0,3,0.14,-1.05,0.98,0.20,0.93,0.32
30.276367,0.004302793,0.040457968,0.03438691,0.21,0.93,0.32,31497,10137.80,85,0,3,0.00,-1.26,0.98,0.21,0.93,0.32
28.276367,0.008302793,0.041457966,0.03838691,0.2,0.93,0.32,31504,10135.80,85,0,3,0.28,-1.19,1.26,0.20,0.93,0.32
28.876953,0.003302793,0.042457968,0.03838691,0.2,0.93,0.31,31527,10136.40,85,0,3,-0.07,-1.12,1.26,0.20,0.93,0.31
28.276367,0.0073027927,0.042457968,0.03738691,0.2,0.94,0.31,31549,10135.80,85,0,3,0.21,-1.12,1.19,0.20,0.94,0.31
27.176758,0.008302793,0.040457968,0.03238691,0.21,0.94,0.32,31572,10134.70,85,0,3,0.28,-1.26,0.84,0.21,0.94,0.32
28.276367,0.012302794,0.039457966,0.027386911,0.2,0.94,0.32,31594,10135.80,85,0,3,0.56,-1.33,0.49,0.20,0.94,0.32
28.576172,0.014302793,0.038457967,0.031386912,0.21,0.93,0.32,31610,10136.10,85,0,3,0.70,-1.40,0.77,0.21,0.93,0.32
26.876953,0.014302793,0.042457968,0.046386912,0.21,0.94,0.32,31625,10134.40,85,0,3,0.70,-1.12,1.82,0.21,0.94,0.32
30.576172,0.013302793,0.038457967,0.054386914,0.2,0.94,0.31,31639,10138.10,85,0,3,0.63,-1.40,2.38,0.20,0.94,0.31
26.176758,0.015302793,0.037457965,0.04538691,0.19,0.94,0.31,31662,10133.70,85,0,3,0.77,-1.47,1.75,0.19,0.94,0.31
26.576172,0.015302793,0.033457965,0.02938691,0.2,0.94,0.31,31677,10134.10,85,0,3,0.77,-1.75,0.63,0.20,0.94,0.31
24.176758,0.014302793,0.038457967,0.01238691,0.2,0.94,0.31,31699,10131.70,85,0,3,0.70,-1.40,-0.56,0.20,0.94,0.31
24.176758,0.013302793,0.04645797,0.01638691,0.21,0.93,0.31,31714,10131.70,85,0,3,0.63,-0.84,-0.28,0.21,0.93,0.31
24.576172,0.016302792,0.042457968,0.03438691,0.21,0.93,0.32,31729,10132.10,85,0,3,0.84,-1.12,0.98,0.21,0.93,0.32
23.176758,0.014302793,0.034457967,0.04438691,0.2,0.94,0.31,31752,10130.70,85,0,3,0.70,-1.68,1.68,0.20,0.94,0.31
24.576172,0.018302795,0.033457965,0.03638691,0.2,0.94,0.31,31774,10132.10,85,0,3,0.98,-1.75,1.12,0.20,0.94,0.31
20.476562,0.020302795,0.044457965,0.02538691,0.21,0.94,0.31,31797,10128.00,85,0,3,1.12,-0.98,0.35,0.21,0.94,0.31
21.176758,0.017302793,0.051457968,0.027386911,0.21,0.94,0.31,31826,10128.70,85,0,3,0.91,-0.49,0.49,0.21,0.94,0.31
24.176758,0.008302793,0.05545797,0.02338691,0.2,0.93,0.31,31842,10131.70,85,0,3,0.28,-0.21,0.21,0.20,0.93,0.31
20.476562,-0.0016972064,0.051457968,0.02338691,0.2,0.94,0.31,31864,10128.00,85,0,3,-0.42,-0.49,0.21,0.20,0.94,0.31
22.476562,3.02793E-4,0.048457965,0.02238691,0.2,0.94,0.3,31879,10130.00,85,0,3,-0.28,-0.70,0.14,0.20,0.94,0.30
22.876953,0.0053027933,0.043457966,0.01938691,0.21,0.94,0.3,31895,10130.40,85,0,3,0.07,-1.05,-0.07,0.21,0.94,0.30
20.476562,0.012302794,0.041457966,0.02238691,0.2,0.94,0.31,31924,10128.00,85,0,3,0.56,-1.19,0.14,0.20,0.94,0.31
23.476562,0.012302794,0.037457965,0.02238691,0.2,0.94,0.31,31925,10131.00,85,0,3,0.56,-1.47,0.14,0.20,0.94,0.31
21.476562,0.010302793,0.03545797,0.02038691,0.2,0.94,0.31,31947,10129.00,85,0,3,0.42,-1.61,0.00,0.20,0.94,0.31
22.876953,0.015302793,0.031457968,0.02438691,0.2,0.94,0.31,31962,10130.40,85,0,3,0.77,-1.89,0.28,0.20,0.94,0.31
22.476562,0.016302792,0.032457966,0.02938691,0.2,0.94,0.31,31985,10130.00,85,0,3,0.84,-1.82,0.63,0.20,0.94,0.31
23.876953,0.023302794,0.03545797,0.02138691,0.19,0.94,0.31,32007,10131.40,85,0,3,1.33,-1.61,0.07,0.19,0.94,0.31
23.176758,0.020302795,0.041457966,0.02038691,0.2,0.94,0.31,32029,10130.70,85,0,3,1.12,-1.19,0.00,0.20,0.94,0.31
22.476562,0.014302793,0.048457965,0.02038691,0.2,0.93,0.31,32052,10130.00,85,0,3,0.70,-0.70,0.00,0.20,0.93,0.31
23.876953,0.009302793,0.045457967,0.01838691,0.2,0.94,0.3,32074,10131.40,85,0,3,0.35,-0.91,-0.14,0.20,0.94,0.30
24.876953,0.016302792,0.037457965,0.01638691,0.2,0.94,0.3,32097,10132.40,85,0,3,0.84,-1.47,-0.28,0.20,0.94,0.30
23.876953,0.023302794,0.037457965,0.02838691,0.2,0.94,0.3,32112,10131.40,85,0,3,1.33,-1.47,0.56,0.20,0.94,0.30
22.876953,0.024302792,0.033457965,0.03838691,0.2,0.95,0.3,32134,10130.40,85,0,3,1.40,-1.75,1.26,0.20,0.95,0.30
19.776367,0.021302793,0.031457968,0.03838691,0.19,0.94,0.3,32150,10127.30,85,0,3,1.19,-1.89,1.26,0.19,0.94,0.30
23.876953,0.014302793,0.026457965,0.02938691,0.19,0.94,0.31,32158,10131.40,85,0,3,0.70,-2.24,0.63,0.19,0.94,0.31
23.876953,0.0053027933,0.032457966,0.027386911,0.2,0.94,0.31,32180,10131.40,85,0,3,0.07,-1.82,0.49,0.20,0.94,0.31
21.876953,0.004302793,0.042457968,0.03738691,0.2,0.94,0.3,32195,10129.40,85,0,3,0.00,-1.12,1.19,0.20,0.94,0.30
23.876953,0.0053027933,0.045457967,0.04338691,0.2,0.94,0.3,32225,10131.40,85,0,3,0.07,-0.91,1.61,0.20,0.94,0.30
22.876953,0.0063027935,0.04645797,0.04138691,0.19,0.94,0.3,32239,10130.40,85,0,3,0.14,-0.84,1.47,0.19,0.94,0.30
23.876953,0.0053027933,0.04645797,0.040386908,0.2,0.94,0.3,32263,10131.40,85,0,3,0.07,-0.84,1.40,0.20,0.94,0.30
24.476562,0.0063027935,0.045457967,0.04138691,0.2,0.94,0.3,32284,10132.00,85,0,3,0.14,-0.91,1.47,0.20,0.94,0.30
23.176758,0.014302793,0.042457968,0.046386912,0.2,0.95,0.3,32307,10130.70,85,0,3,0.70,-1.12,1.82,0.20,0.95,0.30
23.176758,0.015302793,0.041457966,0.04138691,0.19,0.94,0.31,32324,10130.70,85,0,3,0.77,-1.19,1.47,0.19,0.94,0.31
24.176758,0.008302793,0.044457965,0.03238691,0.19,0.94,0.3,32344,10131.70,85,0,3,0.28,-0.98,0.84,0.19,0.94,0.30
22.876953,0.008302793,0.047457967,0.027386911,0.2,0.95,0.3,32367,10130.40,85,0,3,0.28,-0.77,0.49,0.20,0.95,0.30
23.176758,0.014302793,0.049457967,0.02638691,0.2,0.94,0.3,32374,10130.70,85,0,3,0.70,-0.63,0.42,0.20,0.94,0.30
25.176758,0.022302791,0.052457966,0.03038691,0.2,0.95,0.3,32397,10132.70,85,0,3,1.26,-0.42,0.70,0.20,0.95,0.30
22.176758,0.024302792,0.050457966,0.02438691,0.2,0.94,0.3,32419,10129.70,85,0,3,1.40,-0.56,0.28,0.20,0.94,0.30
22.176758,0.024302792,0.053457968,0.02138691,0.2,0.94,0.31,32427,10129.70,85,0,3,1.40,-0.35,0.07,0.20,0.94,0.31
19.176758,0.018302795,0.048457965,0.02238691,0.2,0.94,0.3,32450,10126.70,85,0,3,0.98,-0.70,0.14,0.20,0.94,0.30
22.476562,0.017302793,0.045457967,0.03038691,0.2,0.94,0.3,32456,10130.00,85,0,3,0.91,-0.91,0.70,0.20,0.94,0.30
22.176758,0.017302793,0.044457965,0.03438691,0.2,0.94,0.31,32480,10129.70,85,0,3,0.91,-0.98,0.98,0.20,0.94,0.31
16.076172,0.017302793,0.048457965,0.039386913,0.2,0.94,0.31,32495,10123.60,85,0,3,0.91,-0.70,1.33,0.20,0.94,0.31
20.476562,0.013302793,0.052457966,0.03738691,0.2,0.94,0.31,32510,10128.00,85,0,3,0.63,-0.42,1.19,0.20,0.94,0.31
20.476562,0.010302793,0.056457967,0.03538691,0.2,0.94,0.31,32525,10128.00,85,0,3,0.42,-0.14,1.05,0.20,0.94,0.31
19.176758,0.009302793,0.061457966,0.039386913,0.2,0.94,0.31,32539,10126.70,85,0,3,0.35,0.21,1.33,0.20,0.94,0.31
19.176758,0.0063027935,0.059457965,0.03638691,0.2,0.94,0.31,32554,10126.70,85,0,3,0.14,0.07,1.12,0.20,0.94,0.31
22.176758,0.012302794,0.060457967,0.040386908,0.2,0.94,0.3,32569,10129.70,85,0,3,0.56,0.14,1.40,0.20,0.94,0.30
20.476562,0.024302792,0.05745797,0.04138691,0.2,0.95,0.3,32599,10128.00,85,0,3,1.40,-0.07,1.47,0.20,0.95,0.30
19.176758,0.031302795,0.058457967,0.04838691,0.2,0.95,0.3,32607,10126.70,85,0,3,1.89,0.00,1.96,0.20,0.95,0.30
20.476562,0.037302792,0.05745797,0.04538691,0.19,0.95,0.3,32622,10128.00,85,0,3,2.31,-0.07,1.75,0.19,0.95,0.30
20.776367,0.036302794,0.05545797,0.03738691,0.19,0.94,0.31,32637,10128.30,85,0,3,2.24,-0.21,1.19,0.19,0.94,0.31
18.476562,0.022302791,0.059457965,0.03538691,0.2,0.93,0.31,32666,10126.00,85,0,3,1.26,0.07,1.05,0.20,0.93,0.31
20.476562,0.019302793,0.06545797,0.03738691,0.2,0.94,0.3,32667,10128.00,85,0,3,1.05,0.49,1.19,0.20,0.94,0.30
20.176758,0.024302792,0.06745797,0.04238691,0.2,0.95,0.29,32689,10127.70,85,0,3,1.40,0.63,1.54,0.20,0.95,0.29
23.476562,0.038302794,0.066457964,0.04338691,0.2,0.95,0.3,32704,10131.00,85,0,3,2.38,0.56,1.61,0.20,0.95,0.30
22.476562,0.04430279,0.063457966,0.039386913,0.2,0.94,0.29,32727,10130.00,85,0,3,2.80,0.35,1.33,0.20,0.94,0.29
22.876953,0.041302793,0.066457964,0.02838691,0.2,0.94,0.3,32735,10130.40,85,0,3,2.59,0.56,0.56,0.20,0.94,0.30
23.876953,0.036302794,0.06745797,0.02638691,0.2,0.94,0.3,32749,10131.40,85,0,3,2.24,0.63,0.42,0.20,0.94,0.30
24.476562,0.029302794,0.066457964,0.02238691,0.2,0.94,0.29,32765,10132.00,85,0,3,1.75,0.56,0.14,0.20,0.94,0.29
26.576172,0.030302793,0.063457966,0.02238691,0.2,0.95,0.28,32781,10134.10,85,0,3,1.82,0.35,0.14,0.20,0.95,0.28
25.576172,0.038302794,0.059457965,0.01938691,0.2,0.96,0.28,32802,10133.10,85,0,3,2.38,0.07,-0.07,0.20,0.96,0.28
26.576172,0.043302793,0.056457967,0.00938691,0.19,0.94,0.29,32825,10134.10,85,0,3,2.73,-0.14,-0.77,0.19,0.94,0.29
27.876953,0.03330279,0.051457968,-0.0016130898,0.2,0.94,0.29,32840,10135.40,85,0,3,2.03,-0.49,-1.54,0.20,0.94,0.29
28.876953,0.024302792,0.04645797,0.0033869091,0.2,0.94,0.29,32847,10136.40,85,0,3,1.40,-0.84,-1.19,0.20,0.94,0.29
28.876953,0.012302794,0.043457966,0.01138691,0.2,0.94,0.29,32870,10136.40,85,0,3,0.56,-1.05,-0.63,0.20,0.94,0.29
27.576172,0.0053027933,0.036457967,0.01638691,0.19,0.94,0.28,32876,10135.10,85,0,3,0.07,-1.54,-0.28,0.19,0.94,0.28
27.876953,3.02793E-4,0.031457968,0.02538691,0.19,0.94,0.28,32899,10135.40,85,0,3,-0.28,-1.89,0.35,0.19,0.94,0.28
27.876953,0.0013027934,0.026457965,0.02538691,0.19,0.94,0.29,32914,10135.40,85,0,3,-0.21,-2.24,0.35,0.19,0.94,0.29
26.576172,3.02793E-4,0.028457968,0.02538691,0.19,0.94,0.29,32930,10134.10,85,0,3,-0.28,-2.10,0.35,0.19,0.94,0.29
27.876953,-0.002697207,0.029457968,0.02838691,0.19,0.95,0.29,32952,10135.40,85,0,3,-0.49,-2.03,0.56,0.19,0.95,0.29
30.876953,-0.0016972064,0.033457965,0.03038691,0.19,0.94,0.29,32960,10138.40,85,0,3,-0.42,-1.75,0.70,0.19,0.94,0.29
28.876953,-0.0066972068,0.037457965,0.03038691,0.19,0.94,0.29,32990,10136.40,85,0,3,-0.77,-1.47,0.70,0.19,0.94,0.29
29.876953,-0.009697207,0.034457967,0.03038691,0.19,0.94,0.29,32997,10137.40,85,0,3,-0.98,-1.68,0.70,0.19,0.94,0.29
32.976562,-0.011697208,0.036457967,0.031386912,0.19,0.94,0.29,33012,10140.50,85,0,3,-1.12,-1.54,0.77,0.19,0.94,0.29
31.876953,-0.011697208,0.03545797,0.03238691,0.19,0.95,0.29,33027,10139.40,82,0,3,-1.12,-1.61,0.84,0.19,0.95,0.29
37.976562,-0.013697206,0.034457967,0.03438691,0.19,0.95,0.3,33042,10145.50,82,0,3,-1.26,-1.68,0.98,0.19,0.95,0.30
33.976562,-0.014697208,0.036457967,0.031386912,0.2,0.95,0.3,33057,10141.50,82,0,3,-1.33,-1.54,0.77,0.20,0.95,0.30
34.976562,-0.0036972072,0.038457967,0.04438691,0.2,0.94,0.3,33072,10142.50,82,0,3,-0.56,-1.40,1.68,0.20,0.94,0.30
34.976562,3.02793E-4,0.037457965,0.046386912,0.19,0.95,0.29,33118,10142.50,82,0,3,-0.28,-1.47,1.82,0.19,0.95,0.29
33.976562,0.002302793,0.036457967,0.04538691,0.19,0.96,0.29,33125,10141.50,82,0,3,-0.14,-1.54,1.75,0.19,0.96,0.29
36.276367,-0.0016972064,0.030457966,0.03538691,0.18,0.94,0.3,33125,10143.80,82,0,3,-0.42,-1.96,1.05,0.18,0.94,0.30
34.276367,-0.0106972065,0.032457966,0.01938691,0.18,0.94,0.3,33139,10141.80,82,0,3,-1.05,-1.82,-0.07,0.18,0.94,0.30
33.976562,-0.014697208,0.039457966,0.02038691,0.19,0.94,0.29,33155,10141.50,82,0,3,-1.33,-1.33,0.00,0.19,0.94,0.29
32.276367,-0.016697206,0.037457965,0.02638691,0.2,0.94,0.29,33170,10139.80,82,0,3,-1.47,-1.47,0.42,0.20,0.94,0.29
33.976562,-0.008697207,0.03545797,0.039386913,0.2,0.94,0.3,33199,10141.50,82,0,3,-0.91,-1.61,1.33,0.20,0.94,0.30
33.57617,-0.011697208,0.026457965,0.04538691,0.19,0.94,0.3,33206,10141.10,82,0,3,-1.12,-2.24,1.75,0.19,0.94,0.30
34.976562,-0.012697208,0.026457965,0.04838691,0.19,0.94,0.3,33222,10142.50,82,0,3,-1.19,-2.24,1.96,0.19,0.94,0.30
35.276367,-0.013697206,0.027457966,0.040386908,0.19,0.94,0.3,33237,10142.80,82,0,3,-1.26,-2.17,1.40,0.19,0.94,0.30
35.276367,-0.015697207,0.029457968,0.03438691,0.19,0.94,0.3,33267,10142.80,82,0,3,-1.40,-2.03,0.98,0.19,0.94,0.30
33.57617,-0.008697207,0.03545797,0.031386912,0.19,0.95,0.3,33282,10141.10,82,0,3,-0.91,-1.61,0.77,0.19,0.95,0.30
33.976562,3.02793E-4,0.037457965,0.03438691,0.19,0.94,0.3,33304,10141.50,82,0,3,-0.28,-1.47,0.98,0.19,0.94,0.30
34.276367,-0.0036972072,0.033457965,0.03038691,0.19,0.94,0.3,33327,10141.80,82,0,3,-0.56,-1.75,0.70,0.19,0.94,0.30
34.276367,-0.0066972068,0.034457967,0.03038691,0.2,0.95,0.3,33342,10141.80,82,0,3,-0.77,-1.68,0.70,0.20,0.95,0.30
34.276367,-0.002697207,0.036457967,0.03438691,0.2,0.95,0.3,33356,10141.80,82,0,3,-0.49,-1.54,0.98,0.20,0.95,0.30
36.276367,0.002302793,0.034457967,0.040386908,0.19,0.94,0.3,33371,10143.80,82,0,3,-0.14,-1.68,1.40,0.19,0.94,0.30
33.276367,0.0053027933,0.034457967,0.04538691,0.19,0.94,0.3,33386,10140.80,82,0,3,0.07,-1.68,1.75,0.19,0.94,0.30
32.276367,0.004302793,0.032457966,0.04338691,0.19,0.94,0.3,33402,10139.80,82,0,3,0.00,-1.82,1.61,0.19,0.94,0.30
34.276367,0.009302793,0.032457966,0.04338691,0.19,0.95,0.3,33417,10141.80,82,0,3,0.35,-1.82,1.61,0.19,0.95,0.30
32.276367,0.008302793,0.03545797,0.04538691,0.19,0.94,0.3,33443,10139.80,82,0,3,0.28,-1.61,1.75,0.19,0.94,0.30
36.276367,0.014302793,0.040457968,0.04738691,0.19,0.94,0.3,33462,10143.80,82,0,3,0.70,-1.26,1.89,0.19,0.94,0.30
33.276367,0.0073027927,0.042457968,0.046386912,0.19,0.94,0.3,33477,10140.80,82,0,3,0.21,-1.12,1.82,0.19,0.94,0.30
33.57617,-6.972067E-4,0.041457966,0.04238691,0.2,0.94,0.3,33499,10141.10,82,0,3,-0.35,-1.19,1.54,0.20,0.94,0.30
33.276367,-0.0066972068,0.032457966,0.04538691,0.19,0.94,0.3,33521,10140.80,82,0,3,-0.77,-1.82,1.75,0.19,0.94,0.30
33.276367,-0.009697207,0.031457968,0.04538691,0.2,0.94,0.29,33544,10140.80,82,0,3,-0.98,-1.89,1.75,0.20,0.94,0.29
34.57617,0.002302793,0.031457968,0.05238691,0.2,0.95,0.29,33567,10142.10,82,0,3,-0.14,-1.89,2.24,0.20,0.95,0.29
34.57617,0.009302793,0.034457967,0.05338691,0.19,0.96,0.3,33589,10142.10,82,0,3,0.35,-1.68,2.31,0.19,0.96,0.30
32.57617,0.010302793,0.038457967,0.04238691,0.19,0.95,0.3,33612,10140.10,82,0,3,0.42,-1.40,1.54,0.19,0.95,0.30
32.276367,3.02793E-4,0.043457966,0.03238691,0.19,0.94,0.3,33627,10139.80,82,0,3,-0.28,-1.05,0.84,0.19,0.94,0.30
34.976562,-0.007697206,0.047457967,0.027386911,0.2,0.94,0.3,33641,10142.50,82,0,3,-0.84,-0.77,0.49,0.20,0.94,0.30
33.57617,-0.0036972072,0.051457968,0.03738691,0.2,0.94,0.3,33657,10141.10,82,0,3,-0.56,-0.49,1.19,0.20,0.94,0.30
32.57617,0.004302793,0.04645797,0.046386912,0.2,0.94,0.29,33672,10140.10,82,0,3,0.00,-0.84,1.82,0.20,0.94,0.29
31.876953,0.009302793,0.040457968,0.04838691,0.2,0.94,0.29,33687,10139.40,82,0,3,0.35,-1.26,1.96,0.20,0.94,0.29
32.276367,0.008302793,0.036457967,0.04438691,0.2,0.94,0.3,33710,10139.80,82,0,3,0.28,-1.54,1.68,0.20,0.94,0.30
32.57617,0.002302793,0.039457966,0.04338691,0.2,0.94,0.3,33732,10140.10,82,0,3,-0.14,-1.33,1.61,0.20,0.94,0.30
31.276367,-0.0066972068,0.040457968,0.05038691,0.2,0.94,0.3,33754,10138.80,82,0,3,-0.77,-1.26,2.10,0.20,0.94,0.30
33.57617,-0.011697208,0.041457966,0.05238691,0.2,0.95,0.29,33777,10141.10,82,0,3,-1.12,-1.19,2.24,0.20,0.95,0.29
33.57617,-0.0106972065,0.042457968,0.05138691,0.19,0.95,0.3,33800,10141.10,82,0,3,-1.05,-1.12,2.17,0.19,0.95,0.30
32.57617,-0.011697208,0.042457968,0.03638691,0.2,0.95,0.3,33822,10140.10,82,0,3,-1.12,-1.12,1.12,0.20,0.95,0.30
32.57617,-0.007697206,0.045457967,0.02838691,0.2,0.94,0.3,33845,10140.10,82,0,3,-0.84,-0.91,0.56,0.20,0.94,0.30
32.976562,-0.008697207,0.042457968,0.03338691,0.2,0.94,0.3,33875,10140.50,82,0,3,-0.91,-1.12,0.91,0.20,0.94,0.30
33.976562,-0.008697207,0.034457967,0.03738691,0.2,0.94,0.3,33882,10141.50,82,0,3,-0.91,-1.68,1.19,0.20,0.94,0.30
33.57617,-0.0106972065,0.029457968,0.046386912,0.2,0.94,0.3,33897,10141.10,82,0,3,-1.05,-2.03,1.82,0.20,0.94,0.30
27.876953,-0.009697207,0.027457966,0.04838691,0.2,0.95,0.3,33912,10135.40,82,0,3,-0.98,-2.17,1.96,0.20,0.95,0.30
32.976562,-0.007697206,0.027457966,0.04138691,0.2,0.95,0.3,33927,10140.50,82,0,3,-0.84,-2.17,1.47,0.20,0.95,0.30
32.976562,-0.0036972072,0.037457965,0.03838691,0.2,0.94,0.3,33949,10140.50,82,0,3,-0.56,-1.47,1.26,0.20,0.94,0.30
33.976562,-0.008697207,0.042457968,0.03238691,0.19,0.94,0.3,33979,10141.50,82,0,3,-0.91,-1.12,0.84,0.19,0.94,0.30
36.676758,-0.0056972066,0.04645797,0.03338691,0.2,0.94,0.3,33987,10144.20,83,0,3,-0.70,-0.84,0.91,0.20,0.94,0.30
33.976562,-0.007697206,0.041457966,0.03338691,0.2,0.94,0.3,34009,10141.50,83,0,3,-0.84,-1.19,0.91,0.20,0.94,0.30
32.976562,-0.017697208,0.038457967,0.03438691,0.2,0.94,0.3,34031,10140.50,83,0,3,-1.54,-1.40,0.98,0.20,0.94,0.30
31.876953,-0.016697206,0.036457967,0.03738691,0.2,0.94,0.3,34054,10139.40,83,0,3,-1.47,-1.54,1.19,0.20,0.94,0.30
32.976562,-0.0106972065,0.032457966,0.03638691,0.2,0.95,0.3,34077,10140.50,83,0,3,-1.05,-1.82,1.12,0.20,0.95,0.30
31.876953,-0.0046972064,0.032457966,0.039386913,0.19,0.95,0.3,34100,10139.40,83,0,3,-0.63,-1.82,1.33,0.19,0.95,0.30
27.876953,-0.008697207,0.029457968,0.03338691,0.19,0.94,0.31,34114,10135.40,83,0,3,-0.91,-2.03,0.91,0.19,0.94,0.31
30.876953,-0.0106972065,0.029457968,0.02438691,0.2,0.94,0.31,34130,10138.40,83,0,3,-1.05,-2.03,0.28,0.20,0.94,0.31
31.576172,-0.0106972065,0.03545797,0.02238691,0.2,0.95,0.3,34144,10139.10,83,0,3,-1.05,-1.61,0.14,0.20,0.95,0.30
31.876953,-0.0036972072,0.039457966,0.02438691,0.2,0.94,0.31,34160,10139.40,83,0,3,-0.56,-1.33,0.28,0.20,0.94,0.31
31.876953,0.0013027934,0.040457968,0.03438691,0.2,0.94,0.31,34182,10139.40,83,0,3,-0.21,-1.26,0.98,0.20,0.94,0.31
27.876953,-6.972067E-4,0.039457966,0.03838691,0.2,0.93,0.31,34197,10135.40,83,0,3,-0.35,-1.33,1.26,0.20,0.93,0.31
30.576172,0.0013027934,0.039457966,0.04838691,0.2,0.94,0.3,34219,10138.10,83,0,3,-0.21,-1.33,1.96,0.20,0.94,0.30
30.876953,0.0063027935,0.038457967,0.04538691,0.2,0.94,0.31,34242,10138.40,83,0,3,0.14,-1.40,1.75,0.20,0.94,0.31
32.57617,0.0053027933,0.039457966,0.04238691,0.2,0.94,0.31,34257,10140.10,83,0,3,0.07,-1.33,1.54,0.20,0.94,0.31
28.876953,0.009302793,0.050457966,0.04138691,0.2,0.94,0.3,34279,10136.40,83,0,3,0.35,-0.56,1.47,0.20,0.94,0.30
28.576172,0.0073027927,0.048457965,0.03238691,0.2,0.94,0.31,34302,10136.10,83,0,3,0.21,-0.70,0.84,0.20,0.94,0.31
28.876953,0.004302793,0.045457967,0.03338691,0.2,0.94,0.31,34332,10136.40,83,0,3,0.00,-0.91,0.91,0.20,0.94,0.31
28.176758,0.0073027927,0.044457965,0.03038691,0.2,0.94,0.3,34347,10135.70,83,0,3,0.21,-0.98,0.70,0.20,0.94,0.30
29.876953,0.0063027935,0.041457966,0.027386911,0.2,0.94,0.3,34361,10137.40,83,0,3,0.14,-1.19,0.49,0.20,0.94,0.30
28.176758,0.009302793,0.030457966,0.02638691,0.2,0.94,0.3,34376,10135.70,83,0,3,0.35,-1.96,0.42,0.20,0.94,0.30
33.57617,0.011302793,0.027457966,0.02838691,0.2,0.94,0.3,34391,10141.10,83,0,3,0.49,-2.17,0.56,0.20,0.94,0.30
28.176758,0.011302793,0.028457968,0.03438691,0.2,0.94,0.3,34407,10135.70,83,0,3,0.49,-2.10,0.98,0.20,0.94,0.30
27.876953,0.013302793,0.028457968,0.03338691,0.19,0.94,0.31,34422,10135.40,83,0,3,0.63,-2.10,0.91,0.19,0.94,0.31
27.176758,0.014302793,0.03545797,0.03338691,0.19,0.94,0.3,34444,10134.70,83,0,3,0.70,-1.61,0.91,0.19,0.94,0.30
27.176758,0.016302792,0.042457968,0.03238691,0.19,0.94,0.31,34460,10134.70,83,0,3,0.84,-1.12,0.84,0.19,0.94,0.31
26.176758,0.015302793,0.050457966,0.03038691,0.19,0.94,0.3,34482,10133.70,83,0,3,0.77,-0.56,0.70,0.19,0.94,0.30
26.176758,0.013302793,0.051457968,0.03438691,0.2,0.94,0.3,34504,10133.70,83,0,3,0.63,-0.49,0.98,0.20,0.94,0.30
22.176758,0.009302793,0.050457966,0.03638691,0.2,0.94,0.31,34526,10129.70,83,0,3,0.35,-0.56,1.12,0.20,0.94,0.31
25.176758,0.002302793,0.044457965,0.04138691,0.2,0.94,0.3,34549,10132.70,83,0,3,-0.14,-0.98,1.47,0.20,0.94,0.30
24.876953,0.0053027933,0.043457966,0.04738691,0.2,0.94,0.3,34572,10132.40,83,0,3,0.07,-1.05,1.89,0.20,0.94,0.30
24.176758,0.013302793,0.042457968,0.046386912,0.2,0.95,0.3,34594,10131.70,83,0,3,0.63,-1.12,1.82,0.20,0.95,0.30
24.176758,0.013302793,0.041457966,0.03538691,0.19,0.94,0.3,34617,10131.70,83,0,3,0.63,-1.19,1.05,0.19,0.94,0.30
24.476562,3.02793E-4,0.044457965,0.02338691,0.2,0.93,0.31,34639,10132.00,83,0,3,-0.28,-0.98,0.21,0.20,0.93,0.31
23.476562,-0.0056972066,0.051457968,0.031386912,0.2,0.94,0.3,34655,10131.00,83,0,3,-0.70,-0.49,0.77,0.20,0.94,0.30
24.476562,-0.007697206,0.051457968,0.040386908,0.2,0.94,0.3,34669,10132.00,83,0,3,-0.84,-0.49,1.40,0.20,0.94,0.30
