Pressure_Rel,GyroX_Rel,GyroY_Rel,GyroZ_Rel,AccX_Rel,AccY_Rel,AccZ_Rel,Timestamp,Pressure_abs,HeartRate,Oxygen,Status,GyroX,GyroY,GyroZ,AccX,AccY,AccZ
0,0,0,0,0,0,0,3046,10413.2,0,0,3,-0.35,-4.62,1.68,0.34,0.85,0.44
0,0,0,0,0,0,0,3062,10412.9,0,0,3,-0.56,-4.9,1.68,0.34,0.85,0.44
0,0,0,0,0,0,0,3084,10413.6,0,0,3,-0.91,-4.69,1.75,0.34,0.84,0.44
0,0,0,0,0,0,0,3100,10412.2,0,0,3,-1.12,-4.83,1.61,0.35,0.84,0.44
0,0,0,0,0,0,0,3121,10412.2,0,0,3,-1.12,-4.69,1.96,0.35,0.84,0.44
0,0,0,0,0,0,0,3137,10412.6,0,0,3,-0.98,-4.34,2.59,0.35,0.84,0.44
0,0,0,0,0,0,0,3154,10414.3,0,0,3,-0.91,-3.99,2.8,0.34,0.84,0.44
0,0,0,0,0,0,0,3159,10413.6,0,0,3,-1.05,-3.5,2.38,0.34,0.84,0.44
0,0,0,0,0,0,0,3174,10412.6,0,0,3,-1.33,-2.8,2.66,0.35,0.84,0.45
0,0,0,0,0,0,0,3190,10406.5,0,0,3,-2.52,-2.52,2.66,0.35,0.83,0.45
0,0,0,0,0,0,0,3212,10412.6,0,0,3,-3.5,-2.59,2.38,0.35,0.84,0.44
0,0,0,0,0,0,0,3241,10408.5,0,0,3,-3.08,-2.45,2.45,0.35,0.85,0.44
0,0,0,0,0,0,0,3257,10411.6,0,0,3,-2.59,-2.8,2.03,0.35,0.84,0.45
0,0,0,0,0,0,0,3279,10411.9,0,0,3,-1.89,-2.52,1.89,0.34,0.84,0.45
0,0,0,0,0,0,0,3305,10412.6,0,0,3,-1.4,-1.54,1.75,0.34,0.84,0.46
0,0,0,0,0,0,0,3332,10412.6,0,0,3,-0.84,-0.42,1.68,0.34,0.85,0.46
0,0,0,0,0,0,0,3340,10412.6,0,0,3,-0.28,0.56,2.1,0.34,0.84,0.46
0,0,0,0,0,0,0,3354,10411.6,0,0,3,0,1.47,2.24,0.35,0.84,0.46
0,0,0,0,0,0,0,3369,10413.6,0,0,3,0.35,2.17,2.94,0.35,0.84,0.45
0,0,0,0,0,0,0,3384,10411.6,0,0,3,0.77,2.8,3.08,0.34,0.84,0.45
0,0,0,0,0,0,0,3399,10412.6,0,0,3,0.98,3.22,2.87,0.34,0.85,0.45
0,0,0,0,0,0,0,3421,10412.6,0,0,3,1.96,3.71,2.73,0.34,0.84,0.45
0,0,0,0,0,0,0,3436,10412.9,0,0,3,1.96,4.27,2.45,0.34,0.84,0.45
0,0,0,0,0,0,0,3459,10410.5,0,0,3,1.75,3.85,2.87,0.35,0.84,0.44
0,0,0,0,0,0,0,3489,10411.9,0,0,3,2.38,3.57,3.29,0.35,0.84,0.44
0,0,0,0,0,0,0,3504,10412.9,0,0,3,2.66,2.8,3.57,0.35,0.84,0.44
0,0,0,0,0,0,0,3527,10412.9,0,0,3,2.52,2.87,4.55,0.35,0.84,0.44
0,0,0,0,0,0,0,3549,10409.9,0,0,3,2.45,2.8,4.83,0.35,0.85,0.45
0,0,0,0,0,0,0,3579,10412.2,0,0,3,2.52,3.29,4.41,0.35,0.85,0.45
0,0,0,0,0,0,0,3587,10411.9,0,0,3,2.52,3.64,4.06,0.35,0.84,0.44
0,0,0,0,0,0,0,3609,10412.9,0,0,3,2.66,3.5,4.27,0.35,0.84,0.44
0,0,0,0,0,0,0,3624,10411.9,0,0,3,2.94,3.57,4.62,0.35,0.85,0.44
0,0,0,0,0,0,0,3639,10411.9,0,0,3,3.22,3.85,4.83,0.35,0.85,0.44
0,0,0,0,0,0,0,3654,10413.2,0,0,3,3.71,3.85,4.34,0.35,0.85,0.44
0,0,0,0,0,0,0,3669,10405.8,0,0,3,4.13,4.13,4.41,0.35,0.85,0.44
0,0,0,0,0,0,0,3684,10412.9,0,0,3,4.48,4.06,4.62,0.35,0.85,0.44
0,0,0,0,0,0,0,3707,10412.9,0,0,3,4.41,4.06,4.69,0.36,0.85,0.44
0,0,0,0,0,0,0,3729,10411.6,0,0,3,4.41,3.78,4.55,0.36,0.84,0.43
0,0,0,0,0,0,0,3752,10414.3,0,0,3,3.85,3.29,4.06,0.36,0.85,0.43
0,0,0,0,0,0,0,3782,10413.2,0,0,3,3.22,2.8,3.78,0.36,0.85,0.43
0,0,0,0,0,0,0,3797,10412.9,0,0,3,2.94,2.38,3.08,0.36,0.85,0.43
0,0,0,0,0,0,0,3812,10413.9,0,0,3,2.8,1.68,1.68,0.35,0.85,0.43
0,0,0,0,0,0,0,3835,10414.6,0,0,3,2.8,1.47,1.26,0.35,0.85,0.43
0,0,0,0,0,0,0,3856,10413.2,0,0,3,2.1,0.84,0.84,0.36,0.84,0.43
0,0,0,0,0,0,0,3871,10411.6,0,0,3,1.89,0.21,0.98,0.35,0.84,0.43
0,0,0,0,0,0,0,3894,10417.3,0,0,3,1.82,0,0.98,0.35,0.85,0.43
0,0,0,0,0,0,0,3909,10413.2,0,0,3,1.82,0.14,0.98,0.35,0.85,0.43
0,0,0,0,0,0,0,3924,10412.2,0,0,3,1.96,0.14,0.21,0.34,0.85,0.43
0,0,0,0,0,0,0,3939,10412.2,0,0,3,1.61,0.35,0.42,0.34,0.84,0.43
0,0,0,0,0,0,0,3961,10411.9,0,0,3,0.91,0.21,1.12,0.35,0.85,0.42
0,0,0,0,0,0,0,3984,10413.2,0,0,3,0.56,-0.21,1.75,0.36,0.85,0.43
0,0,0,0,0,0,0,4006,10413.2,0,0,3,0.07,-0.7,2.17,0.35,0.85,0.43
0,0,0,0,0,0,0,4021,10413.2,0,0,3,-0.49,-1.4,1.96,0.35,0.85,0.43
0,0,0,0,0,0,0,4044,10412.2,0,0,3,-0.7,-1.68,1.96,0.35,0.86,0.43
0,0,0,0,0,0,0,4067,10413.2,0,0,3,-0.98,-2.1,0.84,0.35,0.86,0.43
0,0,0,0,0,0,0,4089,10413.2,0,0,3,-0.7,-1.96,0.28,0.35,0.86,0.43
0,0,0,0,0,0,0,4111,10413.6,0,0,3,-0.35,-1.54,0.14,0.35,0.85,0.43
0,0,0,0,0,0,0,4126,10415.3,0,0,3,-0.42,-1.47,0.21,0.35,0.85,0.43
0,0,0,0,0,0,0,4142,10413.2,0,0,3,-0.35,-1.68,-0.14,0.35,0.86,0.44
0,0,0,0,0,0,0,4156,10413.6,0,0,3,-0.28,-1.68,-0.35,0.34,0.85,0.44
7.243164,0.0076582558,-0.0033902787,-0.004388346,0.28,0.84,0.47,14176,10425.2,0,0,3,-0.28,-2.52,-0.21,0.28,0.84,0.47
6.5429688,0.0076582558,-0.00939028,-0.002388346,0.28,0.85,0.48,14191,10424.5,0,0,3,-0.28,-2.94,-0.07,0.28,0.85,0.48
5.5429688,0.006658256,-0.012390282,-0.004388346,0.28,0.85,0.48,14214,10423.5,0,0,3,-0.35,-3.15,-0.21,0.28,0.85,0.48
6.243164,0.0046582557,-0.021390282,0.0016116537,0.29,0.85,0.47,14230,10424.2,0,0,3,-0.49,-3.78,0.21,0.29,0.85,0.47
6.243164,0.006658256,-0.01839028,0.007611654,0.28,0.84,0.48,14251,10424.2,0,0,3,-0.35,-3.57,0.63,0.28,0.84,0.48
7.243164,-0.0033417437,-0.012390282,0.009611654,0.28,0.85,0.48,14273,10425.2,0,0,3,-1.05,-3.15,0.77,0.28,0.85,0.48
9.542969,-0.014341745,-0.010390282,0.0066116545,0.28,0.85,0.48,14297,10427.5,0,0,3,-1.82,-3.01,0.56,0.28,0.85,0.48
8.542969,-0.023341745,-0.012390282,0.0066116545,0.29,0.85,0.48,14341,10426.5,0,0,3,-2.45,-3.15,0.56,0.29,0.85,0.48
8.542969,-0.017341744,-0.01339028,0.0066116545,0.29,0.85,0.48,14343,10426.5,0,0,3,-2.03,-3.22,0.56,0.29,0.85,0.48
5.5429688,-0.0073417453,-0.015390277,0.010611653,0.29,0.85,0.48,14356,10423.5,0,0,3,-1.33,-3.36,0.84,0.29,0.85,0.48
12.642578,-0.004341745,-0.01839028,0.008611654,0.28,0.85,0.49,14379,10430.6,0,0,3,-1.12,-3.57,0.7,0.28,0.85,0.49
10.243164,-0.0023417445,-0.014390279,0.011611654,0.28,0.85,0.49,14401,10428.2,0,0,3,-0.98,-3.29,0.91,0.28,0.85,0.49
9.943359,-0.0013417443,-0.0053902827,0.0066116545,0.28,0.84,0.48,14433,10427.9,0,0,3,-0.91,-2.66,0.56,0.28,0.84,0.48
11.642578,0.000658256,0.00060971826,0.0066116545,0.28,0.84,0.48,14441,10429.6,0,0,3,-0.77,-2.24,0.56,0.28,0.84,0.48
15.642578,0.0016582562,0.0026097205,0.0056116544,0.29,0.84,0.48,14453,10433.6,0,0,3,-0.7,-2.1,0.49,0.29,0.84,0.48
10.642578,-0.0033417437,0.0026097205,0.0066116545,0.29,0.84,0.48,14481,10428.6,0,0,3,-1.05,-2.1,0.56,0.29,0.84,0.48
12.642578,-0.005341745,0.00060971826,0.015611655,0.29,0.84,0.48,14500,10430.6,0,0,3,-1.19,-2.24,1.19,0.29,0.84,0.48
5.5429688,-0.0073417453,-0.0013902821,0.015611655,0.29,0.84,0.49,14521,10423.5,0,0,3,-1.33,-2.38,1.19,0.29,0.84,0.49
15.642578,-0.016341746,-0.00039028004,0.008611654,0.29,0.84,0.49,14543,10433.6,0,0,3,-1.96,-2.31,0.7,0.29,0.84,0.49
11.642578,-0.024341743,0.00060971826,0.0066116545,0.29,0.84,0.49,14565,10429.6,0,0,3,-2.52,-2.24,0.56,0.29,0.84,0.49
11.642578,-0.021341745,0.00060971826,0.0046116533,0.29,0.85,0.49,14581,10429.6,0,0,3,-2.31,-2.24,0.42,0.29,0.85,0.49
11.642578,-0.019341744,0.0026097205,0.000611654,0.29,0.85,0.49,14603,10429.6,0,0,3,-2.17,-2.1,0.14,0.29,0.85,0.49
11.943359,-0.018341742,-0.0023902804,-0.007388346,0.29,0.84,0.49,14626,10429.9,0,0,3,-2.1,-2.45,-0.42,0.29,0.84,0.49
12.943359,-0.011341744,-0.0053902827,-0.002388346,0.29,0.85,0.49,14650,10430.9,0,0,3,-1.61,-2.66,-0.07,0.29,0.85,0.49
7.5429688,-0.008341744,-0.008390278,-0.002388346,0.29,0.85,0.49,14670,10425.5,0,0,3,-1.4,-2.87,-0.07,0.29,0.85,0.49
10.642578,-0.0023417445,-0.0053902827,-0.0063883457,0.29,0.84,0.49,14686,10428.6,0,0,3,-0.98,-2.66,-0.35,0.29,0.84,0.49
11.943359,-0.0023417445,0.00060971826,-0.0013883461,0.29,0.84,0.5,14701,10429.9,0,0,3,-0.98,-2.24,0,0.29,0.84,0.5
10.642578,-0.0023417445,0.0066097192,0.002611654,0.28,0.84,0.5,14716,10428.6,0,0,3,-0.98,-1.82,0.28,0.28,0.84,0.5
12.642578,0.0036582556,0.014609721,0.008611654,0.29,0.84,0.49,14738,10430.6,0,0,3,-0.56,-1.26,0.7,0.29,0.84,0.49
9.943359,0.0046582557,0.01760972,0.014611655,0.29,0.84,0.49,14760,10427.9,0,0,3,-0.49,-1.05,1.12,0.29,0.84,0.49
12.342773,0.006658256,0.016609719,0.018611653,0.29,0.84,0.49,14783,10430.3,0,0,3,-0.35,-1.12,1.4,0.29,0.84,0.49
10.943359,0.010658256,0.01160972,0.021611653,0.29,0.84,0.49,14809,10428.9,0,0,3,-0.07,-1.47,1.61,0.29,0.84,0.49
10.943359,0.008658256,0.0076097194,0.021611653,0.29,0.85,0.49,14833,10428.9,0,0,3,-0.21,-1.75,1.61,0.29,0.85,0.49
10.943359,0.009658256,0.0076097194,0.021611653,0.29,0.84,0.49,14843,10428.9,0,0,3,-0.14,-1.75,1.61,0.29,0.84,0.49
10.943359,0.008658256,0.01260972,0.019611653,0.29,0.84,0.49,14873,10428.9,0,0,3,-0.21,-1.4,1.47,0.29,0.84,0.49
10.943359,0.008658256,0.01860972,0.017611654,0.29,0.84,0.49,14888,10428.9,0,0,3,-0.21,-0.98,1.33,0.29,0.84,0.49
9.943359,0.008658256,0.01860972,0.014611655,0.29,0.84,0.49,14911,10427.9,0,0,3,-0.21,-0.98,1.12,0.29,0.84,0.49
9.243164,0.008658256,0.016609719,0.016611652,0.29,0.84,0.49,14933,10427.2,0,0,3,-0.21,-1.12,1.26,0.29,0.84,0.49
9.542969,0.009658256,0.015609719,0.017611654,0.29,0.84,0.49,14956,10427.5,0,0,3,-0.14,-1.19,1.33,0.29,0.84,0.49
8.943359,0.0046582557,0.0136097185,0.024611654,0.29,0.84,0.49,14964,10426.9,0,0,3,-0.49,-1.33,1.82,0.29,0.84,0.49
11.243164,0.0016582562,0.0076097194,0.024611654,0.29,0.84,0.49,14986,10429.2,0,0,3,-0.7,-1.75,1.82,0.29,0.84,0.49
12.943359,0.009658256,0.0066097192,0.030611655,0.29,0.84,0.49,15009,10430.9,0,0,3,-0.14,-1.82,2.24,0.29,0.84,0.49
5.8427734,0.011658256,0.0066097192,0.027611652,0.29,0.84,0.49,15030,10423.8,0,0,3,0,-1.82,2.03,0.29,0.84,0.49
11.943359,0.012658256,0.01060972,0.026611654,0.29,0.84,0.49,15053,10429.9,0,0,3,0.07,-1.54,1.96,0.29,0.84,0.49
8.542969,0.0016582562,0.01260972,0.023611654,0.29,0.83,0.49,15076,10426.5,0,0,3,-0.7,-1.4,1.75,0.29,0.83,0.49
4.8427734,-0.0073417453,0.008609721,0.030611655,0.3,0.82,0.49,15098,10422.8,0,0,3,-1.33,-1.68,2.24,0.3,0.82,0.49
1.8427734,-0.011341744,0.0016097184,0.055611655,0.3,0.83,0.49,15114,10419.8,0,0,3,-1.61,-2.17,3.99,0.3,0.83,0.49
-3.256836,-0.0063417433,-0.0073902793,0.069611646,0.3,0.84,0.49,15136,10414.7,0,0,3,-1.26,-2.8,4.97,0.3,0.84,0.49
-6.9570312,0.010658256,-0.0013902821,0.06361166,0.3,0.85,0.49,15158,10411,0,0,3,-0.07,-2.38,4.55,0.3,0.85,0.49
-9.957031,0.0146582555,0.0036097206,0.04661165,0.29,0.85,0.49,15174,10408,0,0,3,0.21,-2.03,3.36,0.29,0.85,0.49
-10.957031,0.010658256,0.00960972,0.037611656,0.29,0.84,0.49,15188,10407,0,0,3,-0.07,-1.61,2.73,0.29,0.84,0.49
-10.357422,0.0016582562,0.01760972,0.028611653,0.29,0.84,0.49,15203,10407.6,0,0,3,-0.7,-1.05,2.1,0.29,0.84,0.49
-14.357422,-0.010341744,0.02160972,0.014611655,0.3,0.84,0.48,15225,10403.6,0,0,3,-1.54,-0.77,1.12,0.3,0.84,0.48
-15.056641,-0.011341744,0.02260972,0.014611655,0.3,0.84,0.48,15249,10402.9,0,0,3,-1.61,-0.7,1.12,0.3,0.84,0.48
-15.357422,-0.012341742,0.014609721,0.021611653,0.3,0.84,0.48,15270,10402.6,0,0,3,-1.68,-1.26,1.61,0.3,0.84,0.48
-16.756836,-0.012341742,0.005609719,0.025611654,0.3,0.83,0.49,15292,10401.2,0,0,3,-1.68,-1.89,1.89,0.3,0.83,0.49
-17.457031,-0.021341745,-0.0023902804,0.033611655,0.3,0.83,0.49,15315,10400.5,0,0,3,-2.31,-2.45,2.45,0.3,0.83,0.49
-18.457031,-0.023341745,0.0016097184,0.047611658,0.29,0.84,0.49,15338,10399.5,0,0,3,-2.45,-2.17,3.43,0.29,0.84,0.49
-19.457031,-0.020341747,0.01760972,0.06361166,0.28,0.85,0.5,15361,10398.5,0,0,3,-2.24,-1.05,4.55,0.28,0.85,0.5
-19.05664,-0.015341745,0.03560972,0.07961165,0.29,0.85,0.51,15376,10398.9,0,0,3,-1.89,0.21,5.67,0.29,0.85,0.51
-16.05664,0.000658256,0.05360972,0.11161165,0.3,0.87,0.51,15398,10401.9,0,0,3,-0.77,1.47,7.91,0.3,0.87,0.51
-18.05664,0.043658257,0.068609715,0.14361165,0.29,0.93,0.49,15421,10399.9,0,0,3,2.24,2.52,10.15,0.29,0.93,0.49
-17.05664,0.10365826,0.07860972,0.14661166,0.28,0.95,0.46,15450,10400.9,0,0,3,6.44,3.22,10.36,0.28,0.95,0.46
-18.05664,0.15465826,0.07860972,0.13761166,0.29,0.93,0.46,15458,10399.9,0,0,3,10.01,3.22,9.73,0.29,0.93,0.46
-15.056641,0.20465825,0.044609718,0.15261166,0.3,0.91,0.45,15488,10402.9,0,0,3,13.51,0.84,10.78,0.3,0.91,0.45
-13.056641,0.25365826,0.0016097184,0.16661166,0.31,0.89,0.47,15497,10404.9,0,0,3,16.94,-2.17,11.76,0.31,0.89,0.47
-10.657227,0.30765826,-0.021390282,0.16461165,0.31,0.87,0.48,15518,10407.3,0,0,3,20.72,-3.78,11.62,0.31,0.87,0.48
-10.957031,0.38165826,-0.0023902804,0.11961166,0.3,0.8,0.47,15540,10407,0,0,3,25.9,-2.45,8.47,0.3,0.8,0.47
-7.9570312,0.42765826,0.008609721,0.06461165,0.32,0.76,0.48,15571,10410,0,0,3,29.12,-1.68,4.62,0.32,0.76,0.48
-6.9570312,0.39565822,-0.01139028,0.048611656,0.37,0.77,0.49,15585,10411,0,0,3,26.88,-3.08,3.5,0.37,0.77,0.49
-4.9570312,0.32165825,-0.021390282,0.07661165,0.39,0.75,0.52,15609,10413,0,0,3,21.7,-3.78,5.46,0.39,0.75,0.52
-3.9570312,0.25765824,0.00060971826,0.13561167,0.4,0.76,0.52,15651,10414,0,0,3,17.22,-2.24,9.59,0.4,0.76,0.52
2.1425781,0.21565825,0.02160972,0.17761165,0.4,0.79,0.52,15653,10420.1,0,0,3,14.28,-0.77,12.53,0.4,0.79,0.52
5.243164,0.20665824,0.057609722,0.19661166,0.41,0.81,0.51,15676,10423.2,0,0,3,13.65,1.75,13.86,0.41,0.81,0.51
7.243164,0.21165825,0.08260972,0.19461167,0.4,0.83,0.5,15691,10425.2,0,0,3,14,3.5,13.72,0.4,0.83,0.5
10.243164,0.21165825,0.10660972,0.17761165,0.39,0.84,0.48,15706,10428.2,0,0,3,14,5.18,12.53,0.39,0.84,0.48
11.642578,0.22665825,0.13660972,0.14261165,0.38,0.85,0.47,15728,10429.6,0,0,3,15.05,7.28,10.08,0.38,0.85,0.47
12.342773,0.22765826,0.1676097,0.10161165,0.37,0.84,0.46,15751,10430.3,0,0,3,15.12,9.45,7.21,0.37,0.84,0.46
9.243164,0.18465824,0.19560972,0.06761165,0.35,0.79,0.45,15774,10427.2,0,0,3,12.11,11.41,4.83,0.35,0.79,0.45
9.943359,0.17965825,0.17860971,0.041611657,0.33,0.79,0.45,15789,10427.9,0,0,3,11.76,10.22,3.01,0.33,0.79,0.45
9.943359,0.057658255,0.1966097,-0.014388346,0.34,0.87,0.47,15811,10427.9,0,0,3,3.22,11.48,-0.91,0.34,0.87,0.47
11.243164,0.0076582558,0.1896097,-0.058388345,0.34,0.84,0.48,15833,10429.2,0,0,3,-0.28,10.99,-3.99,0.34,0.84,0.48
1.5429688,0.0056582564,0.13260972,-0.08938835,0.34,0.83,0.44,15856,10419.5,0,0,3,-0.42,7,-6.16,0.34,0.83,0.44
4.5429688,0.23265825,0.12760971,-0.07838835,0.35,0.85,0.42,15879,10422.5,0,0,3,15.47,6.65,-5.39,0.35,0.85,0.42
6.5429688,0.10065826,0.095609725,-0.056388345,0.36,0.74,0.43,15909,10424.5,0,0,3,6.23,4.41,-3.85,0.36,0.74,0.43
10.943359,0.15565825,0.01760972,-0.029388348,0.32,0.8,0.42,15924,10428.9,0,0,3,10.08,-1.05,-1.96,0.32,0.8,0.42
18.743164,-0.10134174,0.014609721,-0.010388345,0.31,0.88,0.45,15946,10436.7,0,0,3,-7.91,-1.26,-0.63,0.31,0.88,0.45
11.243164,-0.10934175,-0.035390284,-0.009388346,0.33,0.89,0.45,15961,10429.2,0,0,3,-8.47,-4.76,-0.56,0.33,0.89,0.45
9.642578,-0.08134174,-0.097390294,0.024611654,0.32,0.83,0.44,15983,10427.6,0,0,3,-6.51,-9.1,1.82,0.32,0.83,0.44
8.542969,0.011658256,-0.119390294,0.028611653,0.29,0.89,0.44,15998,10426.5,0,0,3,0,-10.64,2.1,0.29,0.89,0.44
12.943359,-0.058341745,-0.11739029,0.040611655,0.32,0.9,0.42,16021,10430.9,0,0,3,-4.9,-10.5,2.94,0.32,0.9,0.42
9.642578,-0.025341745,-0.12039028,0.11261165,0.33,0.91,0.39,16043,10427.6,0,0,3,-2.59,-10.71,7.98,0.33,0.91,0.39
8.542969,0.0076582558,-0.13339028,0.13961166,0.3,0.96,0.4,16066,10426.5,0,0,3,-0.28,-11.62,9.87,0.3,0.96,0.4
8.542969,0.039658256,-0.10439029,0.13461167,0.3,0.9,0.37,16096,10426.5,0,0,3,1.96,-9.59,9.52,0.3,0.9,0.37
8.542969,0.11165826,-0.057390284,0.10861165,0.28,0.84,0.36,16111,10426.5,0,0,3,7,-6.3,7.7,0.28,0.84,0.36
10.642578,0.12665826,-0.01139028,0.07561165,0.3,0.83,0.38,16134,10428.6,0,0,3,8.05,-3.08,5.39,0.3,0.83,0.38
11.642578,0.11565826,0.020609722,0.09261165,0.33,0.83,0.38,16156,10429.6,0,0,3,7.28,-0.84,6.58,0.33,0.83,0.38
12.342773,0.105658256,0.03660972,0.14761166,0.36,0.82,0.39,16171,10430.3,0,0,3,6.58,0.28,10.43,0.36,0.82,0.39
14.642578,0.07765826,0.03760972,0.18161167,0.37,0.82,0.4,16192,10432.6,0,0,3,4.62,0.35,12.81,0.37,0.82,0.4
15.642578,0.040658254,0.03660972,0.21161166,0.37,0.84,0.41,16216,10433.6,0,0,3,2.03,0.28,14.91,0.37,0.84,0.41
16.042969,0.006658256,0.044609718,0.26761165,0.38,0.85,0.41,16233,10434,0,0,3,-0.35,0.84,18.83,0.38,0.85,0.41
17.042969,0.006658256,0.06360972,0.30961168,0.38,0.87,0.41,16246,10435,0,0,3,-0.35,2.17,21.77,0.38,0.87,0.41
20.042969,0.028658256,0.09960972,0.33061165,0.37,0.91,0.41,16268,10438,0,0,3,1.19,4.69,23.24,0.37,0.91,0.41
14.642578,0.06665826,0.14260972,0.30861166,0.35,0.92,0.41,16290,10432.6,0,0,3,3.85,7.7,21.7,0.35,0.92,0.41
17.042969,0.12265826,0.1896097,0.24461165,0.33,0.93,0.39,16313,10435,0,0,3,7.77,10.99,17.22,0.33,0.93,0.39
18.042969,0.15965825,0.21460971,0.16461165,0.34,0.93,0.37,16336,10436,0,0,3,10.36,12.74,11.62,0.34,0.93,0.37
18.042969,0.18365826,0.24260971,0.13261166,0.34,0.9,0.36,16366,10436,0,0,3,12.04,14.7,9.38,0.34,0.9,0.36
10.943359,0.18565826,0.2726097,0.13561167,0.32,0.88,0.36,16381,10428.9,0,0,3,12.18,16.8,9.59,0.32,0.88,0.36
17.042969,0.18465824,0.31260973,0.17161165,0.31,0.88,0.36,16403,10435,0,0,3,12.11,19.6,12.11,0.31,0.88,0.36
16.342773,0.19065824,0.37060973,0.21261165,0.31,0.88,0.37,16425,10434.3,0,0,3,12.53,23.66,14.98,0.31,0.88,0.37
16.042969,0.18965825,0.42660972,0.24561167,0.3,0.87,0.38,16440,10434,0,0,3,12.46,27.58,17.29,0.3,0.87,0.38
14.642578,0.17765824,0.46760973,0.25761163,0.31,0.87,0.38,16463,10432.6,0,0,3,11.62,30.45,18.13,0.31,0.87,0.38
15.042969,0.16165826,0.49860972,0.23761165,0.33,0.9,0.37,16479,10433,0,0,3,10.5,32.62,16.73,0.33,0.9,0.37
9.943359,0.17565824,0.5216097,0.21861166,0.34,0.9,0.35,16502,10427.9,0,0,3,11.48,34.23,15.4,0.34,0.9,0.35
15.042969,0.21365826,0.52860975,0.20661166,0.35,0.89,0.34,16524,10433,0,0,3,14.14,34.72,14.56,0.35,0.89,0.34
13.342773,0.22965826,0.5076097,0.19561166,0.38,0.87,0.33,16554,10431.3,0,0,3,15.26,33.25,13.79,0.38,0.87,0.33
15.042969,0.22365825,0.47560972,0.19561166,0.39,0.85,0.33,16569,10433,0,0,3,14.84,31.01,13.79,0.39,0.85,0.33
15.042969,0.21165825,0.45360973,0.20661166,0.39,0.84,0.33,16582,10433,0,0,3,14,29.47,14.56,0.39,0.84,0.33
15.042969,0.20765826,0.43860972,0.21961166,0.39,0.85,0.33,16606,10433,0,0,3,13.72,28.42,15.47,0.39,0.85,0.33
15.042969,0.21365826,0.4346097,0.22761168,0.4,0.86,0.33,16629,10433,0,0,3,14.14,28.14,16.03,0.4,0.86,0.33
12.943359,0.22265826,0.43660975,0.23161165,0.4,0.88,0.34,16651,10430.9,0,0,3,14.77,28.28,16.31,0.4,0.88,0.34
13.342773,0.22565824,0.43260974,0.22361165,0.4,0.89,0.33,16682,10431.3,0,0,3,14.98,28,15.75,0.4,0.89,0.33
15.042969,0.22365825,0.42060974,0.21561165,0.4,0.92,0.34,16688,10433,0,0,3,14.84,27.16,15.19,0.4,0.92,0.34
14.042969,0.21465825,0.40460974,0.20261165,0.41,0.93,0.33,16711,10432,0,0,3,14.21,26.04,14.28,0.41,0.93,0.33
12.943359,0.21065825,0.38560972,0.22161165,0.44,0.88,0.31,16725,10430.9,0,0,3,13.93,24.71,15.61,0.44,0.88,0.31
12.943359,0.18865825,0.35060972,0.26261166,0.43,0.8,0.3,16748,10430.9,0,0,3,12.39,22.26,18.48,0.43,0.8,0.3
14.342773,0.13465825,0.27160972,0.25861168,0.4,0.79,0.28,16771,10432.3,0,0,3,8.61,16.73,18.2,0.4,0.79,0.28
15.342773,0.09265826,0.18460973,0.19961165,0.39,0.81,0.31,16800,10433.3,0,0,3,5.67,10.64,14.07,0.39,0.81,0.31
8.243164,0.037658256,0.110609725,0.14261165,0.4,0.82,0.35,16815,10426.2,0,0,3,1.82,5.46,10.08,0.4,0.82,0.35
13.642578,0.006658256,0.06460972,0.13761166,0.41,0.84,0.38,16830,10431.6,0,0,3,-0.35,2.24,9.73,0.41,0.84,0.38
15.042969,0.012658256,0.07560972,0.18761165,0.39,0.86,0.42,16852,10433,0,0,3,0.07,3.01,13.23,0.39,0.86,0.42
12.342773,0.051658254,0.13760972,0.22661166,0.37,0.88,0.44,16876,10430.3,0,0,3,2.8,7.35,15.96,0.37,0.88,0.44
11.943359,0.09565826,0.22260971,0.21961166,0.36,0.88,0.44,16899,10429.9,0,0,3,5.88,13.3,15.47,0.36,0.88,0.44
17.342773,0.15165825,0.29760972,0.20561166,0.37,0.87,0.43,16920,10435.3,80,0,3,9.8,18.55,14.49,0.37,0.87,0.43
12.342773,0.19065824,0.33660975,0.19761166,0.38,0.86,0.42,16938,10430.3,80,0,3,12.53,21.28,13.93,0.38,0.86,0.42
12.943359,0.20665824,0.35560974,0.19061165,0.39,0.84,0.42,16951,10430.9,80,0,3,13.65,22.61,13.44,0.39,0.84,0.42
13.342773,0.20665824,0.36660972,0.18961166,0.39,0.83,0.42,16981,10431.3,80,0,3,13.65,23.38,13.37,0.39,0.83,0.42
13.342773,0.19365825,0.37360975,0.20461166,0.38,0.83,0.42,16988,10431.3,80,0,3,12.74,23.87,14.42,0.38,0.83,0.42
11.342773,0.18465824,0.42560974,0.23261164,0.36,0.83,0.45,17011,10429.3,80,0,3,12.11,27.51,16.38,0.36,0.83,0.45
12.342773,0.18665825,0.5326097,0.29061165,0.34,0.81,0.49,17033,10430.3,80,0,3,12.25,35,20.44,0.34,0.81,0.49
12.642578,0.17765824,0.7136097,0.39561167,0.3,0.81,0.53,17056,10430.6,80,0,3,11.62,47.67,27.79,0.3,0.81,0.53
11.342773,0.24565823,0.9696097,0.53961164,0.27,0.86,0.51,17078,10429.3,80,0,3,16.38,65.59,37.87,0.27,0.86,0.51
11.342773,0.37665823,1.2326097,0.64661163,0.28,0.86,0.51,17101,10429.3,80,0,3,25.55,84,45.36,0.28,0.86,0.51
11.342773,0.48065826,1.4416096,0.6986116,0.33,0.81,0.51,17123,10429.3,80,0,3,32.83,98.63,49,0.33,0.81,0.51
16.743164,0.5136582,1.5046097,0.7306117,0.39,0.78,0.48,17138,10434.7,80,0,3,35.14,103.04,51.24,0.39,0.78,0.48
9.243164,0.52665824,1.4796097,0.7626116,0.44,0.79,0.41,17160,10427.2,80,0,3,36.05,101.29,53.48,0.44,0.79,0.41
13.642578,0.55365825,1.4216098,0.7916116,0.46,0.77,0.4,17183,10431.6,80,0,3,37.94,97.23,55.51,0.46,0.77,0.4
14.642578,0.5466583,1.3356097,0.81961167,0.47,0.72,0.43,17198,10432.6,80,0,3,37.45,91.21,57.47,0.47,0.72,0.43
13.342773,0.48065826,1.2366097,0.8616116,0.48,0.67,0.45,17220,10431.3,80,0,3,32.83,84.28,60.41,0.48,0.67,0.45
15.342773,0.36865824,1.1076097,0.91361165,0.48,0.65,0.45,17235,10433.3,80,0,3,24.99,75.25,64.05,0.48,0.65,0.45
12.642578,0.22265826,0.97860974,0.9526116,0.49,0.63,0.46,17258,10430.6,80,0,3,14.77,66.22,66.78,0.49,0.63,0.46
14.642578,0.17665826,0.8586097,0.9766116,0.46,0.69,0.5,17273,10432.6,80,0,3,11.55,57.82,68.46,0.46,0.69,0.5
19.743164,-0.010341744,0.7766097,0.95761156,0.5,0.69,0.51,17296,10437.7,80,0,3,-1.54,52.08,67.13,0.5,0.69,0.51
10.642578,0.016658256,0.6856097,0.8616116,0.48,0.74,0.51,17318,10428.6,80,0,3,0.35,45.71,60.41,0.48,0.74,0.51
23.842773,-0.11834175,0.69160974,0.7956116,0.51,0.66,0.56,17341,10441.8,80,0,3,-9.1,46.13,55.79,0.51,0.66,0.56
15.743164,-0.10434174,0.64060974,0.70561165,0.49,0.68,0.55,17364,10433.7,80,0,3,-8.12,42.56,49.49,0.49,0.68,0.55
23.743164,-0.17634174,0.5986097,0.6426117,0.48,0.66,0.54,17385,10441.7,80,0,3,-13.16,39.62,45.08,0.48,0.66,0.54
22.842773,-0.38634175,0.5796097,0.63561165,0.5,0.72,0.57,17408,10440.8,80,0,3,-27.86,38.29,44.59,0.5,0.72,0.57
5.5429688,-0.29134172,0.5086097,0.5796116,0.48,0.69,0.54,17423,10423.5,80,0,3,-21.21,33.32,40.67,0.48,0.69,0.54
16.042969,-0.40834174,0.4856097,0.5496116,0.47,0.78,0.58,17438,10434,80,0,3,-29.4,31.71,38.57,0.47,0.78,0.58
8.642578,-0.24734172,0.41260973,0.48561165,0.46,0.68,0.57,17452,10426.6,80,0,3,-18.13,26.6,34.09,0.46,0.68,0.57
17.743164,-0.37734175,0.3606097,0.49261168,0.5,0.65,0.66,17476,10435.7,80,0,3,-27.23,22.96,34.58,0.5,0.65,0.66
14.642578,-0.40634176,0.33460972,0.55661166,0.51,0.71,0.67,17506,10432.6,80,0,3,-29.26,21.14,39.06,0.51,0.71,0.67
14.642578,-0.36134174,0.32660973,0.6236116,0.51,0.7,0.62,17535,10432.6,80,0,3,-26.11,20.58,43.75,0.51,0.7,0.62
13.642578,-0.24134174,0.29660973,0.61761165,0.49,0.71,0.62,17543,10431.6,80,0,3,-17.71,18.48,43.33,0.49,0.71,0.62
12.642578,-0.15934175,0.25060973,0.54661167,0.49,0.7,0.63,17566,10430.6,80,0,3,-11.97,15.26,38.36,0.49,0.7,0.63
10.943359,-0.085341744,0.21060972,0.46561164,0.51,0.67,0.63,17595,10428.9,80,0,3,-6.79,12.46,32.69,0.51,0.67,0.63
11.642578,-0.024341743,0.17260972,0.40661165,0.53,0.62,0.63,17610,10429.6,80,0,3,-2.52,9.8,28.56,0.53,0.62,0.63
11.642578,0.04265826,0.12560973,0.36261165,0.51,0.62,0.6,17633,10429.6,80,0,3,2.17,6.51,25.48,0.51,0.62,0.6
11.642578,0.105658256,0.08060972,0.26961166,0.52,0.6,0.62,17655,10429.6,80,0,3,6.58,3.36,18.97,0.52,0.6,0.62
13.642578,0.09365825,0.03960972,0.18861166,0.54,0.55,0.64,17671,10431.6,80,0,3,5.74,0.49,13.3,0.54,0.55,0.64
11.943359,0.064658254,0.005609719,0.16061166,0.55,0.53,0.65,17738,10429.9,80,0,3,3.71,-1.89,11.34,0.55,0.53,0.65
11.943359,0.011658256,-0.02439028,0.15461166,0.57,0.51,0.67,17745,10429.9,80,0,3,0,-3.99,10.92,0.57,0.51,0.67
12.642578,-0.07634174,-0.049390275,0.17461166,0.57,0.52,0.68,17747,10430.6,80,0,3,-6.16,-5.74,12.32,0.57,0.52,0.68
13.042969,-0.12534176,-0.06239028,0.17261167,0.58,0.54,0.68,17748,10431,80,0,3,-9.59,-6.65,12.18,0.58,0.54,0.68
13.042969,-0.13834175,-0.06339027,0.13761166,0.57,0.57,0.66,17768,10431,80,0,3,-10.5,-6.72,9.73,0.57,0.57,0.66
13.042969,-0.11334174,-0.073390275,0.073611654,0.56,0.59,0.65,17791,10431,80,0,3,-8.75,-7.42,5.25,0.56,0.59,0.65
14.042969,-0.10334174,-0.10639028,-0.022388346,0.57,0.59,0.65,17821,10432,0,0,3,-8.05,-9.73,-1.47,0.57,0.59,0.65
13.042969,-0.10634174,-0.15539028,-0.13138835,0.57,0.59,0.64,17838,10431,0,0,3,-8.26,-13.16,-9.1,0.57,0.59,0.64
13.042969,-0.12134174,-0.20639028,-0.21938835,0.58,0.61,0.65,17858,10431,0,0,3,-9.31,-16.73,-15.26,0.58,0.61,0.65
11.943359,-0.18434176,-0.24939029,-0.24038833,0.61,0.62,0.69,17880,10429.9,0,0,3,-13.72,-19.74,-16.73,0.61,0.62,0.69
10.943359,-0.25734174,-0.2783903,-0.22038834,0.63,0.62,0.67,17903,10428.9,0,0,3,-18.83,-21.77,-15.33,0.63,0.62,0.67
11.943359,-0.23134175,-0.29239026,-0.22638834,0.6,0.58,0.62,17925,10429.9,0,0,3,-17.01,-22.75,-15.75,0.6,0.58,0.62
14.042969,-0.14534174,-0.29439026,-0.24438834,0.59,0.59,0.6,17941,10432,0,0,3,-10.99,-22.89,-17.01,0.59,0.59,0.6
7.9433594,-0.06634174,-0.28739026,-0.26838836,0.59,0.59,0.6,17956,10425.9,0,0,3,-5.46,-22.4,-18.69,0.59,0.59,0.6
12.342773,-0.015341745,-0.27339026,-0.28438833,0.59,0.58,0.6,17978,10430.3,0,0,3,-1.89,-21.42,-19.81,0.59,0.58,0.6
13.342773,-0.0033417437,-0.25439027,-0.29638833,0.58,0.6,0.59,18001,10431.3,0,0,3,-1.05,-20.09,-20.65,0.58,0.6,0.59
10.243164,-0.016341746,-0.22439028,-0.31638834,0.58,0.6,0.6,18023,10428.2,0,0,3,-1.96,-17.99,-22.05,0.58,0.6,0.6
4.243164,-0.05934174,-0.19239028,-0.31938833,0.6,0.59,0.59,18046,10422.2,0,0,3,-4.97,-15.75,-22.26,0.6,0.59,0.59
9.943359,-0.10834174,-0.17739028,-0.32638833,0.62,0.58,0.57,18068,10427.9,0,0,3,-8.4,-14.7,-22.75,0.62,0.58,0.57
11.642578,-0.16834176,-0.1853903,-0.31638834,0.65,0.58,0.56,18083,10429.6,0,0,3,-12.6,-15.26,-22.05,0.65,0.58,0.56
10.342773,-0.25334173,-0.21139029,-0.29738835,0.67,0.58,0.55,18106,10428.3,0,0,3,-18.55,-17.08,-20.72,0.67,0.58,0.55
9.342773,-0.32434174,-0.23739026,-0.26638833,0.66,0.61,0.53,18128,10427.3,0,0,3,-23.52,-18.9,-18.55,0.66,0.61,0.53
6.9433594,-0.33634177,-0.25539026,-0.24238835,0.65,0.65,0.48,18151,10424.9,0,0,3,-24.36,-20.16,-16.87,0.65,0.65,0.48
9.342773,-0.28034174,-0.28539026,-0.24338835,0.62,0.68,0.48,18172,10427.3,0,0,3,-20.44,-22.26,-16.94,0.62,0.68,0.48
2.243164,-0.23334174,-0.30239028,-0.25338835,0.61,0.67,0.51,18187,10420.2,0,0,3,-17.15,-23.45,-17.64,0.61,0.67,0.51
4.5429688,-0.20134175,-0.3083903,-0.27038833,0.61,0.65,0.52,18202,10422.5,0,0,3,-14.91,-23.87,-18.83,0.61,0.65,0.52
5.9433594,-0.15834175,-0.30039027,-0.29038835,0.59,0.64,0.52,18233,10423.9,0,0,3,-11.9,-23.31,-20.23,0.59,0.64,0.52
5.5429688,-0.095341735,-0.29839027,-0.33738834,0.59,0.63,0.52,18240,10423.5,0,0,3,-7.49,-23.17,-23.52,0.59,0.63,0.52
3.243164,-0.040341746,-0.31339025,-0.38938835,0.59,0.64,0.51,18263,10421.2,0,0,3,-3.64,-24.22,-27.16,0.59,0.64,0.51
1.8427734,0.035658255,-0.34039026,-0.44638833,0.59,0.68,0.48,18285,10419.8,0,0,3,1.68,-26.11,-31.15,0.59,0.68,0.48
3.243164,0.13565826,-0.39439026,-0.51238835,0.6,0.67,0.48,18308,10421.2,0,0,3,8.68,-29.89,-35.77,0.6,0.67,0.48
1.1425781,0.19965824,-0.45439026,-0.5473884,0.61,0.67,0.49,18331,10419.1,0,0,3,13.16,-34.09,-38.22,0.61,0.67,0.49
0.54296875,0.22065826,-0.5263903,-0.56238836,0.62,0.72,0.49,18353,10418.5,0,0,3,14.63,-39.13,-39.27,0.62,0.72,0.49
2.5429688,0.22165824,-0.6163903,-0.57838833,0.65,0.75,0.5,18375,10420.5,0,0,3,14.7,-45.43,-40.39,0.65,0.75,0.5
-5.5566406,0.19865826,-0.6873903,-0.53938836,0.67,0.71,0.51,18398,10412.4,0,0,3,13.09,-50.4,-37.66,0.67,0.71,0.51
-1.5566406,0.16665825,-0.7413903,-0.5283884,0.62,0.69,0.52,18413,10416.4,0,0,3,10.85,-54.18,-36.89,0.62,0.69,0.52
-0.8574219,0.13465825,-0.7693903,-0.5863884,0.57,0.7,0.53,18435,10417.1,0,0,3,8.61,-56.14,-40.95,0.57,0.7,0.53
-0.15722656,0.11465826,-0.7663903,-0.65638834,0.53,0.72,0.52,18450,10417.8,0,0,3,7.21,-55.93,-45.85,0.53,0.72,0.52
1.5429688,0.11865825,-0.7413903,-0.72438836,0.5,0.75,0.52,18496,10419.5,0,0,3,7.49,-54.18,-50.61,0.5,0.75,0.52
2.243164,0.15465826,-0.6663903,-0.81238836,0.46,0.76,0.51,18498,10420.2,0,0,3,10.01,-48.93,-56.77,0.46,0.76,0.51
1.5429688,0.18465824,-0.5923903,-0.8803884,0.45,0.75,0.51,18510,10419.5,0,0,3,12.11,-43.75,-61.53,0.45,0.75,0.51
1.5429688,0.18565826,-0.5193903,-0.8883884,0.44,0.73,0.51,18526,10419.5,0,0,3,12.18,-38.64,-62.09,0.44,0.73,0.51
1.5429688,0.19365825,-0.43139026,-0.8233884,0.44,0.74,0.5,18563,10419.5,0,0,3,12.74,-32.48,-57.54,0.44,0.74,0.5
1.5429688,0.20465825,-0.34239027,-0.7643884,0.45,0.76,0.51,18571,10419.5,0,0,3,13.51,-26.25,-53.41,0.45,0.76,0.51
-1.4570312,0.21365826,-0.24539028,-0.70638835,0.43,0.76,0.5,18608,10416.5,0,0,3,14.14,-19.46,-49.35,0.43,0.76,0.5
1.1425781,0.24065827,-0.15439029,-0.6603884,0.41,0.79,0.48,18624,10419.1,0,0,3,16.03,-13.09,-46.13,0.41,0.79,0.48
0.84277344,0.27165827,-0.09039028,-0.6673884,0.4,0.81,0.47,18639,10418.8,80,0,3,18.2,-8.61,-46.62,0.4,0.81,0.47
-0.45703125,0.28665826,-0.04539028,-0.69338834,0.41,0.8,0.45,18661,10417.5,80,0,3,19.25,-5.46,-48.44,0.41,0.8,0.45
0.54296875,0.28365827,-0.02239028,-0.6853884,0.41,0.8,0.45,18677,10418.5,80,0,3,19.04,-3.85,-47.88,0.41,0.8,0.45
0.54296875,0.27765825,0.00060971826,-0.65438837,0.4,0.8,0.44,18690,10418.5,80,0,3,18.62,-2.24,-45.71,0.4,0.8,0.44
2.5429688,0.26965824,0.28360972,-0.6203884,0.38,0.8,0.45,18713,10420.5,80,0,3,18.06,17.57,-43.33,0.38,0.8,0.45
0.54296875,0.24365824,0.06460972,-0.5933884,0.38,0.82,0.44,18736,10418.5,80,0,3,16.24,2.24,-41.44,0.38,0.82,0.44
1.5429688,0.22865824,0.09260972,-0.5603884,0.37,0.82,0.42,18751,10419.5,80,0,3,15.19,4.2,-39.13,0.37,0.82,0.42
2.5429688,0.21265824,0.10660972,-0.50438833,0.36,0.81,0.41,18773,10420.5,80,0,3,14.07,5.18,-35.21,0.36,0.81,0.41
-4.5566406,0.18465824,0.10860972,-0.45038834,0.35,0.81,0.4,18795,10413.4,80,0,3,12.11,5.32,-31.43,0.35,0.81,0.4
2.5429688,0.14765826,0.10360971,-0.42838833,0.33,0.82,0.38,18818,10420.5,80,0,3,9.52,4.97,-29.89,0.33,0.82,0.38
2.8427734,0.116658255,0.10360971,-0.42438835,0.31,0.85,0.38,18841,10420.8,80,0,3,7.35,4.97,-29.61,0.31,0.85,0.38
1.8427734,0.10265826,0.11560972,-0.42238835,0.31,0.88,0.39,18855,10419.8,80,0,3,6.37,5.81,-29.47,0.31,0.88,0.39
2.8427734,0.09165826,0.13560972,-0.42338836,0.31,0.88,0.4,18883,10420.8,80,0,3,5.6,7.21,-29.54,0.31,0.88,0.4
1.8427734,0.10965826,0.18060972,-0.39838836,0.27,0.92,0.39,18900,10419.8,80,0,3,6.86,10.36,-27.79,0.27,0.92,0.39
2.8427734,0.16565825,0.27460974,-0.38938835,0.25,0.93,0.41,18923,10420.8,80,0,3,10.78,16.94,-27.16,0.25,0.93,0.41
0.54296875,0.20165825,0.36660972,-0.38038835,0.24,0.92,0.43,18946,10418.5,80,0,3,13.3,23.38,-26.53,0.24,0.92,0.43
2.8427734,0.21865825,0.43660975,-0.36738837,0.23,0.92,0.43,18969,10420.8,80,0,3,14.49,28.28,-25.62,0.23,0.92,0.43
5.9433594,0.25665826,0.5346097,-0.35038835,0.2,0.95,0.42,18990,10423.9,80,0,3,17.15,35.14,-24.43,0.2,0.95,0.42
3.9433594,0.31265825,0.6436097,-0.35038835,0.18,0.95,0.42,19005,10421.9,80,0,3,21.07,42.77,-24.43,0.18,0.95,0.42
3.9433594,0.36265823,0.7496097,-0.34338835,0.16,0.92,0.4,19028,10421.9,80,0,3,24.57,50.19,-23.94,0.16,0.92,0.4
4.243164,0.39265826,0.8276097,-0.32038835,0.16,0.91,0.39,19050,10422.2,80,0,3,26.67,55.65,-22.33,0.16,0.91,0.39
3.5429688,0.40865827,0.8916097,-0.26438835,0.15,0.91,0.38,19066,10421.5,80,0,3,27.79,60.13,-18.41,0.15,0.91,0.38
3.9433594,0.41265824,0.9476097,-0.20838834,0.15,0.9,0.37,19088,10421.9,80,0,3,28.07,64.05,-14.49,0.15,0.9,0.37
4.9433594,0.40765825,0.99560976,-0.14238834,0.13,0.9,0.37,19111,10422.9,80,0,3,27.72,67.41,-9.87,0.13,0.9,0.37
4.9433594,0.38465825,1.0826097,-0.08338834,0.1,0.9,0.39,19164,10422.9,80,0,3,26.11,73.5,-5.74,0.1,0.9,0.39
6.9433594,0.31765825,1.1926097,-0.07438835,0.07,0.91,0.41,19166,10424.9,80,0,3,21.42,81.2,-5.11,0.07,0.91,0.41
7.243164,0.23465824,1.3056097,-0.124388345,0.08,0.94,0.4,19184,10425.2,80,0,3,15.61,89.11,-8.61,0.08,0.94,0.4
6.243164,0.18765825,1.3776097,-0.19238834,0.09,0.98,0.38,19193,10424.2,80,0,3,12.32,94.15,-13.37,0.09,0.98,0.38
9.342773,0.16865824,1.4236097,-0.27738833,0.09,1.04,0.35,19209,10427.3,80,0,3,10.99,97.37,-19.32,0.09,1.04,0.35
7.9433594,0.24665827,1.4546098,-0.35938832,0.11,1.05,0.31,19231,10425.9,80,0,3,16.45,99.54,-25.06,0.11,1.05,0.31
7.9433594,0.37465826,1.4336097,-0.37038833,0.13,1.01,0.3,19253,10425.9,80,0,3,25.41,98.07,-25.83,0.13,1.01,0.3
11.042969,0.44065827,1.3606097,-0.33838835,0.11,0.97,0.31,19276,10429,80,0,3,30.03,92.96,-23.59,0.11,0.97,0.31
7.9433594,0.45565826,1.2456098,-0.30138835,0.1,0.94,0.29,19299,10425.9,80,0,3,31.08,84.91,-21,0.1,0.94,0.29
11.342773,0.42865825,1.0786097,-0.25238833,0.09,0.96,0.24,19329,10429.3,80,0,3,29.19,73.22,-17.57,0.09,0.96,0.24
11.342773,0.41065827,0.9446097,-0.20638834,0.06,0.95,0.21,19347,10429.3,80,0,3,27.93,63.84,-14.35,0.06,0.95,0.21
13.042969,0.41465825,0.8296097,-0.13238834,0.05,0.95,0.2,19358,10431,80,0,3,28.21,55.79,-9.17,0.05,0.95,0.2
14.042969,0.38565826,0.72560966,-0.055388346,0.05,0.94,0.2,19381,10432,80,0,3,26.18,48.51,-3.78,0.05,0.94,0.2
17.44336,0.34565824,0.61760974,0.012611655,0.04,0.92,0.2,19403,10435.4,80,0,3,23.38,40.95,0.98,0.04,0.92,0.2
16.342773,0.33765826,0.55160975,0.084611654,0.01,0.93,0.2,19425,10434.3,80,0,3,22.82,36.33,6.02,0.01,0.93,0.2
18.743164,0.35065824,0.5236097,0.13561167,-0,0.94,0.19,19448,10436.7,80,0,3,23.73,34.37,9.59,-0,0.94,0.19
18.44336,0.36065826,0.5096097,0.18161167,0,0.93,0.2,19455,10436.4,80,0,3,24.43,33.39,12.81,0,0.93,0.2
20.142578,0.35665825,0.49760973,0.25861168,0.02,0.91,0.2,19478,10438.1,80,0,3,24.15,32.55,18.2,0.02,0.91,0.2
21.44336,0.32765827,0.48060974,0.31661165,0.02,0.91,0.18,19501,10439.4,80,0,3,22.12,31.36,22.26,0.02,0.91,0.18
22.142578,0.29965824,0.45360973,0.33761165,0,0.92,0.17,19523,10440.1,0,0,3,20.16,29.47,23.73,0,0.92,0.17
23.542969,0.28465825,0.42460975,0.31761166,-0.02,1,0.15,19546,10441.5,0,0,3,19.11,27.44,22.33,-0.02,1,0.15
22.44336,0.24965824,0.38260972,0.26261166,-0.02,1.06,0.15,19568,10440.4,0,0,3,16.66,24.5,18.48,-0.02,1.06,0.15
20.44336,0.18265826,0.35160974,0.20161165,-0.02,1.06,0.18,19590,10438.4,0,0,3,11.97,22.33,14.21,-0.02,1.06,0.18
23.542969,0.09865826,0.34060973,0.16261165,0.01,0.96,0.2,19613,10441.5,0,0,3,6.09,21.56,11.48,0.01,0.96,0.2
22.44336,0.023658255,0.32860973,0.18261166,0.04,0.92,0.19,19633,10440.4,0,0,3,0.84,20.72,12.88,0.04,0.92,0.19
23.542969,-0.019341744,0.30660975,0.22861166,0.03,0.96,0.17,19650,10441.5,0,0,3,-2.17,19.18,16.1,0.03,0.96,0.17
25.542969,-0.028341744,0.2776097,0.23461166,0.02,0.99,0.15,19680,10443.5,0,0,3,-2.8,17.15,16.52,0.02,0.99,0.15
20.44336,0.0016582562,0.26060972,0.22561166,0.01,0.99,0.14,19688,10438.4,0,0,3,-0.7,15.96,15.89,0.01,0.99,0.14
24.542969,0.033658255,0.23660971,0.19661166,0.01,1,0.13,19710,10442.5,0,0,3,1.54,14.28,13.86,0.01,1,0.13
23.542969,0.056658257,0.20360972,0.16161166,0.01,1,0.14,19726,10441.5,0,0,3,3.15,11.97,11.41,0.01,1,0.14
23.542969,0.056658257,0.16360971,0.13861166,0.03,0.99,0.15,19747,10441.5,0,0,3,3.15,9.17,9.8,0.03,0.99,0.15
22.842773,0.026658256,0.13960971,0.15061167,0.05,0.98,0.17,19770,10440.8,0,0,3,1.05,7.49,10.64,0.05,0.98,0.17
21.842773,-0.020341747,0.12460972,0.18261166,0.05,0.97,0.18,19793,10439.8,0,0,3,-2.24,6.44,12.88,0.05,0.97,0.18
22.44336,-0.08034174,0.10860972,0.20361166,0.05,0.97,0.18,19816,10440.4,0,0,3,-6.44,5.32,14.35,0.05,0.97,0.18
23.542969,-0.12334173,0.088609725,0.19261166,0.05,0.98,0.18,19838,10441.5,0,0,3,-9.45,3.92,13.58,0.05,0.98,0.18
23.542969,-0.14234175,0.06060972,0.17661166,0.06,0.98,0.18,19853,10441.5,0,0,3,-10.78,1.96,12.46,0.06,0.98,0.18
24.542969,-0.14034176,0.03160972,0.15461166,0.06,1.01,0.18,19875,10442.5,0,0,3,-10.64,-0.07,10.92,0.06,1.01,0.18
22.44336,-0.10634174,0.004609719,0.12961166,0.05,1.01,0.17,19913,10440.4,0,0,3,-8.26,-1.96,9.17,0.05,1.01,0.17
23.542969,-0.054341745,-0.017390281,0.11261165,0.06,1.01,0.18,19950,10441.5,0,0,3,-4.62,-3.5,7.98,0.06,1.01,0.18
22.44336,-0.026341747,-0.02839028,0.11161165,0.06,1,0.18,19951,10440.4,0,0,3,-2.66,-4.27,7.91,0.06,1,0.18
21.842773,-0.0073417453,-0.034390282,0.11561164,0.07,1,0.19,19953,10439.8,0,0,3,-1.33,-4.69,8.19,0.07,1,0.19
22.44336,-0.0013417443,-0.03639028,0.12361165,0.07,0.98,0.2,19973,10440.4,0,0,3,-0.91,-4.83,8.75,0.07,0.98,0.2
22.44336,-0.009341744,-0.025390279,0.13861166,0.07,0.98,0.2,19988,10440.4,0,0,3,-1.47,-4.06,9.8,0.07,0.98,0.2
22.44336,-0.016341746,-0.00039028004,0.15661167,0.08,0.98,0.21,20012,10440.4,0,0,3,-1.96,-2.31,11.06,0.08,0.98,0.21
22.842773,-0.033341747,0.01960972,0.16761166,0.08,0.97,0.2,20033,10440.8,0,0,3,-3.15,-0.91,11.83,0.08,0.97,0.2
22.842773,-0.060341742,0.033609718,0.16761166,0.09,0.98,0.2,20055,10440.8,0,0,3,-5.04,0.07,11.83,0.09,0.98,0.2
22.44336,-0.08034174,0.04260972,0.14461166,0.1,0.99,0.19,20070,10440.4,0,0,3,-6.44,0.7,10.22,0.1,0.99,0.19
18.743164,-0.09034174,0.04860972,0.12161165,0.1,1,0.19,20093,10436.7,0,0,3,-7.14,1.12,8.61,0.1,1,0.19
23.842773,-0.09434174,0.03860972,0.09361165,0.11,1,0.19,20115,10441.8,0,0,3,-7.42,0.42,6.65,0.11,1,0.19
23.542969,-0.095341735,0.02260972,0.07161165,0.12,1,0.19,20168,10441.5,0,0,3,-7.49,-0.7,5.11,0.12,1,0.19
22.842773,-0.09034174,-0.0023902804,0.054611657,0.12,0.99,0.19,20169,10440.8,0,0,3,-7.14,-2.45,3.92,0.12,0.99,0.19
21.44336,-0.08234174,-0.02239028,0.047611658,0.12,1,0.19,20184,10439.4,0,0,3,-6.58,-3.85,3.43,0.12,1,0.19
20.842773,-0.06834174,-0.03639028,0.042611655,0.12,1,0.19,20191,10438.8,0,0,3,-5.6,-4.83,3.08,0.12,1,0.19
22.842773,-0.048341744,-0.050390277,0.037611656,0.11,1,0.19,20206,10440.8,0,0,3,-4.2,-5.81,2.73,0.11,1,0.19
21.842773,-0.032341745,-0.05939028,0.023611654,0.1,1,0.19,20221,10439.8,0,0,3,-3.08,-6.44,1.75,0.1,1,0.19
20.842773,-0.0013417443,-0.05839028,0.015611655,0.1,1,0.19,20243,10438.8,0,0,3,-0.91,-6.37,1.19,0.1,1,0.19
23.842773,0.009658256,-0.05639028,0.007611654,0.1,0.98,0.19,20273,10441.8,0,0,3,-0.14,-6.23,0.63,0.1,0.98,0.19
18.743164,0.008658256,-0.04839028,0.014611655,0.1,0.97,0.2,20296,10436.7,0,0,3,-0.21,-5.67,1.12,0.1,0.97,0.2
18.44336,-0.0023417445,-0.042390283,0.028611653,0.1,0.98,0.2,20311,10436.4,0,0,3,-0.98,-5.25,2.1,0.1,0.98,0.2
20.842773,-0.013341744,-0.038390275,0.029611655,0.1,0.99,0.19,20333,10438.8,0,0,3,-1.75,-4.97,2.17,0.1,0.99,0.19
19.743164,-0.012341742,-0.03339028,0.029611655,0.1,0.99,0.19,20355,10437.7,0,0,3,-1.68,-4.62,2.17,0.1,0.99,0.19
19.142578,-0.008341744,-0.032390285,0.019611653,0.1,0.99,0.19,20370,10437.1,0,0,3,-1.4,-4.55,1.47,0.1,0.99,0.19
21.142578,-0.0023417445,-0.030390281,0.010611653,0.1,0.99,0.2,20393,10439.1,0,0,3,-0.98,-4.41,0.84,0.1,0.99,0.2
20.142578,0.009658256,-0.042390283,-0.009388346,0.1,1,0.19,20417,10438.1,0,0,3,-0.14,-5.25,-0.56,0.1,1,0.19
16.743164,0.029658254,-0.04539028,-0.019388346,0.1,1,0.19,20433,10434.7,0,0,3,1.26,-5.46,-1.26,0.1,1,0.19
11.042969,0.04265826,-0.053390283,-0.027388347,0.1,0.99,0.18,20453,10429,0,0,3,2.17,-6.02,-1.82,0.1,0.99,0.18
16.743164,0.046658255,-0.061390277,-0.026388347,0.1,0.98,0.19,20468,10434.7,0,0,3,2.45,-6.58,-1.75,0.1,0.98,0.19
16.743164,0.041658256,-0.06839028,-0.028388347,0.1,0.98,0.19,20491,10434.7,0,0,3,2.1,-7.07,-1.89,0.1,0.98,0.19
17.042969,0.032658257,-0.06739028,-0.019388346,0.09,0.98,0.19,20521,10435,0,0,3,1.47,-7,-1.26,0.09,0.98,0.19
17.042969,0.034658257,-0.05639028,-0.0053883465,0.09,0.97,0.19,20528,10435,0,0,3,1.61,-6.23,-0.28,0.09,0.97,0.19
16.042969,0.036658257,-0.039390277,0.010611653,0.09,0.98,0.19,20551,10434,0,0,3,1.75,-5.04,0.84,0.09,0.98,0.19
15.743164,0.020658255,-0.034390282,0.013611654,0.09,0.97,0.2,20573,10433.7,0,0,3,0.63,-4.69,1.05,0.09,0.97,0.2
16.042969,0.012658256,-0.02239028,0.021611653,0.09,0.98,0.2,20595,10434,0,0,3,0.07,-3.85,1.61,0.09,0.98,0.2
17.042969,0.008658256,-0.02639028,0.020611653,0.1,0.99,0.19,20623,10435,0,0,3,-0.21,-4.13,1.54,0.1,0.99,0.19
15.042969,0.016658256,-0.027390279,0.028611653,0.1,0.98,0.19,20656,10433,0,0,3,0.35,-4.2,2.1,0.1,0.98,0.19
14.342773,0.019658256,-0.032390285,0.036611658,0.1,0.98,0.2,20663,10432.3,0,0,3,0.56,-4.55,2.66,0.1,0.98,0.2
15.042969,0.012658256,-0.030390281,0.039611652,0.1,0.98,0.2,20678,10433,0,0,3,0.07,-4.41,2.87,0.1,0.98,0.2
14.042969,0.009658256,-0.02439028,0.042611655,0.1,0.98,0.2,20693,10432,0,0,3,-0.14,-3.99,3.08,0.1,0.98,0.2
15.042969,0.0036582556,-0.01339028,0.035611656,0.1,0.98,0.2,20708,10433,0,0,3,-0.56,-3.22,2.59,0.1,0.98,0.2
14.042969,-0.0033417437,0.005609719,0.023611654,0.1,0.98,0.2,20731,10432,0,0,3,-1.05,-1.89,1.75,0.1,0.98,0.2
14.042969,-0.023341745,0.02160972,0.018611653,0.11,0.96,0.21,20753,10432,0,0,3,-2.45,-0.77,1.4,0.11,0.96,0.21
14.042969,-0.050341748,0.03260972,0.018611653,0.11,0.98,0.22,20774,10432,0,0,3,-4.34,0,1.4,0.11,0.98,0.22
12.743164,-0.055341747,0.03960972,0.014611655,0.12,1,0.2,20805,10430.7,0,0,3,-4.69,0.49,1.12,0.12,1,0.2
12.042969,-0.041341744,0.033609718,0.000611654,0.11,1,0.2,20813,10430,0,0,3,-3.71,0.07,0.14,0.11,1,0.2
14.042969,-0.019341744,0.02260972,-0.016388346,0.11,1,0.2,20835,10432,0,0,3,-2.17,-0.7,-1.05,0.11,1,0.2
11.042969,0.0026582563,0.01760972,-0.028388347,0.11,0.98,0.2,20859,10429,0,0,3,-0.63,-1.05,-1.89,0.11,0.98,0.2
8.943359,0.011658256,0.01060972,-0.027388347,0.11,0.98,0.21,20881,10426.9,0,0,3,0,-1.54,-1.82,0.11,0.98,0.21
10.042969,0.015658256,0.0136097185,-0.015388346,0.1,0.98,0.2,20910,10428,0,0,3,0.28,-1.33,-0.98,0.1,0.98,0.2
8.943359,0.015658256,0.020609722,-0.014388346,0.1,0.98,0.21,20926,10426.9,0,0,3,0.28,-0.84,-0.91,0.1,0.98,0.21
11.042969,0.010658256,0.03560972,-0.011388346,0.1,0.98,0.21,20948,10429,0,0,3,-0.07,0.21,-0.7,0.1,0.98,0.21
11.042969,0.000658256,0.03460972,-0.011388346,0.1,0.97,0.21,20971,10429,0,0,3,-0.77,0.14,-0.7,0.1,0.97,0.21
10.042969,-0.015341745,0.03460972,-0.008388346,0.1,0.97,0.21,20985,10428,0,0,3,-1.89,0.14,-0.49,0.1,0.97,0.21
9.342773,-0.026341747,0.03060972,-0.0013883461,0.1,0.98,0.21,21008,10427.3,0,0,3,-2.66,-0.14,0,0.1,0.98,0.21
7.3427734,-0.027341746,0.02260972,-0.007388346,0.1,0.98,0.21,21030,10425.3,0,0,3,-2.73,-0.7,-0.42,0.1,0.98,0.21
8.943359,-0.018341742,0.014609721,-0.011388346,0.1,0.98,0.21,21045,10426.9,0,0,3,-2.1,-1.26,-0.7,0.1,0.98,0.21
9.642578,-0.018341742,0.0066097192,-0.017388348,0.1,0.98,0.21,21068,10427.6,0,0,3,-2.1,-1.82,-1.12,0.1,0.98,0.21
8.943359,-0.024341743,-0.0013902821,-0.019388346,0.1,0.98,0.22,21091,10426.9,0,0,3,-2.52,-2.38,-1.26,0.1,0.98,0.22
9.342773,-0.026341747,-0.0073902793,-0.024388347,0.1,0.98,0.22,21113,10427.3,0,0,3,-2.66,-2.8,-1.61,0.1,0.98,0.22
9.342773,-0.026341747,-0.01139028,-0.022388346,0.09,0.98,0.22,21135,10427.3,0,0,3,-2.66,-3.08,-1.47,0.09,0.98,0.22
9.342773,-0.017341744,-0.008390278,-0.012388346,0.09,0.98,0.22,21157,10427.3,0,0,3,-2.03,-2.87,-0.77,0.09,0.98,0.22
10.342773,-0.014341745,-0.01139028,-0.0033883462,0.09,0.99,0.22,21181,10428.3,80,0,3,-1.82,-3.08,-0.14,0.09,0.99,0.22
7.642578,-0.008341744,-0.00939028,-0.009388346,0.08,0.98,0.22,21203,10425.6,80,0,3,-1.4,-2.94,-0.56,0.08,0.98,0.22
9.342773,-0.0023417445,-0.0023902804,-0.017388348,0.08,0.99,0.23,21211,10427.3,80,0,3,-0.98,-2.45,-1.12,0.08,0.99,0.23
8.342773,0.0026582563,-0.0013902821,-0.018388348,0.09,0.98,0.22,21225,10426.3,80,0,3,-0.63,-2.38,-1.19,0.09,0.98,0.22
0.24316406,0.008658256,0.004609719,-0.009388346,0.09,0.98,0.22,21242,10418.2,80,0,3,-0.21,-1.96,-0.56,0.09,0.98,0.22
8.342773,0.012658256,0.005609719,-0.0013883461,0.09,0.98,0.22,21266,10426.3,80,0,3,0.07,-1.89,0,0.09,0.98,0.22
7.9433594,0.016658256,0.0066097192,0.002611654,0.09,0.98,0.22,21270,10425.9,80,0,3,0.35,-1.82,0.28,0.09,0.98,0.22
8.342773,0.020658255,0.008609721,-0.0013883461,0.08,0.98,0.22,21293,10426.3,80,0,3,0.63,-1.68,0,0.08,0.98,0.22
7.3427734,0.027658258,0.00960972,-0.0063883457,0.08,0.99,0.22,21315,10425.3,80,0,3,1.12,-1.61,-0.35,0.08,0.99,0.22
9.342773,0.032658257,0.0136097185,-0.012388346,0.08,0.98,0.22,21323,10427.3,80,0,3,1.47,-1.33,-0.77,0.08,0.98,0.22
8.342773,0.036658257,0.01760972,-0.012388346,0.08,0.98,0.22,21338,10426.3,80,0,3,1.75,-1.05,-0.77,0.08,0.98,0.22
9.342773,0.036658257,0.024609718,-0.0033883462,0.09,0.97,0.22,21353,10427.3,80,0,3,1.75,-0.56,-0.14,0.09,0.97,0.22
8.342773,0.027658258,0.02260972,0.000611654,0.09,0.97,0.22,21375,10426.3,80,0,3,1.12,-0.7,0.14,0.09,0.97,0.22
9.342773,0.024658255,0.024609718,0.012611655,0.09,0.98,0.22,21390,10427.3,80,0,3,0.91,-0.56,0.98,0.09,0.98,0.22
8.342773,0.022658255,0.02660972,0.012611655,0.08,0.99,0.22,21420,10426.3,80,0,3,0.77,-0.42,0.98,0.08,0.99,0.22
8.642578,0.021658257,0.02660972,-0.00038834603,0.08,0.98,0.22,21421,10426.6,80,0,3,0.7,-0.42,0.07,0.08,0.98,0.22
7.642578,0.018658256,0.02560972,-0.0053883465,0.08,0.98,0.22,21435,10425.6,80,0,3,0.49,-0.49,-0.28,0.08,0.98,0.22
9.342773,0.013658256,0.02360972,-0.004388346,0.09,0.98,0.22,21450,10427.3,80,0,3,0.14,-0.63,-0.21,0.09,0.98,0.22
8.642578,0.016658256,0.02360972,-0.0013883461,0.09,0.98,0.22,21465,10426.6,80,0,3,0.35,-0.63,0,0.09,0.98,0.22
10.642578,0.018658256,0.01860972,0.000611654,0.08,0.98,0.22,21488,10428.6,80,0,3,0.49,-0.98,0.14,0.08,0.98,0.22
10.642578,0.019658256,0.0136097185,-0.00038834603,0.08,0.98,0.21,21511,10428.6,80,0,3,0.56,-1.33,0.07,0.08,0.98,0.21
10.642578,0.020658255,0.0066097192,-0.0063883457,0.08,0.98,0.22,21533,10428.6,80,0,3,0.63,-1.82,-0.35,0.08,0.98,0.22
11.743164,0.023658255,0.0066097192,-0.0053883465,0.08,0.98,0.21,21534,10429.7,80,0,3,0.84,-1.82,-0.28,0.08,0.98,0.21
12.743164,0.021658257,0.005609719,-0.0013883461,0.08,0.98,0.22,21548,10430.7,80,0,3,0.7,-1.89,0,0.08,0.98,0.22
14.743164,0.015658256,0.00060971826,0.002611654,0.08,0.98,0.22,21563,10432.7,80,0,3,0.28,-2.24,0.28,0.08,0.98,0.22
13.743164,0.012658256,0.0026097205,0.008611654,0.08,0.97,0.22,21585,10431.7,80,0,3,0.07,-2.1,0.7,0.08,0.97,0.22
13.743164,0.012658256,0.004609719,0.017611654,0.08,0.98,0.22,21601,10431.7,80,0,3,0.07,-1.96,1.33,0.08,0.98,0.22
14.743164,0.015658256,0.004609719,0.017611654,0.08,0.98,0.21,21616,10432.7,80,0,3,0.28,-1.96,1.33,0.08,0.98,0.21
13.743164,0.020658255,0.004609719,0.018611653,0.08,0.98,0.21,21630,10431.7,80,0,3,0.63,-1.96,1.4,0.08,0.98,0.21
15.743164,0.023658255,0.008609721,0.018611653,0.08,0.98,0.22,21645,10433.7,80,0,3,0.84,-1.68,1.4,0.08,0.98,0.22
15.743164,0.019658256,0.0036097206,0.021611653,0.09,0.97,0.22,21661,10433.7,80,0,3,0.56,-2.03,1.61,0.09,0.97,0.22
15.443359,0.018658256,0.0026097205,0.029611655,0.09,0.98,0.22,21683,10433.4,80,0,3,0.49,-2.1,2.17,0.09,0.98,0.22
16.44336,0.024658255,0.0016097184,0.033611655,0.08,0.98,0.21,21698,10434.4,80,0,3,0.91,-2.17,2.45,0.08,0.98,0.21
11.743164,0.021658257,-0.0013902821,0.035611656,0.09,0.98,0.22,21714,10429.7,80,0,3,0.7,-2.38,2.59,0.09,0.98,0.22
14.743164,0.024658255,0.0036097206,0.035611656,0.08,0.98,0.22,21728,10432.7,80,0,3,0.91,-2.03,2.59,0.08,0.98,0.22
15.743164,0.025658257,0.0026097205,0.038611654,0.09,0.98,0.21,21742,10433.7,80,0,3,0.98,-2.1,2.8,0.09,0.98,0.21
16.743164,0.030658256,0.008609721,0.041611657,0.08,0.98,0.21,21757,10434.7,80,0,3,1.33,-1.68,3.01,0.08,0.98,0.21
14.743164,0.034658257,0.00960972,0.034611654,0.08,0.99,0.21,21781,10432.7,80,0,3,1.61,-1.61,2.52,0.08,0.99,0.21
18.142578,0.035658255,0.016609719,0.025611654,0.08,0.99,0.21,21803,10436.1,80,0,3,1.68,-1.12,1.89,0.08,0.99,0.21
14.743164,0.032658257,0.024609718,0.015611655,0.08,0.98,0.21,21818,10432.7,80,0,3,1.47,-0.56,1.19,0.08,0.98,0.21
14.443359,0.021658257,0.02660972,0.014611655,0.09,0.98,0.21,21825,10432.4,80,0,3,0.7,-0.42,1.12,0.09,0.98,0.21
15.743164,0.011658256,0.02960972,0.025611654,0.09,0.98,0.21,21840,10433.7,80,0,3,0,-0.21,1.89,0.09,0.98,0.21
14.743164,0.011658256,0.02860972,0.039611652,0.09,0.98,0.21,21863,10432.7,80,0,3,0,-0.28,2.87,0.09,0.98,0.21
14.743164,0.0076582558,0.02360972,0.042611655,0.09,0.98,0.21,21892,10432.7,80,0,3,-0.28,-0.63,3.08,0.09,0.98,0.21
13.743164,0.009658256,0.01960972,0.034611654,0.09,0.98,0.21,21894,10431.7,80,0,3,-0.14,-0.91,2.52,0.09,0.98,0.21
14.443359,0.011658256,0.01960972,0.031611655,0.09,0.98,0.2,21908,10432.4,80,0,3,0,-0.91,2.31,0.09,0.98,0.2
16.743164,0.0146582555,0.01960972,0.028611653,0.09,0.98,0.21,21923,10434.7,80,0,3,0.21,-0.91,2.1,0.09,0.98,0.21
15.743164,0.012658256,0.02160972,0.030611655,0.09,0.98,0.21,21938,10433.7,80,0,3,0.07,-0.77,2.24,0.09,0.98,0.21
13.743164,0.009658256,0.02360972,0.033611655,0.09,0.98,0.21,21953,10431.7,80,0,3,-0.14,-0.63,2.45,0.09,0.98,0.21
14.743164,0.0016582562,0.02760972,0.035611656,0.09,0.98,0.21,21975,10432.7,80,0,3,-0.7,-0.35,2.59,0.09,0.98,0.21
15.042969,-0.0033417437,0.02960972,0.036611658,0.1,0.98,0.21,21990,10433,80,0,3,-1.05,-0.21,2.66,0.1,0.98,0.21
14.443359,-0.0013417443,0.03260972,0.039611652,0.1,0.98,0.21,22005,10432.4,80,0,3,-0.91,0,2.87,0.1,0.98,0.21
13.743164,0.000658256,0.03060972,0.037611656,0.09,0.98,0.21,22035,10431.7,80,0,3,-0.77,-0.14,2.73,0.09,0.98,0.21
16.142578,0.0036582556,0.02660972,0.022611652,0.09,0.99,0.21,22036,10434.1,80,0,3,-0.56,-0.42,1.68,0.09,0.99,0.21
15.042969,0.0076582558,0.03160972,0.016611652,0.1,0.98,0.21,22065,10433,0,0,3,-0.28,-0.07,1.26,0.1,0.98,0.21
15.042969,0.011658256,0.03560972,0.016611652,0.1,0.98,0.21,22096,10433,0,0,3,0,0.21,1.26,0.1,0.98,0.21
15.042969,0.010658256,0.03160972,0.013611654,0.09,0.98,0.21,22103,10433,0,0,3,-0.07,-0.07,1.05,0.09,0.98,0.21
15.042969,0.0046582557,0.02760972,0.012611655,0.1,0.98,0.21,22133,10433,0,0,3,-0.49,-0.35,0.98,0.1,0.98,0.21
14.042969,-0.0013417443,0.02360972,0.015611655,0.09,0.98,0.21,22141,10432,0,0,3,-0.91,-0.63,1.19,0.09,0.98,0.21
15.042969,-0.0033417437,0.02260972,0.020611653,0.09,0.98,0.21,22163,10433,0,0,3,-1.05,-0.7,1.54,0.09,0.98,0.21
15.443359,0.000658256,0.02260972,0.021611653,0.09,0.98,0.21,22177,10433.4,0,0,3,-0.77,-0.7,1.61,0.09,0.98,0.21
14.743164,0.0076582558,0.02260972,0.017611654,0.09,0.99,0.21,22200,10432.7,0,0,3,-0.28,-0.7,1.33,0.09,0.99,0.21
14.042969,0.012658256,0.020609722,0.010611653,0.09,0.98,0.21,22207,10432,0,0,3,0.07,-0.84,0.84,0.09,0.98,0.21
11.042969,0.009658256,0.02760972,0.012611655,0.09,0.98,0.21,22222,10429,0,0,3,-0.14,-0.35,0.98,0.09,0.98,0.21
15.042969,0.006658256,0.02860972,0.009611654,0.09,0.98,0.21,22253,10433,0,0,3,-0.35,-0.28,0.77,0.09,0.98,0.21
15.042969,0.006658256,0.02660972,0.011611654,0.09,0.98,0.21,22267,10433,0,0,3,-0.35,-0.42,0.91,0.09,0.98,0.21
16.142578,0.011658256,0.02660972,0.016611652,0.09,0.98,0.21,22290,10434.1,0,0,3,0,-0.42,1.26,0.09,0.98,0.21
10.042969,0.009658256,0.02260972,0.0066116545,0.09,0.98,0.21,22313,10428,0,0,3,-0.14,-0.7,0.56,0.09,0.98,0.21
17.142578,0.006658256,0.01860972,0.002611654,0.09,0.98,0.21,22328,10435.1,0,0,3,-0.35,-0.98,0.28,0.09,0.98,0.21
14.042969,0.011658256,0.0136097185,0.0056116544,0.1,0.98,0.21,22357,10432,0,0,3,0,-1.33,0.49,0.1,0.98,0.21
15.042969,0.011658256,0.008609721,0.013611654,0.09,0.98,0.21,22373,10433,0,0,3,0,-1.68,1.05,0.09,0.98,0.21
15.042969,0.011658256,0.0076097194,0.011611654,0.08,0.98,0.21,22396,10433,0,0,3,0,-1.75,0.91,0.08,0.98,0.21
15.042969,0.009658256,0.0066097192,0.0016116537,0.08,0.98,0.21,22410,10433,0,0,3,-0.14,-1.82,0.21,0.08,0.98,0.21
14.443359,0.006658256,0.0066097192,-0.00038834603,0.08,0.98,0.21,22425,10432.4,0,0,3,-0.35,-1.82,0.07,0.08,0.98,0.21
16.44336,0.0076582558,0.01060972,0.002611654,0.09,0.98,0.21,22448,10434.4,0,0,3,-0.28,-1.54,0.28,0.09,0.98,0.21
15.042969,0.006658256,0.01060972,0.013611654,0.09,0.98,0.21,22462,10433,0,0,3,-0.35,-1.54,1.05,0.09,0.98,0.21
16.44336,0.0036582556,0.008609721,0.022611652,0.09,0.97,0.21,22478,10434.4,0,0,3,-0.56,-1.68,1.68,0.09,0.97,0.21
15.042969,0.000658256,0.008609721,0.030611655,0.09,0.98,0.21,22508,10433,0,0,3,-0.77,-1.68,2.24,0.09,0.98,0.21
17.142578,0.0016582562,0.0036097206,0.031611655,0.09,0.98,0.21,22515,10435.1,0,0,3,-0.7,-2.03,2.31,0.09,0.98,0.21
14.042969,0.008658256,0.0076097194,0.027611652,0.09,0.98,0.21,22537,10432,0,0,3,-0.21,-1.75,2.03,0.09,0.98,0.21
15.743164,0.006658256,0.0076097194,0.022611652,0.09,0.98,0.21,22561,10433.7,0,0,3,-0.35,-1.75,1.68,0.09,0.98,0.21
15.443359,-0.0033417437,0.008609721,0.021611653,0.1,0.97,0.21,22590,10433.4,0,0,3,-1.05,-1.68,1.61,0.1,0.97,0.21
14.443359,-0.008341744,0.0026097205,0.027611652,0.1,0.99,0.21,22612,10432.4,0,0,3,-1.4,-2.1,2.03,0.1,0.99,0.21
15.443359,-0.015341745,-0.0043902807,0.024611654,0.09,0.98,0.21,22628,10433.4,0,0,3,-1.89,-2.59,1.82,0.09,0.98,0.21
15.042969,-0.017341744,-0.008390278,0.021611653,0.1,0.98,0.21,22643,10433,0,0,3,-2.03,-2.87,1.61,0.1,0.98,0.21
15.743164,-0.020341747,-0.0073902793,0.022611652,0.09,0.98,0.21,22672,10433.7,0,0,3,-2.24,-2.8,1.68,0.09,0.98,0.21
18.142578,-0.019341744,-0.0073902793,0.019611653,0.09,0.98,0.21,22674,10436.1,0,0,3,-2.17,-2.8,1.47,0.09,0.98,0.21
16.44336,-0.011341744,-0.006390281,0.019611653,0.09,0.98,0.21,22688,10434.4,0,0,3,-1.61,-2.73,1.47,0.09,0.98,0.21
14.443359,-0.010341744,-0.0053902827,0.017611654,0.09,0.99,0.21,22703,10432.4,0,0,3,-1.54,-2.66,1.33,0.09,0.99,0.21
16.44336,-0.0063417433,-0.0023902804,0.011611654,0.09,0.98,0.21,22725,10434.4,0,0,3,-1.26,-2.45,0.91,0.09,0.98,0.21
16.44336,-0.0013417443,-0.0033902787,0.009611654,0.09,0.99,0.22,22748,10434.4,0,0,3,-0.91,-2.52,0.77,0.09,0.99,0.22
20.542969,0.006658256,-0.0033902787,0.000611654,0.09,0.98,0.21,22762,10438.5,0,0,3,-0.35,-2.52,0.14,0.09,0.98,0.21
19.44336,0.012658256,-0.0053902827,-0.002388346,0.1,0.98,0.22,22785,10437.4,0,0,3,0.07,-2.66,-0.07,0.1,0.98,0.22
21.542969,0.015658256,-0.0033902787,0.000611654,0.09,0.98,0.21,22815,10439.5,0,0,3,0.28,-2.52,0.14,0.09,0.98,0.21
21.842773,0.019658256,-0.006390281,-0.0013883461,0.1,0.98,0.21,22831,10439.8,0,0,3,0.56,-2.73,0,0.1,0.98,0.21
22.542969,0.0146582555,-0.006390281,0.0056116544,0.09,0.97,0.22,22847,10440.5,0,0,3,0.21,-2.73,0.49,0.09,0.97,0.22
17.44336,0.013658256,-0.008390278,0.0056116544,0.09,0.98,0.22,22890,10435.4,0,0,3,0.14,-2.87,0.49,0.09,0.98,0.22
27.542969,0.012658256,-0.0033902787,0.011611654,0.09,0.98,0.22,22898,10445.5,0,0,3,0.07,-2.52,0.91,0.09,0.98,0.22
22.142578,0.011658256,0.00060971826,0.015611655,0.09,0.98,0.22,22905,10440.1,0,0,3,0,-2.24,1.19,0.09,0.98,0.22
26.542969,0.009658256,0.00060971826,0.010611653,0.09,0.97,0.22,22932,10444.5,0,0,3,-0.14,-2.24,0.84,0.09,0.97,0.22
22.542969,0.0056582564,0.0036097206,0.009611654,0.09,0.98,0.22,22948,10440.5,0,0,3,-0.42,-2.03,0.77,0.09,0.98,0.22
22.542969,0.000658256,0.0036097206,0.013611654,0.09,0.98,0.22,22958,10440.5,0,0,3,-0.77,-2.03,1.05,0.09,0.98,0.22
21.542969,-0.00034174323,0.0026097205,0.013611654,0.09,0.98,0.21,22973,10439.5,0,0,3,-0.84,-2.1,1.05,0.09,0.98,0.21
23.842773,0.0036582556,0.005609719,0.023611654,0.1,0.98,0.22,23003,10441.8,0,0,3,-0.56,-1.89,1.75,0.1,0.98,0.22
23.542969,0.0036582556,0.0016097184,0.028611653,0.09,0.98,0.21,23017,10441.5,0,0,3,-0.56,-2.17,2.1,0.09,0.98,0.21
22.542969,0.000658256,0.005609719,0.025611654,0.09,0.98,0.22,23048,10440.5,0,0,3,-0.77,-1.89,1.89,0.09,0.98,0.22
20.842773,-0.013341744,0.008609721,0.016611652,0.09,0.98,0.22,23062,10438.8,0,0,3,-1.75,-1.68,1.26,0.09,0.98,0.22
20.44336,-0.018341742,0.014609721,0.026611654,0.1,0.98,0.22,23092,10438.4,0,0,3,-2.1,-1.26,1.96,0.1,0.98,0.22
21.842773,-0.020341747,0.0136097185,0.034611654,0.1,0.98,0.22,23100,10439.8,0,0,3,-2.24,-1.33,2.52,0.1,0.98,0.22
20.842773,-0.012341742,0.01260972,0.038611654,0.1,0.98,0.22,23122,10438.8,0,0,3,-1.68,-1.4,2.8,0.1,0.98,0.22
21.842773,-0.012341742,0.00960972,0.037611656,0.1,0.98,0.22,23153,10439.8,0,0,3,-1.68,-1.61,2.73,0.1,0.98,0.22
20.842773,-0.010341744,0.008609721,0.035611656,0.1,0.98,0.22,23160,10438.8,0,0,3,-1.54,-1.68,2.59,0.1,0.98,0.22
19.842773,-0.011341744,0.00960972,0.038611654,0.1,0.97,0.22,23175,10437.8,0,0,3,-1.61,-1.61,2.8,0.1,0.97,0.22
23.542969,-0.016341746,0.01060972,0.044611655,0.1,0.97,0.22,23190,10441.5,0,0,3,-1.96,-1.54,3.22,0.1,0.97,0.22
19.842773,-0.020341747,0.01160972,0.047611658,0.1,0.97,0.22,23213,10437.8,0,0,3,-2.24,-1.47,3.43,0.1,0.97,0.22
19.44336,-0.022341747,0.01160972,0.051611654,0.1,0.98,0.22,23228,10437.4,0,0,3,-2.38,-1.47,3.71,0.1,0.98,0.22
19.44336,-0.020341747,0.01760972,0.047611658,0.1,0.98,0.22,23250,10437.4,0,0,3,-2.24,-1.05,3.43,0.1,0.98,0.22
20.542969,-0.016341746,0.02160972,0.039611652,0.1,0.98,0.23,23272,10438.5,0,0,3,-1.96,-0.77,2.87,0.1,0.98,0.23
19.44336,-0.017341744,0.020609722,0.033611655,0.11,0.98,0.23,23287,10437.4,0,0,3,-2.03,-0.84,2.45,0.11,0.98,0.23
20.542969,-0.011341744,0.02160972,0.029611655,0.1,0.98,0.22,23311,10438.5,0,0,3,-1.61,-0.77,2.17,0.1,0.98,0.22
20.542969,-0.008341744,0.020609722,0.029611655,0.11,0.98,0.23,23332,10438.5,0,0,3,-1.4,-0.84,2.17,0.11,0.98,0.23
20.842773,-0.009341744,0.01860972,0.024611654,0.1,0.98,0.23,23355,10438.8,0,0,3,-1.47,-0.98,1.82,0.1,0.98,0.23
20.842773,-0.004341745,0.020609722,0.021611653,0.1,0.98,0.23,23377,10438.8,0,0,3,-1.12,-0.84,1.61,0.1,0.98,0.23
20.842773,-0.0023417445,0.01860972,0.015611655,0.1,0.98,0.23,23401,10438.8,0,0,3,-0.98,-0.98,1.19,0.1,0.98,0.23
19.842773,-0.00034174323,0.02260972,0.014611655,0.1,0.98,0.23,23415,10437.8,0,0,3,-0.84,-0.7,1.12,0.1,0.98,0.23
19.842773,-0.0023417445,0.01960972,0.017611654,0.11,0.97,0.23,23431,10437.8,0,0,3,-0.98,-0.91,1.33,0.11,0.97,0.23
18.842773,-0.0033417437,0.01760972,0.021611653,0.11,0.97,0.23,23445,10436.8,0,0,3,-1.05,-1.05,1.61,0.11,0.97,0.23
19.842773,-0.0033417437,0.01760972,0.025611654,0.1,0.97,0.23,23468,10437.8,0,0,3,-1.05,-1.05,1.89,0.1,0.97,0.23
21.142578,-0.00034174323,0.016609719,0.035611656,0.11,0.98,0.23,23483,10439.1,0,0,3,-0.84,-1.12,2.59,0.11,0.98,0.23
13.743164,0.0016582562,0.016609719,0.033611655,0.1,0.97,0.23,23498,10431.7,0,0,3,-0.7,-1.12,2.45,0.1,0.97,0.23
19.842773,0.0046582557,0.016609719,0.037611656,0.11,0.97,0.23,23520,10437.8,0,0,3,-0.49,-1.12,2.73,0.11,0.97,0.23
17.44336,0.0056582564,0.01960972,0.045611653,0.11,0.98,0.23,23535,10435.4,0,0,3,-0.42,-0.91,3.29,0.11,0.98,0.23
20.842773,0.0056582564,0.01760972,0.040611655,0.11,0.98,0.23,23558,10438.8,0,0,3,-0.42,-1.05,2.94,0.11,0.98,0.23
19.142578,0.0056582564,0.02160972,0.039611652,0.11,0.98,0.23,23580,10437.1,0,0,3,-0.42,-0.77,2.87,0.11,0.98,0.23
17.842773,0.0046582557,0.020609722,0.037611656,0.11,0.98,0.23,23603,10435.8,0,0,3,-0.49,-0.84,2.73,0.11,0.98,0.23
18.142578,0.006658256,0.0136097185,0.029611655,0.11,0.98,0.23,23626,10436.1,0,0,3,-0.35,-1.33,2.17,0.11,0.98,0.23
18.142578,0.012658256,0.01060972,0.010611653,0.11,0.98,0.23,23648,10436.1,0,0,3,0.07,-1.54,0.84,0.11,0.98,0.23
17.842773,0.0146582555,0.008609721,0.008611654,0.11,0.98,0.23,23670,10435.8,0,0,3,0.21,-1.68,0.7,0.11,0.98,0.23
17.142578,0.018658256,0.008609721,0.010611653,0.11,0.97,0.23,23685,10435.1,0,0,3,0.49,-1.68,0.84,0.11,0.97,0.23
16.743164,0.020658255,0.004609719,0.016611652,0.11,0.98,0.23,23701,10434.7,0,0,3,0.63,-1.96,1.26,0.11,0.98,0.23
22.842773,0.019658256,0.0066097192,0.017611654,0.11,0.98,0.23,23715,10440.8,0,0,3,0.56,-1.82,1.33,0.11,0.98,0.23
19.142578,0.017658256,0.008609721,0.012611655,0.11,0.98,0.23,23730,10437.1,0,0,3,0.42,-1.68,0.98,0.11,0.98,0.23
17.142578,0.013658256,0.01060972,0.002611654,0.11,0.98,0.23,23752,10435.1,0,0,3,0.14,-1.54,0.28,0.11,0.98,0.23
17.842773,0.012658256,0.01060972,0.0066116545,0.11,0.98,0.23,23783,10435.8,0,0,3,0.07,-1.54,0.56,0.11,0.98,0.23
16.142578,0.015658256,0.00960972,0.012611655,0.12,0.97,0.23,23798,10434.1,0,0,3,0.28,-1.61,0.98,0.12,0.97,0.23
18.142578,0.0146582555,0.0036097206,0.018611653,0.11,0.97,0.23,23820,10436.1,0,0,3,0.21,-2.03,1.4,0.11,0.97,0.23
20.842773,0.0146582555,0.00060971826,0.014611655,0.11,0.98,0.23,23842,10438.8,0,0,3,0.21,-2.24,1.12,0.11,0.98,0.23
17.842773,0.019658256,-0.00039028004,0.012611655,0.11,0.98,0.23,23865,10435.8,0,0,3,0.56,-2.31,0.98,0.11,0.98,0.23
17.142578,0.017658256,0.0016097184,0.010611653,0.11,0.97,0.23,23880,10435.1,0,0,3,0.42,-2.17,0.84,0.11,0.97,0.23
18.142578,0.013658256,0.0076097194,0.010611653,0.12,0.97,0.23,23902,10436.1,0,0,3,0.14,-1.75,0.84,0.12,0.97,0.23
18.142578,0.0146582555,0.014609721,0.012611655,0.11,0.98,0.23,23925,10436.1,0,0,3,0.21,-1.26,0.98,0.11,0.98,0.23
17.142578,0.019658256,0.015609719,0.007611654,0.11,0.98,0.23,23948,10435.1,0,0,3,0.56,-1.19,0.63,0.11,0.98,0.23
18.142578,0.015658256,0.015609719,0.002611654,0.11,0.98,0.23,23963,10436.1,0,0,3,0.28,-1.19,0.28,0.11,0.98,0.23
17.142578,0.016658256,0.016609719,0.002611654,0.11,0.98,0.23,23977,10435.1,0,0,3,0.35,-1.12,0.28,0.11,0.98,0.23
16.142578,0.021658257,0.0136097185,-0.0013883461,0.11,0.98,0.23,24000,10434.1,0,0,3,0.7,-1.33,0,0.11,0.98,0.23
17.142578,0.028658256,0.015609719,-0.0033883462,0.11,0.98,0.23,24016,10435.1,0,0,3,1.19,-1.19,-0.14,0.11,0.98,0.23
17.142578,0.033658255,0.014609721,-0.009388346,0.11,0.98,0.23,24038,10435.1,0,0,3,1.54,-1.26,-0.56,0.11,0.98,0.23
17.142578,0.026658256,0.0136097185,-0.010388345,0.11,0.97,0.23,24061,10435.1,0,0,3,1.05,-1.33,-0.63,0.11,0.97,0.23
16.142578,0.021658257,0.015609719,-0.0033883462,0.11,0.97,0.23,24075,10434.1,0,0,3,0.7,-1.19,-0.14,0.11,0.97,0.23
15.142578,0.0146582555,0.016609719,0.000611654,0.11,0.97,0.23,24098,10433.1,0,0,3,0.21,-1.12,0.14,0.11,0.97,0.23
14.042969,0.015658256,0.020609722,0.0046116533,0.11,0.96,0.23,24120,10432,0,0,3,0.28,-0.84,0.42,0.11,0.96,0.23
11.042969,0.0146582555,0.02160972,0.018611653,0.11,0.97,0.23,24151,10429,0,0,3,0.21,-0.77,1.4,0.11,0.97,0.23
12.042969,0.010658256,0.01960972,0.024611654,0.11,0.97,0.23,24166,10430,0,0,3,-0.07,-0.91,1.82,0.11,0.97,0.23
10.342773,0.010658256,0.02160972,0.024611654,0.1,0.98,0.22,24180,10428.3,0,0,3,-0.07,-0.77,1.82,0.1,0.98,0.22
9.042969,0.0146582555,0.024609718,0.018611653,0.11,0.98,0.23,24195,10427,0,0,3,0.21,-0.56,1.4,0.11,0.98,0.23
7.642578,0.013658256,0.02560972,0.012611655,0.11,0.98,0.23,24211,10425.6,0,0,3,0.14,-0.49,0.98,0.11,0.98,0.23
6.3427734,0.012658256,0.03060972,0.007611654,0.11,0.98,0.23,24225,10424.3,0,0,3,0.07,-0.14,0.63,0.11,0.98,0.23
6.9433594,0.011658256,0.033609718,0.009611654,0.11,0.98,0.23,24240,10424.9,0,0,3,0,0.07,0.77,0.11,0.98,0.23
6.3427734,0.012658256,0.03560972,0.007611654,0.11,0.98,0.23,24263,10424.3,0,0,3,0.07,0.21,0.63,0.11,0.98,0.23
6.3427734,0.010658256,0.03160972,-0.002388346,0.1,0.98,0.22,24286,10424.3,0,0,3,-0.07,-0.07,-0.07,0.1,0.98,0.22
5.3427734,0.019658256,0.02960972,-0.014388346,0.1,0.99,0.22,24308,10423.3,0,0,3,0.56,-0.21,-0.91,0.1,0.99,0.22
6.3427734,0.028658256,0.02860972,-0.019388346,0.1,0.98,0.22,24331,10424.3,0,0,3,1.19,-0.28,-1.26,0.1,0.98,0.22
6.3427734,0.028658256,0.024609718,-0.021388346,0.1,0.98,0.22,24361,10424.3,0,0,3,1.19,-0.56,-1.4,0.1,0.98,0.22
1.2431641,0.021658257,0.01760972,-0.016388346,0.1,0.97,0.22,24369,10419.2,0,0,3,0.7,-1.05,-1.05,0.1,0.97,0.22
8.342773,0.015658256,0.01260972,-0.012388346,0.1,0.98,0.22,24390,10426.3,0,0,3,0.28,-1.4,-0.77,0.1,0.98,0.22
8.342773,0.0146582555,0.01060972,-0.014388346,0.1,0.98,0.22,24405,10426.3,0,0,3,0.21,-1.54,-0.91,0.1,0.98,0.22
8.342773,0.022658255,0.01260972,-0.007388346,0.1,0.98,0.22,24428,10426.3,0,0,3,0.77,-1.4,-0.42,0.1,0.98,0.22
10.743164,0.031658255,0.014609721,-0.0053883465,0.09,0.98,0.22,24443,10428.7,0,0,3,1.4,-1.26,-0.28,0.09,0.98,0.22
12.443359,0.035658255,0.014609721,0.000611654,0.09,0.98,0.22,24457,10430.4,0,0,3,1.68,-1.26,0.14,0.09,0.98,0.22
12.443359,0.031658255,0.014609721,0.0046116533,0.09,0.98,0.22,24481,10430.4,0,0,3,1.4,-1.26,0.42,0.09,0.98,0.22
11.743164,0.020658255,0.01860972,0.0056116544,0.09,0.97,0.22,24488,10429.7,0,0,3,0.63,-0.98,0.49,0.09,0.97,0.22
14.443359,0.009658256,0.01860972,0.011611654,0.1,0.98,0.22,24511,10432.4,0,0,3,-0.14,-0.98,0.91,0.1,0.98,0.22
8.642578,0.012658256,0.03060972,0.026611654,0.1,0.98,0.22,24533,10426.6,0,0,3,0.07,-0.14,1.96,0.1,0.98,0.22
15.743164,0.015658256,0.02560972,0.024611654,0.1,0.98,0.22,24563,10433.7,0,0,3,0.28,-0.49,1.82,0.1,0.98,0.22
16.142578,0.024658255,0.02660972,0.021611653,0.1,0.98,0.21,24585,10434.1,0,0,3,0.91,-0.42,1.61,0.1,0.98,0.21
17.44336,0.032658257,0.02260972,0.011611654,0.1,0.98,0.22,24600,10435.4,0,0,3,1.47,-0.7,0.91,0.1,0.98,0.22
18.842773,0.030658256,0.02260972,0.010611653,0.1,0.97,0.22,24615,10436.8,0,0,3,1.33,-0.7,0.84,0.1,0.97,0.22
18.44336,0.018658256,0.020609722,0.017611654,0.1,0.97,0.22,24637,10436.4,0,0,3,0.49,-0.84,1.33,0.1,0.97,0.22
18.842773,0.011658256,0.02160972,0.019611653,0.1,0.98,0.22,24661,10436.8,0,0,3,0,-0.77,1.47,0.1,0.98,0.22
16.842773,0.0146582555,0.02360972,0.019611653,0.1,0.98,0.22,24675,10434.8,0,0,3,0.21,-0.63,1.47,0.1,0.98,0.22
18.842773,0.015658256,0.02160972,0.017611654,0.1,0.98,0.22,24700,10436.8,0,0,3,0.28,-0.77,1.33,0.1,0.98,0.22
18.842773,0.012658256,0.01760972,0.009611654,0.1,0.98,0.22,24714,10436.8,0,0,3,0.07,-1.05,0.77,0.1,0.98,0.22
17.44336,0.008658256,0.0136097185,0.009611654,0.1,0.98,0.22,24728,10435.4,0,0,3,-0.21,-1.33,0.77,0.1,0.98,0.22
18.44336,0.009658256,0.0136097185,0.012611655,0.1,0.98,0.21,24743,10436.4,0,0,3,-0.14,-1.33,0.98,0.1,0.98,0.21
18.142578,0.012658256,0.008609721,0.014611655,0.1,0.98,0.21,24765,10436.1,0,0,3,0.07,-1.68,1.12,0.1,0.98,0.21
17.142578,0.013658256,0.0076097194,0.012611655,0.1,0.98,0.22,24788,10435.1,0,0,3,0.14,-1.75,0.98,0.1,0.98,0.22
18.44336,0.013658256,0.0076097194,0.0056116544,0.1,0.98,0.22,24802,10436.4,0,0,3,0.14,-1.75,0.49,0.1,0.98,0.22
19.842773,0.011658256,0.008609721,0.0046116533,0.1,0.98,0.22,24833,10437.8,0,0,3,0,-1.68,0.42,0.1,0.98,0.22
19.542969,0.008658256,0.00960972,0.0036116538,0.1,0.98,0.22,24848,10437.5,0,0,3,-0.21,-1.61,0.35,0.1,0.98,0.22
20.842773,0.0026582563,0.01060972,0.013611654,0.1,0.98,0.22,24870,10438.8,0,0,3,-0.63,-1.54,1.05,0.1,0.98,0.22
21.842773,-0.004341745,0.01060972,0.013611654,0.1,0.98,0.22,24900,10439.8,0,0,3,-1.12,-1.54,1.05,0.1,0.98,0.22
23.94336,-0.010341744,0.005609719,0.010611653,0.1,0.97,0.22,24915,10441.9,0,0,3,-1.54,-1.89,0.84,0.1,0.97,0.22
24.243164,-0.008341744,0.008609721,0.015611655,0.1,0.97,0.22,24932,10442.2,0,0,3,-1.4,-1.68,1.19,0.1,0.97,0.22
25.94336,-0.004341745,0.0036097206,0.013611654,0.1,0.98,0.22,24946,10443.9,0,0,3,-1.12,-2.03,1.05,0.1,0.98,0.22
25.94336,-0.0033417437,0.00060971826,0.017611654,0.1,0.98,0.22,24961,10443.9,0,0,3,-1.05,-2.24,1.33,0.1,0.98,0.22
27.94336,0.000658256,0.004609719,0.023611654,0.1,0.98,0.22,24983,10445.9,0,0,3,-0.77,-1.96,1.75,0.1,0.98,0.22
26.94336,0.0016582562,0.0026097205,0.021611653,0.1,0.98,0.22,24990,10444.9,0,0,3,-0.7,-2.1,1.61,0.1,0.98,0.22
26.642578,0.006658256,0.0076097194,0.020611653,0.1,0.98,0.22,25020,10444.6,0,0,3,-0.35,-1.75,1.54,0.1,0.98,0.22
25.94336,0.0026582563,0.0076097194,0.017611654,0.1,0.98,0.22,25036,10443.9,0,0,3,-0.63,-1.75,1.33,0.1,0.98,0.22
26.94336,0.0016582562,0.01060972,0.019611653,0.1,0.98,0.22,25058,10444.9,0,0,3,-0.7,-1.54,1.47,0.1,0.98,0.22
27.94336,0.0036582556,0.005609719,0.014611655,0.1,0.98,0.22,25081,10445.9,0,0,3,-0.56,-1.89,1.12,0.1,0.98,0.22
26.94336,0.0026582563,0.0026097205,0.013611654,0.1,0.98,0.22,25102,10444.9,0,0,3,-0.63,-2.1,1.05,0.1,0.98,0.22
21.842773,-0.0063417433,-0.0023902804,0.009611654,0.1,0.97,0.22,25125,10439.8,0,0,3,-1.26,-2.45,0.77,0.1,0.97,0.22
29.94336,-0.014341745,-0.0033902787,0.016611652,0.1,0.97,0.23,25140,10447.9,0,0,3,-1.82,-2.52,1.26,0.1,0.97,0.23
26.243164,-0.017341744,-0.0023902804,0.030611655,0.1,0.97,0.23,25170,10444.2,0,0,3,-2.03,-2.45,2.24,0.1,0.97,0.23
26.94336,-0.020341747,-0.0013902821,0.035611656,0.1,0.98,0.22,25178,10444.9,0,0,3,-2.24,-2.38,2.59,0.1,0.98,0.22
17.842773,-0.019341744,-0.00039028004,0.027611652,0.09,0.98,0.23,25200,10435.8,0,0,3,-2.17,-2.31,2.03,0.09,0.98,0.23
23.94336,-0.017341744,0.005609719,0.016611652,0.09,0.98,0.23,25215,10441.9,0,0,3,-2.03,-1.89,1.26,0.09,0.98,0.23
24.94336,-0.019341744,0.005609719,0.009611654,0.1,0.98,0.23,25230,10442.9,0,0,3,-2.17,-1.89,0.77,0.1,0.98,0.23
24.243164,-0.020341747,0.008609721,0.015611655,0.11,0.98,0.23,25252,10442.2,0,0,3,-2.24,-1.68,1.19,0.11,0.98,0.23
24.243164,-0.012341742,0.00960972,0.023611654,0.11,0.98,0.23,25268,10442.2,0,0,3,-1.68,-1.61,1.75,0.11,0.98,0.23
23.94336,-0.013341744,0.0016097184,0.028611653,0.1,0.97,0.23,25290,10441.9,0,0,3,-1.75,-2.17,2.1,0.1,0.97,0.23
24.243164,-0.009341744,-0.0013902821,0.028611653,0.1,0.98,0.23,25313,10442.2,0,0,3,-1.47,-2.38,2.1,0.1,0.98,0.23
23.243164,-0.005341745,-0.006390281,0.027611652,0.1,0.98,0.23,25328,10441.2,0,0,3,-1.19,-2.73,2.03,0.1,0.98,0.23
22.842773,-0.0013417443,-0.0013902821,0.028611653,0.11,0.98,0.24,25350,10440.8,0,0,3,-0.91,-2.38,2.1,0.11,0.98,0.24
23.243164,-0.0023417445,0.004609719,0.027611652,0.11,0.97,0.24,25372,10441.2,0,0,3,-0.98,-1.96,2.03,0.11,0.97,0.24
24.542969,-0.0063417433,0.0076097194,0.031611655,0.11,0.98,0.23,25395,10442.5,0,0,3,-1.26,-1.75,2.31,0.11,0.98,0.23
23.243164,0.000658256,0.01160972,0.024611654,0.1,0.98,0.23,25417,10441.2,0,0,3,-0.77,-1.47,1.82,0.1,0.98,0.23
22.243164,0.008658256,0.01160972,0.012611655,0.1,0.98,0.23,25432,10440.2,0,0,3,-0.21,-1.47,0.98,0.1,0.98,0.23
22.243164,0.0076582558,0.008609721,0.007611654,0.11,0.98,0.23,25447,10440.2,0,0,3,-0.28,-1.68,0.63,0.11,0.98,0.23
22.243164,0.006658256,0.01060972,0.009611654,0.11,0.98,0.23,25463,10440.2,0,0,3,-0.35,-1.54,0.77,0.11,0.98,0.23
21.243164,0.009658256,0.008609721,0.011611654,0.11,0.97,0.23,25478,10439.2,0,0,3,-0.14,-1.68,0.91,0.11,0.97,0.23
22.243164,0.010658256,0.0066097192,0.014611655,0.11,0.98,0.23,25500,10440.2,0,0,3,-0.07,-1.82,1.12,0.11,0.98,0.23
22.243164,0.0076582558,0.005609719,0.013611654,0.11,0.98,0.23,25522,10440.2,0,0,3,-0.28,-1.89,1.05,0.11,0.98,0.23
22.243164,0.008658256,0.0066097192,0.012611655,0.11,0.98,0.23,25537,10440.2,0,0,3,-0.21,-1.82,0.98,0.11,0.98,0.23
20.142578,0.011658256,0.00960972,0.010611653,0.1,0.98,0.23,25560,10438.1,0,0,3,0,-1.61,0.84,0.1,0.98,0.23
21.243164,0.015658256,0.01060972,0.008611654,0.11,0.98,0.23,25582,10439.2,0,0,3,0.28,-1.54,0.7,0.11,0.98,0.23
23.243164,0.018658256,0.015609719,0.009611654,0.11,0.98,0.23,25604,10441.2,0,0,3,0.49,-1.19,0.77,0.11,0.98,0.23
20.542969,0.017658256,0.0136097185,0.010611653,0.11,0.98,0.23,25627,10438.5,0,0,3,0.42,-1.33,0.84,0.11,0.98,0.23
19.542969,0.016658256,0.014609721,0.015611655,0.11,0.98,0.23,25642,10437.5,0,0,3,0.35,-1.26,1.19,0.11,0.98,0.23
19.142578,0.017658256,0.01160972,0.017611654,0.11,0.98,0.23,25665,10437.1,0,0,3,0.42,-1.47,1.33,0.11,0.98,0.23
21.243164,0.021658257,0.01060972,0.014611655,0.11,0.98,0.23,25687,10439.2,0,0,3,0.7,-1.54,1.12,0.11,0.98,0.23
20.142578,0.023658255,0.00960972,0.012611655,0.11,0.98,0.23,25702,10438.1,0,0,3,0.84,-1.61,0.98,0.11,0.98,0.23
21.243164,0.024658255,0.01060972,0.012611655,0.11,0.98,0.23,25717,10439.2,0,0,3,0.91,-1.54,0.98,0.11,0.98,0.23
21.243164,0.026658256,0.01160972,0.012611655,0.11,0.98,0.23,25732,10439.2,0,0,3,1.05,-1.47,0.98,0.11,0.98,0.23
18.142578,0.027658258,0.0136097185,0.011611654,0.11,0.98,0.23,25748,10436.1,0,0,3,1.12,-1.33,0.91,0.11,0.98,0.23
20.142578,0.024658255,0.016609719,0.009611654,0.11,0.98,0.23,25778,10438.1,0,0,3,0.91,-1.12,0.77,0.11,0.98,0.23
21.243164,0.022658255,0.014609721,0.000611654,0.11,0.98,0.23,25792,10439.2,0,0,3,0.77,-1.26,0.14,0.11,0.98,0.23
21.542969,0.026658256,0.015609719,0.0016116537,0.11,0.98,0.22,25815,10439.5,0,0,3,1.05,-1.19,0.21,0.11,0.98,0.22
21.243164,0.020658255,0.01160972,-0.0013883461,0.1,0.97,0.22,25838,10439.2,0,0,3,0.63,-1.47,0,0.1,0.97,0.22
19.542969,0.015658256,0.0076097194,-0.00038834603,0.11,0.98,0.22,25861,10437.5,0,0,3,0.28,-1.75,0.07,0.11,0.98,0.22
19.542969,0.011658256,0.005609719,0.0036116538,0.11,0.98,0.22,25890,10437.5,0,0,3,0,-1.89,0.35,0.11,0.98,0.22
20.542969,0.020658255,0.0066097192,0.007611654,0.1,0.98,0.22,25905,10438.5,0,0,3,0.63,-1.82,0.63,0.1,0.98,0.22
19.542969,0.025658257,0.0076097194,0.013611654,0.1,0.98,0.22,25920,10437.5,0,0,3,0.98,-1.75,1.05,0.1,0.98,0.22
18.542969,0.022658255,0.014609721,0.012611655,0.1,0.98,0.23,25943,10436.5,0,0,3,0.77,-1.26,0.98,0.1,0.98,0.23
18.542969,0.012658256,0.01760972,0.007611654,0.1,0.97,0.23,25965,10436.5,0,0,3,0.07,-1.05,0.63,0.1,0.97,0.23
16.44336,0.0036582556,0.02260972,0.010611653,0.11,0.97,0.23,25988,10434.4,0,0,3,-0.56,-0.7,0.84,0.11,0.97,0.23
17.44336,0.0036582556,0.02360972,0.017611654,0.11,0.98,0.23,25995,10435.4,0,0,3,-0.56,-0.63,1.33,0.11,0.98,0.23
18.142578,0.0046582557,0.02160972,0.018611653,0.11,0.97,0.22,26017,10436.1,0,0,3,-0.49,-0.77,1.4,0.11,0.97,0.22
18.142578,0.0036582556,0.016609719,0.016611652,0.11,0.98,0.23,26040,10436.1,0,0,3,-0.56,-1.12,1.26,0.11,0.98,0.23
16.44336,0.006658256,0.016609719,0.012611655,0.1,0.98,0.23,26055,10434.4,0,0,3,-0.35,-1.12,0.98,0.1,0.98,0.23
15.443359,0.0056582564,0.02160972,0.009611654,0.11,0.97,0.23,26085,10433.4,0,0,3,-0.42,-0.77,0.77,0.11,0.97,0.23
16.44336,0.0016582562,0.024609718,0.012611655,0.11,0.97,0.23,26100,10434.4,0,0,3,-0.7,-0.56,0.98,0.11,0.97,0.23
15.443359,-0.0063417433,0.02860972,0.020611653,0.11,0.97,0.23,26122,10433.4,0,0,3,-1.26,-0.28,1.54,0.11,0.97,0.23
15.443359,-0.004341745,0.033609718,0.023611654,0.11,0.99,0.23,26145,10433.4,0,0,3,-1.12,0.07,1.75,0.11,0.99,0.23
15.443359,0.0036582556,0.03160972,0.015611655,0.1,0.98,0.23,26160,10433.4,0,0,3,-0.56,-0.07,1.19,0.1,0.98,0.23
13.443359,0.010658256,0.02860972,0.002611654,0.11,0.98,0.23,26182,10431.4,0,0,3,-0.07,-0.28,0.28,0.11,0.98,0.23
13.743164,0.013658256,0.02860972,0.0046116533,0.11,0.98,0.23,26205,10431.7,0,0,3,0.14,-0.28,0.42,0.11,0.98,0.23
13.443359,0.0146582555,0.02760972,0.012611655,0.11,0.98,0.23,26220,10431.4,0,0,3,0.21,-0.35,0.98,0.11,0.98,0.23
13.743164,0.012658256,0.02260972,0.014611655,0.11,0.98,0.23,26242,10431.7,0,0,3,0.07,-0.7,1.12,0.11,0.98,0.23
13.443359,0.010658256,0.02360972,0.011611654,0.1,0.98,0.23,26265,10431.4,0,0,3,-0.07,-0.63,0.91,0.1,0.98,0.23
12.443359,0.0146582555,0.02260972,0.009611654,0.1,0.98,0.23,26288,10430.4,0,0,3,0.21,-0.7,0.77,0.1,0.98,0.23
12.743164,0.019658256,0.02960972,0.0066116545,0.11,0.98,0.23,26302,10430.7,0,0,3,0.56,-0.21,0.56,0.11,0.98,0.23
13.042969,0.019658256,0.02860972,-0.0053883465,0.1,0.98,0.23,26326,10431,0,0,3,0.56,-0.28,-0.28,0.1,0.98,0.23
12.743164,0.016658256,0.02860972,-0.004388346,0.1,0.97,0.23,26348,10430.7,0,0,3,0.35,-0.28,-0.21,0.1,0.97,0.23
13.743164,0.011658256,0.02660972,-0.0013883461,0.11,0.97,0.22,26370,10431.7,0,0,3,0,-0.42,0,0.11,0.97,0.22
13.743164,0.006658256,0.01860972,0.0016116537,0.11,0.97,0.22,26392,10431.7,0,0,3,-0.35,-0.98,0.21,0.11,0.97,0.22
13.743164,0.0076582558,0.01260972,0.0056116544,0.1,0.98,0.22,26408,10431.7,0,0,3,-0.28,-1.4,0.49,0.1,0.98,0.22
14.743164,0.010658256,0.005609719,0.0046116533,0.1,0.98,0.22,26431,10432.7,0,0,3,-0.07,-1.89,0.42,0.1,0.98,0.22
13.743164,0.012658256,0.0036097206,0.007611654,0.1,0.98,0.22,26468,10431.7,0,0,3,0.07,-2.03,0.63,0.1,0.98,0.22
13.743164,0.010658256,0.004609719,0.011611654,0.1,0.98,0.23,26469,10431.7,0,0,3,-0.07,-1.96,0.91,0.1,0.98,0.23
13.743164,0.010658256,0.004609719,0.012611655,0.1,0.98,0.22,26483,10431.7,0,0,3,-0.07,-1.96,0.98,0.1,0.98,0.22
13.142578,0.0056582564,0.0066097192,0.009611654,0.1,0.98,0.23,26504,10431.1,0,0,3,-0.42,-1.82,0.77,0.1,0.98,0.23
15.842773,0.006658256,0.01260972,0.009611654,0.1,0.98,0.23,26530,10433.8,0,0,3,-0.35,-1.4,0.77,0.1,0.98,0.23
10.743164,0.0046582557,0.01060972,0.0056116544,0.1,0.98,0.23,26543,10428.7,0,0,3,-0.49,-1.54,0.49,0.1,0.98,0.23
18.842773,0.0026582563,0.01160972,0.007611654,0.1,0.98,0.23,26565,10436.8,0,0,3,-0.63,-1.47,0.63,0.1,0.98,0.23
15.443359,0.0046582557,0.00960972,0.012611655,0.1,0.98,0.23,26595,10433.4,0,0,3,-0.49,-1.61,0.98,0.1,0.98,0.23
14.443359,0.010658256,0.008609721,0.020611653,0.1,0.97,0.23,26610,10432.4,0,0,3,-0.07,-1.68,1.54,0.1,0.97,0.23
15.842773,0.009658256,0.008609721,0.031611655,0.1,0.98,0.23,26633,10433.8,0,0,3,-0.14,-1.68,2.31,0.1,0.98,0.23
15.842773,0.006658256,0.0066097192,0.029611655,0.1,0.98,0.23,26647,10433.8,0,0,3,-0.35,-1.82,2.17,0.1,0.98,0.23
16.842773,0.0036582556,0.0136097185,0.033611655,0.1,0.98,0.23,26670,10434.8,0,0,3,-0.56,-1.33,2.45,0.1,0.98,0.23
15.842773,0.0016582562,0.01060972,0.031611655,0.1,0.98,0.23,26693,10433.8,0,0,3,-0.7,-1.54,2.31,0.1,0.98,0.23
16.842773,0.006658256,0.014609721,0.041611657,0.11,0.98,0.23,26708,10434.8,0,0,3,-0.35,-1.26,3.01,0.11,0.98,0.23
17.842773,0.011658256,0.014609721,0.041611657,0.1,0.98,0.23,26730,10435.8,0,0,3,0,-1.26,3.01,0.1,0.98,0.23
15.842773,0.011658256,0.0136097185,0.033611655,0.11,0.98,0.23,26747,10433.8,0,0,3,0,-1.33,2.45,0.11,0.98,0.23
18.542969,0.016658256,0.01860972,0.031611655,0.1,0.98,0.23,26775,10436.5,0,0,3,0.35,-0.98,2.31,0.1,0.98,0.23
17.142578,0.013658256,0.02160972,0.026611654,0.11,0.97,0.23,26782,10435.1,0,0,3,0.14,-0.77,1.96,0.11,0.97,0.23
16.44336,0.013658256,0.02160972,0.024611654,0.11,0.98,0.23,26805,10434.4,0,0,3,0.14,-0.77,1.82,0.11,0.98,0.23
17.142578,0.011658256,0.01760972,0.027611652,0.11,0.98,0.22,26828,10435.1,0,0,3,0,-1.05,2.03,0.11,0.98,0.22
18.142578,0.0146582555,0.01260972,0.023611654,0.11,0.98,0.22,26858,10436.1,0,0,3,0.21,-1.4,1.75,0.11,0.98,0.22
18.142578,0.022658255,0.00960972,0.016611652,0.1,0.98,0.23,26874,10436.1,0,0,3,0.77,-1.61,1.26,0.1,0.98,0.23
17.142578,0.019658256,0.004609719,0.0036116538,0.11,0.98,0.23,26895,10435.1,0,0,3,0.56,-1.96,0.35,0.11,0.98,0.23
17.142578,0.023658255,0.01060972,0.010611653,0.11,0.97,0.22,26917,10435.1,0,0,3,0.84,-1.54,0.84,0.11,0.97,0.22
18.842773,0.024658255,0.01160972,0.012611655,0.1,0.97,0.23,26940,10436.8,0,0,3,0.91,-1.47,0.98,0.1,0.97,0.23
20.243164,0.020658255,0.0136097185,0.012611655,0.1,0.98,0.22,26955,10438.2,0,0,3,0.63,-1.33,0.98,0.1,0.98,0.22
21.243164,0.019658256,0.016609719,0.014611655,0.1,0.98,0.23,26977,10439.2,0,0,3,0.56,-1.12,1.12,0.1,0.98,0.23
20.243164,0.016658256,0.016609719,0.012611655,0.1,0.97,0.22,26993,10438.2,0,0,3,0.35,-1.12,0.98,0.1,0.97,0.22
22.243164,0.26665825,0.01960972,0.017611654,0.11,0.97,0.23,27015,10440.2,0,0,3,17.85,-0.91,1.33,0.11,0.97,0.23
23.243164,0.0076582558,0.01860972,0.023611654,0.11,0.97,0.23,27030,10441.2,0,0,3,-0.28,-0.98,1.75,0.11,0.97,0.23
15.142578,0.0016582562,0.020609722,0.032611657,0.11,0.97,0.22,27060,10433.1,0,0,3,-0.7,-0.84,2.38,0.11,0.97,0.22
21.842773,-0.005341745,0.01760972,0.041611657,0.11,0.97,0.23,27075,10439.8,0,0,3,-1.19,-1.05,3.01,0.11,0.97,0.23
22.542969,-0.009341744,0.01860972,0.042611655,0.11,0.97,0.22,27098,10440.5,0,0,3,-1.47,-0.98,3.08,0.11,0.97,0.22
22.243164,-0.017341744,0.014609721,0.050611656,0.11,0.97,0.22,27119,10440.2,0,0,3,-2.03,-1.26,3.64,0.11,0.97,0.22
24.243164,-0.030341744,0.01260972,0.055611655,0.11,0.97,0.23,27143,10442.2,0,0,3,-2.94,-1.4,3.99,0.11,0.97,0.23
24.642578,-0.038341746,0.0076097194,0.06361166,0.08,1,0.2,27165,10442.6,0,0,3,-3.5,-1.75,4.55,0.08,1,0.2
24.243164,0.06365826,-0.014390279,-0.051388346,-0.05,1.2,0.12,27188,10442.2,0,0,3,3.64,-3.29,-3.5,-0.05,1.2,0.12
22.542969,0.32765827,0.05260972,-0.41138834,0.01,1.17,0.19,27211,10440.5,0,0,3,22.12,1.4,-28.7,0.01,1.17,0.19
24.94336,0.42965826,0.09960972,-0.5843884,0.12,1.05,0.26,27225,10442.9,0,0,3,29.26,4.69,-40.81,0.12,1.05,0.26
24.243164,0.43765825,0.112609714,-0.5873884,0.19,0.93,0.28,27240,10442.2,0,0,3,29.82,5.6,-41.02,0.19,0.93,0.28
24.243164,0.36265823,0.095609725,-0.46638834,0.19,0.88,0.27,27255,10442.2,0,0,3,24.57,4.41,-32.55,0.19,0.88,0.27
28.642578,0.25965828,0.044609718,-0.27438834,0.16,0.88,0.23,27277,10446.6,0,0,3,17.36,0.84,-19.11,0.16,0.88,0.23
25.243164,0.13265826,-0.0043902807,-0.11638835,0.12,0.88,0.21,27301,10443.2,0,0,3,8.47,-2.59,-8.05,0.12,0.88,0.21
24.642578,0.019658256,-0.053390283,0.007611654,0.09,0.88,0.2,27330,10442.6,0,0,3,0.56,-6.02,0.63,0.09,0.88,0.2
24.642578,-0.09034174,-0.093390286,0.13461167,0.1,0.88,0.19,27337,10442.6,0,0,3,-7.14,-8.82,9.52,0.1,0.88,0.19
24.642578,-0.18534175,-0.1283903,0.28661165,0.1,0.89,0.2,27361,10442.6,0,0,3,-13.79,-11.27,20.16,0.1,0.89,0.2
24.642578,-0.27334175,-0.16639028,0.41261166,0.1,0.89,0.2,27397,10442.6,0,0,3,-19.95,-13.93,28.98,0.1,0.89,0.2
24.642578,-0.36634174,-0.17939028,0.5046116,0.09,0.92,0.2,27405,10442.6,0,0,3,-26.46,-14.84,35.42,0.09,0.92,0.2
24.642578,-0.40534174,-0.17139028,0.53261167,0.07,0.97,0.2,27427,10442.6,0,0,3,-29.19,-14.28,37.38,0.07,0.97,0.2
26.342773,-0.39934176,-0.14339028,0.49961165,0.08,1.01,0.22,27451,10444.3,0,0,3,-28.77,-12.32,35.07,0.08,1.01,0.22
25.243164,-0.35334173,-0.107390285,0.43461168,0.1,1.03,0.24,27473,10443.2,0,0,3,-25.55,-9.8,30.52,0.1,1.03,0.24
24.243164,-0.28934175,-0.07539028,0.37061167,0.1,1.06,0.24,27487,10442.2,0,0,3,-21.07,-7.56,26.04,0.1,1.06,0.24
24.243164,-0.19434175,-0.034390282,0.26761165,0.09,1.11,0.23,27503,10442.2,0,0,3,-14.42,-4.69,18.83,0.09,1.11,0.23
24.642578,-0.013341744,0.03460972,0.09161165,0.09,1.12,0.25,27525,10442.6,0,0,3,-1.75,0.14,6.51,0.09,1.12,0.25
26.642578,0.13465825,0.08660972,-0.095388345,0.12,1.09,0.26,27547,10444.6,0,0,3,8.61,3.78,-6.58,0.12,1.09,0.26
24.642578,0.22565824,0.13360973,-0.21538833,0.15,1.03,0.27,27570,10442.6,0,0,3,14.98,7.07,-14.98,0.15,1.03,0.27
24.642578,0.25865826,0.14960971,-0.25938833,0.16,0.98,0.26,27585,10442.6,0,0,3,17.29,8.19,-18.06,0.16,0.98,0.26
23.542969,0.24565823,0.13860972,-0.25238833,0.16,0.96,0.24,27631,10441.5,0,0,3,16.38,7.42,-17.57,0.16,0.96,0.24
24.642578,0.21065825,0.112609714,-0.21538833,0.15,0.93,0.23,27632,10442.6,0,0,3,13.93,5.6,-14.98,0.15,0.93,0.23
23.542969,0.16565825,0.07560972,-0.16738833,0.14,0.93,0.22,27653,10441.5,0,0,3,10.78,3.01,-11.62,0.14,0.93,0.22
23.542969,0.12665826,0.04160972,-0.10838834,0.13,0.93,0.21,27675,10441.5,0,0,3,8.05,0.63,-7.49,0.13,0.93,0.21
24.642578,0.07065826,-0.00039028004,-0.044388346,0.12,0.92,0.21,27698,10442.6,0,0,3,4.13,-2.31,-3.01,0.12,0.92,0.21
23.243164,0.012658256,-0.031390283,0.015611655,0.12,0.92,0.21,27720,10441.2,0,0,3,0.07,-4.48,1.19,0.12,0.92,0.21
22.243164,-0.03634174,-0.043390285,0.057611655,0.12,0.93,0.21,27735,10440.2,0,0,3,-3.36,-5.32,4.13,0.12,0.93,0.21
26.94336,-0.08234174,-0.04839028,0.094611645,0.11,0.94,0.21,27750,10444.9,0,0,3,-6.58,-5.67,6.72,0.11,0.94,0.21
24.642578,-0.10934175,-0.050390277,0.12061165,0.1,0.97,0.22,27773,10442.6,0,0,3,-8.47,-5.81,8.54,0.1,0.97,0.22
23.542969,-0.10634174,-0.03739028,0.110611655,0.1,0.99,0.22,27795,10441.5,0,0,3,-8.26,-4.9,7.84,0.1,0.99,0.22
22.542969,-0.09234174,-0.01339028,0.096611656,0.11,0.99,0.24,27825,10440.5,0,0,3,-7.28,-3.22,6.86,0.11,0.99,0.24
30.042969,-0.07734174,0.00960972,0.07961165,0.12,0.99,0.24,27840,10448,0,0,3,-6.23,-1.61,5.67,0.12,0.99,0.24
23.94336,-0.05934174,0.020609722,0.057611655,0.12,1,0.24,27870,10441.9,0,0,3,-4.97,-0.84,4.13,0.12,1,0.24
23.243164,-0.034341745,0.02960972,0.033611655,0.12,1,0.24,27885,10441.2,0,0,3,-3.22,-0.21,2.45,0.12,1,0.24
23.542969,-0.0023417445,0.03160972,0.013611654,0.13,1,0.23,27900,10441.5,0,0,3,-0.98,-0.07,1.05,0.13,1,0.23
22.542969,0.020658255,0.02660972,-0.0063883457,0.13,0.99,0.23,27931,10440.5,0,0,3,0.63,-0.42,-0.35,0.13,0.99,0.23
22.542969,0.028658256,0.01960972,-0.020388348,0.12,0.98,0.24,27945,10440.5,0,0,3,1.19,-0.91,-1.33,0.12,0.98,0.24
23.243164,0.029658254,0.0076097194,-0.035388347,0.12,0.97,0.23,27960,10441.2,0,0,3,1.26,-1.75,-2.38,0.12,0.97,0.23
21.94336,0.031658255,0.00960972,-0.032388348,0.12,0.97,0.23,27982,10439.9,0,0,3,1.4,-1.61,-2.17,0.12,0.97,0.23
19.842773,0.026658256,0.0036097206,-0.027388347,0.12,0.97,0.23,27998,10437.8,0,0,3,1.05,-2.03,-1.82,0.12,0.97,0.23
22.94336,0.016658256,-0.0033902787,-0.014388346,0.12,0.96,0.23,28028,10440.9,0,0,3,0.35,-2.52,-0.91,0.12,0.96,0.23
22.94336,0.0076582558,-0.0033902787,-0.0063883457,0.12,0.96,0.23,28043,10440.9,0,0,3,-0.28,-2.52,-0.35,0.12,0.96,0.23
21.94336,0.0026582563,0.0016097184,-0.0013883461,0.11,0.97,0.23,28065,10439.9,0,0,3,-0.63,-2.17,0,0.11,0.97,0.23
15.842773,-0.00034174323,0.005609719,0.0046116533,0.12,0.97,0.24,28087,10433.8,81,97,3,-0.84,-1.89,0.42,0.12,0.97,0.24
27.94336,-0.0073417453,0.0136097185,0.010611653,0.12,0.96,0.24,28110,10445.9,81,97,3,-1.33,-1.33,0.84,0.12,0.96,0.24
22.94336,-0.008341744,0.015609719,0.017611654,0.12,0.98,0.24,28124,10440.9,81,97,3,-1.4,-1.19,1.33,0.12,0.98,0.24
21.542969,-0.00034174323,0.01960972,0.019611653,0.12,0.98,0.23,28148,10439.5,81,97,3,-0.84,-0.91,1.47,0.12,0.98,0.23
20.842773,0.0026582563,0.020609722,0.010611653,0.11,0.98,0.24,28170,10438.8,81,97,3,-0.63,-0.84,0.84,0.11,0.98,0.24
21.94336,0.006658256,0.02160972,-0.0033883462,0.12,0.98,0.24,28192,10439.9,81,97,3,-0.35,-0.77,-0.14,0.12,0.98,0.24
21.94336,0.013658256,0.02260972,-0.002388346,0.12,0.98,0.24,28215,10439.9,81,97,3,0.14,-0.7,-0.07,0.12,0.98,0.24
21.94336,0.015658256,0.01860972,-0.007388346,0.12,0.98,0.24,28230,10439.9,81,97,3,0.28,-0.98,-0.42,0.12,0.98,0.24
21.94336,0.016658256,0.016609719,-0.007388346,0.12,0.98,0.24,28245,10439.9,81,97,3,0.35,-1.12,-0.42,0.12,0.98,0.24
22.94336,0.016658256,0.0136097185,-0.010388345,0.12,0.98,0.23,28260,10440.9,81,97,3,0.35,-1.33,-0.63,0.12,0.98,0.23
21.243164,0.019658256,0.015609719,-0.018388348,0.11,0.98,0.24,28283,10439.2,81,97,3,0.56,-1.19,-1.19,0.11,0.98,0.24
22.243164,0.017658256,0.0136097185,-0.017388348,0.11,0.97,0.23,28305,10440.2,81,97,3,0.42,-1.33,-1.12,0.11,0.97,0.23
21.94336,0.017658256,0.014609721,-0.015388346,0.11,0.97,0.23,28327,10439.9,81,97,3,0.42,-1.26,-0.98,0.11,0.97,0.23
21.94336,0.017658256,0.014609721,-0.009388346,0.11,0.97,0.23,28350,10439.9,81,97,3,0.42,-1.26,-0.56,0.11,0.97,0.23
22.542969,0.0146582555,0.0136097185,-0.008388346,0.11,0.97,0.23,28372,10440.5,81,97,3,0.21,-1.33,-0.49,0.11,0.97,0.23
21.94336,0.010658256,0.016609719,-0.0033883462,0.11,0.97,0.23,28388,10439.9,81,97,3,-0.07,-1.12,-0.14,0.11,0.97,0.23
21.243164,0.006658256,0.016609719,0.0056116544,0.11,0.97,0.23,28410,10439.2,81,97,3,-0.35,-1.12,0.49,0.11,0.97,0.23
20.842773,0.006658256,0.015609719,0.0046116533,0.11,0.98,0.23,28433,10438.8,81,97,3,-0.35,-1.19,0.42,0.11,0.98,0.23
21.243164,0.011658256,0.02360972,0.007611654,0.11,0.97,0.23,28455,10439.2,81,97,3,0,-0.63,0.63,0.11,0.97,0.23
15.142578,0.009658256,0.02160972,0.007611654,0.11,0.97,0.23,28470,10433.1,81,97,3,-0.14,-0.77,0.63,0.11,0.97,0.23
19.842773,0.006658256,0.02360972,0.008611654,0.11,0.97,0.24,28500,10437.8,81,97,3,-0.35,-0.63,0.7,0.11,0.97,0.24
18.142578,0.0056582564,0.02660972,0.017611654,0.11,0.97,0.24,28508,10436.1,81,97,3,-0.42,-0.42,1.33,0.11,0.97,0.24
19.243164,0.0046582557,0.02760972,0.025611654,0.11,0.98,0.23,28530,10437.2,81,97,3,-0.49,-0.35,1.89,0.11,0.98,0.23
18.842773,0.012658256,0.03160972,0.027611652,0.1,0.98,0.23,28552,10436.8,81,97,3,0.07,-0.07,2.03,0.1,0.98,0.23
18.142578,0.017658256,0.03460972,0.015611655,0.1,0.98,0.23,28567,10436.1,81,97,3,0.42,0.14,1.19,0.1,0.98,0.23
16.842773,0.020658255,0.04060972,0.002611654,0.11,0.97,0.24,28590,10434.8,81,97,3,0.63,0.56,0.28,0.11,0.97,0.24
17.142578,0.021658257,0.04560972,0.007611654,0.11,0.98,0.23,28613,10435.1,81,97,3,0.7,0.91,0.63,0.11,0.98,0.23
16.142578,0.017658256,0.04260972,0.014611655,0.11,0.97,0.23,28635,10434.1,81,97,3,0.42,0.7,1.12,0.11,0.97,0.23
16.842773,0.017658256,0.04160972,0.020611653,0.11,0.98,0.23,28665,10434.8,81,97,3,0.42,0.63,1.54,0.11,0.98,0.23
17.142578,0.013658256,0.03560972,0.017611654,0.11,0.97,0.23,28680,10435.1,81,97,3,0.14,0.21,1.33,0.11,0.97,0.23
18.142578,0.0146582555,0.033609718,0.018611653,0.11,0.97,0.23,28703,10436.1,81,97,3,0.21,0.07,1.4,0.11,0.97,0.23
17.142578,0.011658256,0.03260972,0.020611653,0.11,0.97,0.23,28718,10435.1,81,97,3,0,0,1.54,0.11,0.97,0.23
15.443359,0.006658256,0.02960972,0.022611652,0.11,0.97,0.23,28733,10433.4,81,97,3,-0.35,-0.21,1.68,0.11,0.97,0.23
18.142578,0.0056582564,0.03060972,0.022611652,0.11,0.97,0.23,28748,10436.1,81,97,3,-0.42,-0.14,1.68,0.11,0.97,0.23
17.142578,0.0036582556,0.02960972,0.029611655,0.11,0.98,0.23,28770,10435.1,81,97,3,-0.56,-0.21,2.17,0.11,0.98,0.23
15.142578,0.0026582563,0.03160972,0.026611654,0.1,0.97,0.23,28792,10433.1,81,97,3,-0.63,-0.07,1.96,0.1,0.97,0.23
16.142578,-0.0023417445,0.03160972,0.019611653,0.1,0.98,0.23,28815,10434.1,81,97,3,-0.98,-0.07,1.47,0.1,0.98,0.23
16.142578,-0.0073417453,0.03160972,0.016611652,0.11,0.98,0.23,28837,10434.1,81,97,3,-1.33,-0.07,1.26,0.11,0.98,0.23
14.142578,0.0016582562,0.03560972,0.014611655,0.11,0.98,0.23,28860,10432.1,81,97,3,-0.7,0.21,1.12,0.11,0.98,0.23
15.142578,0.0016582562,0.03260972,0.008611654,0.11,0.97,0.23,28874,10433.1,81,97,3,-0.7,0,0.7,0.11,0.97,0.23
14.842773,-0.00034174323,0.02860972,0.007611654,0.11,0.97,0.23,28898,10432.8,81,97,3,-0.84,-0.28,0.63,0.11,0.97,0.23
15.142578,0.000658256,0.02560972,0.0046116533,0.11,0.98,0.23,28920,10433.1,81,97,3,-0.77,-0.49,0.42,0.11,0.98,0.23
15.142578,0.0026582563,0.02260972,0.0036116538,0.11,0.97,0.23,28944,10433.1,81,97,3,-0.63,-0.7,0.35,0.11,0.97,0.23
13.142578,-0.00034174323,0.020609722,0.011611654,0.11,0.97,0.24,28965,10431.1,81,97,3,-0.84,-0.84,0.91,0.11,0.97,0.24
15.142578,-0.014341745,0.015609719,0.017611654,0.11,0.97,0.24,28987,10433.1,81,97,3,-1.82,-1.19,1.33,0.11,0.97,0.24
17.542969,-0.017341744,0.015609719,0.026611654,0.11,0.97,0.24,29002,10435.5,81,97,3,-2.03,-1.19,1.96,0.11,0.97,0.24
14.443359,-0.018341742,0.01260972,0.032611657,0.11,0.98,0.24,29033,10432.4,81,97,3,-2.1,-1.4,2.38,0.11,0.98,0.24
16.542969,-0.015341745,0.01260972,0.034611654,0.11,0.98,0.25,29048,10434.5,81,97,3,-1.89,-1.4,2.52,0.11,0.98,0.25
15.443359,-0.009341744,0.01760972,0.033611655,0.11,0.98,0.25,29070,10433.4,81,97,3,-1.47,-1.05,2.45,0.11,0.98,0.25
14.443359,-0.0073417453,0.02360972,0.032611657,0.11,0.98,0.25,29092,10432.4,81,97,3,-1.33,-0.63,2.38,0.11,0.98,0.25
18.142578,-0.0063417433,0.03260972,0.021611653,0.11,0.98,0.25,29107,10436.1,81,97,3,-1.26,0,1.61,0.11,0.98,0.25
19.542969,-0.004341745,0.04360972,0.010611653,0.11,0.98,0.25,29130,10437.5,81,97,3,-1.12,0.77,0.84,0.11,0.98,0.25
19.542969,0.0036582556,0.05260972,0.0036116538,0.11,0.98,0.25,29153,10437.5,81,97,3,-0.56,1.4,0.35,0.11,0.98,0.25
21.542969,0.020658255,0.05260972,-0.010388345,0.11,0.98,0.24,29175,10439.5,81,97,3,0.63,1.4,-0.63,0.11,0.98,0.24
15.443359,0.036658257,0.055609718,-0.011388346,0.11,0.98,0.24,29205,10433.4,81,97,3,1.75,1.61,-0.7,0.11,0.98,0.24
24.642578,0.039658256,0.05160972,-0.024388347,0.1,0.98,0.24,29220,10442.6,81,97,3,1.96,1.33,-1.61,0.1,0.98,0.24
23.243164,0.039658256,0.04860972,-0.021388346,0.11,0.96,0.24,29235,10441.2,81,97,3,1.96,1.12,-1.4,0.11,0.96,0.24
24.642578,0.032658257,0.04360972,-0.014388346,0.12,0.96,0.24,29250,10442.6,81,97,3,1.47,0.77,-0.91,0.12,0.96,0.24
24.642578,0.024658255,0.03560972,0.007611654,0.12,0.96,0.24,29280,10442.6,81,97,3,0.91,0.21,0.63,0.12,0.96,0.24
26.642578,0.016658256,0.02560972,0.028611653,0.11,0.96,0.24,29295,10444.6,81,97,3,0.35,-0.49,2.1,0.11,0.96,0.24
27.642578,0.006658256,0.01260972,0.031611655,0.11,0.97,0.24,29317,10445.6,81,97,3,-0.35,-1.4,2.31,0.11,0.97,0.24
31.743164,0.0076582558,0.016609719,0.027611652,0.11,0.97,0.24,29340,10449.7,81,97,3,-0.28,-1.12,2.03,0.11,0.97,0.24
29.642578,0.010658256,0.0136097185,0.023611654,0.11,0.98,0.24,29363,10447.6,81,97,3,-0.07,-1.33,1.75,0.11,0.98,0.24
30.743164,0.018658256,0.01960972,0.019611653,0.11,0.98,0.24,29377,10448.7,81,97,3,0.49,-0.91,1.47,0.11,0.98,0.24
33.04297,0.023658255,0.02260972,0.015611655,0.11,0.98,0.24,29400,10451,81,97,3,0.84,-0.7,1.19,0.11,0.98,0.24
32.743164,0.025658257,0.02960972,0.013611654,0.11,0.98,0.24,29422,10450.7,81,97,3,0.98,-0.21,1.05,0.11,0.98,0.24
32.743164,0.028658256,0.02760972,0.014611655,0.11,0.98,0.24,29445,10450.7,81,97,3,1.19,-0.35,1.12,0.11,0.98,0.24
32.04297,0.029658254,0.02560972,0.0056116544,0.11,0.98,0.24,29467,10450,81,97,3,1.26,-0.49,0.49,0.11,0.98,0.24
33.743164,0.033658255,0.02560972,0.002611654,0.11,0.98,0.24,29482,10451.7,81,97,3,1.54,-0.49,0.28,0.11,0.98,0.24
31.743164,0.035658255,0.02760972,0.000611654,0.11,0.97,0.24,29498,10449.7,81,97,3,1.68,-0.35,0.14,0.11,0.97,0.24
30.743164,0.04265826,0.02260972,-0.002388346,0.11,0.97,0.23,29513,10448.7,81,97,3,2.17,-0.7,-0.07,0.11,0.97,0.23
32.44336,0.043658257,0.01260972,0.0056116544,0.11,0.97,0.24,29535,10450.4,81,97,3,2.24,-1.4,0.49,0.11,0.97,0.24
30.743164,0.040658254,-0.0033902787,0.010611653,0.12,0.97,0.24,29558,10448.7,81,97,3,2.03,-2.52,0.84,0.12,0.97,0.24
36.743164,0.049658258,-0.01839028,0.015611655,0.11,0.98,0.24,29588,10454.7,81,97,3,2.66,-3.57,1.19,0.11,0.98,0.24
31.042969,0.04265826,-0.034390282,0.014611655,0.11,0.98,0.24,29603,10449,81,97,3,2.17,-4.69,1.12,0.11,0.98,0.24
30.042969,0.033658255,-0.025390279,0.009611654,0.11,0.98,0.24,29619,10448,81,97,3,1.54,-4.06,0.77,0.11,0.98,0.24
29.642578,0.021658257,-0.015390277,0.0056116544,0.11,0.98,0.23,29640,10447.6,81,97,3,0.7,-3.36,0.49,0.11,0.98,0.23
29.042969,0.010658256,-0.0043902807,-0.00038834603,0.11,0.98,0.24,29664,10447,81,97,3,-0.07,-2.59,0.07,0.11,0.98,0.24
27.642578,0.012658256,0.0026097205,-0.007388346,0.1,0.98,0.23,29685,10445.6,81,97,3,0.07,-2.1,-0.42,0.1,0.98,0.23
28.042969,0.021658257,0.0036097206,-0.015388346,0.1,0.98,0.23,29707,10446,81,97,3,0.7,-2.03,-0.98,0.1,0.98,0.23
26.642578,0.038658258,0.0016097184,-0.016388346,0.11,0.98,0.23,29723,10444.6,81,97,3,1.89,-2.17,-1.05,0.11,0.98,0.23
27.642578,0.039658256,-0.0013902821,-0.014388346,0.11,0.98,0.23,29737,10445.6,81,97,3,1.96,-2.38,-0.91,0.11,0.98,0.23
27.642578,0.030658256,-0.0013902821,-0.008388346,0.11,0.97,0.23,29760,10445.6,81,97,3,1.33,-2.38,-0.49,0.11,0.97,0.23
26.642578,0.025658257,0.0066097192,0.002611654,0.11,0.97,0.23,29779,10444.6,81,97,3,0.98,-1.82,0.28,0.11,0.97,0.23
26.642578,0.012658256,0.0026097205,0.007611654,0.1,0.97,0.23,29797,10444.6,81,97,3,0.07,-2.1,0.63,0.1,0.97,0.23
27.042969,0.0056582564,0.00060971826,0.007611654,0.11,0.97,0.23,29820,10445,78,97,3,-0.42,-2.24,0.63,0.11,0.97,0.23
26.94336,0.0016582562,-0.0023902804,0.019611653,0.11,0.97,0.23,29842,10444.9,78,97,3,-0.7,-2.45,1.47,0.11,0.97,0.23
25.94336,-0.0013417443,-0.00939028,0.027611652,0.11,0.98,0.23,29865,10443.9,78,97,3,-0.91,-2.94,2.03,0.11,0.98,0.23
25.94336,-0.005341745,-0.00939028,0.014611655,0.1,0.98,0.23,29887,10443.9,78,97,3,-1.19,-2.94,1.12,0.1,0.98,0.23
21.94336,-0.0063417433,-0.016390283,0.0046116533,0.11,0.98,0.23,29914,10439.9,78,97,3,-1.26,-3.43,0.42,0.11,0.98,0.23
31.042969,-0.0013417443,-0.012390282,0.007611654,0.11,0.98,0.23,29932,10449,78,97,3,-0.91,-3.15,0.63,0.11,0.98,0.23
26.342773,0.0016582562,-0.01839028,0.015611655,0.11,0.98,0.23,29953,10444.3,78,97,3,-0.7,-3.57,1.19,0.11,0.98,0.23
24.94336,0.0056582564,-0.01339028,0.012611655,0.11,0.98,0.23,29969,10442.9,78,97,3,-0.42,-3.22,0.98,0.11,0.98,0.23
24.94336,0.0026582563,-0.01339028,0.010611653,0.11,0.98,0.23,29992,10442.9,78,97,3,-0.63,-3.22,0.84,0.11,0.98,0.23
25.642578,0.0046582557,-0.01339028,0.0056116544,0.1,0.98,0.23,30014,10443.6,78,97,3,-0.49,-3.22,0.49,0.1,0.98,0.23
16.842773,0.008658256,-0.0073902793,0.008611654,0.1,0.98,0.23,30030,10434.8,78,97,3,-0.21,-2.8,0.7,0.1,0.98,0.23
26.94336,0.009658256,-0.010390282,0.000611654,0.1,0.97,0.23,30052,10444.9,78,97,3,-0.14,-3.01,0.14,0.1,0.97,0.23
23.94336,0.012658256,-0.01139028,0.007611654,0.11,0.98,0.23,30067,10441.9,78,97,3,0.07,-3.08,0.63,0.11,0.98,0.23
22.94336,0.009658256,-0.017390281,0.011611654,0.1,0.97,0.23,30091,10440.9,78,97,3,-0.14,-3.5,0.91,0.1,0.97,0.23
21.94336,0.0036582556,-0.02439028,0.012611655,0.11,0.97,0.23,30113,10439.9,78,97,3,-0.56,-3.99,0.98,0.11,0.97,0.23
23.243164,-0.004341745,-0.025390279,0.017611654,0.11,0.98,0.23,30135,10441.2,78,97,3,-1.12,-4.06,1.33,0.11,0.98,0.23
23.243164,-0.008341744,-0.029390283,0.017611654,0.11,0.98,0.23,30157,10441.2,78,97,3,-1.4,-4.34,1.33,0.11,0.98,0.23
21.94336,-0.008341744,-0.02639028,0.017611654,0.1,0.98,0.23,30181,10439.9,78,97,3,-1.4,-4.13,1.33,0.1,0.98,0.23
23.243164,-0.0063417433,-0.02639028,0.013611654,0.1,0.98,0.23,30203,10441.2,78,97,3,-1.26,-4.13,1.05,0.1,0.98,0.23
21.94336,-0.0013417443,-0.017390281,0.021611653,0.11,0.97,0.24,30217,10439.9,78,97,3,-0.91,-3.5,1.61,0.11,0.97,0.24
21.94336,-0.0063417433,-0.012390282,0.015611655,0.11,0.98,0.23,30240,10439.9,78,97,3,-1.26,-3.15,1.19,0.11,0.98,0.23
20.94336,-0.0033417437,-0.010390282,0.012611655,0.1,0.98,0.23,30255,10438.9,78,97,3,-1.05,-3.01,0.98,0.1,0.98,0.23
21.243164,0.0046582557,-0.0023902804,0.011611654,0.1,0.98,0.23,30285,10439.2,78,97,3,-0.49,-2.45,0.91,0.1,0.98,0.23
20.94336,0.008658256,-0.0033902787,0.012611655,0.1,0.97,0.23,30293,10438.9,78,97,3,-0.21,-2.52,0.98,0.1,0.97,0.23
22.243164,0.012658256,0.0026097205,0.015611655,0.11,0.97,0.23,30315,10440.2,78,97,3,0.07,-2.1,1.19,0.11,0.97,0.23
19.243164,0.009658256,-0.00039028004,0.018611653,0.11,0.97,0.24,30337,10437.2,78,97,3,-0.14,-2.31,1.4,0.11,0.97,0.24
20.243164,0.009658256,0.008609721,0.026611654,0.11,0.97,0.23,30361,10438.2,78,97,3,-0.14,-1.68,1.96,0.11,0.97,0.23
19.243164,0.0036582556,0.01160972,0.031611655,0.1,0.97,0.24,30383,10437.2,78,97,3,-0.56,-1.47,2.31,0.1,0.97,0.24
19.243164,0.0026582563,0.02360972,0.035611656,0.1,0.97,0.24,30404,10437.2,78,97,3,-0.63,-0.63,2.59,0.1,0.97,0.24
19.243164,-0.0063417433,0.03160972,0.036611658,0.11,0.98,0.24,30427,10437.2,78,97,3,-1.26,-0.07,2.66,0.11,0.98,0.24
17.842773,-0.012341742,0.03960972,0.031611655,0.11,0.98,0.24,30442,10435.8,78,97,3,-1.68,0.49,2.31,0.11,0.98,0.24
17.842773,-0.010341744,0.04360972,0.022611652,0.11,0.98,0.23,30464,10435.8,78,97,3,-1.54,0.77,1.68,0.11,0.98,0.23
17.142578,-0.0073417453,0.04260972,0.016611652,0.11,0.98,0.23,30487,10435.1,78,97,3,-1.33,0.7,1.26,0.11,0.98,0.23
12.142578,-0.0013417443,0.04560972,0.014611655,0.11,0.98,0.24,30495,10430.1,78,97,3,-0.91,0.91,1.12,0.11,0.98,0.24
17.142578,0.000658256,0.04160972,0.009611654,0.11,0.98,0.24,30510,10435.1,78,97,3,-0.77,0.63,0.77,0.11,0.98,0.24
16.842773,0.0016582562,0.03260972,0.0066116545,0.11,0.97,0.24,30540,10434.8,78,97,3,-0.7,0,0.56,0.11,0.97,0.24
18.243164,-0.004341745,0.02760972,0.009611654,0.12,0.97,0.24,30555,10436.2,78,97,3,-1.12,-0.35,0.77,0.12,0.97,0.24
16.842773,-0.0073417453,0.02660972,0.016611652,0.11,0.97,0.24,30577,10434.8,78,97,3,-1.33,-0.42,1.26,0.11,0.97,0.24
18.243164,0.0036582556,0.03060972,0.026611654,0.11,0.97,0.25,30593,10436.2,78,97,3,-0.56,-0.14,1.96,0.11,0.97,0.25
15.142578,0.009658256,0.03760972,0.027611652,0.11,0.98,0.25,30615,10433.1,0,97,3,-0.14,0.35,2.03,0.11,0.98,0.25
16.142578,0.010658256,0.044609718,0.018611653,0.11,0.97,0.26,30638,10434.1,0,97,3,-0.07,0.84,1.4,0.11,0.97,0.26
12.142578,0.010658256,0.06060972,0.014611655,0.11,0.98,0.25,30660,10430.1,0,97,3,-0.07,1.96,1.12,0.11,0.98,0.25
20.243164,0.013658256,0.07060972,0.011611654,0.11,0.98,0.25,30682,10438.2,0,97,3,0.14,2.66,0.91,0.11,0.98,0.25
17.842773,0.024658255,0.07760972,0.015611655,0.11,0.98,0.24,30705,10435.8,0,97,3,0.91,3.15,1.19,0.11,0.98,0.24
16.142578,0.038658258,0.08460972,0.013611654,0.11,0.98,0.24,30712,10434.1,0,97,3,1.89,3.64,1.05,0.11,0.98,0.24
18.243164,0.047658253,0.08460972,0.0036116538,0.11,0.98,0.24,30727,10436.2,0,97,3,2.52,3.64,0.35,0.11,0.98,0.24
18.243164,0.058658253,0.088609725,-0.0013883461,0.11,0.98,0.24,30742,10436.2,0,97,3,3.29,3.92,0,0.11,0.98,0.24
18.243164,0.05965825,0.08760972,-0.008388346,0.11,0.98,0.23,30765,10436.2,0,97,3,3.36,3.85,-0.49,0.11,0.98,0.23
17.142578,0.058658253,0.08560972,-0.008388346,0.11,0.97,0.23,30780,10435.1,0,97,3,3.29,3.71,-0.49,0.11,0.97,0.23
18.542969,0.047658253,0.081609726,-0.002388346,0.12,0.97,0.23,30802,10436.5,0,97,3,2.52,3.43,-0.07,0.12,0.97,0.23
17.542969,0.034658257,0.07360972,0.0066116545,0.11,0.97,0.22,30825,10435.5,0,97,3,1.61,2.87,0.56,0.11,0.97,0.22
18.243164,0.029658254,0.05860972,0.007611654,0.11,0.98,0.22,30847,10436.2,0,97,3,1.26,1.82,0.63,0.11,0.98,0.22
18.542969,0.025658257,0.046609722,0.0036116538,0.11,0.97,0.22,30870,10436.5,0,97,3,0.98,0.98,0.35,0.11,0.97,0.22
17.542969,0.016658256,0.03460972,0.0016116537,0.11,0.97,0.23,30893,10435.5,0,97,3,0.35,0.14,0.21,0.11,0.97,0.23
18.542969,0.013658256,0.02660972,0.0036116538,0.11,0.97,0.22,30908,10436.5,0,97,3,0.14,-0.42,0.35,0.11,0.97,0.22
19.243164,0.009658256,0.01760972,0.008611654,0.11,0.97,0.23,30929,10437.2,0,97,3,-0.14,-1.05,0.7,0.11,0.97,0.23
18.542969,0.0046582557,0.00960972,0.0066116545,0.11,0.97,0.23,30953,10436.5,0,97,3,-0.49,-1.61,0.56,0.11,0.97,0.23
18.243164,0.0046582557,0.0066097192,0.010611653,0.11,0.98,0.23,30968,10436.2,0,97,3,-0.49,-1.82,0.84,0.11,0.98,0.23
19.542969,0.0056582564,-0.00039028004,0.0056116544,0.1,0.98,0.23,30983,10437.5,0,97,3,-0.42,-2.31,0.49,0.1,0.98,0.23
18.542969,0.006658256,-0.0023902804,-0.00038834603,0.1,0.98,0.23,30998,10436.5,0,97,3,-0.35,-2.45,0.07,0.1,0.98,0.23
13.443359,0.011658256,-0.0013902821,-0.004388346,0.1,0.98,0.23,31012,10431.4,0,97,3,0,-2.38,-0.21,0.1,0.98,0.23
19.542969,0.009658256,-0.00039028004,-0.009388346,0.1,0.98,0.24,31035,10437.5,0,97,3,-0.14,-2.31,-0.56,0.1,0.98,0.24
20.243164,0.0076582558,0.004609719,-0.0033883462,0.1,0.97,0.23,31057,10438.2,0,97,3,-0.28,-1.96,-0.14,0.1,0.97,0.23
20.542969,0.006658256,0.01060972,0.0016116537,0.1,0.98,0.23,31080,10438.5,0,97,3,-0.35,-1.54,0.21,0.1,0.98,0.23
19.542969,0.0076582558,0.00960972,0.0016116537,0.1,0.98,0.23,31102,10437.5,0,97,3,-0.28,-1.61,0.21,0.1,0.98,0.23
19.243164,0.012658256,0.0136097185,-0.00038834603,0.1,0.98,0.23,31125,10437.2,0,97,3,0.07,-1.33,0.07,0.1,0.98,0.23
20.243164,0.020658255,0.01160972,0.000611654,0.1,0.98,0.23,31140,10438.2,0,97,3,0.63,-1.47,0.14,0.1,0.98,0.23
21.542969,0.022658255,0.00960972,-0.0013883461,0.1,0.98,0.23,31163,10439.5,0,97,3,0.77,-1.61,0,0.1,0.98,0.23
22.642578,0.025658257,0.00960972,-0.0013883461,0.1,0.97,0.23,31178,10440.6,0,97,3,0.98,-1.61,0,0.1,0.97,0.23
21.243164,0.017658256,0.0026097205,-0.002388346,0.1,0.97,0.23,31200,10439.2,0,97,3,0.42,-2.1,-0.07,0.1,0.97,0.23
22.642578,0.013658256,0.00060971826,0.000611654,0.1,0.98,0.23,31215,10440.6,0,97,3,0.14,-2.24,0.14,0.1,0.98,0.23
23.94336,0.0146582555,-0.0043902807,-0.0013883461,0.1,0.97,0.23,31230,10441.9,0,97,3,0.21,-2.59,0,0.1,0.97,0.23
17.542969,0.011658256,-0.00939028,-0.00038834603,0.1,0.98,0.22,31245,10435.5,0,97,3,0,-2.94,0.07,0.1,0.98,0.22
25.642578,0.008658256,-0.017390281,-0.00038834603,0.1,0.98,0.22,31260,10443.6,0,97,3,-0.21,-3.5,0.07,0.1,0.98,0.22
26.642578,0.006658256,-0.019390281,0.0016116537,0.1,0.98,0.22,31282,10444.6,0,97,3,-0.35,-3.64,0.21,0.1,0.98,0.22
25.94336,0.0036582556,-0.023390282,0.000611654,0.1,0.98,0.23,31305,10443.9,0,97,3,-0.56,-3.92,0.14,0.1,0.98,0.23
27.642578,-0.00034174323,-0.02639028,0.0016116537,0.09,0.98,0.23,31327,10445.6,0,97,3,-0.84,-4.13,0.21,0.09,0.98,0.23
28.642578,-0.0013417443,-0.02639028,0.0036116538,0.1,0.98,0.23,31349,10446.6,0,97,3,-0.91,-4.13,0.35,0.1,0.98,0.23
29.042969,0.006658256,-0.021390282,0.0036116538,0.09,0.98,0.22,31372,10447,0,97,3,-0.35,-3.78,0.35,0.09,0.98,0.22
28.642578,0.0076582558,-0.023390282,-0.00038834603,0.09,0.97,0.23,31387,10446.6,0,97,3,-0.28,-3.92,0.07,0.09,0.97,0.23
30.743164,0.0046582557,-0.023390282,0.0036116538,0.09,0.98,0.23,31410,10448.7,0,97,3,-0.49,-3.92,0.35,0.09,0.98,0.23
31.042969,-0.0023417445,-0.023390282,0.009611654,0.1,0.97,0.23,31432,10449,0,97,3,-0.98,-3.92,0.77,0.1,0.97,0.23
27.342773,-0.0023417445,-0.027390279,0.017611654,0.1,0.97,0.23,31448,10445.3,0,97,3,-0.98,-4.2,1.33,0.1,0.97,0.23
30.743164,-0.0023417445,-0.02439028,0.029611655,0.1,0.97,0.23,31462,10448.7,0,97,3,-0.98,-3.99,2.17,0.1,0.97,0.23
30.342773,-0.008341744,-0.025390279,0.037611656,0.09,0.98,0.23,31478,10448.3,0,97,3,-1.4,-4.06,2.73,0.09,0.98,0.23
30.743164,-0.013341744,-0.02839028,0.033611655,0.09,0.97,0.23,31492,10448.7,0,97,3,-1.75,-4.27,2.45,0.09,0.97,0.23
31.042969,-0.018341742,-0.027390279,0.027611652,0.1,0.97,0.23,31507,10449,0,97,3,-2.1,-4.2,2.03,0.1,0.97,0.23
31.042969,-0.024341743,-0.027390279,0.025611654,0.1,0.97,0.23,31531,10449,0,97,3,-2.52,-4.2,1.89,0.1,0.97,0.23
31.042969,-0.023341745,-0.027390279,0.034611654,0.1,0.97,0.23,31553,10449,0,97,3,-2.45,-4.2,2.52,0.1,0.97,0.23
31.743164,-0.019341744,-0.029390283,0.034611654,0.1,0.98,0.23,31582,10449.7,0,97,3,-2.17,-4.34,2.52,0.1,0.98,0.23
29.743164,-0.022341747,-0.03339028,0.028611653,0.1,0.97,0.24,31597,10447.7,0,97,3,-2.38,-4.62,2.1,0.1,0.97,0.24
30.743164,-0.021341745,-0.032390285,0.026611654,0.1,0.97,0.24,31621,10448.7,0,97,3,-2.31,-4.55,1.96,0.1,0.97,0.24
30.042969,-0.021341745,-0.029390283,0.021611653,0.1,0.97,0.24,31635,10448,0,97,3,-2.31,-4.34,1.61,0.1,0.97,0.24
33.04297,-0.022341747,-0.019390281,0.032611657,0.1,0.97,0.24,31657,10451,0,97,3,-2.38,-3.64,2.38,0.1,0.97,0.24
30.042969,-0.028341744,-0.01339028,0.032611657,0.11,0.96,0.25,31680,10448,0,97,3,-2.8,-3.22,2.38,0.11,0.96,0.25
29.042969,-0.034341745,-0.010390282,0.036611658,0.11,0.98,0.25,31703,10447,0,97,3,-3.22,-3.01,2.66,0.11,0.98,0.25
31.042969,-0.033341747,-0.0043902807,0.045611653,0.11,0.97,0.25,31717,10449,0,97,3,-3.15,-2.59,3.29,0.11,0.97,0.25
29.042969,-0.038341746,-0.0033902787,0.04661165,0.1,0.97,0.25,31732,10447,0,97,3,-3.5,-2.52,3.36,0.1,0.97,0.25
29.042969,-0.035341743,-0.0053902827,0.041611657,0.11,0.98,0.25,31748,10447,0,97,3,-3.29,-2.66,3.01,0.11,0.98,0.25
28.342773,-0.033341747,0.0026097205,0.040611655,0.11,0.98,0.25,31763,10446.3,0,97,3,-3.15,-2.1,2.94,0.11,0.98,0.25
27.042969,-0.021341745,0.01060972,0.036611658,0.11,0.98,0.25,31785,10445,0,97,3,-2.31,-1.54,2.66,0.11,0.98,0.25
27.042969,-0.015341745,0.01760972,0.035611656,0.11,0.97,0.25,31822,10445,0,97,3,-1.89,-1.05,2.59,0.11,0.97,0.25
28.042969,-0.011341744,0.02560972,0.037611656,0.11,0.97,0.25,31831,10446,0,97,3,-1.61,-0.49,2.73,0.11,0.97,0.25
28.042969,-0.010341744,0.02960972,0.034611654,0.11,0.97,0.25,31852,10446,0,97,3,-1.54,-0.21,2.52,0.11,0.97,0.25
29.743164,-0.0023417445,0.03560972,0.035611656,0.11,0.97,0.25,31868,10447.7,0,97,3,-0.98,0.21,2.59,0.11,0.97,0.25
27.042969,0.0036582556,0.03660972,0.028611653,0.12,0.97,0.25,31890,10445,0,97,3,-0.56,0.28,2.1,0.12,0.97,0.25
27.042969,0.0016582562,0.03260972,0.029611655,0.12,0.97,0.25,31913,10445,0,97,3,-0.7,0,2.17,0.12,0.97,0.25
25.94336,-0.00034174323,0.03060972,0.030611655,0.12,0.97,0.25,31935,10443.9,0,97,3,-0.84,-0.14,2.24,0.12,0.97,0.25
25.94336,0.000658256,0.03160972,0.030611655,0.12,0.97,0.25,31950,10443.9,0,97,3,-0.77,-0.07,2.24,0.12,0.97,0.25
27.042969,0.006658256,0.03260972,0.030611655,0.12,0.97,0.25,31972,10445,0,97,3,-0.35,0,2.24,0.12,0.97,0.25
31.44336,0.008658256,0.03260972,0.023611654,0.11,0.98,0.12,31987,10449.4,0,97,3,-0.21,0,1.75,0.11,0.98,0.12
25.94336,0.016658256,0.03560972,0.018611653,0.11,0.98,0.25,32010,10443.9,0,97,3,0.35,0.21,1.4,0.11,0.98,0.25
27.342773,0.025658257,0.03660972,0.018611653,0.12,0.97,0.25,32024,10445.3,0,97,3,0.98,0.28,1.4,0.12,0.97,0.25
27.342773,0.032658257,0.03960972,0.014611655,0.12,0.97,0.25,32040,10445.3,0,97,3,1.47,0.49,1.12,0.12,0.97,0.25
28.042969,0.035658255,0.03860972,0.012611655,0.12,0.97,0.25,32065,10446,0,97,3,1.68,0.42,0.98,0.12,0.97,0.25
25.342773,0.029658254,0.03960972,0.012611655,0.12,0.97,0.25,32085,10443.3,0,97,3,1.26,0.49,0.98,0.12,0.97,0.25
25.342773,0.028658256,0.03660972,0.012611655,0.12,0.97,0.25,32108,10443.3,0,97,3,1.19,0.28,0.98,0.12,0.97,0.25
25.94336,0.023658255,0.03060972,0.010611653,0.12,0.97,0.24,32122,10443.9,0,97,3,0.84,-0.14,0.84,0.12,0.97,0.24
24.342773,0.023658255,0.02560972,0.0066116545,0.12,0.97,0.24,32145,10442.3,0,97,3,0.84,-0.49,0.56,0.12,0.97,0.24
26.342773,0.023658255,0.02360972,0.0056116544,0.12,0.97,0.24,32182,10444.3,0,97,3,0.84,-0.63,0.49,0.12,0.97,0.24
24.342773,0.022658255,0.020609722,0.002611654,0.12,0.97,0.24,32183,10442.3,0,97,3,0.77,-0.84,0.28,0.12,0.97,0.24
24.342773,0.017658256,0.01860972,0.007611654,0.12,0.97,0.24,32204,10442.3,0,97,3,0.42,-0.98,0.63,0.12,0.97,0.24
24.94336,0.0146582555,0.016609719,0.010611653,0.12,0.97,0.24,32228,10442.9,0,97,3,0.21,-1.12,0.84,0.12,0.97,0.24
24.94336,0.0146582555,0.016609719,0.010611653,0.11,0.97,0.24,32235,10442.9,0,97,3,0.21,-1.12,0.84,0.11,0.97,0.24
22.94336,0.015658256,0.01960972,0.010611653,0.11,0.97,0.24,32250,10440.9,0,97,3,0.28,-0.91,0.84,0.11,0.97,0.24
23.243164,0.013658256,0.01760972,0.008611654,0.11,0.97,0.25,32265,10441.2,0,97,3,0.14,-1.05,0.7,0.11,0.97,0.25
25.342773,0.012658256,0.01860972,0.008611654,0.12,0.97,0.25,32289,10443.3,0,97,3,0.07,-0.98,0.7,0.12,0.97,0.25
23.243164,0.019658256,0.02360972,0.012611655,0.11,0.97,0.24,32310,10441.2,0,97,3,0.56,-0.63,0.98,0.11,0.97,0.24
25.342773,0.019658256,0.020609722,0.008611654,0.11,0.97,0.25,32340,10443.3,0,97,3,0.56,-0.84,0.7,0.11,0.97,0.25
22.243164,0.020658255,0.024609718,0.007611654,0.11,0.97,0.24,32355,10440.2,0,97,3,0.63,-0.56,0.63,0.11,0.97,0.24
23.642578,0.025658257,0.02560972,0.007611654,0.11,0.97,0.24,32370,10441.6,0,97,3,0.98,-0.49,0.63,0.11,0.97,0.24
21.243164,0.029658254,0.03060972,0.007611654,0.11,0.98,0.24,32392,10439.2,0,97,3,1.26,-0.14,0.63,0.11,0.98,0.24
21.243164,0.028658256,0.03160972,0.002611654,0.11,0.97,0.24,32415,10439.2,0,97,3,1.19,-0.07,0.28,0.11,0.97,0.24
20.642578,0.015658256,0.03060972,-0.002388346,0.11,0.97,0.25,32430,10438.6,0,97,3,0.28,-0.14,-0.07,0.11,0.97,0.25
21.642578,0.008658256,0.03160972,0.0036116538,0.12,0.98,0.24,32452,10439.6,0,97,3,-0.21,-0.07,0.35,0.12,0.98,0.24
18.243164,0.0076582558,0.02660972,0.0066116545,0.12,0.97,0.24,32467,10436.2,0,97,3,-0.28,-0.42,0.56,0.12,0.97,0.24
19.243164,0.006658256,0.02160972,0.015611655,0.12,0.97,0.24,32482,10437.2,0,97,3,-0.35,-0.77,1.19,0.12,0.97,0.24
20.243164,0.010658256,0.01760972,0.015611655,0.12,0.97,0.24,32498,10438.2,0,97,3,-0.07,-1.05,1.19,0.12,0.97,0.24
19.243164,0.017658256,0.01060972,0.012611655,0.11,0.98,0.24,32513,10437.2,0,97,3,0.42,-1.54,0.98,0.11,0.98,0.24
19.243164,0.020658255,0.00960972,0.007611654,0.11,0.97,0.24,32535,10437.2,0,97,3,0.63,-1.61,0.63,0.11,0.97,0.24
19.243164,0.021658257,0.008609721,-0.002388346,0.12,0.97,0.24,32558,10437.2,0,97,3,0.7,-1.68,-0.07,0.12,0.97,0.24
17.542969,0.016658256,0.008609721,-0.00038834603,0.11,0.97,0.24,32580,10435.5,0,97,3,0.35,-1.68,0.07,0.11,0.97,0.24
18.542969,0.0076582558,0.0076097194,0.0016116537,0.12,0.97,0.24,32602,10436.5,0,97,3,-0.28,-1.75,0.21,0.12,0.97,0.24
19.243164,0.0036582556,0.00060971826,0.0056116544,0.11,0.98,0.24,32626,10437.2,0,97,3,-0.56,-2.24,0.49,0.11,0.98,0.24
17.142578,0.0046582557,-0.00039028004,0.000611654,0.11,0.97,0.24,32648,10435.1,0,97,3,-0.49,-2.31,0.14,0.11,0.97,0.24
18.243164,0.0026582563,-0.0043902807,-0.011388346,0.11,0.97,0.24,32670,10436.2,0,97,3,-0.63,-2.59,-0.7,0.11,0.97,0.24
17.542969,0.0016582562,-0.006390281,-0.015388346,0.11,0.98,0.24,32685,10435.5,0,97,3,-0.7,-2.73,-0.98,0.11,0.98,0.24
17.243164,0.0056582564,-0.0073902793,-0.009388346,0.11,0.98,0.24,32701,10435.2,0,97,3,-0.42,-2.8,-0.56,0.11,0.98,0.24
18.243164,0.0046582557,-0.00939028,-0.009388346,0.11,0.97,0.24,32715,10436.2,0,97,3,-0.49,-2.94,-0.56,0.11,0.97,0.24
18.243164,0.0026582563,-0.00939028,-0.009388346,0.1,0.97,0.24,32730,10436.2,0,97,3,-0.63,-2.94,-0.56,0.1,0.97,0.24
17.542969,0.0026582563,-0.006390281,-0.011388346,0.11,0.97,0.24,32745,10435.5,0,97,3,-0.63,-2.73,-0.7,0.11,0.97,0.24
19.243164,0.0016582562,-0.0043902807,-0.011388346,0.1,0.98,0.24,32767,10437.2,0,97,3,-0.7,-2.59,-0.7,0.1,0.98,0.24
19.94336,0.0056582564,0.0016097184,-0.014388346,0.1,0.98,0.24,32782,10437.9,0,97,3,-0.42,-2.17,-0.91,0.1,0.98,0.24
20.642578,0.009658256,0.0026097205,-0.015388346,0.1,0.98,0.24,32805,10438.6,0,97,3,-0.14,-2.1,-0.98,0.1,0.98,0.24
21.642578,0.012658256,0.0016097184,-0.015388346,0.1,0.98,0.24,32828,10439.6,0,97,3,0.07,-2.17,-0.98,0.1,0.98,0.24
23.642578,0.013658256,-0.0033902787,-0.015388346,0.1,0.97,0.24,32850,10441.6,0,97,3,0.14,-2.52,-0.98,0.1,0.97,0.24
23.642578,0.0146582555,-0.0033902787,-0.008388346,0.1,0.97,0.24,32872,10441.6,0,97,3,0.21,-2.52,-0.49,0.1,0.97,0.24
24.642578,0.015658256,-0.0053902827,-0.007388346,0.1,0.97,0.24,32910,10442.6,0,97,3,0.28,-2.66,-0.42,0.1,0.97,0.24
24.642578,0.0146582555,-0.0053902827,-0.004388346,0.1,0.98,0.24,32918,10442.6,0,97,3,0.21,-2.66,-0.21,0.1,0.98,0.24
24.642578,0.017658256,-0.0043902807,-0.009388346,0.1,0.97,0.24,32940,10442.6,0,97,3,0.42,-2.59,-0.56,0.1,0.97,0.24
25.642578,0.019658256,0.0016097184,-0.008388346,0.1,0.97,0.24,32954,10443.6,0,97,3,0.56,-2.17,-0.49,0.1,0.97,0.24
25.642578,0.020658255,0.0076097194,-0.004388346,0.1,0.97,0.24,32970,10443.6,0,97,3,0.63,-1.75,-0.21,0.1,0.97,0.24
25.342773,0.013658256,0.0066097192,-0.0033883462,0.1,0.97,0.24,32984,10443.3,0,97,3,0.14,-1.82,-0.14,0.1,0.97,0.24
25.642578,0.010658256,0.008609721,0.0036116538,0.1,0.97,0.25,33007,10443.6,0,97,3,-0.07,-1.68,0.35,0.1,0.97,0.25
25.042969,0.0076582558,0.01060972,0.013611654,0.1,0.97,0.24,33023,10443,0,97,3,-0.28,-1.54,1.05,0.1,0.97,0.24
25.642578,0.0056582564,0.00960972,0.016611652,0.1,0.98,0.24,33045,10443.6,0,97,3,-0.42,-1.61,1.26,0.1,0.98,0.24
23.642578,0.013658256,0.00960972,0.015611655,0.1,0.98,0.24,33059,10441.6,0,97,3,0.14,-1.61,1.19,0.1,0.98,0.24
25.342773,0.019658256,0.0076097194,0.011611654,0.1,0.98,0.24,33082,10443.3,0,97,3,0.56,-1.75,0.91,0.1,0.98,0.24
25.342773,0.024658255,0.00960972,0.009611654,0.1,0.98,0.24,33105,10443.3,0,97,3,0.91,-1.61,0.77,0.1,0.98,0.24
24.642578,0.024658255,0.00960972,0.008611654,0.1,0.97,0.24,33135,10442.6,0,97,3,0.91,-1.61,0.7,0.1,0.97,0.24
24.642578,0.023658255,0.00960972,0.008611654,0.1,0.98,0.24,33150,10442.6,0,0,3,0.84,-1.61,0.7,0.1,0.98,0.24
25.642578,0.023658255,0.00960972,0.010611653,0.1,0.97,0.24,33172,10443.6,0,0,3,0.84,-1.61,0.84,0.1,0.97,0.24
17.542969,0.024658255,0.005609719,0.009611654,0.1,0.97,0.24,33188,10435.5,0,0,3,0.91,-1.89,0.77,0.1,0.97,0.24
24.642578,0.023658255,0.0036097206,0.011611654,0.1,0.97,0.24,33203,10442.6,0,0,3,0.84,-2.03,0.91,0.1,0.97,0.24
23.94336,0.020658255,0.0026097205,0.017611654,0.1,0.97,0.24,33217,10441.9,0,0,3,0.63,-2.1,1.33,0.1,0.97,0.24
26.042969,0.019658256,0.0036097206,0.017611654,0.1,0.97,0.24,33270,10444,0,0,3,0.56,-2.03,1.33,0.1,0.97,0.24
25.642578,0.017658256,0.0026097205,0.019611653,0.1,0.97,0.24,33271,10443.6,0,0,3,0.42,-2.1,1.47,0.1,0.97,0.24
23.94336,0.017658256,0.005609719,0.027611652,0.1,0.97,0.24,33273,10441.9,0,0,3,0.42,-1.89,2.03,0.1,0.97,0.24
24.342773,0.020658255,0.005609719,0.021611653,0.1,0.98,0.24,33292,10442.3,0,0,3,0.63,-1.89,1.61,0.1,0.98,0.24
25.042969,0.018658256,0.0136097185,0.022611652,0.1,0.97,0.24,33308,10443,0,0,3,0.49,-1.33,1.68,0.1,0.97,0.24
22.642578,0.008658256,0.01160972,0.017611654,0.1,0.97,0.24,33330,10440.6,0,0,3,-0.21,-1.47,1.33,0.1,0.97,0.24
25.042969,0.006658256,0.015609719,0.023611654,0.11,0.97,0.24,33361,10443,0,0,3,-0.35,-1.19,1.75,0.11,0.97,0.24
24.642578,0.0056582564,0.01260972,0.032611657,0.11,0.97,0.24,33375,10442.6,0,0,3,-0.42,-1.4,2.38,0.11,0.97,0.24
25.042969,0.009658256,0.0076097194,0.029611655,0.1,0.98,0.24,33397,10443,0,0,3,-0.14,-1.75,2.17,0.1,0.98,0.24
21.94336,0.013658256,0.0036097206,0.025611654,0.1,0.98,0.24,33420,10439.9,0,0,3,0.14,-2.03,1.89,0.1,0.98,0.24
25.042969,0.0146582555,0.005609719,0.017611654,0.1,0.97,0.24,33442,10443,0,0,3,0.21,-1.89,1.33,0.1,0.97,0.24
24.642578,0.018658256,0.008609721,0.016611652,0.1,0.97,0.24,33449,10442.6,0,0,3,0.49,-1.68,1.26,0.1,0.97,0.24
25.042969,0.019658256,0.01060972,0.017611654,0.1,0.97,0.24,33465,10443,0,0,3,0.56,-1.54,1.33,0.1,0.97,0.24
24.642578,0.017658256,0.01060972,0.011611654,0.11,0.98,0.24,33481,10442.6,0,0,3,0.42,-1.54,0.91,0.11,0.98,0.24
25.042969,0.0146582555,0.0136097185,0.013611654,0.11,0.97,0.23,33502,10443,0,0,3,0.21,-1.33,1.05,0.11,0.97,0.23
23.94336,0.0146582555,0.01160972,0.014611655,0.11,0.98,0.23,33518,10441.9,0,0,3,0.21,-1.47,1.12,0.11,0.98,0.23
23.94336,0.021658257,0.0076097194,0.015611655,0.11,0.98,0.23,33548,10441.9,0,0,3,0.7,-1.75,1.19,0.11,0.98,0.23
25.042969,0.019658256,0.0036097206,0.012611655,0.11,0.97,0.24,33555,10443,0,0,3,0.56,-2.03,0.98,0.11,0.97,0.24
25.042969,0.008658256,-0.0043902807,0.012611655,0.11,0.97,0.24,33578,10443,0,0,3,-0.21,-2.59,0.98,0.11,0.97,0.24
25.042969,0.0076582558,-0.0043902807,0.018611653,0.11,0.97,0.23,33599,10443,0,0,3,-0.28,-2.59,1.4,0.11,0.97,0.23
25.042969,0.0056582564,-0.0073902793,0.014611655,0.1,0.97,0.23,33623,10443,0,0,3,-0.42,-2.8,1.12,0.1,0.97,0.23
23.243164,0.0016582562,-0.0053902827,0.013611654,0.11,0.97,0.24,33653,10441.2,0,0,3,-0.7,-2.66,1.05,0.11,0.97,0.24
25.042969,0.0036582556,-0.0023902804,0.013611654,0.11,0.97,0.24,33667,10443,0,0,3,-0.56,-2.45,1.05,0.11,0.97,0.24
25.042969,0.0036582556,-0.0013902821,0.011611654,0.1,0.97,0.24,33682,10443,0,0,3,-0.56,-2.38,0.91,0.1,0.97,0.24
25.042969,0.0056582564,0.0026097205,0.007611654,0.1,0.97,0.24,33698,10443,0,0,3,-0.42,-2.1,0.63,0.1,0.97,0.24
26.342773,0.0056582564,0.0036097206,0.007611654,0.11,0.97,0.24,33720,10444.3,0,0,3,-0.42,-2.03,0.63,0.11,0.97,0.24
25.042969,0.0036582556,0.0016097184,0.012611655,0.11,0.97,0.24,33735,10443,0,0,3,-0.56,-2.17,0.98,0.11,0.97,0.24
23.94336,0.0016582562,0.0036097206,0.012611655,0.11,0.97,0.24,33750,10441.9,0,0,3,-0.7,-2.03,0.98,0.11,0.97,0.24
24.342773,-0.0023417445,0.004609719,0.015611655,0.11,0.97,0.24,33766,10442.3,0,0,3,-0.98,-1.96,1.19,0.11,0.97,0.24
22.94336,-0.0013417443,0.0016097184,0.018611653,0.11,0.97,0.24,33788,10440.9,0,0,3,-0.91,-2.17,1.4,0.11,0.97,0.24
23.94336,0.0026582563,0.0026097205,0.019611653,0.11,0.98,0.24,33810,10441.9,0,0,3,-0.63,-2.1,1.47,0.11,0.98,0.24
25.042969,0.006658256,0.0016097184,0.016611652,0.11,0.98,0.24,33832,10443,0,0,3,-0.35,-2.17,1.26,0.11,0.98,0.24
25.042969,0.008658256,0.005609719,0.015611655,0.11,0.97,0.24,33847,10443,0,0,3,-0.21,-1.89,1.19,0.11,0.97,0.24
23.94336,0.0076582558,0.0076097194,0.014611655,0.11,0.97,0.24,33869,10441.9,0,0,3,-0.28,-1.75,1.12,0.11,0.97,0.24
28.342773,0.009658256,0.008609721,0.009611654,0.11,0.98,0.24,33891,10446.3,0,0,3,-0.14,-1.68,0.77,0.11,0.98,0.24
24.642578,0.011658256,0.01160972,0.009611654,0.11,0.97,0.24,33915,10442.6,0,0,3,0,-1.47,0.77,0.11,0.97,0.24
25.342773,0.010658256,0.00960972,0.0016116537,0.11,0.97,0.24,33938,10443.3,0,0,3,-0.07,-1.61,0.21,0.11,0.97,0.24
25.342773,0.012658256,0.0066097192,0.002611654,0.11,0.97,0.24,33953,10443.3,0,0,3,0.07,-1.82,0.28,0.11,0.97,0.24
25.342773,0.012658256,0.0016097184,0.0046116533,0.11,0.97,0.23,33968,10443.3,0,0,3,0.07,-2.17,0.42,0.11,0.97,0.23
25.042969,0.010658256,0.00060971826,0.0016116537,0.11,0.97,0.24,33990,10443,0,0,3,-0.07,-2.24,0.21,0.11,0.97,0.24
25.342773,0.011658256,0.0016097184,0.0036116538,0.11,0.97,0.24,34005,10443.3,0,0,3,0,-2.17,0.35,0.11,0.97,0.24
18.243164,0.009658256,-0.0013902821,0.0046116533,0.11,0.97,0.24,34020,10436.2,0,0,3,-0.14,-2.38,0.42,0.11,0.97,0.24
25.342773,0.009658256,0.00060971826,0.0066116545,0.1,0.97,0.24,34042,10443.3,0,0,3,-0.14,-2.24,0.56,0.1,0.97,0.24
25.342773,0.0146582555,0.004609719,0.008611654,0.1,0.98,0.23,34072,10443.3,0,0,3,0.21,-1.96,0.7,0.1,0.98,0.23
24.642578,0.013658256,0.005609719,0.0056116544,0.1,0.97,0.24,34080,10442.6,0,0,3,0.14,-1.89,0.49,0.1,0.97,0.24
26.342773,0.011658256,0.004609719,0.008611654,0.11,0.97,0.24,34102,10444.3,0,0,3,0,-1.96,0.7,0.11,0.97,0.24
25.342773,0.0036582556,0.0026097205,0.012611655,0.11,0.97,0.24,34140,10443.3,0,0,3,-0.56,-2.1,0.98,0.11,0.97,0.24
25.342773,0.0056582564,-0.0013902821,0.018611653,0.11,0.98,0.23,34148,10443.3,0,0,3,-0.42,-2.38,1.4,0.11,0.98,0.23
25.042969,0.012658256,-0.0033902787,0.020611653,0.1,0.98,0.23,34170,10443,0,0,3,0.07,-2.52,1.54,0.1,0.98,0.23
25.342773,0.011658256,-0.0023902804,0.017611654,0.1,0.98,0.23,34185,10443.3,0,0,3,0,-2.45,1.33,0.1,0.98,0.23
24.642578,0.0076582558,-0.0033902787,0.008611654,0.1,0.97,0.24,34200,10442.6,0,0,3,-0.28,-2.52,0.7,0.1,0.97,0.24
25.342773,0.0016582562,-0.00039028004,0.007611654,0.11,0.97,0.24,34215,10443.3,0,0,3,-0.7,-2.31,0.63,0.11,0.97,0.24
23.94336,-0.0033417437,-0.0023902804,0.010611653,0.11,0.98,0.24,34237,10441.9,0,0,3,-1.05,-2.45,0.84,0.11,0.98,0.24
31.743164,-0.0033417437,-0.0033902787,0.015611655,0.11,0.97,0.23,34252,10449.7,0,0,3,-1.05,-2.52,1.19,0.11,0.97,0.23
25.342773,-0.00034174323,-0.0053902827,0.023611654,0.11,0.97,0.24,34267,10443.3,0,0,3,-0.84,-2.66,1.75,0.11,0.97,0.24
25.642578,-0.00034174323,-0.01139028,0.023611654,0.11,0.97,0.24,34290,10443.6,0,0,3,-0.84,-3.08,1.75,0.11,0.97,0.24
25.342773,-0.00034174323,-0.01339028,0.024611654,0.11,0.97,0.24,34304,10443.3,0,0,3,-0.84,-3.22,1.82,0.11,0.97,0.24
24.342773,0.0026582563,-0.006390281,0.023611654,0.11,0.97,0.24,34327,10442.3,0,0,3,-0.63,-2.73,1.75,0.11,0.97,0.24
25.342773,-0.0013417443,-0.0013902821,0.021611653,0.11,0.97,0.24,34350,10443.3,0,0,3,-0.91,-2.38,1.61,0.11,0.97,0.24
25.342773,-0.0013417443,0.0066097192,0.020611653,0.11,0.98,0.24,34372,10443.3,0,0,3,-0.91,-1.82,1.54,0.11,0.98,0.24
26.042969,-0.008341744,0.004609719,0.020611653,0.11,0.97,0.24,34395,10444,0,0,3,-1.4,-1.96,1.54,0.11,0.97,0.24
25.342773,-0.0033417437,0.00060971826,0.017611654,0.11,0.99,0.24,34417,10443.3,0,0,3,-1.05,-2.24,1.33,0.11,0.99,0.24
24.642578,0.006658256,-0.0013902821,0.007611654,0.11,0.98,0.24,34433,10442.6,0,0,3,-0.35,-2.38,0.63,0.11,0.98,0.24
25.342773,0.008658256,-0.0013902821,-0.0013883461,0.11,0.98,0.24,34448,10443.3,0,0,3,-0.21,-2.38,0,0.11,0.98,0.24
25.342773,0.010658256,0.00060971826,-0.004388346,0.11,0.97,0.24,34462,10443.3,0,0,3,-0.07,-2.24,-0.21,0.11,0.97,0.24
28.342773,0.009658256,-0.00039028004,-0.0013883461,0.11,0.97,0.24,34477,10446.3,0,0,3,-0.14,-2.31,0,0.11,0.97,0.24
25.642578,0.011658256,0.004609719,0.0036116538,0.11,0.97,0.24,34499,10443.6,0,0,3,0,-1.96,0.35,0.11,0.97,0.24
24.342773,0.012658256,0.0066097192,0.0036116538,0.11,0.97,0.24,34515,10442.3,0,0,3,0.07,-1.82,0.35,0.11,0.97,0.24
24.342773,0.009658256,0.0066097192,0.0046116533,0.11,0.97,0.24,34538,10442.3,0,0,3,-0.14,-1.82,0.42,0.11,0.97,0.24
24.342773,0.008658256,0.0136097185,0.0066116545,0.11,0.97,0.24,34552,10442.3,0,0,3,-0.21,-1.33,0.56,0.11,0.97,0.24
25.042969,0.010658256,0.014609721,0.010611653,0.1,0.97,0.24,34583,10443,0,0,3,-0.07,-1.26,0.84,0.1,0.97,0.24
24.342773,0.009658256,0.015609719,0.012611655,0.11,0.97,0.24,34598,10442.3,0,0,3,-0.14,-1.19,0.98,0.11,0.97,0.24
25.342773,0.006658256,0.016609719,0.015611655,0.11,0.97,0.24,34620,10443.3,0,0,3,-0.35,-1.12,1.19,0.11,0.97,0.24
24.342773,0.0036582556,0.016609719,0.013611654,0.11,0.98,0.24,34642,10442.3,0,0,3,-0.56,-1.12,1.05,0.11,0.98,0.24
