Pressure_Rel,GyroX_Rel,GyroY_Rel,GyroZ_Rel,AccX_Rel,AccY_Rel,AccZ_Rel,Timestamp,Pressure_abs,HeartRate,Oxygen,Status,GyroX,GyroY,GyroZ,AccX,AccY,AccZ
0.32421875,-0.023812508,0.004533344,0.014231256,0.76,-0.19,0.68,12003,10190.3,0,0,0,0.98,0.35,0.91,0.76,-0.19,0.68
-0.67578125,-0.051812507,-0.012466655,0.00023125624,0.76,-0.2,0.69,12017,10189.3,0,0,0,-0.98,-0.84,-0.07,0.76,-0.2,0.69
-0.67578125,-0.07081251,-0.037466656,-0.008768744,0.75,-0.18,0.67,12051,10189.3,0,0,0,-2.31,-2.59,-0.7,0.75,-0.18,0.67
-0.67578125,-0.08981251,-0.043466657,-0.023768744,0.75,-0.18,0.66,12058,10189.3,0,0,0,-3.64,-3.01,-1.75,0.75,-0.18,0.66
0.32421875,-0.076812506,-0.022466656,-0.0017687435,0.74,-0.16,0.65,12078,10190.3,0,0,0,-2.73,-1.54,-0.21,0.74,-0.16,0.65
2.024414,-0.04881251,-0.007466656,0.013231255,0.75,-0.17,0.66,12093,10192,0,0,0,-0.77,-0.49,0.84,0.75,-0.17,0.66
0.32421875,-0.055812508,-0.004466656,0.040231258,0.76,-0.2,0.67,12115,10190.3,0,0,0,-1.26,-0.28,2.73,0.76,-0.2,0.67
-1.6757812,-0.06081251,0.0065333443,0.017231258,0.76,-0.21,0.68,12130,10188.3,0,0,0,-1.61,0.49,1.12,0.76,-0.21,0.68
1.6240234,-0.06281251,-0.025466656,0.017231258,0.77,-0.22,0.68,12160,10191.6,0,0,0,-1.75,-1.75,1.12,0.77,-0.22,0.68
0.024414062,-0.06881251,-0.021466656,-0.006768744,0.76,-0.2,0.67,12168,10190,0,0,0,-2.17,-1.47,-0.56,0.76,-0.2,0.67
2.3242188,-0.06681251,-0.037466656,-0.011768744,0.75,-0.18,0.66,12192,10192.3,0,0,0,-2.03,-2.59,-0.91,0.75,-0.18,0.66
0.32421875,-0.05981251,-0.028466657,0.00023125624,0.74,-0.17,0.65,12205,10190.3,0,0,0,-1.54,-1.96,-0.07,0.74,-0.17,0.65
-0.37597656,-0.033812508,0.001533344,0.016231256,0.75,-0.18,0.66,12220,10189.6,0,0,0,0.28,0.14,1.05,0.75,-0.18,0.66
-0.67578125,-0.015812509,0.004533344,0.016231256,0.76,-0.19,0.7,12243,10189.3,0,0,0,1.54,0.35,1.05,0.76,-0.19,0.7
-0.67578125,-0.03581251,-0.045466658,0.011231256,0.75,-0.18,0.69,12258,10189.3,0,0,0,0.14,-3.15,0.7,0.75,-0.18,0.69
-0.67578125,-0.05481251,-0.055466656,0.015231256,0.74,-0.18,0.66,12280,10189.3,0,0,0,-1.19,-3.85,0.98,0.74,-0.18,0.66
0.32421875,-0.07781251,-0.030466655,0.030231256,0.75,-0.16,0.65,12300,10190.3,0,0,0,-2.8,-2.1,2.03,0.75,-0.16,0.65
0.32421875,-0.10181251,-0.023466656,0.042231254,0.75,-0.18,0.66,12317,10190.3,0,0,0,-4.48,-1.61,2.87,0.75,-0.18,0.66
0.32421875,-0.08781251,-0.029466655,0.04423126,0.75,-0.2,0.66,12332,10190.3,0,0,0,-3.5,-2.03,3.01,0.75,-0.2,0.66
0.32421875,-0.04881251,-0.014466656,0.024231257,0.76,-0.21,0.67,12355,10190.3,0,0,0,-0.77,-0.98,1.61,0.76,-0.21,0.67
0.62402344,-0.03481251,-0.021466656,0.010231256,0.76,-0.21,0.67,12370,10190.6,0,0,0,0.21,-1.47,0.63,0.76,-0.21,0.67
-0.67578125,-0.021812508,-0.016466657,-0.0007687438,0.76,-0.19,0.67,12393,10189.3,0,0,0,1.12,-1.12,-0.14,0.76,-0.19,0.67
0.32421875,-0.014812509,-0.030466655,0.0052312566,0.76,-0.19,0.67,12423,10190.3,0,0,0,1.61,-2.1,0.28,0.76,-0.19,0.67
0.32421875,-0.00081250817,-0.012466655,0.0032312563,0.76,-0.18,0.67,12431,10190.3,0,0,0,2.59,-0.84,0.14,0.76,-0.18,0.67
0.32421875,0.01318749,-0.023466656,0.007231256,0.75,-0.18,0.66,12452,10190.3,0,0,0,3.57,-1.61,0.42,0.75,-0.18,0.66
-0.67578125,-0.04681251,-0.015466656,-0.0017687435,0.75,-0.18,0.67,12476,10189.3,0,0,0,-0.63,-1.05,-0.21,0.75,-0.18,0.67
0.024414062,-0.08181251,-0.016466657,0.004231256,0.75,-0.18,0.68,12501,10190,0,0,0,-3.08,-1.12,0.21,0.75,-0.18,0.68
-0.67578125,-0.083812505,-0.06346666,0.021231256,0.75,-0.18,0.66,12512,10189.3,0,0,0,-3.22,-4.41,1.4,0.75,-0.18,0.66
0.32421875,-0.05781251,-0.042466655,0.021231256,0.75,-0.2,0.64,12528,10190.3,0,0,0,-1.4,-2.94,1.4,0.75,-0.2,0.64
-0.67578125,0.007187493,-0.005466656,0.008231256,0.75,-0.2,0.65,12550,10189.3,0,0,0,3.15,-0.35,0.49,0.75,-0.2,0.65
0.32421875,0.006187491,0.0065333443,0.00023125624,0.76,-0.19,0.68,12566,10190.3,0,0,0,3.08,0.49,-0.07,0.76,-0.19,0.68
0.32421875,-0.06681251,-0.035466656,0.014231256,0.76,-0.2,0.68,12581,10190.3,0,0,0,-2.03,-2.45,0.91,0.76,-0.2,0.68
0.32421875,-0.1088125,-0.040466655,0.015231256,0.76,-0.19,0.67,12595,10190.3,0,0,0,-4.97,-2.8,0.98,0.76,-0.19,0.67
0.32421875,-0.08781251,-0.03146666,0.0032312563,0.75,-0.21,0.66,12610,10190.3,0,0,0,-3.5,-2.17,0.14,0.75,-0.21,0.66
-0.67578125,-0.06481251,-0.020466655,-0.022768741,0.75,-0.19,0.66,12625,10189.3,0,0,0,-1.89,-1.4,-1.68,0.75,-0.19,0.66
1.3242188,-0.033812508,-0.017466657,-0.028768742,0.74,-0.16,0.66,12648,10191.3,0,0,0,0.28,-1.19,-2.1,0.74,-0.16,0.66
0.32421875,-0.023812508,-0.016466657,-0.008768744,0.75,-0.16,0.66,12670,10190.3,0,0,0,0.98,-1.12,-0.7,0.75,-0.16,0.66
0.32421875,-0.051812507,-0.003466656,0.018231258,0.75,-0.17,0.67,12677,10190.3,0,0,0,-0.98,-0.21,1.19,0.75,-0.17,0.67
0.32421875,-0.07581251,-0.0024666563,0.015231256,0.76,-0.18,0.68,12692,10190.3,0,0,0,-2.66,-0.14,0.98,0.76,-0.18,0.68
0.32421875,-0.05681251,-0.024466654,0.021231256,0.77,-0.19,0.69,12707,10190.3,0,0,0,-1.33,-1.68,1.4,0.77,-0.19,0.69
0.62402344,-0.04581251,-0.040466655,0.021231256,0.77,-0.21,0.67,12723,10190.6,0,0,0,-0.56,-2.8,1.4,0.77,-0.21,0.67
1.3242188,-0.04581251,-0.043466657,-0.009768744,0.76,-0.21,0.66,12745,10191.3,0,0,0,-0.56,-3.01,-0.77,0.76,-0.21,0.66
0.32421875,-0.04181251,-0.054466657,0.0022312563,0.77,-0.2,0.66,12760,10190.3,0,0,0,-0.28,-3.78,0.07,0.77,-0.2,0.66
-0.67578125,-0.051812507,-0.010466656,-0.013768744,0.76,-0.2,0.66,12775,10189.3,0,0,0,-0.98,-0.7,-1.05,0.76,-0.2,0.66
0.62402344,-0.03681251,-0.008466656,-0.011768744,0.76,-0.19,0.67,12790,10190.6,0,0,0,0.07,-0.56,-0.91,0.76,-0.19,0.67
0.32421875,-0.0028125085,-0.019466657,-0.016768742,0.75,-0.18,0.67,12805,10190.3,0,0,0,2.45,-1.33,-1.26,0.75,-0.18,0.67
2.3242188,-0.009812508,-0.022466656,-0.022768741,0.75,-0.17,0.67,12820,10192.3,0,0,0,1.96,-1.54,-1.68,0.75,-0.17,0.67
-0.67578125,-0.026812509,-0.03846666,0.009231256,0.75,-0.17,0.66,12842,10189.3,0,0,0,0.77,-2.66,0.56,0.75,-0.17,0.66
0.32421875,-0.051812507,-0.032466657,0.014231256,0.75,-0.17,0.65,12858,10190.3,0,0,0,-0.98,-2.24,0.91,0.75,-0.17,0.65
0.32421875,-0.07481251,-0.019466657,0.028231258,0.75,-0.18,0.65,12881,10190.3,0,0,0,-2.59,-1.33,1.89,0.75,-0.18,0.65
-0.67578125,-0.076812506,-0.016466657,0.037231255,0.76,-0.19,0.66,12888,10189.3,0,0,0,-2.73,-1.12,2.52,0.76,-0.19,0.66
0.32421875,-0.09281251,-0.029466655,0.027231257,0.76,-0.21,0.66,12903,10190.3,0,0,0,-3.85,-2.03,1.82,0.76,-0.21,0.66
-0.67578125,-0.09181251,-0.026466656,-0.0007687438,0.76,-0.2,0.66,12918,10189.3,0,0,0,-3.78,-1.82,-0.14,0.76,-0.2,0.66
-1.3759766,-0.044812508,-0.014466656,-0.016768742,0.76,-0.19,0.65,12932,10188.6,0,0,0,-0.49,-0.98,-1.26,0.76,-0.19,0.65
-0.67578125,-0.04181251,-0.010466656,-0.020768743,0.76,-0.18,0.66,12955,10189.3,0,0,0,-0.28,-0.7,-1.54,0.76,-0.18,0.66
0.32421875,-0.083812505,-0.012466655,-0.005768744,0.76,-0.19,0.67,12970,10190.3,0,0,0,-3.22,-0.84,-0.49,0.76,-0.19,0.67
-0.37597656,-0.11481251,-0.020466655,-0.0027687438,0.76,-0.19,0.67,12985,10189.6,0,0,0,-5.39,-1.4,-0.28,0.76,-0.19,0.67
0.32421875,-0.08781251,-0.027466657,-0.013768744,0.76,-0.19,0.67,13002,10190.3,0,0,0,-3.5,-1.89,-1.05,0.76,-0.19,0.67
0.32421875,-0.05381251,-0.028466657,-0.013768744,0.75,-0.18,0.67,13015,10190.3,0,0,0,-1.12,-1.96,-1.05,0.75,-0.18,0.67
-0.37597656,-0.08181251,-0.043466657,-0.010768743,0.75,-0.18,0.66,13034,10189.6,0,0,0,-3.08,-3.01,-0.84,0.75,-0.18,0.66
-0.67578125,-0.080812514,-0.021466656,-0.0127687445,0.75,-0.17,0.67,13053,10189.3,0,0,0,-3.01,-1.47,-0.98,0.75,-0.17,0.67
0.32421875,-0.05481251,-0.03846666,0.0022312563,0.75,-0.19,0.66,13068,10190.3,0,0,0,-1.19,-2.66,0.07,0.75,-0.19,0.66
-0.67578125,-0.07081251,-0.048466653,-0.007768743,0.75,-0.19,0.65,13083,10189.3,0,0,0,-2.31,-3.36,-0.63,0.75,-0.19,0.65
-0.67578125,-0.05681251,-0.018466655,-0.015768744,0.75,-0.19,0.66,13098,10189.3,0,0,0,-1.33,-1.26,-1.19,0.75,-0.19,0.66
0.62402344,-0.11081251,-0.047466654,-0.026768744,0.75,-0.19,0.66,13112,10190.6,0,0,0,-5.11,-3.29,-1.96,0.75,-0.19,0.66
0.32421875,-0.20081252,-0.051466655,-0.03976874,0.76,-0.2,0.67,13128,10190.3,0,0,0,-11.41,-3.57,-2.87,0.76,-0.2,0.67
0.62402344,-0.18681252,-0.056466658,-0.031768743,0.75,-0.19,0.66,13150,10190.6,0,0,0,-10.43,-3.92,-2.31,0.75,-0.19,0.66
1.0244141,-0.15881252,-0.058466654,-0.037768744,0.75,-0.2,0.65,13166,10191,0,0,0,-8.47,-4.06,-2.73,0.75,-0.2,0.65
-1.6757812,-0.1488125,-0.033466656,-0.06676875,0.75,-0.19,0.65,13181,10188.3,0,0,0,-7.77,-2.31,-4.76,0.75,-0.19,0.65
0.32421875,-0.10481251,-0.026466656,-0.050768744,0.76,-0.18,0.66,13195,10190.3,0,0,0,-4.69,-1.82,-3.64,0.76,-0.18,0.66
0.32421875,-0.13881251,-0.037466656,-0.06276875,0.76,-0.2,0.67,13210,10190.3,0,0,0,-7.07,-2.59,-4.48,0.76,-0.2,0.67
-0.67578125,-0.28581253,-0.07246666,-0.10676875,0.76,-0.21,0.68,13233,10189.3,0,0,0,-17.36,-5.04,-7.56,0.76,-0.21,0.68
1.3242188,-0.4278125,-0.10346666,-0.14176875,0.77,-0.2,0.67,13248,10191.3,0,0,0,-27.3,-7.21,-10.01,0.77,-0.2,0.67
-0.67578125,-0.4778125,-0.10746665,-0.15376875,0.76,-0.23,0.67,13263,10189.3,0,0,0,-30.8,-7.49,-10.85,0.76,-0.23,0.67
-0.97558594,-0.70681256,-0.11146666,-0.25576875,0.76,-0.24,0.67,13278,10189,0,0,0,-46.83,-7.77,-17.99,0.76,-0.24,0.67
0.32421875,-1.3388125,-0.16746666,-0.58576876,0.79,-0.29,0.72,13293,10190.3,0,0,0,-91.07,-11.69,-41.09,0.79,-0.29,0.72
-2.3759766,-1.6928124,-0.30946663,-0.58276874,0.79,-0.17,0.66,13307,10187.6,0,0,0,-115.85,-21.63,-40.88,0.79,-0.17,0.66
-0.67578125,-1.5558125,-0.29946664,-0.44976875,0.8,-0.21,0.6,13331,10189.3,0,0,0,-106.26,-20.93,-31.57,0.8,-0.21,0.6
2.6240234,-1.2998124,-0.17346665,-0.41376874,0.79,-0.24,0.59,13345,10192.6,0,0,0,-88.34,-12.11,-29.05,0.79,-0.24,0.59
-0.67578125,-0.9768126,-0.09446666,-0.43876874,0.8,-0.2,0.58,13360,10189.3,0,0,0,-65.73,-6.58,-30.8,0.8,-0.2,0.58
0.62402344,-0.4978125,0.004533344,-0.36076874,0.8,-0.21,0.55,13375,10190.6,0,0,0,-32.2,0.35,-25.34,0.8,-0.21,0.55
-0.67578125,-0.24081251,0.16253334,-0.43776873,0.8,-0.28,0.61,13391,10189.3,0,0,0,-14.21,11.41,-30.73,0.8,-0.28,0.61
0.32421875,-0.24981251,0.20553334,-0.55976874,0.82,-0.22,0.66,13420,10190.3,0,0,0,-14.84,14.42,-39.27,0.82,-0.22,0.66
-0.37597656,-0.06481251,0.24853334,-0.5567688,0.82,-0.19,0.68,13427,10189.6,0,0,0,-1.89,17.43,-39.06,0.82,-0.19,0.68
0.62402344,0.111187495,0.32553336,-0.5697688,0.83,-0.17,0.74,13442,10190.6,0,0,0,10.43,22.82,-39.97,0.83,-0.17,0.74
-0.67578125,0.18318748,0.27353337,-0.5107688,0.82,-0.16,0.78,13457,10189.3,0,0,0,15.47,19.18,-35.84,0.82,-0.16,0.78
0.62402344,0.00918749,0.16853334,-0.47276875,0.83,-0.16,0.78,13472,10190.6,0,0,0,3.29,11.83,-33.18,0.83,-0.16,0.78
-1.6757812,-0.1088125,0.13553335,-0.42776877,0.81,-0.13,0.73,13487,10188.3,0,0,0,-4.97,9.52,-30.03,0.81,-0.13,0.73
-1.3759766,-0.05981251,0.22753334,-0.42676872,0.79,-0.15,0.65,13510,10188.6,0,0,0,-1.54,15.96,-29.96,0.79,-0.15,0.65
0.62402344,0.2911875,0.48253337,-0.43776873,0.77,-0.15,0.64,13525,10190.6,0,0,0,23.03,33.81,-30.73,0.77,-0.15,0.64
0.32421875,0.61118746,0.7105334,-0.58776873,0.78,-0.24,0.78,13540,10190.3,0,0,0,45.43,49.77,-41.23,0.78,-0.24,0.78
0.32421875,0.45618752,0.62853336,-0.74476874,0.8,-0.13,0.84,13555,10190.3,0,0,0,34.58,44.03,-52.22,0.8,-0.13,0.84
-0.67578125,0.4271875,0.42553335,-0.60976875,0.79,-0.09,0.84,13570,10189.3,0,0,0,32.55,29.82,-42.77,0.79,-0.09,0.84
-0.37597656,0.4281875,0.30153334,-0.44976875,0.76,-0.06,0.78,13585,10189.6,0,0,0,32.62,21.14,-31.57,0.76,-0.06,0.78
-0.67578125,0.4121875,0.23453335,-0.30976877,0.72,-0.09,0.76,13600,10189.3,0,0,0,31.5,16.45,-21.77,0.72,-0.09,0.76
-0.67578125,0.2561875,0.13653335,-0.20676875,0.71,-0.08,0.72,13622,10189.3,0,0,0,20.58,9.59,-14.56,0.71,-0.08,0.72
-0.37597656,0.0831875,0.07653334,-0.13076875,0.7,-0.1,0.67,13637,10189.6,0,0,0,8.47,5.39,-9.24,0.7,-0.1,0.67
-2.0751953,0.06818749,0.09953334,-0.10576874,0.69,-0.12,0.59,13652,10187.9,0,0,0,7.42,7,-7.49,0.69,-0.12,0.59
0.62402344,0.2721875,0.20853335,-0.111768745,0.69,-0.12,0.61,13667,10190.6,0,0,0,21.7,14.63,-7.91,0.69,-0.12,0.61
-0.67578125,0.4141875,0.20753334,-0.11576874,0.69,-0.11,0.66,13683,10189.3,0,0,0,31.64,14.56,-8.19,0.69,-0.11,0.66
-0.67578125,0.3491875,0.111533344,-0.10976875,0.69,-0.1,0.67,13698,10189.3,0,0,0,27.09,7.84,-7.77,0.69,-0.1,0.67
-0.37597656,0.18318748,-0.022466656,-0.029768744,0.69,-0.07,0.63,13721,10189.6,0,0,0,15.47,-1.54,-2.17,0.69,-0.07,0.63
0.62402344,0.18518749,-0.016466657,0.036231257,0.68,-0.08,0.59,13736,10190.6,0,0,0,15.61,-1.12,2.45,0.68,-0.08,0.59
0.62402344,0.17218748,0.0135333445,0.008231256,0.68,-0.08,0.61,13750,10190.6,0,0,0,14.7,0.98,0.49,0.68,-0.08,0.61
-1.3759766,0.13018748,-0.027466657,0.036231257,0.69,-0.06,0.62,13766,10188.6,0,0,0,11.76,-1.89,2.45,0.69,-0.06,0.62
-0.37597656,0.038187496,-0.047466654,0.07823125,0.72,-0.07,0.62,13781,10189.6,0,0,0,5.32,-3.29,5.39,0.72,-0.07,0.62
0.62402344,0.113187484,-0.009466656,0.109231256,0.7,-0.07,0.6,13795,10190.6,0,0,0,10.57,-0.63,7.56,0.7,-0.07,0.6
-0.67578125,0.2631875,-0.004466656,0.075231254,0.71,-0.07,0.6,13818,10189.3,0,0,0,21.07,-0.28,5.18,0.71,-0.07,0.6
0.62402344,0.2741875,0.017533343,0.048231255,0.72,-0.06,0.63,13832,10190.6,0,0,0,21.84,1.26,3.29,0.72,-0.06,0.63
-0.37597656,0.18318748,0.010533344,0.10423125,0.74,-0.04,0.65,13847,10189.6,0,0,0,15.47,0.77,7.21,0.74,-0.04,0.65
-0.37597656,0.16018748,0.0135333445,0.14423126,0.74,-0.04,0.67,13862,10189.6,0,0,0,13.86,0.98,10.01,0.74,-0.04,0.67
-0.37597656,0.1821875,-0.010466656,0.12423125,0.74,-0.06,0.7,13877,10189.6,0,0,0,15.4,-0.7,8.61,0.74,-0.06,0.7
-0.37597656,0.07818749,-0.09646665,0.08823126,0.74,-0.06,0.68,13892,10189.6,0,0,0,8.12,-6.72,6.09,0.74,-0.06,0.68
0.32421875,-0.027812509,-0.06246666,0.09723125,0.76,-0.05,0.64,13915,10190.3,0,0,0,0.7,-4.34,6.72,0.76,-0.05,0.64
-0.37597656,0.006187491,0.023533342,0.087231256,0.77,-0.06,0.67,13930,10189.6,0,0,0,3.08,1.68,6.02,0.77,-0.06,0.67
-4.3759766,0.16918749,0.04053334,0.06923126,0.75,-0.06,0.71,13945,10185.6,0,0,0,14.49,2.87,4.76,0.75,-0.06,0.71
-0.37597656,0.2681875,0.027533345,0.041231256,0.75,-0.02,0.76,13960,10189.6,0,0,0,21.42,1.96,2.8,0.75,-0.02,0.76
-1.3759766,0.2961875,0.0055333436,0.08923125,0.75,-0.03,0.79,13983,10188.6,0,0,0,23.38,0.42,6.16,0.75,-0.03,0.79
-0.37597656,0.3231875,0.008533344,0.13423125,0.75,-0,0.78,13990,10189.6,0,0,0,25.27,0.63,9.31,0.75,-0,0.78
-3.3759766,0.4121875,0.016533345,0.14423126,0.74,-0.05,0.79,14013,10186.6,0,0,0,31.5,1.19,10.01,0.74,-0.05,0.79
-0.37597656,0.3381875,-0.013466656,0.11523125,0.75,-0.04,0.82,14027,10189.6,0,0,0,26.32,-0.91,7.98,0.75,-0.04,0.82
-0.37597656,0.2801875,-0.087466665,0.15623125,0.75,-0.02,0.8,14042,10189.6,0,0,0,22.26,-6.09,10.85,0.75,-0.02,0.8
-0.37597656,0.26418748,-0.119466655,0.18523125,0.74,-0.03,0.76,14057,10189.6,0,0,0,21.14,-8.33,12.88,0.74,-0.03,0.76
-0.37597656,0.36418748,-0.07746666,0.20923126,0.73,-0.03,0.74,14072,10189.6,0,0,0,28.14,-5.39,14.56,0.73,-0.03,0.74
-3.6757812,0.7201875,-0.035466656,0.21323125,0.72,-0.02,0.74,14088,10186.3,0,0,0,53.06,-2.45,14.84,0.72,-0.02,0.74
-1.6757812,0.4511875,-0.045466658,0.22923125,0.73,-0.01,0.75,14110,10188.3,0,0,0,34.23,-3.15,15.96,0.73,-0.01,0.75
-0.37597656,0.3391875,-0.098466665,0.26623124,0.73,-0.03,0.75,14124,10189.6,0,0,0,26.39,-6.86,18.55,0.73,-0.03,0.75
0.024414062,0.23218748,-0.14846666,0.27223125,0.73,-0.01,0.7,14139,10190,0,0,0,18.9,-10.36,18.97,0.73,-0.01,0.7
-0.37597656,0.2401875,-0.12146667,0.26323125,0.73,-0,0.67,14162,10189.6,0,0,0,19.46,-8.47,18.34,0.73,-0,0.67
-0.37597656,0.30818748,-0.06246666,0.27923125,0.73,0,0.66,14170,10189.6,0,0,0,24.22,-4.34,19.46,0.73,0,0.66
-1.3759766,0.32718748,-0.013466656,0.30623126,0.74,0.01,0.66,14185,10188.6,0,0,0,25.55,-0.91,21.35,0.74,0.01,0.66
0.62402344,0.3431875,0.029533343,0.33423126,0.75,0.01,0.67,14208,10190.6,0,0,0,26.67,2.1,23.31,0.75,0.01,0.67
-1.3759766,0.3311875,0.039533343,0.36723128,0.76,0.01,0.68,14223,10188.6,0,0,0,25.83,2.8,25.62,0.76,0.01,0.68
-0.37597656,0.2781875,0.017533343,0.36523125,0.76,-0.02,0.68,14237,10189.6,0,0,0,22.12,1.26,25.48,0.76,-0.02,0.68
-1.3759766,0.0991875,0.009533344,0.33323124,0.76,-0.01,0.66,14252,10188.6,0,0,0,9.59,0.7,23.24,0.76,-0.01,0.66
-0.37597656,0.08218749,0.070533335,0.32223123,0.74,0.01,0.61,14267,10189.6,0,0,0,8.4,4.97,22.47,0.74,0.01,0.61
-0.67578125,0.3181875,0.22353335,0.33823127,0.76,0.04,0.62,14285,10189.3,0,0,0,24.92,15.68,23.59,0.76,0.04,0.62
-0.37597656,0.53718746,0.35353336,0.38723126,0.76,0.02,0.64,14297,10189.6,0,0,0,40.25,24.78,27.02,0.76,0.02,0.64
-0.37597656,0.50518745,0.47353336,0.41823125,0.78,-0.06,0.66,14319,10189.6,0,0,0,38.01,33.18,29.19,0.78,-0.06,0.66
-0.37597656,0.4231875,0.5995334,0.38823125,0.79,-0.1,0.7,14335,10189.6,0,0,0,32.27,42,27.09,0.79,-0.1,0.7
-0.37597656,0.6051874,0.73953336,0.31123126,0.79,-0.13,0.77,14351,10189.6,0,0,0,45.01,51.8,21.7,0.79,-0.13,0.77
-1.3759766,0.87018746,0.77453333,0.14223126,0.74,-0.08,0.82,14368,10188.6,0,0,0,63.56,54.25,9.87,0.74,-0.08,0.82
0.62402344,0.9101875,0.6695334,0.010231256,0.7,-0.04,0.83,14381,10190.6,0,0,0,66.36,46.9,0.63,0.7,-0.04,0.83
-1.3759766,0.69118744,0.54153335,0.020231258,0.67,0.07,0.75,14395,10188.6,0,0,0,51.03,37.94,1.33,0.67,0.07,0.75
-0.37597656,0.66218746,0.5955334,0.14923126,0.63,0.09,0.71,14418,10189.6,0,0,0,49,41.72,10.36,0.63,0.09,0.71
-0.37597656,0.87518746,0.6835334,0.27523127,0.62,0.1,0.73,14433,10189.6,0,0,0,63.91,47.88,19.18,0.62,0.1,0.73
-0.67578125,1.1601875,0.69053334,0.34623125,0.61,0.06,0.77,14448,10189.3,0,0,0,83.86,48.37,24.15,0.61,0.06,0.77
-0.37597656,1.1251876,0.6055333,0.35523126,0.61,0.08,0.79,14462,10189.6,0,0,0,81.41,42.42,24.78,0.61,0.08,0.79
-1.3759766,1.0671875,0.53853333,0.41023123,0.62,0.09,0.77,14478,10188.6,0,0,0,77.35,37.73,28.63,0.62,0.09,0.77
0.62402344,1.0541875,0.52453333,0.48723125,0.59,0.09,0.74,14500,10190.6,0,0,0,76.44,36.75,34.02,0.59,0.09,0.74
-0.37597656,1.0411875,0.6135334,0.49823126,0.6,0.05,0.79,14515,10189.6,0,0,0,75.53,42.98,34.79,0.6,0.05,0.79
-3.0751953,0.8311875,0.6215334,0.39923126,0.6,0.07,0.85,14530,10186.9,0,0,0,60.83,43.54,27.86,0.6,0.07,0.85
0.62402344,0.8581875,0.56353337,0.46323127,0.58,0.15,0.86,14545,10190.6,0,0,0,62.72,39.48,32.34,0.58,0.15,0.86
-1.3759766,0.9941874,0.5705334,0.56123126,0.55,0.17,0.83,14560,10188.6,0,0,0,72.24,39.97,39.2,0.55,0.17,0.83
-1.3759766,1.0121875,0.61253333,0.63723123,0.55,0.15,0.84,14583,10188.6,0,0,0,73.5,42.91,44.52,0.55,0.15,0.84
-1.3759766,0.88818747,0.6315334,0.65423125,0.55,0.13,0.85,14599,10188.6,0,0,0,64.82,44.24,45.71,0.55,0.13,0.85
-0.67578125,0.82518744,0.5945334,0.63223124,0.57,0.12,0.91,14619,10189.3,0,0,0,60.41,41.65,44.17,0.57,0.12,0.91
-1.3759766,0.8491875,0.45853338,0.5692312,0.54,0.19,0.89,14629,10188.6,0,0,0,62.09,32.13,39.76,0.54,0.19,0.89
-0.37597656,1.0221875,0.42553335,0.5722313,0.51,0.23,0.82,14642,10189.6,0,0,0,74.2,29.82,39.97,0.51,0.23,0.82
-1.3759766,1.1211874,0.55953336,0.5642313,0.53,0.22,0.8,14657,10188.6,0,0,0,81.13,39.2,39.41,0.53,0.22,0.8
-0.37597656,1.1461875,0.65353334,0.6062312,0.55,0.23,0.88,14680,10189.6,0,0,0,82.88,45.78,42.35,0.55,0.23,0.88
-0.37597656,1.0161875,0.54153335,0.61723125,0.56,0.24,0.97,14695,10189.6,0,0,0,73.78,37.94,43.12,0.56,0.24,0.97
-0.37597656,0.77318746,0.25253335,0.7072312,0.56,0.26,0.95,14710,10189.6,0,0,0,56.77,17.71,49.42,0.56,0.26,0.95
-1.3759766,0.5221875,0.12153334,0.7202313,0.53,0.27,0.86,14725,10188.6,0,0,0,39.2,8.54,50.33,0.53,0.27,0.86
-0.37597656,0.51318747,0.18453334,0.7172312,0.52,0.26,0.81,14747,10189.6,0,0,0,38.57,12.95,50.12,0.52,0.26,0.81
-0.97558594,0.6181874,0.23553334,0.7172312,0.53,0.26,0.79,14755,10189,0,0,0,45.92,16.52,50.12,0.53,0.26,0.79
0.024414062,0.70518744,0.30653337,0.74623126,0.55,0.25,0.78,14777,10190,0,0,0,52.01,21.49,52.15,0.55,0.25,0.78
-0.37597656,0.7691875,0.41453335,0.7352313,0.56,0.22,0.81,14793,10189.6,0,0,0,56.49,29.05,51.38,0.56,0.22,0.81
-1.3759766,0.78818744,0.46153337,0.6522313,0.58,0.21,0.87,14808,10188.6,0,0,0,57.82,32.34,45.57,0.58,0.21,0.87
-1.9755859,0.82818747,0.41953334,0.54723126,0.61,0.23,0.92,14823,10188,0,0,0,60.62,29.4,38.22,0.61,0.23,0.92
-0.37597656,0.7991875,0.24853334,0.5082313,0.62,0.24,0.93,14838,10189.6,0,0,0,58.59,17.43,35.49,0.62,0.24,0.93
1.0244141,0.62618744,0.081533335,0.48623127,0.61,0.25,0.86,14853,10191,0,0,0,46.48,5.74,33.95,0.61,0.25,0.86
-0.37597656,0.4421875,0.041533343,0.48523128,0.6,0.27,0.77,14868,10189.6,0,0,0,33.6,2.94,33.88,0.6,0.27,0.77
-0.97558594,0.29018748,0.12153334,0.46823123,0.61,0.25,0.76,14890,10189,0,0,0,22.96,8.54,32.69,0.61,0.25,0.76
-0.37597656,0.25918752,0.18453334,0.46223125,0.63,0.24,0.82,14905,10189.6,0,0,0,20.79,12.95,32.27,0.63,0.24,0.82
-0.97558594,0.2931875,0.14853334,0.38923126,0.64,0.22,0.88,14920,10189,0,0,0,23.17,10.43,27.16,0.64,0.22,0.88
-0.37597656,0.25918752,0.003533344,0.30523127,0.63,0.22,0.89,14934,10189.6,0,0,0,20.79,0.28,21.28,0.63,0.22,0.89
-1.3759766,0.05318749,-0.13846666,0.24623124,0.59,0.23,0.82,14951,10188.6,0,0,0,6.37,-9.66,17.15,0.59,0.23,0.82
-1.3759766,-0.047812507,-0.12246666,0.21323125,0.57,0.24,0.74,14966,10188.6,0,0,0,-0.7,-8.54,14.84,0.57,0.24,0.74
-0.37597656,0.026187494,0.016533345,0.123231255,0.55,0.26,0.74,15005,10189.6,0,0,0,4.48,1.19,8.54,0.55,0.26,0.74
-0.37597656,0.2371875,0.06853334,0.08023126,0.53,0.29,0.77,15006,10189.6,0,0,0,19.25,4.83,5.53,0.53,0.29,0.77
-0.37597656,0.3491875,0.06253334,0.087231256,0.51,0.31,0.8,15025,10189.6,0,0,0,27.09,4.41,6.02,0.51,0.31,0.8
-1.3759766,0.2351875,0.064533345,0.07123125,0.51,0.33,0.81,15033,10188.6,0,0,0,19.11,4.55,4.9,0.51,0.33,0.81
-1.9755859,0.17418748,0.07353334,0.10823125,0.49,0.32,0.82,15048,10188,0,0,0,14.84,5.18,7.49,0.49,0.32,0.82
-1.3759766,0.047187492,0.031533346,0.052231256,0.49,0.32,0.84,15070,10188.6,0,0,0,5.95,2.24,3.57,0.49,0.32,0.84
-0.37597656,0.03218749,-0.0064666555,0.054231256,0.49,0.34,0.83,15101,10189.6,0,0,0,4.9,-0.42,3.71,0.49,0.34,0.83
-0.37597656,0.11918748,0.008533344,0.045231257,0.48,0.34,0.83,15107,10189.6,0,0,0,10.99,0.63,3.08,0.48,0.34,0.83
-0.97558594,0.11918748,-0.0064666555,0.012231256,0.5,0.35,0.83,15115,10189,0,0,0,10.99,-0.42,0.77,0.5,0.35,0.83
-0.37597656,0.05018749,-0.026466656,0.027231257,0.5,0.33,0.81,15130,10189.6,0,0,0,6.16,-1.82,1.82,0.5,0.33,0.81
-1.3759766,-0.109812506,-0.010466656,0.012231256,0.5,0.31,0.8,15145,10188.6,0,0,0,-5.04,-0.7,0.77,0.5,0.31,0.8
-0.97558594,-0.16881251,0.031533346,-0.009768744,0.52,0.33,0.81,15160,10189,0,0,0,-9.17,2.24,-0.77,0.52,0.33,0.81
-1.3759766,-0.090812504,0.048533347,-0.036768746,0.52,0.3,0.85,15183,10188.6,0,0,0,-3.71,3.43,-2.66,0.52,0.3,0.85
-1.3759766,0.005187493,0.033533346,-0.024768744,0.53,0.34,0.86,15197,10188.6,0,0,0,3.01,2.38,-1.82,0.53,0.34,0.86
-1.3759766,0.029187493,-0.017466657,-0.017768744,0.53,0.31,0.86,15212,10188.6,0,0,0,4.69,-1.19,-1.33,0.53,0.31,0.86
-0.37597656,-0.004812509,-0.051466655,-0.011768744,0.52,0.3,0.83,15227,10189.6,0,0,0,2.31,-3.57,-0.91,0.52,0.3,0.83
2.7246094,-0.026812509,-0.022466656,-0.06876875,0.52,0.29,0.82,15243,10192.7,0,0,0,0.77,-1.54,-4.9,0.52,0.29,0.82
-0.97558594,-0.05281251,-0.034466658,-0.09476874,0.53,0.31,0.83,15258,10189,0,0,0,-1.05,-2.38,-6.72,0.53,0.31,0.83
-1.3759766,-0.033812508,-0.055466656,-0.08176874,0.52,0.31,0.81,15288,10188.6,0,0,0,0.28,-3.85,-5.81,0.52,0.31,0.81
-0.37597656,0.01318749,-0.032466657,-0.06876875,0.52,0.32,0.81,15303,10189.6,0,0,0,3.57,-2.24,-4.9,0.52,0.32,0.81
-0.37597656,0.040187493,-0.028466657,-0.051768743,0.51,0.31,0.82,15318,10189.6,0,0,0,5.46,-1.96,-3.71,0.51,0.31,0.82
-1.3759766,0.05718749,-0.043466657,-0.04576874,0.52,0.3,0.82,15325,10188.6,0,0,0,6.65,-3.01,-3.29,0.52,0.3,0.82
0.024414062,0.030187495,-0.06346666,-0.08576875,0.5,0.29,0.82,15340,10190,0,0,0,4.76,-4.41,-6.09,0.5,0.29,0.82
-0.67578125,-0.02581251,-0.109466664,-0.11476874,0.51,0.33,0.81,15355,10189.3,0,0,0,0.84,-7.63,-8.12,0.51,0.33,0.81
-2.3759766,-0.0018125102,-0.11046666,-0.06476875,0.5,0.33,0.79,15385,10187.6,0,0,0,2.52,-7.7,-4.62,0.5,0.33,0.79
0.024414062,0.014187492,-0.08046666,-0.042768743,0.51,0.33,0.8,15400,10190,0,0,0,3.64,-5.6,-3.08,0.51,0.33,0.8
-0.37597656,0.0831875,-0.098466665,0.016231256,0.51,0.34,0.82,15407,10189.6,0,0,0,8.47,-6.86,1.05,0.51,0.34,0.82
-0.37597656,0.037187494,-0.11846666,0.017231258,0.52,0.32,0.81,15423,10189.6,0,0,0,5.25,-8.26,1.12,0.52,0.32,0.81
-0.37597656,0.012187492,-0.119466655,0.042231254,0.52,0.32,0.8,15438,10189.6,0,0,0,3.5,-8.33,2.87,0.52,0.32,0.8
0.62402344,0.02218749,-0.09446666,0.042231254,0.53,0.3,0.81,15453,10190.6,0,0,0,4.2,-6.58,2.87,0.53,0.3,0.81
-0.97558594,0.03918749,-0.08646666,0.013231255,0.53,0.3,0.83,15468,10189,0,0,0,5.39,-6.02,0.84,0.53,0.3,0.83
0.024414062,0.038187496,-0.09046666,-0.024768744,0.53,0.3,0.86,15483,10190,0,0,0,5.32,-6.3,-1.82,0.53,0.3,0.86
-1.3759766,-0.06581251,-0.15246667,-0.042768743,0.54,0.34,0.84,15513,10188.6,0,0,0,-1.96,-10.64,-3.08,0.54,0.34,0.84
-0.37597656,-0.10281251,-0.14346667,0.0022312563,0.54,0.31,0.84,15520,10189.6,0,0,0,-4.55,-10.01,0.07,0.54,0.31,0.84
-0.37597656,-0.1558125,-0.10846666,-0.037768744,0.53,0.32,0.84,15535,10189.6,0,0,0,-8.26,-7.56,-2.73,0.53,0.32,0.84
0.024414062,-0.023812508,-0.10146666,-0.014768745,0.53,0.32,0.85,15558,10190,0,0,0,0.98,-7.07,-1.12,0.53,0.32,0.85
-0.37597656,0.03518749,-0.10346666,-0.028768742,0.53,0.32,0.83,15565,10189.6,0,0,0,5.11,-7.21,-2.1,0.53,0.32,0.83
-1.3759766,0.044187486,-0.07846666,-0.026768744,0.52,0.34,0.82,15580,10188.6,0,0,0,5.74,-5.46,-1.96,0.52,0.34,0.82
-1.3759766,0.0011874922,-0.047466654,-0.020768743,0.52,0.34,0.84,15603,10188.6,0,0,0,2.73,-3.29,-1.54,0.52,0.34,0.84
-0.37597656,-0.009812508,-0.032466657,0.0032312563,0.52,0.34,0.84,15625,10189.6,0,0,0,1.96,-2.24,0.14,0.52,0.34,0.84
-0.37597656,0.015187491,-0.034466658,0.027231257,0.53,0.33,0.86,15633,10189.6,0,0,0,3.71,-2.38,1.82,0.53,0.33,0.86
0.024414062,-0.03481251,-0.055466656,-0.25076875,0.51,0.31,0.85,15648,10190,0,0,0,0.21,-3.85,-17.64,0.51,0.31,0.85
-0.37597656,-0.07881251,-0.060466655,0.00023125624,0.52,0.34,0.83,15663,10189.6,0,0,0,-2.87,-4.2,-0.07,0.52,0.34,0.83
0.024414062,-0.083812505,-0.035466656,0.011231256,0.52,0.32,0.82,15677,10190,0,0,0,-3.22,-2.45,0.7,0.52,0.32,0.82
-1.3759766,-0.06981251,-0.023466656,0.014231256,0.51,0.33,0.81,15700,10188.6,0,0,0,-2.24,-1.61,0.91,0.51,0.33,0.81
-0.37597656,-0.05381251,-0.035466656,0.026231257,0.51,0.34,0.8,15715,10189.6,0,0,0,-1.12,-2.45,1.75,0.51,0.34,0.8
-0.37597656,-0.06981251,-0.013466656,0.042231254,0.52,0.34,0.79,15730,10189.6,0,0,0,-2.24,-0.91,2.87,0.52,0.34,0.79
0.024414062,-0.08181251,0.009533344,0.064231254,0.52,0.33,0.78,15745,10190,0,0,0,-3.08,0.7,4.41,0.52,0.33,0.78
0.024414062,-0.06481251,0.023533342,0.07723126,0.53,0.32,0.8,15760,10190,0,0,0,-1.89,1.68,5.32,0.53,0.32,0.8
0.62402344,-0.076812506,0.0135333445,0.07123125,0.54,0.32,0.81,15775,10190.6,0,0,0,-2.73,0.98,4.9,0.54,0.32,0.81
-0.37597656,-0.07181251,-0.005466656,0.07323125,0.54,0.31,0.81,15790,10189.6,0,0,0,-2.38,-0.35,5.04,0.54,0.31,0.81
-1.3759766,-0.11181251,-0.010466656,0.049231254,0.55,0.32,0.83,15813,10188.6,0,0,0,-5.18,-0.7,3.36,0.55,0.32,0.83
-0.37597656,-0.11681251,-0.030466655,0.068231255,0.55,0.31,0.83,15827,10189.6,0,0,0,-5.53,-2.1,4.69,0.55,0.31,0.83
-0.37597656,-0.12681252,-0.036466654,0.058231257,0.56,0.3,0.82,15843,10189.6,0,0,0,-6.23,-2.52,3.99,0.56,0.3,0.82
-0.37597656,-0.0978125,-0.017466657,0.041231256,0.55,0.31,0.82,15858,10189.6,0,0,0,-4.2,-1.19,2.8,0.55,0.31,0.82
1.0244141,-0.031812508,-0.017466657,0.028231258,0.55,0.32,0.82,15873,10191,0,0,0,0.42,-1.19,1.89,0.55,0.32,0.82
1.6240234,-0.02581251,-0.037466656,0.029231258,0.55,0.32,0.82,15895,10191.6,0,0,0,0.84,-2.59,1.96,0.55,0.32,0.82
-0.97558594,-0.06581251,-0.04946666,0.03923126,0.54,0.34,0.81,15910,10189,0,0,0,-1.96,-3.43,2.66,0.54,0.34,0.81
0.024414062,-0.049812507,-0.043466657,0.06723125,0.53,0.34,0.8,15940,10190,0,0,0,-0.84,-3.01,4.62,0.53,0.34,0.8
-0.37597656,-0.012812508,-0.03146666,0.07723126,0.53,0.32,0.8,15941,10189.6,0,0,0,1.75,-2.17,5.32,0.53,0.32,0.8
-0.97558594,-0.042812508,-0.039466657,0.061231256,0.54,0.32,0.8,15962,10189,0,0,0,-0.35,-2.73,4.2,0.54,0.32,0.8
-1.9755859,-0.05281251,-0.028466657,0.060231257,0.54,0.32,0.81,15970,10188,0,0,0,-1.05,-1.96,4.13,0.54,0.32,0.81
-0.37597656,-0.03981251,-0.018466655,0.05023126,0.54,0.32,0.81,15992,10189.6,0,0,0,-0.14,-1.26,3.43,0.54,0.32,0.81
-1.9755859,-0.0018125102,-0.009466656,0.06923126,0.55,0.3,0.82,16008,10188,0,0,0,2.52,-0.63,4.76,0.55,0.3,0.82
0.024414062,0.033187486,0.0065333443,0.029231258,0.54,0.3,0.82,16030,10190,0,0,0,4.97,0.49,1.96,0.54,0.3,0.82
-0.37597656,0.052187495,-0.015466656,-0.009768744,0.54,0.3,0.82,16037,10189.6,0,0,0,6.3,-1.05,-0.77,0.54,0.3,0.82
-0.97558594,0.03418749,-0.030466655,-0.004768743,0.55,0.32,0.81,16053,10189,0,0,0,5.04,-2.1,-0.42,0.55,0.32,0.81
-0.97558594,-0.012812508,-0.005466656,0.0052312566,0.54,0.32,0.81,16068,10189,0,0,0,1.75,-0.35,0.28,0.54,0.32,0.81
1.0244141,-0.0068125073,-0.013466656,0.023231257,0.53,0.32,0.82,16090,10191,0,0,0,2.17,-0.91,1.54,0.53,0.32,0.82
-0.37597656,0.030187495,-0.014466656,0.013231255,0.52,0.32,0.8,16120,10189.6,0,0,0,4.76,-0.98,0.84,0.52,0.32,0.8
0.024414062,0.05618749,0.008533344,0.0032312563,0.53,0.31,0.8,16122,10190,0,0,0,6.58,0.63,0.14,0.53,0.31,0.8
-0.97558594,0.05718749,0.019533344,-0.0007687438,0.53,0.32,0.81,16136,10189,0,0,0,6.65,1.4,-0.14,0.53,0.32,0.81
-0.37597656,0.037187494,0.0075333444,-0.004768743,0.53,0.33,0.82,16151,10189.6,0,0,0,5.25,0.56,-0.42,0.53,0.33,0.82
-1.3759766,0.011187494,-0.005466656,-0.011768744,0.52,0.32,0.8,16166,10188.6,0,0,0,3.43,-0.35,-0.91,0.52,0.32,0.8
0.024414062,0.005187493,0.032533344,-0.044768743,0.53,0.34,0.8,16188,10190,0,0,0,3.01,2.31,-3.22,0.53,0.34,0.8
0.024414062,0.03518749,0.07353334,-0.053768743,0.53,0.33,0.83,16203,10190,0,0,0,5.11,5.18,-3.85,0.53,0.33,0.83
0.024414062,-0.0038125068,0.037533347,-0.041768745,0.54,0.35,0.84,16219,10190,0,0,0,2.38,2.66,-3.01,0.54,0.35,0.84
0.024414062,-0.05281251,-0.0014666561,0.0012312563,0.54,0.32,0.85,16232,10190,0,0,0,-1.05,-0.07,0,0.54,0.32,0.85
0.62402344,-0.1628125,-0.035466656,-0.037768744,0.53,0.31,0.81,16248,10190.6,0,0,0,-8.75,-2.45,-2.73,0.53,0.31,0.81
1.0244141,-0.076812506,-0.0024666563,-0.057768743,0.53,0.34,0.78,16263,10191,0,0,0,-2.73,-0.14,-4.13,0.53,0.34,0.78
-0.37597656,0.04518749,0.070533335,-0.07776875,0.53,0.32,0.8,16285,10189.6,0,0,0,5.81,4.97,-5.53,0.53,0.32,0.8
-0.97558594,0.055187494,0.064533345,-0.09976875,0.52,0.36,0.81,16300,10189,0,0,0,6.51,4.55,-7.07,0.52,0.36,0.81
0.024414062,0.03518749,0.059533343,-0.08576875,0.52,0.34,0.84,16315,10190,0,0,0,5.11,4.2,-6.09,0.52,0.34,0.84
-0.37597656,-0.07981251,0.041533343,-0.09876875,0.53,0.35,0.86,16330,10189.6,0,0,0,-2.94,2.94,-7,0.53,0.35,0.86
0.024414062,-0.04181251,0.001533344,-0.029768744,0.52,0.35,0.85,16353,10190,0,0,0,-0.28,0.14,-2.17,0.52,0.35,0.85
-0.97558594,-0.020812508,0.0025333436,-0.055768743,0.53,0.32,0.86,16368,10189,0,0,0,1.19,0.21,-3.99,0.53,0.32,0.86
-1.9755859,-0.09181251,-0.08146666,-0.07476875,0.52,0.35,0.84,16391,10188,0,0,0,-3.78,-5.67,-5.32,0.52,0.35,0.84
0.024414062,-0.11281251,-0.08946666,-0.04576874,0.52,0.33,0.79,16405,10190,0,0,0,-5.25,-6.23,-3.29,0.52,0.33,0.79
0.024414062,-0.10481251,-0.039466657,-0.033768743,0.51,0.33,0.77,16420,10190,0,0,0,-4.69,-2.73,-2.45,0.51,0.33,0.77
0.024414062,-0.010812508,0.056533344,-0.07476875,0.5,0.32,0.81,16442,10190,0,0,0,1.89,3.99,-5.32,0.5,0.32,0.81
-1.3759766,-0.026812509,0.044533346,-0.100768745,0.52,0.33,0.88,16457,10188.6,0,0,0,0.77,3.15,-7.14,0.52,0.33,0.88
-0.37597656,-0.10581251,-0.058466654,-0.06676875,0.5,0.35,0.85,16480,10189.6,0,0,0,-4.76,-4.06,-4.76,0.5,0.35,0.85
0.024414062,-0.1258125,-0.06746666,-0.052768745,0.49,0.34,0.81,16510,10190,0,0,0,-6.16,-4.69,-3.78,0.49,0.34,0.81
-0.97558594,-0.07381251,-0.016466657,-0.041768745,0.48,0.35,0.8,16519,10189,0,0,0,-2.52,-1.12,-3.01,0.48,0.35,0.8
1.0244141,-0.03581251,0.0025333436,-0.026768744,0.49,0.34,0.81,16537,10191,0,0,0,0.14,0.21,-1.96,0.49,0.34,0.81
-0.97558594,-0.05781251,-0.008466656,-0.008768744,0.49,0.34,0.81,16555,10189,0,0,0,-1.4,-0.56,-0.7,0.49,0.34,0.81
0.024414062,-0.08681251,0.003533344,-0.017768744,0.51,0.33,0.82,16570,10190,0,0,0,-3.43,0.28,-1.33,0.51,0.33,0.82
0.024414062,-0.06981251,-0.013466656,-0.03476874,0.52,0.33,0.84,16593,10190,0,0,0,-2.24,-0.91,-2.52,0.52,0.33,0.84
-0.97558594,-0.07381251,-0.060466655,-0.053768743,0.51,0.33,0.82,16608,10189,0,0,0,-2.52,-4.2,-3.85,0.51,0.33,0.82
0.024414062,-0.051812507,-0.052466657,-0.03976874,0.5,0.35,0.78,16623,10190,0,0,0,-0.98,-3.64,-2.87,0.5,0.35,0.78
-0.97558594,-0.03481251,0.024533344,-0.024768744,0.5,0.34,0.81,16645,10189,0,0,0,0.21,1.75,-1.82,0.5,0.34,0.81
0.024414062,-0.08281251,0.008533344,-0.032768745,0.52,0.35,0.85,16660,10190,0,0,0,-3.15,0.63,-2.38,0.52,0.35,0.85
-0.97558594,-0.10581251,-0.059466656,-0.037768744,0.52,0.34,0.86,16682,10189,0,0,0,-4.76,-4.13,-2.73,0.52,0.34,0.86
0.024414062,-0.06781251,-0.08146666,-0.032768745,0.53,0.34,0.83,16698,10190,0,0,0,-2.1,-5.67,-2.38,0.53,0.34,0.83
-1.3759766,-0.015812509,-0.042466655,-0.044768743,0.52,0.33,0.83,16720,10188.6,0,0,0,1.54,-2.94,-3.22,0.52,0.33,0.83
0.024414062,-0.009812508,-0.042466655,-0.050768744,0.53,0.33,0.84,16735,10190,0,0,0,1.96,-2.94,-3.64,0.53,0.33,0.84
-0.37597656,-0.021812508,-0.061466657,-0.06276875,0.52,0.34,0.84,16757,10189.6,0,0,0,1.12,-4.27,-4.48,0.52,0.34,0.84
-0.97558594,-0.03481251,-0.07246666,-0.07576875,0.51,0.35,0.83,16780,10189,0,0,0,0.21,-5.04,-5.39,0.51,0.35,0.83
-0.97558594,-0.080812514,-0.07446666,-0.060768746,0.51,0.34,0.82,16802,10189,0,0,0,-3.01,-5.18,-4.34,0.51,0.34,0.82
-0.97558594,-0.055812508,-0.06746666,-0.04676874,0.51,0.34,0.82,16818,10189,0,0,0,-1.26,-4.69,-3.36,0.51,0.34,0.82
0.024414062,0.018187493,-0.06846666,-0.03476874,0.51,0.34,0.82,16848,10190,0,0,0,3.92,-4.76,-2.52,0.51,0.34,0.82
1.3242188,0.019187491,-0.06346666,-0.020768743,0.5,0.33,0.81,16855,10191.3,0,0,0,3.99,-4.41,-1.54,0.5,0.33,0.81
0.024414062,0.004187491,-0.036466654,-0.032768745,0.51,0.34,0.82,16878,10190,0,0,0,2.94,-2.52,-2.38,0.51,0.34,0.82
0.024414062,0.048187494,-0.027466657,-0.025768744,0.51,0.33,0.84,16893,10190,0,0,0,6.02,-1.89,-1.89,0.51,0.33,0.84
-0.67578125,0.04318749,-0.06346666,-0.04676874,0.5,0.35,0.83,16923,10189.3,0,0,0,5.67,-4.41,-3.36,0.5,0.35,0.83
-2.3759766,0.016187493,-0.08346666,-0.035768744,0.49,0.36,0.79,16938,10187.6,0,0,0,3.78,-5.81,-2.59,0.49,0.36,0.79
-0.97558594,-0.015812509,-0.034466658,-0.0007687438,0.49,0.37,0.79,16952,10189,0,0,0,1.54,-2.38,-0.14,0.49,0.37,0.79
1.0244141,-0.01981251,-0.016466657,0.007231256,0.49,0.37,0.81,16967,10191,0,0,0,1.26,-1.12,0.42,0.49,0.37,0.81
0.024414062,-0.023812508,-0.019466657,0.020231258,0.5,0.35,0.82,16985,10190,0,0,0,0.98,-1.33,1.33,0.5,0.35,0.82
-2.975586,0.025187492,-0.015466656,0.028231258,0.52,0.34,0.84,17005,10187,0,0,0,4.41,-1.05,1.89,0.52,0.34,0.84
-0.97558594,-0.007812509,-0.057466656,0.010231256,0.53,0.33,0.84,17028,10189,0,0,0,2.1,-3.99,0.63,0.53,0.33,0.84
-0.97558594,-0.06481251,-0.06746666,-0.014768745,0.51,0.35,0.79,17042,10189,0,0,0,-1.89,-4.69,-1.12,0.51,0.35,0.79
0.024414062,0.010187488,-0.0014666561,-0.013768744,0.52,0.36,0.79,17057,10190,0,0,0,3.36,-0.07,-1.05,0.52,0.36,0.79
0.024414062,0.010187488,0.027533345,-0.033768743,0.52,0.35,0.83,17072,10190,0,0,0,3.36,1.96,-2.45,0.52,0.35,0.83
0.024414062,-0.03981251,-0.017466657,-0.0127687445,0.52,0.37,0.84,17095,10190,0,0,0,-0.14,-1.19,-0.98,0.52,0.37,0.84
0.024414062,-0.1448125,-0.065466665,-0.022768741,0.51,0.35,0.83,17110,10190,0,0,0,-7.49,-4.55,-1.68,0.51,0.35,0.83
-1.9755859,-0.1908125,-0.059466656,-0.014768745,0.51,0.36,0.81,17133,10188,0,0,0,-10.71,-4.13,-1.12,0.51,0.36,0.81
0.024414062,-0.09281251,-0.0064666555,-0.038768742,0.51,0.35,0.82,17155,10190,0,0,0,-3.85,-0.42,-2.8,0.51,0.35,0.82
1.0244141,-0.05281251,-0.046466656,-0.055768743,0.51,0.36,0.82,17170,10191,0,0,0,-1.05,-3.22,-3.99,0.51,0.36,0.82
-0.97558594,-0.09681251,-0.054466657,-0.043768745,0.51,0.36,0.79,17185,10189,0,0,0,-4.13,-3.78,-3.15,0.51,0.36,0.79
-0.97558594,-0.12181251,0.014533344,-0.004768743,0.52,0.34,0.82,17207,10189,0,0,0,-5.88,1.05,-0.42,0.52,0.34,0.82
0.024414062,-0.04681251,0.020533344,-0.023768744,0.53,0.36,0.84,17222,10190,0,0,0,-0.63,1.47,-1.75,0.53,0.36,0.84
-0.97558594,0.016187493,-0.010466656,-0.022768741,0.53,0.35,0.85,17245,10189,0,0,0,3.78,-0.7,-1.68,0.53,0.35,0.85
0.024414062,-0.08281251,-0.050466657,-0.030768745,0.51,0.35,0.83,17260,10190,0,0,0,-3.15,-3.5,-2.24,0.51,0.35,0.83
0.024414062,-0.11681251,-0.036466654,-0.006768744,0.51,0.35,0.81,17283,10190,0,0,0,-5.53,-2.52,-0.56,0.51,0.35,0.81
0.024414062,-0.07381251,0.0065333443,-0.03976874,0.5,0.35,0.81,17312,10190,0,0,0,-2.52,0.49,-2.87,0.5,0.35,0.81
-0.37597656,0.044187486,0.017533343,-0.04576874,0.5,0.35,0.83,17327,10189.6,0,0,0,5.74,1.26,-3.29,0.5,0.35,0.83
0.024414062,0.018187493,-0.0064666555,-0.043768745,0.5,0.37,0.85,17335,10190,0,0,0,3.92,-0.42,-3.15,0.5,0.37,0.85
0.024414062,-0.09681251,-0.08146666,0.008231256,0.5,0.37,0.83,17357,10190,0,0,0,-4.13,-5.67,0.49,0.5,0.37,0.83
-0.97558594,-0.14581251,-0.07446666,0.036231257,0.49,0.35,0.79,17372,10189,0,0,0,-7.56,-5.18,2.45,0.49,0.35,0.79
-0.97558594,-0.04881251,0.0055333436,0.022231257,0.49,0.34,0.8,17402,10189,0,0,0,-0.77,0.42,1.47,0.49,0.34,0.8
0.024414062,0.014187492,0.015533345,-0.011768744,0.5,0.35,0.84,17409,10190,0,0,0,3.64,1.12,-0.91,0.5,0.35,0.84
-1.6757812,-0.010812508,-0.035466656,0.017231258,0.5,0.35,0.83,17432,10188.3,0,0,0,1.89,-2.45,1.12,0.5,0.35,0.83
0.32421875,-0.03081251,-0.018466655,0.008231256,0.49,0.36,0.81,17447,10190.3,0,0,0,0.49,-1.26,0.49,0.49,0.36,0.81
-0.97558594,0.03218749,0.039533343,-0.019768743,0.48,0.36,0.84,17470,10189,0,0,0,4.9,2.8,-1.47,0.48,0.36,0.84
0.32421875,0.08218749,0.049533345,-0.031768743,0.49,0.38,0.89,17492,10190.3,0,0,0,8.4,3.5,-2.31,0.49,0.38,0.89
-0.97558594,0.024187494,-0.045466658,0.032231256,0.49,0.4,0.87,17508,10189,0,0,0,4.34,-3.15,2.17,0.49,0.4,0.87
2.024414,-0.02581251,-0.07446666,0.098231256,0.48,0.38,0.83,17530,10192,0,0,0,0.84,-5.18,6.79,0.48,0.38,0.83
-0.67578125,-0.0038125068,-0.023466656,0.10223126,0.48,0.35,0.83,17545,10189.3,0,0,0,2.38,-1.61,7.07,0.48,0.35,0.83
0.024414062,0.096187495,-0.017466657,0.051231258,0.5,0.35,0.84,17567,10190,0,0,0,9.38,-1.19,3.5,0.5,0.35,0.84
-0.97558594,0.0861875,-0.052466657,0.022231257,0.5,0.36,0.81,17584,10189,0,0,0,8.68,-3.64,1.47,0.5,0.36,0.81
0.32421875,-0.020812508,-0.043466657,0.051231258,0.49,0.36,0.76,17605,10190.3,0,0,0,1.19,-3.01,3.5,0.49,0.36,0.76
0.32421875,-0.029812507,0.008533344,0.062231258,0.49,0.35,0.75,17620,10190.3,0,0,0,0.56,0.63,4.27,0.49,0.35,0.75
0.024414062,0.006187491,0.039533343,0.023231257,0.49,0.36,0.77,17642,10190,0,0,0,3.08,2.8,1.54,0.49,0.36,0.77
2.024414,0.018187493,0.023533342,0.036231257,0.51,0.37,0.78,17658,10192,0,0,0,3.92,1.68,2.45,0.51,0.37,0.78
-0.97558594,-0.05481251,0.021533344,0.060231257,0.53,0.36,0.79,17680,10189,0,0,0,-1.19,1.54,4.13,0.53,0.36,0.79
0.024414062,-0.06881251,0.027533345,0.047231257,0.53,0.34,0.81,17694,10190,0,0,0,-2.17,1.96,3.22,0.53,0.34,0.81
-0.97558594,-0.021812508,0.016533345,0.008231256,0.54,0.35,0.83,17717,10189,0,0,0,1.12,1.19,0.49,0.54,0.35,0.83
-1.9755859,-0.033812508,-0.00046665609,-0.047768746,0.53,0.38,0.85,17732,10188,0,0,0,0.28,0,-3.43,0.53,0.38,0.85
-0.67578125,-0.090812504,-0.06946666,-0.006768744,0.53,0.38,0.83,17755,10189.3,0,0,0,-3.71,-4.83,-0.56,0.53,0.38,0.83
0.024414062,-0.1438125,-0.08046666,0.014231256,0.53,0.38,0.81,17770,10190,0,0,0,-7.42,-5.6,0.91,0.53,0.38,0.81
-0.97558594,-0.09981251,-0.056466658,0.012231256,0.53,0.35,0.82,17785,10189,0,0,0,-4.34,-3.92,0.77,0.53,0.35,0.82
-0.97558594,-0.015812509,-0.065466665,-0.044768743,0.53,0.36,0.83,17807,10189,0,0,0,1.54,-4.55,-3.22,0.53,0.36,0.83
-0.97558594,-0.040812507,-0.10646666,-0.06476875,0.53,0.37,0.83,17822,10189,0,0,0,-0.21,-7.42,-4.62,0.53,0.37,0.83
0.024414062,-0.12181251,-0.09546666,-0.07376875,0.51,0.37,0.81,17845,10190,0,0,0,-5.88,-6.65,-5.25,0.51,0.37,0.81
0.32421875,-0.11481251,-0.065466665,-0.06976874,0.51,0.38,0.8,17860,10190.3,0,0,0,-5.39,-4.55,-4.97,0.51,0.38,0.8
0.024414062,-0.033812508,-0.046466656,-0.06376875,0.5,0.38,0.81,17882,10190,0,0,0,0.28,-3.22,-4.55,0.5,0.38,0.81
0.024414062,-0.05681251,-0.053466655,-0.06376875,0.5,0.38,0.81,17897,10190,0,0,0,-1.33,-3.71,-4.55,0.5,0.38,0.81
-0.67578125,-0.03581251,-0.028466657,-0.057768743,0.5,0.38,0.82,17912,10189.3,0,0,0,0.14,-1.96,-4.13,0.5,0.38,0.82
-0.97558594,-0.03781251,-0.036466654,-0.08476875,0.5,0.37,0.84,17927,10189,0,0,0,0,-2.52,-6.02,0.5,0.37,0.84
0.62402344,-0.018812507,-0.087466665,-0.09876875,0.49,0.4,0.8,17949,10190.6,0,0,0,1.33,-6.09,-7,0.49,0.4,0.8
0.024414062,-0.04881251,-0.07346666,-0.093768746,0.49,0.39,0.78,17972,10190,0,0,0,-0.77,-5.11,-6.65,0.49,0.39,0.78
0.024414062,-0.06381251,-0.017466657,-0.06476875,0.5,0.39,0.79,17995,10190,0,0,0,-1.82,-1.19,-4.62,0.5,0.39,0.79
0.024414062,-0.06981251,-0.023466656,-0.060768746,0.51,0.39,0.8,18018,10190,0,0,0,-2.24,-1.61,-4.34,0.51,0.39,0.8
-0.97558594,-0.04681251,-0.019466657,-0.048768744,0.52,0.36,0.82,18025,10189,0,0,0,-0.63,-1.33,-3.5,0.52,0.36,0.82
-0.97558594,-0.06081251,-0.042466655,-0.057768743,0.52,0.37,0.82,18047,10189,0,0,0,-1.61,-2.94,-4.13,0.52,0.37,0.82
0.32421875,-0.06681251,-0.06446666,-0.08876875,0.53,0.35,0.81,18062,10190.3,0,0,0,-2.03,-4.48,-6.3,0.53,0.35,0.81
-0.97558594,-0.055812508,-0.056466658,-0.11276875,0.52,0.37,0.79,18085,10189,0,0,0,-1.26,-3.92,-7.98,0.52,0.37,0.79
-0.67578125,0.006187491,-0.033466656,-0.12876876,0.51,0.38,0.8,18101,10189.3,0,0,0,3.08,-2.31,-9.1,0.51,0.38,0.8
-0.67578125,-0.05381251,-0.06646666,-0.13576876,0.51,0.4,0.81,18129,10189.3,0,0,0,-1.12,-4.62,-9.59,0.51,0.4,0.81
0.024414062,-0.090812504,-0.08946666,-0.09676875,0.51,0.39,0.8,18137,10190,0,0,0,-3.71,-6.23,-6.86,0.51,0.39,0.8
-0.97558594,-0.13881251,-0.076466665,-0.09576875,0.5,0.37,0.79,18167,10189,0,0,0,-7.07,-5.32,-6.79,0.5,0.37,0.79
-0.97558594,-0.10381251,-0.058466654,-0.093768746,0.51,0.36,0.81,18175,10189,0,0,0,-4.62,-4.06,-6.65,0.51,0.36,0.81
0.024414062,-0.06281251,-0.07946666,-0.12476875,0.5,0.39,0.82,18197,10190,0,0,0,-1.75,-5.53,-8.82,0.5,0.39,0.82
-0.67578125,-0.07581251,-0.10646666,-0.10976875,0.49,0.38,0.81,18219,10189.3,0,0,0,-2.66,-7.42,-7.77,0.49,0.38,0.81
-1.6757812,-0.10781251,-0.07946666,-0.10776875,0.49,0.39,0.79,18235,10188.3,0,0,0,-4.9,-5.53,-7.63,0.49,0.39,0.79
0.32421875,-0.07381251,-0.042466655,-0.11476874,0.48,0.38,0.8,18250,10190.3,0,0,0,-2.52,-2.94,-8.12,0.48,0.38,0.8
-0.97558594,-0.06981251,-0.030466655,-0.13376874,0.48,0.39,0.84,18265,10189,0,0,0,-2.24,-2.1,-9.45,0.48,0.39,0.84
-1.9755859,-0.08281251,-0.07046666,-0.10376874,0.48,0.41,0.85,18287,10188,0,0,0,-3.15,-4.9,-7.35,0.48,0.41,0.85
0.32421875,-0.07781251,-0.07846666,-0.082768746,0.49,0.39,0.85,18302,10190.3,0,0,0,-2.8,-5.46,-5.88,0.49,0.39,0.85
0.024414062,-0.07781251,-0.10046666,-0.07676875,0.47,0.38,0.83,18324,10190,0,0,0,-2.8,-7,-5.46,0.47,0.38,0.83
0.024414062,-0.09381251,-0.10746665,-0.08776875,0.48,0.4,0.81,18339,10190,0,0,0,-3.92,-7.49,-6.23,0.48,0.4,0.81
0.024414062,-0.11581251,-0.08546666,-0.067768745,0.48,0.4,0.79,18362,10190,0,0,0,-5.46,-5.95,-4.83,0.48,0.4,0.79
-0.67578125,-0.08281251,-0.06346666,-0.054768745,0.48,0.39,0.78,18377,10189.3,0,0,0,-3.15,-4.41,-3.92,0.48,0.39,0.78
1.0244141,-0.07081251,-0.032466657,-0.06376875,0.49,0.38,0.8,18400,10191,0,0,0,-2.31,-2.24,-4.55,0.49,0.38,0.8
0.32421875,-0.09481251,-0.060466655,-0.054768745,0.49,0.39,0.8,18422,10190.3,0,0,0,-3.99,-4.2,-3.92,0.49,0.39,0.8
-0.67578125,-0.12181251,-0.06746666,-0.03976874,0.5,0.39,0.78,18445,10189.3,0,0,0,-5.88,-4.69,-2.87,0.5,0.39,0.78
0.024414062,-0.10081251,-0.037466656,-0.029768744,0.49,0.38,0.79,18460,10190,0,0,0,-4.41,-2.59,-2.17,0.49,0.38,0.79
0.32421875,-0.08681251,-0.035466656,-0.022768741,0.5,0.37,0.82,18482,10190.3,0,0,0,-3.43,-2.45,-1.68,0.5,0.37,0.82
-0.97558594,-0.09281251,-0.051466655,-0.030768745,0.51,0.39,0.83,18497,10189,0,0,0,-3.85,-3.57,-2.24,0.51,0.39,0.83
0.32421875,-0.07581251,-0.06446666,-0.031768743,0.5,0.39,0.82,18520,10190.3,0,0,0,-2.66,-4.48,-2.31,0.5,0.39,0.82
-0.67578125,-0.10081251,-0.06746666,-0.017768744,0.49,0.4,0.82,18535,10189.3,0,0,0,-4.41,-4.69,-1.33,0.49,0.4,0.82
1.0244141,-0.08981251,-0.058466654,-0.0007687438,0.49,0.41,0.83,18557,10191,0,0,0,-3.64,-4.06,-0.14,0.49,0.41,0.83
-1.9755859,-0.09381251,-0.09346666,0.008231256,0.5,0.4,0.83,18573,10188,0,0,0,-3.92,-6.51,0.49,0.5,0.4,0.83
-0.67578125,-0.08181251,-0.07746666,0.0032312563,0.49,0.39,0.8,18595,10189.3,0,0,0,-3.08,-5.39,0.14,0.49,0.39,0.8
0.024414062,0.0011874922,-0.039466657,0.029231258,0.51,0.39,0.83,18610,10190,0,0,0,2.73,-2.73,1.96,0.51,0.39,0.83
-0.67578125,-0.0038125068,-0.071466655,0.023231257,0.51,0.39,0.83,18633,10189.3,0,0,0,2.38,-4.97,1.54,0.51,0.39,0.83
2.024414,-0.04581251,-0.10746665,0.023231257,0.52,0.39,0.81,18647,10192,0,0,0,-0.56,-7.49,1.54,0.52,0.39,0.81
0.32421875,-0.08281251,-0.09446666,0.015231256,0.51,0.36,0.79,18662,10190.3,0,0,0,-3.15,-6.58,0.98,0.51,0.36,0.79
-0.67578125,-0.07081251,-0.03846666,-0.031768743,0.51,0.38,0.78,18685,10189.3,0,0,0,-2.31,-2.66,-2.31,0.51,0.38,0.78
-0.67578125,-0.06281251,-0.026466656,-0.051768743,0.51,0.39,0.8,18709,10189.3,0,0,0,-1.75,-1.82,-3.71,0.51,0.39,0.8
-0.67578125,-0.07381251,-0.037466656,-0.029768744,0.51,0.41,0.81,18723,10189.3,0,0,0,-2.52,-2.59,-2.17,0.51,0.41,0.81
-0.67578125,-0.061812505,-0.025466656,-0.014768745,0.5,0.39,0.81,18744,10189.3,0,0,0,-1.68,-1.75,-1.12,0.5,0.39,0.81
-1.6757812,-0.022812508,-0.03146666,-0.03476874,0.49,0.4,0.81,18760,10188.3,0,0,0,1.05,-2.17,-2.52,0.49,0.4,0.81
-1.6757812,-0.009812508,-0.037466656,-0.04576874,0.49,0.39,0.81,18775,10188.3,0,0,0,1.96,-2.59,-3.29,0.49,0.39,0.81
-0.97558594,-0.12981251,-0.07246666,-0.019768743,0.51,0.39,0.8,18798,10189,0,0,0,-6.44,-5.04,-1.47,0.51,0.39,0.8
-0.67578125,-0.1998125,-0.06946666,-0.020768743,0.52,0.36,0.8,18812,10189.3,0,0,0,-11.34,-4.83,-1.54,0.52,0.36,0.8
1.3242188,-0.1768125,-0.044466656,-0.060768746,0.53,0.35,0.8,18827,10191.3,0,0,0,-9.73,-3.08,-4.34,0.53,0.35,0.8
-1.9755859,-0.06281251,-0.023466656,-0.10176875,0.53,0.35,0.8,18850,10188,0,0,0,-1.75,-1.61,-7.21,0.53,0.35,0.8
-0.67578125,0.018187493,-0.009466656,-0.12776874,0.52,0.38,0.8,18865,10189.3,0,0,0,3.92,-0.63,-9.03,0.52,0.38,0.8
0.024414062,-0.007812509,-0.008466656,-0.12776874,0.51,0.41,0.82,18888,10190,0,0,0,2.1,-0.56,-9.03,0.51,0.41,0.82
-1.9755859,-0.07281251,-0.048466653,-0.11376875,0.5,0.41,0.81,18903,10188,0,0,0,-2.45,-3.36,-8.05,0.5,0.41,0.81
-0.67578125,-0.024812508,0.0055333436,-0.10676875,0.48,0.39,0.81,18925,10189.3,0,0,0,0.91,0.42,-7.56,0.48,0.39,0.81
-0.67578125,-0.03981251,0.009533344,-0.13676874,0.49,0.42,0.83,18940,10189.3,0,0,0,-0.14,0.7,-9.66,0.49,0.42,0.83
-0.67578125,-0.09281251,-0.037466656,-0.08376875,0.49,0.41,0.85,18962,10189.3,0,0,0,-3.85,-2.59,-5.95,0.49,0.41,0.85
-0.67578125,-0.11681251,-0.050466657,-0.041768745,0.5,0.4,0.85,18977,10189.3,0,0,0,-5.53,-3.5,-3.01,0.5,0.4,0.85
-0.97558594,-0.07981251,-0.08546666,-0.06576875,0.5,0.39,0.82,19000,10189,0,0,0,-2.94,-5.95,-4.69,0.5,0.39,0.82
-0.67578125,-0.018812507,-0.09246666,-0.06876875,0.49,0.39,0.78,19015,10189.3,0,0,0,1.33,-6.44,-4.9,0.49,0.39,0.78
-0.67578125,-0.0978125,-0.06746666,-0.052768745,0.5,0.38,0.74,19037,10189.3,0,0,0,-4.2,-4.69,-3.78,0.5,0.38,0.74
-0.37597656,-0.11281251,0.009533344,-0.06476875,0.51,0.35,0.78,19052,10189.6,0,0,0,-5.25,0.7,-4.62,0.51,0.35,0.78
-0.67578125,-0.109812506,-0.041466653,-0.111768745,0.53,0.35,0.81,19074,10189.3,0,0,0,-5.04,-2.87,-7.91,0.53,0.35,0.81
-0.37597656,-0.14581251,-0.082466654,-0.16576874,0.51,0.37,0.77,19090,10189.6,0,0,0,-7.56,-5.74,-11.69,0.51,0.37,0.77
-0.97558594,-0.17581251,-0.022466656,-0.15876874,0.5,0.38,0.76,19112,10189,0,0,0,-9.66,-1.54,-11.2,0.5,0.38,0.76
0.32421875,-0.14781252,0.029533343,-0.18776874,0.5,0.4,0.8,19127,10190.3,0,0,0,-7.7,2.1,-13.23,0.5,0.4,0.8
-1.6757812,-0.05381251,0.020533344,-0.17976874,0.5,0.4,0.85,19142,10188.3,0,0,0,-1.12,1.47,-12.67,0.5,0.4,0.85
0.32421875,-0.038812507,0.003533344,-0.16376875,0.49,0.42,0.88,19165,10190.3,0,0,0,-0.07,0.28,-11.55,0.49,0.42,0.88
-0.67578125,-0.04181251,-0.030466655,-0.14076874,0.49,0.42,0.89,19180,10189.3,0,0,0,-0.28,-2.1,-9.94,0.49,0.42,0.89
-0.67578125,-0.07481251,-0.123466656,-0.07776875,0.49,0.43,0.85,19203,10189.3,0,0,0,-2.59,-8.61,-5.53,0.49,0.43,0.85
-1.6757812,-0.06281251,-0.10846666,-0.037768744,0.49,0.41,0.82,19217,10188.3,0,0,0,-1.75,-7.56,-2.73,0.49,0.41,0.82
-0.67578125,-0.08781251,-0.10746665,-0.020768743,0.5,0.39,0.82,19233,10189.3,0,0,0,-3.5,-7.49,-1.54,0.5,0.39,0.82
-0.97558594,-0.11381251,-0.123466656,-0.029768744,0.52,0.36,0.81,19255,10189,0,0,0,-5.32,-8.61,-2.17,0.52,0.36,0.81
-0.67578125,-0.07881251,-0.13646667,-0.07576875,0.52,0.34,0.82,19270,10189.3,0,0,0,-2.87,-9.52,-5.39,0.52,0.34,0.82
-0.67578125,-0.10181251,-0.18346667,-0.10576874,0.51,0.36,0.77,19292,10189.3,0,0,0,-4.48,-12.81,-7.49,0.51,0.36,0.77
-0.67578125,-0.14081252,-0.13746667,-0.14976874,0.49,0.36,0.72,19307,10189.3,0,0,0,-7.21,-9.59,-10.57,0.49,0.36,0.72
-0.67578125,-0.13681251,-0.026466656,-0.20376875,0.48,0.38,0.73,19331,10189.3,0,0,0,-6.93,-1.82,-14.35,0.48,0.38,0.73
-0.67578125,-0.10681251,0.025533345,-0.23376876,0.47,0.4,0.78,19345,10189.3,0,0,0,-4.83,1.82,-16.45,0.47,0.4,0.78
0.32421875,-0.1698125,0.017533343,-0.22576874,0.48,0.41,0.86,19367,10190.3,0,0,0,-9.24,1.26,-15.89,0.48,0.41,0.86
0.32421875,-0.18281251,-0.022466656,-0.21376875,0.48,0.41,0.87,19382,10190.3,0,0,0,-10.15,-1.54,-15.05,0.48,0.41,0.87
-0.67578125,-0.11781251,-0.035466656,-0.22276875,0.46,0.42,0.86,19405,10189.3,0,0,0,-5.6,-2.45,-15.68,0.46,0.42,0.86
0.32421875,0.021187492,-0.012466655,-0.18776874,0.48,0.43,0.87,19420,10190.3,0,0,0,4.13,-0.84,-13.23,0.48,0.43,0.87
-0.67578125,-0.07081251,-0.057466656,-0.19576874,0.47,0.4,0.89,19442,10189.3,0,0,0,-2.31,-3.99,-13.79,0.47,0.4,0.89
-0.67578125,-0.05281251,-0.13246666,-0.16976875,0.47,0.42,0.86,19457,10189.3,0,0,0,-1.05,-9.24,-11.97,0.47,0.42,0.86
-0.67578125,-0.11181251,-0.16846666,-0.23876874,0.47,0.36,0.78,19483,10189.3,0,0,0,-5.18,-11.76,-16.8,0.47,0.36,0.78
-0.67578125,-0.05281251,-0.124466665,-0.26576877,0.47,0.38,0.76,19502,10189.3,0,0,0,-1.05,-8.68,-18.69,0.47,0.38,0.76
-0.67578125,0.019187491,-0.09346666,-0.30076873,0.48,0.4,0.77,19517,10189.3,0,0,0,3.99,-6.51,-21.14,0.48,0.4,0.77
0.32421875,-0.004812509,-0.10546666,-0.26676875,0.48,0.43,0.77,19535,10190.3,0,0,0,2.31,-7.35,-18.76,0.48,0.43,0.77
0.32421875,-0.015812509,-0.08546666,-0.23876874,0.47,0.43,0.74,19556,10190.3,0,0,0,1.54,-5.95,-16.8,0.47,0.43,0.74
-0.67578125,0.028187491,-0.032466657,-0.16476874,0.48,0.41,0.77,19563,10189.3,0,0,0,4.62,-2.24,-11.62,0.48,0.41,0.77
0.32421875,0.006187491,0.003533344,-0.15576874,0.48,0.42,0.8,19585,10190.3,0,0,0,3.08,0.28,-10.99,0.48,0.42,0.8
-0.67578125,0.05618749,-0.0014666561,-0.13376874,0.47,0.42,0.83,19601,10189.3,0,0,0,6.58,-0.07,-9.45,0.47,0.42,0.83
-0.67578125,0.060187496,-0.052466657,-0.15476875,0.47,0.45,0.81,19622,10189.3,0,0,0,6.86,-3.64,-10.92,0.47,0.45,0.81
-1.6757812,0.063187495,-0.08346666,-0.12676875,0.46,0.47,0.79,19637,10188.3,0,0,0,7.07,-5.81,-8.96,0.46,0.47,0.79
0.32421875,0.012187492,-0.07246666,-0.08876875,0.46,0.47,0.78,19659,10190.3,0,0,0,3.5,-5.04,-6.3,0.46,0.47,0.78
-0.97558594,-0.07881251,-0.044466656,-0.060768746,0.48,0.45,0.79,19674,10189,0,0,0,-2.87,-3.08,-4.34,0.48,0.45,0.79
0.32421875,-0.0088125095,-0.013466656,-0.070768744,0.49,0.44,0.83,19697,10190.3,0,0,0,2.03,-0.91,-5.04,0.49,0.44,0.83
-0.67578125,0.062187493,-0.09446666,-0.09976875,0.5,0.44,0.82,19712,10189.3,0,0,0,7,-6.58,-7.07,0.5,0.44,0.82
-1.6757812,0.026187494,-0.11446666,-0.10376874,0.49,0.45,0.78,19735,10188.3,0,0,0,4.48,-7.98,-7.35,0.49,0.45,0.78
-0.97558594,-0.07081251,-0.076466665,-0.12376875,0.5,0.45,0.78,19750,10189,0,0,0,-2.31,-5.32,-8.75,0.5,0.45,0.78
-0.67578125,-0.0978125,-0.09946666,-0.15876874,0.51,0.47,0.79,19773,10189.3,0,0,0,-4.2,-6.93,-11.2,0.51,0.47,0.79
0.32421875,-0.10781251,-0.11846666,-0.21776874,0.53,0.47,0.79,19787,10190.3,0,0,0,-4.9,-8.26,-15.33,0.53,0.47,0.79
-0.67578125,-0.10381251,-0.09146666,-0.29676875,0.54,0.5,0.81,19810,10189.3,0,0,0,-4.62,-6.37,-20.86,0.54,0.5,0.81
-2.3759766,-0.04381251,-0.06946666,-0.34976873,0.54,0.52,0.83,19840,10187.6,0,0,0,-0.42,-4.83,-24.57,0.54,0.52,0.83
-1.6757812,0.07818749,-0.030466655,-0.47876874,0.53,0.52,0.85,19851,10188.3,0,0,0,8.12,-2.1,-33.6,0.53,0.52,0.85
-0.67578125,0.2741875,0.029533343,-0.5097687,0.55,0.53,0.88,19863,10189.3,0,0,0,21.84,2.1,-35.77,0.55,0.53,0.88
0.32421875,0.42118752,0.11053334,-0.61276877,0.59,0.52,0.96,19884,10190.3,0,0,0,32.13,7.77,-42.98,0.59,0.52,0.96
-0.67578125,0.56418747,0.04053334,-0.66476876,0.58,0.51,0.97,19901,10189.3,0,0,0,42.14,2.87,-46.62,0.58,0.51,0.97
-0.67578125,0.6131875,-0.013466656,-0.79376876,0.56,0.53,0.89,19923,10189.3,0,0,0,45.57,-0.91,-55.65,0.56,0.53,0.89
-0.67578125,0.6451875,0.0075333444,-0.8537687,0.53,0.56,0.86,19938,10189.3,0,0,0,47.81,0.56,-59.85,0.53,0.56,0.86
-0.67578125,0.6411874,-0.041466653,-0.8347688,0.5,0.58,0.87,19953,10189.3,0,0,0,47.53,-2.87,-58.52,0.5,0.58,0.87
-1.6757812,0.3671875,-0.13746667,-0.85076874,0.48,0.53,0.85,19968,10188.3,0,0,0,28.35,-9.59,-59.64,0.48,0.53,0.85
0.32421875,0.21818751,-0.19546665,-0.86076874,0.4,0.56,0.69,19990,10190.3,0,0,0,17.92,-13.65,-60.34,0.4,0.56,0.69
-0.37597656,0.54618746,0.06553334,-0.91176873,0.37,0.53,0.62,20027,10189.6,0,0,0,40.88,4.62,-63.91,0.37,0.53,0.62
-0.67578125,0.93618745,0.27953336,-1.0107687,0.35,0.52,0.66,20029,10189.3,0,0,0,68.18,19.6,-70.84,0.35,0.52,0.66
0.32421875,1.3391875,0.25153336,-1.0887687,0.31,0.57,0.67,20042,10190.3,0,0,0,96.39,17.64,-76.3,0.31,0.57,0.67
-0.37597656,1.4201875,0.21053335,-1.0197687,0.28,0.62,0.64,20065,10189.6,0,0,0,102.06,14.77,-71.47,0.28,0.62,0.64
-1.6757812,0.9761875,0.108533345,-0.83676875,0.26,0.66,0.66,20079,10188.3,0,0,0,70.98,7.63,-58.66,0.26,0.66,0.66
-0.67578125,0.5071875,0.035533343,-0.74076873,0.24,0.67,0.65,20102,10189.3,0,0,0,38.15,2.52,-51.94,0.24,0.67,0.65
-1.3759766,-0.051812507,-0.045466658,-0.76276875,0.22,0.65,0.69,20117,10188.6,0,0,0,-0.98,-3.15,-53.48,0.22,0.65,0.69
-1.3759766,-0.3798125,-0.19746666,-0.74376875,0.22,0.71,0.7,20140,10188.6,0,0,0,-23.94,-13.79,-52.15,0.22,0.71,0.7
-0.67578125,-0.57481253,-0.30746666,-0.70276874,0.2,0.67,0.69,20155,10189.3,0,0,0,-37.59,-21.49,-49.28,0.2,0.67,0.69
-0.67578125,-0.5988125,-0.36546662,-0.6777687,0.23,0.67,0.71,20177,10189.3,0,0,0,-39.27,-25.55,-47.53,0.23,0.67,0.71
-1.6757812,-0.3468125,-0.52746665,-0.61876875,0.22,0.69,0.72,20192,10188.3,0,0,0,-21.63,-36.89,-43.4,0.22,0.69,0.72
-2.3759766,-0.0038125068,-0.55646664,-0.57176876,0.18,0.73,0.63,20219,10187.6,0,0,0,2.38,-38.92,-40.11,0.18,0.73,0.63
-0.67578125,0.48318753,-0.43846664,-0.28776875,0.19,0.69,0.64,20234,10189.3,0,0,0,36.47,-30.66,-20.23,0.19,0.69,0.64
-1.3759766,0.5591875,-0.36146665,-0.17776874,0.21,0.7,0.65,20259,10188.6,0,0,0,41.79,-25.27,-12.53,0.21,0.7,0.65
-0.67578125,0.5861875,-0.31546664,-0.14176875,0.19,0.67,0.65,20267,10189.3,0,0,0,43.68,-22.05,-10.01,0.19,0.67,0.65
-0.37597656,0.44018748,-0.32546663,-0.10976875,0.18,0.78,0.62,20290,10189.6,0,0,0,33.46,-22.75,-7.77,0.18,0.78,0.62
-0.67578125,0.23418751,-0.41546664,-0.051768743,0.19,0.7,0.67,20304,10189.3,0,0,0,19.04,-29.05,-3.71,0.19,0.7,0.67
-0.37597656,0.1771875,-0.54246664,0.11423125,0.22,0.73,0.59,20327,10189.6,0,0,0,15.05,-37.94,7.91,0.22,0.73,0.59
-0.67578125,0.03518749,-0.58746666,0.14123125,0.24,0.68,0.54,20342,10189.3,0,0,0,5.11,-41.09,9.8,0.24,0.68,0.54
-0.67578125,-0.15181251,-0.53346664,0.13723126,0.26,0.66,0.49,20364,10189.3,0,0,0,-7.98,-37.31,9.52,0.26,0.66,0.49
0.32421875,-0.11781251,-0.38946664,0.09723125,0.26,0.7,0.53,20387,10190.3,0,0,0,-5.6,-27.23,6.72,0.26,0.7,0.53
-0.67578125,-0.0068125073,-0.28246665,0.11023126,0.26,0.75,0.57,20402,10189.3,0,0,0,2.17,-19.74,7.63,0.26,0.75,0.57
-0.37597656,-0.1538125,-0.25646666,0.12223126,0.27,0.73,0.55,20417,10189.6,0,0,0,-8.12,-17.92,8.47,0.27,0.73,0.55
-0.67578125,-0.3478125,-0.14846666,0.13523126,0.26,0.76,0.56,20447,10189.3,0,0,0,-21.7,-10.36,9.38,0.26,0.76,0.56
-0.67578125,-0.2898125,-0.07346666,0.11523125,0.26,0.77,0.59,20454,10189.3,0,0,0,-17.64,-5.11,7.98,0.26,0.77,0.59
-1.6757812,-0.20281252,0.010533344,0.06923126,0.26,0.76,0.62,20477,10188.3,0,0,0,-11.55,0.77,4.76,0.26,0.76,0.62
-0.67578125,-0.15281251,0.06853334,0.051231258,0.25,0.78,0.63,20492,10189.3,0,0,0,-8.05,4.83,3.5,0.25,0.78,0.63
-1.6757812,-0.13581252,0.108533345,0.09323125,0.26,0.77,0.68,20515,10188.3,0,0,0,-6.86,7.63,6.44,0.26,0.77,0.68
-1.6757812,-0.1278125,0.111533344,0.09223125,0.26,0.8,0.7,20530,10188.3,0,0,0,-6.3,7.84,6.37,0.26,0.8,0.7
-0.67578125,-0.09681251,0.028533343,0.14623125,0.26,0.77,0.65,20552,10189.3,0,0,0,-4.13,2.03,10.15,0.26,0.77,0.65
-0.37597656,-0.14981252,0.09353334,0.15423125,0.24,0.78,0.61,20568,10189.6,0,0,0,-7.84,6.58,10.71,0.24,0.78,0.61
-0.67578125,-0.1338125,0.18053333,0.19023125,0.25,0.79,0.66,20590,10189.3,0,0,0,-6.72,12.67,13.23,0.25,0.79,0.66
-1.6757812,-0.12281251,0.12553334,0.26823127,0.26,0.77,0.69,20604,10188.3,0,0,0,-5.95,8.82,18.69,0.26,0.77,0.69
-1.6757812,-0.080812514,0.11053334,0.30423123,0.27,0.76,0.67,20627,10188.3,0,0,0,-3.01,7.77,21.21,0.27,0.76,0.67
-0.67578125,0.055187494,0.15053333,0.27023125,0.28,0.75,0.67,20642,10189.3,0,0,0,6.51,10.57,18.83,0.28,0.75,0.67
-0.67578125,0.1421875,0.13953334,0.27323127,0.29,0.74,0.68,20665,10189.3,0,0,0,12.6,9.8,19.04,0.29,0.74,0.68
-0.67578125,0.18118748,0.12153334,0.31623125,0.31,0.74,0.66,20687,10189.3,0,0,0,15.33,8.54,22.05,0.31,0.74,0.66
-0.67578125,0.1931875,0.13253334,0.32223123,0.32,0.72,0.67,20701,10189.3,0,0,0,16.17,9.31,22.47,0.32,0.72,0.67
-0.37597656,0.113187484,0.07253334,0.31123126,0.32,0.71,0.67,20725,10189.6,0,0,0,10.57,5.11,21.7,0.32,0.71,0.67
-0.67578125,0.03918749,0.035533343,0.28023127,0.32,0.72,0.61,20740,10189.3,0,0,0,5.39,2.52,19.53,0.32,0.72,0.61
-0.37597656,0.10918749,0.10453334,0.25023127,0.32,0.7,0.59,20762,10189.6,0,0,0,10.29,7.35,17.43,0.32,0.7,0.59
-0.37597656,0.11618749,0.13453333,0.23023127,0.31,0.72,0.57,20777,10189.6,0,0,0,10.78,9.45,16.03,0.31,0.72,0.57
-1.3759766,0.15118748,0.16653334,0.24323127,0.32,0.73,0.57,20792,10188.6,0,0,0,13.23,11.69,16.94,0.32,0.73,0.57
-0.67578125,0.121187486,0.20653334,0.22323126,0.33,0.72,0.58,20807,10189.3,0,0,0,11.13,14.49,15.54,0.33,0.72,0.58
0.32421875,0.14618748,0.22853336,0.24423125,0.34,0.73,0.61,20822,10190.3,0,0,0,12.88,16.03,17.01,0.34,0.73,0.61
-0.67578125,0.15418747,0.22253333,0.20623125,0.35,0.71,0.66,20837,10189.3,0,0,0,13.44,15.61,14.35,0.35,0.71,0.66
-0.67578125,0.1331875,0.14353333,0.19923125,0.37,0.72,0.67,20860,10189.3,0,0,0,11.97,10.08,13.86,0.37,0.72,0.67
0.62402344,0.060187496,0.06853334,0.18023124,0.38,0.71,0.66,20875,10190.6,0,0,0,6.86,4.83,12.53,0.38,0.71,0.66
-0.67578125,0.052187495,0.048533347,0.19123125,0.37,0.73,0.63,20890,10189.3,0,0,0,6.3,3.43,13.3,0.37,0.73,0.63
1.3242188,0.0981875,0.034533344,0.16223127,0.37,0.72,0.62,20913,10191.3,0,0,0,9.52,2.45,11.27,0.37,0.72,0.62
-0.67578125,0.11018749,0.0135333445,0.14923126,0.38,0.74,0.58,20920,10189.3,0,0,0,10.36,0.98,10.36,0.38,0.74,0.58
-0.37597656,0.10818749,0.046533342,0.14023125,0.39,0.71,0.57,20934,10189.6,0,0,0,10.22,3.29,9.73,0.39,0.71,0.57
-0.37597656,0.14118749,0.10553334,0.11423125,0.4,0.72,0.58,20950,10189.6,0,0,0,12.53,7.42,7.91,0.4,0.72,0.58
-1.6757812,0.1911875,0.097533345,0.07323125,0.39,0.74,0.6,20972,10188.3,0,0,0,16.03,6.86,5.04,0.39,0.74,0.6
-0.37597656,0.1401875,0.046533342,0.05023126,0.4,0.73,0.6,21002,10189.6,0,0,0,12.46,3.29,3.43,0.4,0.73,0.6
-0.67578125,0.062187493,0.016533345,0.060231257,0.4,0.74,0.59,21004,10189.3,0,0,0,7,1.19,4.13,0.4,0.74,0.59
-1.3759766,0.040187493,-0.007466656,0.049231254,0.38,0.74,0.57,21025,10188.6,0,0,0,5.46,-0.49,3.36,0.38,0.74,0.57
0.024414062,0.019187491,0.025533345,0.037231255,0.39,0.74,0.61,21047,10190,0,0,0,3.99,1.82,2.52,0.39,0.74,0.61
-0.37597656,-0.031812508,-0.034466658,0.017231258,0.39,0.74,0.64,21064,10189.6,0,0,0,0.42,-2.38,1.12,0.39,0.74,0.64
-0.37597656,-0.05281251,-0.12146667,-0.005768744,0.38,0.75,0.59,21085,10189.6,0,0,0,-1.05,-8.47,-0.49,0.38,0.75,0.59
0.32421875,-0.047812507,-0.046466656,-0.04576874,0.36,0.76,0.57,21108,10190.3,0,0,0,-0.7,-3.22,-3.29,0.36,0.76,0.57
-0.67578125,0.006187491,-0.009466656,-0.035768744,0.36,0.77,0.62,21138,10189.3,0,0,0,3.08,-0.63,-2.59,0.36,0.77,0.62
-0.37597656,-0.055812508,-0.06446666,-0.04676874,0.35,0.77,0.63,21153,10189.6,0,0,0,-1.26,-4.48,-3.36,0.35,0.77,0.63
-0.37597656,-0.05781251,-0.098466665,-0.047768746,0.33,0.78,0.6,21168,10189.6,0,0,0,-1.4,-6.86,-3.43,0.33,0.78,0.6
-0.37597656,-0.033812508,-0.06846666,-0.040768743,0.33,0.78,0.6,21183,10189.6,0,0,0,0.28,-4.76,-2.94,0.33,0.78,0.6
-0.37597656,-0.12681252,-0.08146666,-0.040768743,0.32,0.77,0.6,21197,10189.6,0,0,0,-6.23,-5.67,-2.94,0.32,0.77,0.6
-4.6757812,-0.12981251,-0.052466657,-0.03476874,0.32,0.8,0.6,21220,10185.3,0,0,0,-6.44,-3.64,-2.52,0.32,0.8,0.6
-0.37597656,-0.044812508,0.008533344,-0.031768743,0.33,0.79,0.62,21235,10189.6,0,0,0,-0.49,0.63,-2.31,0.33,0.79,0.62
0.7246094,0.0031874888,-0.00046665609,-0.020768743,0.33,0.8,0.63,21250,10190.7,0,0,0,2.87,0,-1.54,0.33,0.8,0.63
0.62402344,-0.07481251,-0.07246666,-0.020768743,0.36,0.8,0.63,21272,10190.6,0,0,0,-2.59,-5.04,-1.54,0.36,0.8,0.63
-0.37597656,-0.5298125,-0.16746666,-0.057768743,0.38,0.83,0.58,21288,10189.6,0,0,0,-34.44,-11.69,-4.13,0.38,0.83,0.58
1.0244141,-0.5478125,-0.055466656,-0.09176875,0.33,0.83,0.49,21309,10191,0,0,0,-35.7,-3.85,-6.51,0.33,0.83,0.49
-0.37597656,0.025187492,0.33653337,-0.10976875,0.3,0.86,0.46,21340,10189.6,0,0,0,4.41,23.59,-7.77,0.3,0.86,0.46
-0.37597656,0.42118752,0.74453336,-0.20676875,0.31,0.73,0.45,21354,10189.6,0,0,0,32.13,52.15,-14.56,0.31,0.73,0.45
-0.37597656,0.36118752,0.9005334,-0.38276872,0.36,0.65,0.56,21378,10189.6,0,0,0,27.93,63.07,-26.88,0.36,0.65,0.56
-0.67578125,0.26618752,0.7105334,-0.4667687,0.34,0.71,0.7,21400,10189.3,0,0,0,21.28,49.77,-32.76,0.34,0.71,0.7
-2.3759766,0.2771875,0.43453336,-0.41976875,0.38,0.74,0.77,21422,10187.6,0,0,0,22.05,30.45,-29.47,0.38,0.74,0.77
0.32421875,0.12718749,0.35953337,-0.46776876,0.36,0.71,0.81,21438,10190.3,0,0,0,11.55,25.2,-32.83,0.36,0.71,0.81
-1.3759766,-0.11281251,0.18053333,-0.45276874,0.39,0.75,0.79,21452,10188.6,0,0,0,-5.25,12.67,-31.78,0.39,0.75,0.79
-1.6757812,-0.13881251,0.15353334,-0.41476876,0.4,0.69,0.69,21468,10188.3,0,0,0,-7.07,10.78,-29.12,0.4,0.69,0.69
4.7246094,0.00918749,0.27453336,-0.48376876,0.39,0.66,0.71,21482,10194.7,0,0,0,3.29,19.25,-33.95,0.39,0.66,0.71
-0.37597656,0.01318749,0.17453334,-0.66876876,0.35,0.73,0.7,21505,10189.6,0,0,0,3.57,12.25,-46.9,0.35,0.73,0.7
-0.67578125,-0.005812507,-0.039466657,-0.6447688,0.3,0.78,0.55,21519,10189.3,0,0,0,2.24,-2.73,-45.22,0.3,0.78,0.55
-0.67578125,0.05318749,0.19153333,-0.59476876,0.25,0.81,0.41,21543,10189.3,0,0,0,6.37,13.44,-41.72,0.25,0.81,0.41
-0.37597656,0.3741875,0.6835334,-0.5977687,0.27,0.84,0.54,21565,10189.6,0,0,0,28.84,47.88,-41.93,0.27,0.84,0.54
-0.37597656,0.67718744,0.9145334,-0.62876874,0.27,0.77,0.75,21588,10189.6,0,0,0,50.05,64.05,-44.1,0.27,0.77,0.75
-0.37597656,0.35418752,0.70853335,-0.7967688,0.25,0.8,0.91,21610,10189.6,0,0,0,27.44,49.63,-55.86,0.25,0.8,0.91
-0.67578125,0.03218749,0.25053334,-0.83176875,0.16,0.8,0.93,21633,10189.3,0,0,0,4.9,17.57,-58.31,0.16,0.8,0.93
-0.67578125,0.2551875,-0.16846666,-0.82776874,0.06,0.84,0.73,21654,10189.3,0,0,0,20.51,-11.76,-58.03,0.06,0.84,0.73
-0.97558594,0.3701875,-0.28446662,-0.90076876,0.02,0.75,0.54,21677,10189,0,0,0,28.56,-19.88,-63.14,0.02,0.75,0.54
-0.97558594,0.4271875,-0.22246666,-0.8767687,-0.06,0.83,0.44,21693,10189,0,0,0,32.55,-15.54,-61.46,-0.06,0.83,0.44
-0.37597656,0.58718747,-0.03846666,-0.7677688,-0.09,0.86,0.46,21707,10189.6,0,0,0,43.75,-2.66,-53.83,-0.09,0.86,0.46
-1.3759766,0.7531875,0.11953334,-0.6577688,-0.1,0.83,0.57,21722,10188.6,0,0,0,55.37,8.4,-46.13,-0.1,0.83,0.57
-0.97558594,0.67718744,-0.014466656,-0.71076876,-0.12,0.85,0.69,21736,10189,0,0,0,50.05,-0.98,-49.84,-0.12,0.85,0.69
-1.3759766,0.52318746,-0.48346666,-0.56776875,-0.12,0.87,0.69,21752,10188.6,0,0,0,39.27,-33.81,-39.83,-0.12,0.87,0.69
-1.9755859,0.17418748,-0.8564666,-0.35576874,-0.17,0.9,0.49,21775,10188,0,0,0,14.84,-59.92,-24.99,-0.17,0.9,0.49
-0.67578125,-0.06281251,-0.83846664,-0.21776874,-0.16,0.83,0.45,21798,10189.3,0,0,0,-1.75,-58.66,-15.33,-0.16,0.83,0.45
-7.6757812,-0.4638125,-0.92546666,-0.25076875,-0.15,0.91,0.46,21819,10182.3,0,0,0,-29.82,-64.75,-17.64,-0.15,0.91,0.46
-1.6757812,0.7241875,-0.14146666,0.51023126,-0.15,0.98,-0.12,21843,10188.3,0,0,0,53.34,-9.87,35.63,-0.15,0.98,-0.12
-2.6757812,1.4811876,0.52353334,-0.21676876,-0.11,0.9,0.56,21864,10187.3,0,0,0,106.33,36.68,-15.26,-0.11,0.9,0.56
-2.3759766,1.3341875,0.0075333444,-0.047768746,-0.08,0.87,0.56,21887,10187.6,0,0,0,96.04,0.56,-3.43,-0.08,0.87,0.56
-4.3759766,1.0391876,-0.27446666,-0.16076875,-0.08,0.92,0.46,21909,10185.6,0,0,0,75.39,-19.18,-11.34,-0.08,0.92,0.46
-5.975586,0.7971875,-0.40546665,0.027231257,-0.05,0.95,0.34,21924,10184,0,0,0,58.45,-28.35,1.82,-0.05,0.95,0.34
-5.6757812,-0.11781251,-0.84846663,-0.017768744,-0.03,0.81,0.76,21940,10184.3,0,0,0,-5.6,-59.36,-1.33,-0.03,0.81,0.76
-4.3759766,-1.5458125,-1.6824666,-0.027768742,0.05,0.64,0.84,21955,10185.6,0,0,0,-105.56,-117.74,-2.03,0.05,0.64,0.84
-2.975586,-4.101813,-1.3354666,0.97723126,-0.04,1.19,0.38,21970,10187,0,0,0,-284.48,-93.45,68.32,-0.04,1.19,0.38
-1.6757812,0.9421874,0.7155333,-1.0427687,-0.06,-0.9,-0.55,21986,10188.3,0,0,0,68.6,50.12,-73.08,-0.06,-0.9,-0.55
-2.975586,0.20418751,0.42353335,-0.55476874,-0.42,-0.05,0.88,22008,10187,0,0,0,16.94,29.68,-38.92,-0.42,-0.05,0.88
-3.3759766,0.3921875,0.027533345,-0.12276875,0.05,0.61,0.32,22023,10186.6,0,0,0,30.1,1.96,-8.68,0.05,0.61,0.32
-0.37597656,0.008187491,0.38153335,-0.050768744,0.04,0.74,0.71,22044,10189.6,0,0,0,3.22,26.74,-3.64,0.04,0.74,0.71
-0.67578125,0.93518746,-0.03846666,-0.34476873,-0,0.77,0.61,22067,10189.3,0,0,0,68.11,-2.66,-24.22,-0,0.77,0.61
-0.37597656,0.5201875,-0.12546666,-0.59176874,-0.03,1.08,0.46,22090,10189.6,0,0,0,39.06,-8.75,-41.51,-0.03,1.08,0.46
-1.6757812,-0.24281251,0.09653334,0.13023125,-0.08,0.84,0.43,22112,10188.3,0,0,0,-14.35,6.79,9.03,-0.08,0.84,0.43
-1.3759766,-0.35381252,0.058533344,0.09723125,-0.05,0.94,0.43,22135,10188.6,0,0,0,-22.12,4.13,6.72,-0.05,0.94,0.43
-2.3759766,-0.4708125,-0.020466655,0.26923126,-0.03,0.84,0.47,22158,10187.6,0,0,0,-30.31,-1.4,18.76,-0.03,0.84,0.47
-1.3759766,-0.54181254,0.056533344,0.36923125,-0.02,0.86,0.4,22172,10188.6,0,0,0,-35.28,3.99,25.76,-0.02,0.86,0.4
-1.9755859,-0.5428125,0.60953337,-0.60176873,0.05,1.07,0.44,22187,10188,0,0,0,-35.35,42.7,-42.21,0.05,1.07,0.44
-1.3759766,-0.28581253,0.37853336,-0.20776875,-0.02,0.59,0.44,22202,10188.6,0,0,0,-17.36,26.53,-14.63,-0.02,0.59,0.44
-1.3759766,-0.38581252,0.23353332,-0.054768745,-0.03,0.83,0.45,22217,10188.6,0,0,0,-24.36,16.38,-3.92,-0.03,0.83,0.45
-1.3759766,-0.3028125,-0.034466658,0.26623124,-0.08,0.98,0.47,22240,10188.6,0,0,0,-18.55,-2.38,18.55,-0.08,0.98,0.47
-3.3759766,-0.13881251,0.037533347,0.5132313,-0.1,0.57,0.46,22255,10186.6,0,0,0,-7.07,2.66,35.84,-0.1,0.57,0.46
-4.3759766,-0.3668125,-0.043466657,0.10323125,0.03,0.57,0.7,22277,10185.6,0,0,0,-23.03,-3.01,7.14,0.03,0.57,0.7
-4.3759766,-0.6548125,-0.21446665,-0.043768745,-0,0.8,0.7,22293,10185.6,0,0,0,-43.19,-14.98,-3.15,-0,0.8,0.7
-6.3759766,-0.6028125,-0.53646666,0.30623126,-0.05,1.03,0.55,22315,10183.6,0,0,0,-39.55,-37.52,21.35,-0.05,1.03,0.55
-8.375977,-0.6908125,-0.5164666,0.5912312,0.03,0.87,0.5,22337,10181.6,0,0,0,-45.71,-36.12,41.3,0.03,0.87,0.5
-5.3759766,-0.6048125,-0.50146663,0.32023126,0.1,0.8,0.63,22360,10184.6,0,0,0,-39.69,-35.07,22.33,0.1,0.8,0.63
-12.375977,-0.4118125,-0.26346666,0.25023127,0.1,0.85,0.66,22382,10177.6,0,0,0,-26.18,-18.41,17.43,0.1,0.85,0.66
-9.075195,-0.23381251,-0.35246664,0.03923126,0.14,0.81,0.72,22415,10180.9,0,0,0,-13.72,-24.64,2.66,0.14,0.81,0.72
-10.375977,-0.2018125,-0.44046664,-0.0017687435,0.1,0.86,0.67,22420,10179.6,0,0,0,-11.48,-30.8,-0.21,0.1,0.86,0.67
-8.675781,-0.22481251,-0.5444667,0.056231257,0.02,0.9,0.49,22434,10181.3,0,0,0,-13.09,-38.08,3.85,0.02,0.9,0.49
-9.675781,-0.04581251,-0.32146662,0.19023125,0.05,0.97,0.55,22450,10180.3,0,0,0,-0.56,-22.47,13.23,0.05,0.97,0.55
-8.375977,0.016187493,-0.46446663,0.42323127,0.13,0.87,0.68,22472,10181.6,0,0,0,3.78,-32.48,29.54,0.13,0.87,0.68
-8.375977,-0.17081252,-0.91246665,0.25823125,0.2,0.53,0.87,22502,10181.6,0,0,0,-9.31,-63.84,17.99,0.2,0.53,0.87
-9.375977,-0.22381252,-0.77246666,-0.24876875,0.17,0.81,0.59,22510,10180.6,0,0,0,-13.02,-54.04,-17.5,0.17,0.81,0.59
-11.675781,-0.21481252,-0.38346663,-0.06476875,0.11,0.88,0.43,22524,10178.3,0,0,0,-12.39,-26.81,-4.62,0.11,0.88,0.43
-11.375977,-0.3638125,-0.32446665,0.036231257,0.17,0.72,0.58,22549,10178.6,0,0,0,-22.82,-22.68,2.45,0.17,0.72,0.58
-10.375977,-0.13581252,-0.23046666,0.41323125,0.12,2.06,0.42,22562,10179.6,0,0,0,-6.86,-16.1,28.84,0.12,2.06,0.42
-10.375977,0.03418749,-0.18246666,0.8182312,0.15,0.91,0.54,22592,10179.6,0,0,0,5.04,-12.74,57.19,0.15,0.91,0.54
-9.375977,-0.098812506,-0.27946666,0.40023127,0.19,0.28,0.72,22615,10180.6,0,0,0,-4.27,-19.53,27.93,0.19,0.28,0.72
-9.375977,0.19218749,-0.00046665609,0.21023126,0.1,1.08,0.52,22630,10180.6,0,0,0,16.1,0,14.63,0.1,1.08,0.52
-8.375977,0.15018749,-0.45546666,0.079231255,0.12,0.88,0.59,22652,10181.6,0,0,0,13.16,-31.85,5.46,0.12,0.88,0.59
-8.375977,0.5261875,-0.41346663,0.13023125,0.23,0.78,0.61,22674,10181.6,0,0,0,39.48,-28.91,9.03,0.23,0.78,0.61
-6.3759766,0.5591875,-0.28746665,0.11523125,0.22,0.82,0.56,22689,10183.6,0,0,0,41.79,-20.09,7.98,0.22,0.82,0.56
-12.375977,0.3301875,-0.14846666,0.17023125,0.21,0.78,0.59,22705,10177.6,0,0,0,25.76,-10.36,11.83,0.21,0.78,0.59
-3.3759766,-0.23581252,0.09853334,0.31323126,0.09,1.15,0.46,22719,10186.6,0,0,0,-13.86,6.93,21.84,0.09,1.15,0.46
-2.3759766,-0.3868125,0.6435334,0.50723124,0.19,0.87,0.85,22735,10187.6,0,0,0,-24.43,45.08,35.42,0.19,0.87,0.85
-3.975586,-0.5948126,0.6585334,-0.28176874,0.11,1.21,0.77,22765,10186,0,0,0,-38.99,46.13,-19.81,0.11,1.21,0.77
-2.975586,-0.07881251,0.9225334,0.5402312,0.2,0.64,0.6,22773,10187,0,0,0,-2.87,64.61,37.73,0.2,0.64,0.6
-0.97558594,0.16718748,0.80553335,-0.26876873,0.3,0.69,0.7,22795,10189,0,0,0,14.35,56.42,-18.9,0.3,0.69,0.7
-1.3759766,-0.3438125,0.24553333,-0.5377687,0.4,0.97,0.53,22832,10188.6,0,0,0,-21.42,17.22,-37.73,0.4,0.97,0.53
-0.97558594,-0.16881251,0.09053334,-0.5897687,0.23,0.71,0.28,22839,10189,0,0,0,-9.17,6.37,-41.37,0.23,0.71,0.28
-1.3759766,-0.5488125,-0.22446667,-0.7827688,0.13,0.82,0.53,22863,10188.6,0,0,0,-35.77,-15.68,-54.88,0.13,0.82,0.53
-2.6757812,-0.4948125,-0.26246664,-0.89976877,0.16,0.77,0.62,22900,10187.3,0,0,0,-31.99,-18.34,-63.07,0.16,0.77,0.62
-2.3759766,-0.3628125,-0.48346666,-0.56476873,0.18,0.81,0.61,22907,10187.6,0,0,0,-22.75,-33.81,-39.62,0.18,0.81,0.61
-0.97558594,-0.11781251,-0.70346665,-0.27376875,0.22,0.81,0.64,22922,10189,0,0,0,-5.6,-49.21,-19.25,0.22,0.81,0.64
-1.3759766,-0.24781251,-0.9094667,-0.023768744,0.2,0.79,0.65,22960,10188.6,0,0,0,-14.7,-63.63,-1.75,0.2,0.79,0.65
0.62402344,-0.16581252,-1.0484667,0.06623126,0.18,0.77,0.64,22961,10190.6,0,0,0,-8.96,-73.36,4.55,0.18,0.77,0.64
-0.37597656,-0.12181251,-1.0104667,0.06923126,0.2,0.76,0.62,22975,10189.6,0,0,0,-5.88,-70.7,4.76,0.2,0.76,0.62
1.0244141,-0.19181252,-0.9474667,0.034231257,0.23,0.78,0.6,22989,10191,0,0,0,-10.78,-66.29,2.31,0.23,0.78,0.6
2.024414,-0.24981251,-1.0074667,-0.03476874,0.22,0.73,0.65,23004,10192,0,0,0,-14.84,-70.49,-2.52,0.22,0.73,0.65
1.6240234,-0.1818125,-1.1084666,-0.19076873,0.21,0.76,0.67,23028,10191.6,0,0,0,-10.08,-77.56,-13.44,0.21,0.76,0.67
3.7246094,-0.2258125,-1.2324667,-0.5107688,0.17,0.72,0.67,23057,10193.7,0,0,0,-13.16,-86.24,-35.84,0.17,0.72,0.67
4.024414,-0.3468125,-1.2574667,-0.75376874,0.2,0.75,0.65,23072,10194,0,0,0,-21.63,-87.99,-52.85,0.2,0.75,0.65
0.62402344,-0.3468125,-1.1754667,-0.6907687,0.25,0.8,0.6,23094,10190.6,0,0,0,-21.63,-82.25,-48.44,0.25,0.8,0.6
3.024414,-0.5298125,-1.3764668,-0.7887687,0.26,0.78,0.63,23109,10193,0,0,0,-34.44,-96.32,-55.3,0.26,0.78,0.63
2.024414,-0.4188125,-1.2814667,-0.73476875,0.27,0.79,0.62,23133,10192,0,0,0,-26.67,-89.67,-51.52,0.27,0.79,0.62
0.62402344,-0.5258125,-1.1354667,-0.6867688,0.24,0.76,0.64,23154,10190.6,0,0,0,-34.16,-79.45,-48.16,0.24,0.76,0.64
0.62402344,-0.5548125,-1.1614666,-0.70576876,0.23,0.71,0.67,23177,10190.6,0,0,0,-36.19,-81.27,-49.49,0.23,0.71,0.67
0.62402344,-0.5908125,-1.2174667,-0.72176874,0.23,0.7,0.68,23200,10190.6,0,0,0,-38.71,-85.19,-50.61,0.23,0.7,0.68
-1.3759766,-0.5408125,-1.2174667,-0.7467688,0.24,0.7,0.69,23207,10188.6,0,0,0,-35.21,-85.19,-52.36,0.24,0.7,0.69
-0.37597656,-0.3768125,-1.2014667,-0.74976873,0.22,0.73,0.69,23222,10189.6,0,0,0,-23.73,-84.07,-52.57,0.22,0.73,0.69
-1.3759766,-0.18081251,-1.1564667,-0.70576876,0.18,0.76,0.69,23238,10188.6,0,0,0,-10.01,-80.92,-49.49,0.18,0.76,0.69
-3.3759766,0.089187495,-1.2594666,-0.54376876,0.14,0.81,0.67,23260,10186.6,0,0,0,8.89,-88.13,-38.15,0.14,0.81,0.67
-6.3759766,0.5481875,-1.2324667,-0.36476877,0.1,0.83,0.68,23275,10183.6,0,0,0,41.02,-86.24,-25.62,0.1,0.83,0.68
-8.975586,0.9101875,-1.2574667,-0.44876873,0.26,0.75,0.69,23298,10181,0,0,0,66.36,-87.99,-31.5,0.26,0.75,0.69
-7.975586,0.3261875,-1.1094667,-0.7607688,0.2,0.72,0.6,23320,10182,0,0,0,25.48,-77.63,-53.34,0.2,0.72,0.6
-7.975586,-0.5068125,-1.3634667,-0.40776873,0.14,0.65,0.58,23342,10182,0,0,0,-32.83,-95.41,-28.63,0.14,0.65,0.58
0.32421875,-0.3238125,-1.3184668,-0.52176875,0.35,0.8,0.72,23372,10190.3,0,0,0,-20.02,-92.26,-36.61,0.35,0.8,0.72
-0.67578125,-0.16781253,-1.5494667,-0.06476875,0.15,0.86,0.55,23387,10189.3,0,0,0,-9.1,-108.43,-4.62,0.15,0.86,0.55
-5.3759766,0.18518749,-1.1864667,-0.06276875,0.35,0.78,0.6,23409,10184.6,0,0,0,15.61,-83.02,-4.48,0.35,0.78,0.6
-5.975586,-0.005812507,-0.80146664,-0.34476873,0.37,0.79,0.54,23424,10184,0,0,0,2.24,-56.07,-24.22,0.37,0.79,0.54
-9.375977,0.0011874922,-0.5724667,-0.36376873,0.33,0.75,0.57,23439,10180.6,0,0,0,2.73,-40.04,-25.55,0.33,0.75,0.57
-9.375977,-0.47381252,-0.52646667,-0.43676874,0.27,0.78,0.55,23454,10180.6,0,0,0,-30.52,-36.82,-30.66,0.27,0.78,0.55
-9.375977,-0.5408125,-0.46646664,-0.32976875,0.27,0.79,0.57,23469,10180.6,0,0,0,-35.21,-32.62,-23.17,0.27,0.79,0.57
-2.975586,-0.4168125,-0.47746664,-0.26476875,0.3,0.8,0.56,23485,10187,0,0,0,-26.53,-33.39,-18.62,0.3,0.8,0.56
-6.3759766,-0.6368125,-0.51446664,-0.29776874,0.32,0.86,0.58,23507,10183.6,0,0,0,-41.93,-35.98,-20.93,0.32,0.86,0.58
-5.975586,-0.3208125,-0.44846666,-0.25876877,0.29,0.83,0.62,23522,10184,0,0,0,-19.81,-31.36,-18.2,0.29,0.83,0.62
-6.975586,0.044187486,-0.40946662,-0.15876874,0.31,0.78,0.59,23545,10183,0,0,0,5.74,-28.63,-11.2,0.31,0.78,0.59
-7.975586,0.24818751,-0.31946665,-0.16676874,0.31,0.76,0.59,23567,10182,0,0,0,20.02,-22.33,-11.76,0.31,0.76,0.59
-9.375977,0.13018748,-0.32546663,-0.16676874,0.33,0.77,0.55,23590,10180.6,0,0,0,11.76,-22.75,-11.76,0.33,0.77,0.55
-11.375977,-0.21081251,-0.20046666,0.06323126,0.36,0.82,0.53,23612,10178.6,0,0,0,-12.11,-14,4.34,0.36,0.82,0.53
-10.375977,-0.1838125,-0.034466658,0.19123125,0.26,0.9,0.6,23635,10179.6,0,0,0,-10.22,-2.38,13.3,0.26,0.9,0.6
-6.6757812,0.06118749,-0.08646666,0.090231255,0.29,0.72,0.6,23657,10183.3,0,0,1,6.93,-6.02,6.23,0.29,0.72,0.6
-5.975586,0.3391875,-0.021466656,0.17623125,0.31,0.75,0.63,23687,10184,0,0,1,26.39,-1.47,12.25,0.31,0.75,0.63
-5.975586,0.1291875,-0.07846666,-0.19276875,0.31,0.74,0.61,23710,10184,0,0,1,11.69,-5.46,-13.58,0.31,0.74,0.61
-5.6757812,0.121187486,-0.09946666,-0.19676875,0.32,0.75,0.59,23711,10184.3,0,0,1,11.13,-6.93,-13.86,0.32,0.75,0.59
-6.975586,0.07718749,-0.10346666,-0.089768745,0.31,0.79,0.56,23733,10183,0,0,1,8.05,-7.21,-6.37,0.31,0.79,0.56
-7.3759766,0.023187492,-0.060466655,-0.040768743,0.28,0.82,0.55,23739,10182.6,0,0,1,4.27,-4.2,-2.94,0.28,0.82,0.55
-6.6757812,-0.080812514,-0.004466656,-0.016768742,0.29,0.83,0.54,23762,10183.3,0,0,1,-3.01,-0.28,-1.26,0.29,0.83,0.54
-5.975586,-0.08681251,0.059533343,0.043231256,0.31,0.81,0.54,23784,10184,0,0,1,-3.43,4.2,2.94,0.31,0.81,0.54
-3.6757812,-0.10181251,0.15653333,0.08123125,0.28,0.86,0.52,23800,10186.3,0,0,1,-4.48,10.99,5.6,0.28,0.86,0.52
-6.975586,-0.061812505,0.16053335,0.051231258,0.33,0.85,0.51,23829,10183,0,0,1,-1.68,11.27,3.5,0.33,0.85,0.51
-8.075195,-0.13881251,0.17153335,0.15723126,0.38,0.79,0.55,23860,10181.9,0,0,1,-7.07,12.04,10.92,0.38,0.79,0.55
-7.975586,-0.05681251,0.038533345,0.06723125,0.38,0.76,0.57,23867,10182,0,0,1,-1.33,2.73,4.62,0.38,0.76,0.57
-6.3759766,-0.0028125085,-0.082466654,0.021231256,0.35,0.77,0.56,23889,10183.6,0,0,1,2.45,-5.74,1.4,0.35,0.77,0.56
-6.3759766,0.03218749,-0.16146667,0.007231256,0.34,0.78,0.55,23912,10183.6,0,0,1,4.9,-11.27,0.42,0.34,0.78,0.55
-4.975586,0.03518749,-0.15446666,-0.0007687438,0.35,0.79,0.55,23927,10185,0,0,1,5.11,-10.78,-0.14,0.35,0.79,0.55
-7.3759766,0.063187495,-0.25146663,0.028231258,0.38,0.79,0.54,23942,10182.6,0,0,1,7.07,-17.57,1.89,0.38,0.79,0.54
-6.975586,0.05418749,-0.36946663,0.11023126,0.34,0.78,0.55,23957,10183,0,0,1,6.44,-25.83,7.63,0.34,0.78,0.55
-5.975586,0.05718749,-0.35246664,0.08823126,0.34,0.79,0.52,23972,10184,0,0,1,6.65,-24.64,6.09,0.34,0.79,0.52
-5.975586,0.016187493,-0.27646664,0.060231257,0.34,0.81,0.53,24002,10184,0,0,1,3.78,-19.32,4.13,0.34,0.81,0.53
-2.975586,0.03418749,-0.29246664,0.06723125,0.34,0.8,0.53,24010,10187,0,0,1,5.04,-20.44,4.62,0.34,0.8,0.53
-5.975586,0.028187491,-0.28946665,0.10423125,0.32,0.79,0.53,24035,10184,0,0,1,4.62,-20.23,7.21,0.32,0.79,0.53
-3.975586,0.025187492,-0.27346665,0.08323125,0.33,0.82,0.51,24054,10186,0,0,1,4.41,-19.11,5.74,0.33,0.82,0.51
-6.3759766,0.09318749,-0.27146664,0.07323125,0.36,0.83,0.5,24069,10183.6,0,0,1,9.17,-18.97,5.04,0.36,0.83,0.5
-5.3759766,0.10118749,-0.27246666,0.058231257,0.36,0.83,0.5,24107,10184.6,0,0,1,9.73,-19.04,3.99,0.36,0.83,0.5
-4.975586,0.091187485,-0.26846665,-0.0007687438,0.35,0.83,0.49,24115,10185,0,0,1,9.03,-18.76,-0.14,0.35,0.83,0.49
-5.975586,0.030187495,-0.26746666,-0.057768743,0.33,0.83,0.49,24137,10184,0,0,1,4.76,-18.69,-4.13,0.33,0.83,0.49
-4.975586,-0.004812509,-0.22246666,-0.08776875,0.31,0.84,0.49,24160,10185,0,0,1,2.31,-15.54,-6.23,0.31,0.84,0.49
-5.975586,-0.012812508,-0.19846666,-0.11076875,0.32,0.83,0.48,24175,10184,0,0,1,1.75,-13.86,-7.84,0.32,0.83,0.48
-4.975586,0.049187496,-0.24746667,-0.082768746,0.33,0.82,0.49,24190,10185,0,0,1,6.09,-17.29,-5.88,0.33,0.82,0.49
-4.975586,0.08218749,-0.22846666,-0.053768743,0.34,0.81,0.5,24205,10185,0,0,1,8.4,-15.96,-3.85,0.34,0.81,0.5
-4.975586,0.089187495,-0.18946666,-0.009768744,0.33,0.8,0.5,24250,10185,0,0,1,8.89,-13.23,-0.77,0.33,0.8,0.5
-4.975586,0.048187494,-0.13046667,0.08323125,0.32,0.81,0.49,24251,10185,0,0,1,6.02,-9.1,5.74,0.32,0.81,0.49
-3.975586,0.05718749,-0.17846666,0.08023126,0.33,0.83,0.46,24257,10186,0,0,1,6.65,-12.46,5.53,0.33,0.83,0.46
-1.6757812,0.017187491,-0.22946668,0.09623125,0.35,0.84,0.45,24280,10188.3,0,0,1,3.85,-16.03,6.65,0.35,0.84,0.45
-0.97558594,0.07718749,-0.28746665,0.021231256,0.36,0.81,0.46,24303,10189,0,0,1,8.05,-20.09,1.4,0.36,0.81,0.46
1.0244141,0.015187491,-0.32446665,-0.023768744,0.38,0.78,0.46,24325,10191,0,0,1,3.71,-22.68,-1.75,0.38,0.78,0.46
4.024414,-0.06981251,-0.35546666,-0.053768743,0.39,0.78,0.46,24347,10194,0,0,1,-2.24,-24.85,-3.85,0.39,0.78,0.46
2.024414,-0.1548125,-0.38646665,-0.06676875,0.41,0.78,0.48,24362,10192,0,0,1,-8.19,-27.02,-4.76,0.41,0.78,0.48
3.024414,-0.17981249,-0.37146664,-0.031768743,0.43,0.77,0.48,24391,10193,0,0,1,-9.94,-25.97,-2.31,0.43,0.77,0.48
3.024414,-0.2278125,-0.38946664,0.025231255,0.45,0.77,0.49,24407,10193,0,0,1,-13.3,-27.23,1.68,0.45,0.77,0.49
1.3242188,-0.21081251,-0.37546664,0.05523126,0.45,0.78,0.48,24421,10191.3,0,0,1,-12.11,-26.25,3.78,0.45,0.78,0.48
1.0244141,-0.1888125,-0.36046666,0.07023125,0.43,0.8,0.48,24445,10191,0,0,1,-10.57,-25.2,4.83,0.43,0.8,0.48
4.024414,-0.17381251,-0.35646665,0.059231255,0.43,0.81,0.46,24459,10194,0,0,1,-9.52,-24.92,4.06,0.43,0.81,0.46
1.0244141,-0.1768125,-0.35046664,0.047231257,0.43,0.8,0.46,24482,10191,0,0,1,-9.73,-24.5,3.22,0.43,0.8,0.46
-0.37597656,-0.1928125,-0.33546665,0.038231257,0.43,0.78,0.47,24490,10189.6,0,0,1,-10.85,-23.45,2.59,0.43,0.78,0.47
1.0244141,-0.17281249,-0.31146666,0.04423126,0.43,0.79,0.47,24504,10191,0,0,1,-9.45,-21.77,3.01,0.43,0.79,0.47
1.0244141,-0.14981252,-0.27846664,0.07223125,0.42,0.83,0.47,24535,10191,0,0,1,-7.84,-19.46,4.97,0.42,0.83,0.47
0.024414062,-0.07781251,-0.18246666,0.08823126,0.42,0.84,0.44,24557,10190,0,0,1,-2.8,-12.74,6.09,0.42,0.84,0.44
0.024414062,0.019187491,-0.10146666,0.09223125,0.44,0.83,0.44,24572,10190,0,0,1,3.99,-7.07,6.37,0.44,0.83,0.44
-5.975586,0.04218749,-0.07546666,0.064231254,0.45,0.83,0.44,24594,10184,0,0,1,5.6,-5.25,4.41,0.45,0.83,0.44
0.32421875,0.030187495,-0.061466657,0.036231257,0.44,0.82,0.44,24617,10190.3,0,0,1,4.76,-4.27,2.45,0.44,0.82,0.44
-1.9755859,-0.018812507,-0.03846666,-0.004768743,0.43,0.82,0.43,24647,10188,0,0,1,1.33,-2.66,-0.42,0.43,0.82,0.43
-3.975586,0.036187492,0.017533343,-0.0017687435,0.42,0.82,0.43,24669,10186,0,0,1,5.18,1.26,-0.21,0.42,0.82,0.43
-4.975586,0.09418749,0.064533345,0.04623126,0.42,0.82,0.43,24684,10185,0,0,1,9.24,4.55,3.15,0.42,0.82,0.43
-6.3759766,0.10918749,0.10453334,0.056231257,0.43,0.82,0.42,24700,10183.6,0,0,1,10.29,7.35,3.85,0.43,0.82,0.42
-4.975586,0.10918749,0.11353334,0.07023125,0.43,0.81,0.42,24737,10185,0,0,1,10.29,7.98,4.83,0.43,0.81,0.42
-3.975586,0.12518749,0.13253334,0.07823125,0.42,0.81,0.43,24738,10186,0,0,1,11.41,9.31,5.39,0.42,0.81,0.43
-4.6757812,0.17218748,0.17953335,0.08023126,0.42,0.83,0.41,24752,10185.3,0,0,1,14.7,12.6,5.53,0.42,0.83,0.41
-4.975586,0.17118749,0.15553334,0.021231256,0.43,0.84,0.41,24774,10185,0,0,1,14.63,10.92,1.4,0.43,0.84,0.41
-5.6757812,0.1521875,0.11353334,-0.048768744,0.44,0.84,0.4,24789,10184.3,0,0,1,13.3,7.98,-3.5,0.44,0.84,0.4
-5.6757812,0.15818751,0.078533344,-0.08076874,0.45,0.83,0.39,24827,10184.3,0,0,1,13.72,5.53,-5.74,0.45,0.83,0.39
-5.975586,0.14618748,0.033533346,-0.07676875,0.45,0.81,0.4,24850,10184,0,0,1,12.88,2.38,-5.46,0.45,0.81,0.4
-5.6757812,0.12418749,0.014533344,-0.05676874,0.44,0.81,0.41,24857,10184.3,0,0,1,11.34,1.05,-4.06,0.44,0.81,0.41
-5.6757812,0.10018749,0.0065333443,-0.041768745,0.43,0.8,0.4,24872,10184.3,0,0,1,9.66,0.49,-3.01,0.43,0.8,0.4
-4.6757812,0.089187495,0.015533345,-0.03476874,0.42,0.8,0.4,24910,10185.3,0,0,1,8.89,1.12,-2.52,0.42,0.8,0.4
-5.6757812,0.063187495,0.028533343,-0.029768744,0.41,0.8,0.4,24917,10184.3,0,0,1,7.07,2.03,-2.17,0.41,0.8,0.4
-5.6757812,0.029187493,0.032533344,-0.010768743,0.41,0.81,0.4,24940,10184.3,0,0,1,4.69,2.31,-0.84,0.41,0.81,0.4
-5.6757812,-0.011812508,0.025533345,0.0012312563,0.4,0.83,0.39,24962,10184.3,0,0,1,1.82,1.82,0,0.4,0.83,0.39
-6.6757812,-0.03281251,0.020533344,-0.015768744,0.4,0.85,0.38,24970,10183.3,0,0,1,0.35,1.47,-1.19,0.4,0.85,0.38
-5.6757812,-0.029812507,0.031533346,-0.041768745,0.4,0.84,0.39,24992,10184.3,0,0,1,0.56,2.24,-3.01,0.4,0.84,0.39
-5.6757812,-0.0018125102,0.052533343,-0.049768742,0.41,0.83,0.4,25007,10184.3,0,0,1,2.52,3.71,-3.57,0.41,0.83,0.4
-6.6757812,0.026187494,0.06353334,-0.024768744,0.41,0.84,0.39,25022,10183.3,0,0,1,4.48,4.48,-1.82,0.41,0.84,0.39
-6.6757812,0.012187492,0.061533347,-0.0127687445,0.41,0.84,0.39,25045,10183.3,0,0,1,3.5,4.34,-0.98,0.41,0.84,0.39
-8.975586,-0.0088125095,0.041533343,-0.03476874,0.41,0.85,0.37,25067,10181,0,0,1,2.03,2.94,-2.52,0.41,0.85,0.37
-8.975586,-0.011812508,-0.00046665609,-0.057768743,0.43,0.83,0.38,25090,10181,0,0,1,1.82,0,-4.13,0.43,0.83,0.38
-8.675781,0.00018749386,-0.020466655,-0.055768743,0.43,0.81,0.39,25104,10181.3,0,0,1,2.66,-1.4,-3.99,0.43,0.81,0.39
-10.675781,-0.033812508,-0.061466657,-0.041768745,0.43,0.82,0.38,25134,10179.3,0,0,1,0.28,-4.27,-3.01,0.43,0.82,0.38
-9.675781,-0.06281251,-0.10346666,-0.05876874,0.42,0.83,0.39,25150,10180.3,0,0,1,-1.75,-7.21,-4.2,0.42,0.83,0.39
-10.675781,-0.11181251,-0.14346667,-0.078768745,0.42,0.83,0.4,25172,10179.3,0,0,1,-5.18,-10.01,-5.6,0.42,0.83,0.4
-11.675781,-0.1348125,-0.16946666,-0.08076874,0.43,0.83,0.39,25187,10178.3,0,0,1,-6.79,-11.83,-5.74,0.43,0.83,0.39
-10.675781,-0.1548125,-0.20546666,-0.100768745,0.43,0.83,0.39,25210,10179.3,0,0,1,-8.19,-14.35,-7.14,0.43,0.83,0.39
-11.075195,-0.17281249,-0.24646665,-0.12576875,0.44,0.84,0.38,25225,10178.9,0,0,1,-9.45,-17.22,-8.89,0.44,0.84,0.38
-8.675781,-0.17081252,-0.28446662,-0.15176874,0.44,0.84,0.39,25239,10181.3,0,0,1,-9.31,-19.88,-10.71,0.44,0.84,0.39
-10.675781,-0.1348125,-0.30246663,-0.17176874,0.43,0.83,0.39,25255,10179.3,0,0,1,-6.79,-21.14,-12.11,0.43,0.83,0.39
-13.675781,-0.12481251,-0.31546664,-0.17376874,0.42,0.83,0.41,25277,10176.3,0,0,1,-6.09,-22.05,-12.25,0.42,0.83,0.41
-11.675781,-0.12981251,-0.31346664,-0.15876874,0.4,0.83,0.42,25315,10178.3,0,0,1,-6.44,-21.91,-11.2,0.4,0.83,0.42
-10.375977,-0.13681251,-0.29246664,-0.15076876,0.39,0.83,0.41,25338,10179.6,0,0,1,-6.93,-20.44,-10.64,0.39,0.83,0.41
-10.675781,-0.13681251,-0.25846663,-0.14776875,0.39,0.83,0.42,25339,10179.3,0,0,1,-6.93,-18.06,-10.43,0.39,0.83,0.42
-9.675781,-0.1348125,-0.22546665,-0.12576875,0.39,0.84,0.42,25375,10180.3,0,0,1,-6.79,-15.75,-8.89,0.39,0.84,0.42
-4.3759766,-0.13081251,-0.17946665,-0.11376875,0.38,0.84,0.42,25398,10185.6,0,0,1,-6.51,-12.53,-8.05,0.38,0.84,0.42
-10.675781,-0.10581251,-0.14846666,-0.10776875,0.37,0.84,0.41,25427,10179.3,0,0,1,-4.76,-10.36,-7.63,0.37,0.84,0.41
-10.675781,-0.11281251,-0.13246666,-0.10976875,0.38,0.83,0.42,25428,10179.3,0,0,1,-5.25,-9.24,-7.77,0.38,0.83,0.42
-7.6757812,-0.13181251,-0.14046666,-0.09676875,0.39,0.83,0.42,25450,10182.3,0,0,1,-6.58,-9.8,-6.86,0.39,0.83,0.42
-12.075195,-0.14681251,-0.11846666,-0.08176874,0.39,0.83,0.41,25457,10177.9,0,0,1,-7.63,-8.26,-5.81,0.39,0.83,0.41
-11.675781,-0.13881251,-0.09946666,-0.051768743,0.4,0.84,0.4,25486,10178.3,0,0,1,-7.07,-6.93,-3.71,0.4,0.84,0.4
-10.675781,-0.10381251,-0.119466655,-0.032768745,0.39,0.85,0.4,25494,10179.3,0,0,1,-4.62,-8.33,-2.38,0.39,0.85,0.4
-12.975586,-0.06981251,-0.14446665,-0.032768745,0.39,0.85,0.4,25509,10177,0,0,1,-2.24,-10.08,-2.38,0.39,0.85,0.4
-10.675781,-0.047812507,-0.16346666,-0.032768745,0.39,0.84,0.42,25539,10179.3,0,0,1,-0.7,-11.41,-2.38,0.39,0.84,0.42
-10.375977,-0.044812508,-0.19746666,-0.018768743,0.38,0.84,0.42,25554,10179.6,0,0,1,-0.49,-13.79,-1.4,0.38,0.84,0.42
-8.375977,-0.061812505,-0.21146667,-0.025768744,0.38,0.86,0.4,25577,10181.6,0,0,1,-1.68,-14.77,-1.89,0.38,0.86,0.4
-8.375977,-0.05681251,-0.19946666,-0.050768744,0.38,0.86,0.4,25591,10181.6,0,0,1,-1.33,-13.93,-3.64,0.38,0.86,0.4
-6.6757812,0.0031874888,-0.20846666,-0.05676874,0.39,0.87,0.38,25614,10183.3,0,0,1,2.87,-14.56,-4.06,0.39,0.87,0.38
-6.6757812,0.004187491,-0.22346665,-0.061768744,0.38,0.86,0.39,25637,10183.3,0,0,1,2.94,-15.61,-4.41,0.38,0.86,0.39
-6.6757812,-0.023812508,-0.21346666,-0.054768745,0.35,0.86,0.4,25660,10183.3,0,0,1,0.98,-14.91,-3.92,0.35,0.86,0.4
-4.6757812,0.0031874888,-0.19346666,-0.036768746,0.35,0.87,0.39,25682,10185.3,0,0,1,2.87,-13.51,-2.66,0.35,0.87,0.39
0.32421875,0.037187494,-0.15846667,-0.015768744,0.34,0.87,0.4,25697,10190.3,0,0,1,5.25,-11.06,-1.19,0.34,0.87,0.4
-3.6757812,0.04318749,-0.119466655,0.0022312563,0.33,0.86,0.4,25727,10186.3,0,0,1,5.67,-8.33,0.07,0.33,0.86,0.4
-3.6757812,0.05318749,-0.07546666,0.014231256,0.34,0.86,0.39,25734,10186.3,0,0,1,6.37,-5.25,0.91,0.34,0.86,0.39
-4.6757812,0.07318749,-0.008466656,0.024231257,0.34,0.86,0.39,25750,10185.3,0,0,1,7.77,-0.56,1.61,0.34,0.86,0.39
-2.3759766,0.052187495,0.060533345,0.07823125,0.35,0.85,0.38,25780,10187.6,0,0,1,6.3,4.27,5.39,0.35,0.85,0.38
-0.67578125,0.05718749,0.09453334,0.08923125,0.37,0.83,0.38,25802,10189.3,0,0,1,6.65,6.65,6.16,0.37,0.83,0.38
2.7246094,0.027187496,0.111533344,0.09323125,0.38,0.82,0.39,25809,10192.7,0,0,1,4.55,7.84,6.44,0.38,0.82,0.39
-5.6757812,0.044187486,0.111533344,0.13823126,0.39,0.81,0.39,25832,10184.3,0,0,1,5.74,7.84,9.59,0.39,0.81,0.39
0.024414062,-0.0028125085,0.20853335,0.14323124,0.35,0.85,0.38,25861,10190,0,0,1,2.45,14.63,9.94,0.35,0.85,0.38
2.024414,0.017187491,0.28753334,0.13723126,0.36,0.86,0.39,25877,10192,0,0,1,3.85,20.16,9.52,0.36,0.86,0.39
2.7246094,0.047187492,0.36953336,0.116231255,0.38,0.86,0.38,25900,10192.7,0,0,1,5.95,25.9,8.05,0.38,0.86,0.38
3.7246094,-0.03281251,0.37353337,0.09223125,0.4,0.85,0.38,25922,10193.7,0,0,1,0.35,26.18,6.37,0.4,0.85,0.38
5.7246094,-0.058812506,0.37453336,0.08923125,0.41,0.84,0.38,25936,10195.7,0,0,1,-1.47,26.25,6.16,0.41,0.84,0.38
6.7246094,-0.10681251,0.33053336,0.08523125,0.41,0.85,0.37,25952,10196.7,0,0,1,-4.83,23.17,5.88,0.41,0.85,0.37
6.7246094,-0.07981251,0.28853336,0.09323125,0.43,0.86,0.36,25967,10196.7,0,0,1,-2.94,20.23,6.44,0.43,0.86,0.36
7.7246094,-0.07481251,0.24653335,0.08123125,0.42,0.86,0.36,25990,10197.7,0,0,1,-2.59,17.29,5.6,0.42,0.86,0.36
8.724609,-0.05681251,0.21153334,0.087231256,0.41,0.85,0.37,26005,10198.7,0,0,1,-1.33,14.84,6.02,0.41,0.85,0.37
8.724609,-0.03281251,0.19553335,0.10423125,0.41,0.84,0.38,26027,10198.7,0,0,1,0.35,13.72,7.21,0.41,0.84,0.38
8.724609,-0.026812509,0.14153333,0.109231256,0.39,0.86,0.37,26042,10198.7,0,0,1,0.77,9.94,7.56,0.39,0.86,0.37
8.024414,-0.051812507,0.09353334,0.07023125,0.4,0.87,0.25,26064,10198,0,0,1,-0.98,6.58,4.83,0.4,0.87,0.25
8.724609,0.023187492,0.034533344,0.03923126,0.4,0.83,0.39,26087,10198.7,0,0,1,4.27,2.45,2.66,0.4,0.83,0.39
9.724609,-0.033812508,0.028533343,0.024231257,0.4,0.84,0.38,26109,10199.7,0,0,1,0.28,2.03,1.61,0.4,0.84,0.38
8.724609,-0.06881251,0.011533343,0.016231256,0.4,0.84,0.38,26132,10198.7,0,0,1,-2.17,0.84,1.05,0.4,0.84,0.38
5.7246094,-0.061812505,-0.009466656,0.012231256,0.42,0.85,0.38,26155,10195.7,0,0,1,-1.68,-0.63,0.77,0.42,0.85,0.38
8.024414,-0.061812505,-0.045466658,0.032231256,0.43,0.83,0.39,26177,10198,0,0,1,-1.68,-3.15,2.17,0.43,0.83,0.39
8.724609,-0.05481251,-0.07046666,0.056231257,0.43,0.83,0.39,26192,10198.7,0,0,1,-1.19,-4.9,3.85,0.43,0.83,0.39
9.024414,-0.05281251,-0.10446666,0.061231256,0.41,0.84,0.39,26214,10199,0,0,1,-1.05,-7.28,4.2,0.41,0.84,0.39
7.7246094,-0.04581251,-0.11846666,0.05023126,0.39,0.86,0.39,26237,10197.7,0,0,1,-0.56,-8.26,3.43,0.39,0.86,0.39
9.424805,-0.06881251,-0.11746665,-0.24376874,0.38,0.86,0.4,26251,10199.4,0,0,1,-2.17,-8.19,-17.15,0.38,0.86,0.4
7.7246094,-0.08681251,-0.11346666,-0.033768743,0.4,0.85,0.39,26259,10197.7,0,0,1,-3.43,-7.91,-2.45,0.4,0.85,0.39
8.724609,-0.05681251,-0.09246666,-0.014768745,0.42,0.86,0.39,26282,10198.7,0,0,1,-1.33,-6.44,-1.12,0.42,0.86,0.39
9.024414,-0.038812507,-0.082466654,0.010231256,0.41,0.85,0.39,26312,10199,0,0,1,-0.07,-5.74,0.63,0.41,0.85,0.39
8.724609,-0.06381251,-0.10246666,-0.021768743,0.38,0.84,0.41,26320,10198.7,0,0,1,-1.82,-7.14,-1.61,0.38,0.84,0.41
11.024414,-0.11181251,-0.11346666,-0.10276875,0.37,0.85,0.4,26342,10201,0,0,1,-5.18,-7.91,-7.28,0.37,0.85,0.4
9.724609,-0.11481251,-0.109466664,-0.13076875,0.39,0.85,0.39,26372,10199.7,0,0,1,-5.39,-7.63,-9.24,0.39,0.85,0.39
8.024414,-0.07581251,-0.11346666,-0.12076875,0.4,0.84,0.4,26387,10198,0,0,1,-2.66,-7.91,-8.54,0.4,0.84,0.4
8.024414,-0.06881251,-0.13446666,-0.10576874,0.4,0.83,0.41,26409,10198,0,0,1,-2.17,-9.38,-7.49,0.4,0.83,0.41
6.7246094,-0.07081251,-0.15746665,-0.10576874,0.38,0.83,0.42,26424,10196.7,0,0,1,-2.31,-10.99,-7.49,0.38,0.83,0.42
7.024414,-0.09381251,-0.18946666,-0.118768744,0.25,0.83,0.42,26447,10197,0,0,1,-3.92,-13.23,-8.4,0.25,0.83,0.42
8.024414,-0.0978125,-0.21646667,-0.13376874,0.37,0.84,0.41,26470,10198,0,0,1,-4.2,-15.12,-9.45,0.37,0.84,0.41
8.024414,-0.08281251,-0.23246665,-0.12676875,0.38,0.84,0.41,26477,10198,0,0,1,-3.15,-16.24,-8.96,0.38,0.84,0.41
5.7246094,-0.06081251,-0.24246667,-0.108768746,0.39,0.82,0.42,26507,10195.7,0,0,1,-1.61,-16.94,-7.7,0.39,0.82,0.42
7.7246094,-0.061812505,-0.24946666,-0.08676875,0.38,0.82,0.43,26508,10197.7,0,0,1,-1.68,-17.43,-6.16,0.38,0.82,0.43
7.024414,-0.06981251,-0.25746664,-0.07276875,0.38,0.83,0.43,26521,10197,0,0,1,-2.24,-17.99,-5.18,0.38,0.83,0.43
8.024414,-0.08481251,-0.25646666,-0.051768743,0.37,0.83,0.43,26545,10198,0,0,1,-3.29,-17.92,-3.71,0.37,0.83,0.43
8.024414,-0.0978125,-0.23646666,-0.024768744,0.37,0.84,0.42,26567,10198,0,0,1,-4.2,-16.52,-1.82,0.37,0.84,0.42
8.024414,-0.08881251,-0.19046666,-0.0027687438,0.36,0.85,0.42,26590,10198,0,0,1,-3.57,-13.3,-0.28,0.36,0.85,0.42
8.024414,-0.07181251,-0.11746665,0.012231256,0.37,0.85,0.42,26620,10198,0,0,1,-2.38,-8.19,0.77,0.37,0.85,0.42
8.024414,-0.04181251,-0.06746666,0.026231257,0.38,0.86,0.41,26627,10198,0,0,1,-0.28,-4.69,1.75,0.38,0.86,0.41
7.024414,-0.01981251,-0.044466656,0.028231258,0.39,0.86,0.41,26665,10197,0,0,1,1.26,-3.08,1.89,0.39,0.86,0.41
6.024414,-0.018812507,-0.026466656,0.016231256,0.39,0.87,0.39,26681,10196,0,0,1,1.33,-1.82,1.05,0.39,0.87,0.39
5.024414,-0.023812508,-0.043466657,0.007231256,0.39,0.87,0.38,26702,10195,0,0,1,0.98,-3.01,0.42,0.39,0.87,0.38
5.7246094,-0.01981251,-0.061466657,-0.010768743,0.39,0.87,0.37,26709,10195.7,0,0,1,1.26,-4.27,-0.84,0.39,0.87,0.37
5.024414,-0.01381251,-0.06446666,-0.028768742,0.41,0.85,0.37,26741,10195,0,0,1,1.68,-4.48,-2.1,0.41,0.85,0.37
6.024414,-0.0068125073,-0.09146666,-0.031768743,0.41,0.85,0.37,26742,10196,0,0,1,2.17,-6.37,-2.31,0.41,0.85,0.37
4.024414,0.0031874888,-0.10246666,-0.023768744,0.41,0.85,0.37,26754,10194,0,0,1,2.87,-7.14,-1.75,0.41,0.85,0.37
4.024414,0.024187494,-0.11546666,-0.021768743,0.41,0.86,0.36,26776,10194,0,0,1,4.34,-8.05,-1.61,0.41,0.86,0.36
2.7246094,0.051187493,-0.10746665,-0.006768744,0.42,0.83,0.37,26799,10192.7,0,0,1,6.23,-7.49,-0.56,0.42,0.83,0.37
0.024414062,0.027187496,-0.11646666,0.036231257,0.42,0.83,0.38,26837,10190,0,0,1,4.55,-8.12,2.45,0.42,0.83,0.38
-2.3759766,-0.005812507,-0.11446666,0.05523126,0.4,0.86,0.37,26844,10187.6,0,0,1,2.24,-7.98,3.78,0.4,0.86,0.37
-3.6757812,-0.010812508,-0.09046666,0.027231257,0.37,0.89,0.36,26868,10186.3,0,0,1,1.89,-6.3,1.82,0.37,0.89,0.36
-8.375977,-0.012812508,-0.06246666,-0.026768744,0.37,0.86,0.36,26882,10181.6,0,0,1,1.75,-4.34,-1.96,0.37,0.86,0.36
-7.6757812,-0.033812508,-0.048466653,-0.052768745,0.39,0.85,0.36,26905,10182.3,0,0,1,0.28,-3.36,-3.78,0.39,0.85,0.36
-7.3759766,-0.07281251,-0.046466656,-0.054768745,0.4,0.85,0.36,26926,10182.6,0,0,1,-2.45,-3.22,-3.92,0.4,0.85,0.36
-7.6757812,-0.08981251,-0.051466655,-0.05676874,0.39,0.86,0.35,26951,10182.3,0,0,1,-3.64,-3.57,-4.06,0.39,0.86,0.35
-9.975586,-0.109812506,-0.065466665,-0.060768746,0.38,0.86,0.36,26957,10180,0,0,1,-5.04,-4.55,-4.34,0.38,0.86,0.36
-7.6757812,-0.1198125,-0.07546666,-0.07676875,0.38,0.85,0.36,26980,10182.3,0,0,1,-5.74,-5.25,-5.46,0.38,0.85,0.36
-9.375977,-0.1328125,-0.08046666,-0.08376875,0.38,0.85,0.37,27002,10180.6,0,0,1,-6.65,-5.6,-5.95,0.38,0.85,0.37
-6.975586,-0.13581252,-0.07946666,-0.08676875,0.39,0.86,0.37,27010,10183,0,0,1,-6.86,-5.53,-6.16,0.39,0.86,0.37
-10.675781,-0.13681251,-0.09046666,-0.07676875,0.39,0.86,0.38,27032,10179.3,0,0,1,-6.93,-6.3,-5.46,0.39,0.86,0.38
-9.975586,-0.1278125,-0.09046666,-0.06676875,0.38,0.87,0.38,27054,10180,0,0,1,-6.3,-6.3,-4.76,0.38,0.87,0.38
-9.675781,-0.11781251,-0.07746666,-0.06276875,0.37,0.87,0.38,27069,10180.3,0,0,1,-5.6,-5.39,-4.48,0.37,0.87,0.38
-10.675781,-0.10381251,-0.07446666,-0.06976874,0.36,0.87,0.38,27092,10179.3,0,0,1,-4.62,-5.18,-4.97,0.36,0.87,0.38
-12.375977,-0.08481251,-0.056466658,-0.067768745,0.37,0.87,0.38,27114,10177.6,0,0,1,-3.29,-3.92,-4.83,0.37,0.87,0.38
-10.975586,-0.06781251,-0.046466656,-0.060768746,0.37,0.87,0.38,27137,10179,0,0,1,-2.1,-3.22,-4.34,0.37,0.87,0.38
-8.375977,-0.06381251,-0.035466656,-0.05676874,0.37,0.86,0.38,27159,10181.6,0,0,1,-1.82,-2.45,-4.06,0.37,0.86,0.38
-8.675781,-0.06781251,-0.03146666,-0.057768743,0.36,0.86,0.38,27174,10181.3,0,0,1,-2.1,-2.17,-4.13,0.36,0.86,0.38
-10.675781,-0.06981251,-0.025466656,-0.059768744,0.36,0.86,0.38,27190,10179.3,0,0,1,-2.24,-1.75,-4.27,0.36,0.86,0.38
-7.6757812,-0.06981251,-0.017466657,-0.060768746,0.36,0.86,0.38,27205,10182.3,0,0,1,-2.24,-1.19,-4.34,0.36,0.86,0.38
-7.975586,-0.06881251,-0.012466655,-0.05676874,0.36,0.86,0.38,27227,10182,0,0,1,-2.17,-0.84,-4.06,0.36,0.86,0.38
-7.3759766,-0.07281251,-0.018466655,-0.050768744,0.36,0.85,0.38,27257,10182.6,0,0,1,-2.45,-1.26,-3.64,0.36,0.85,0.38
-6.3759766,-0.08181251,-0.023466656,-0.050768744,0.36,0.86,0.38,27258,10183.6,0,0,1,-3.08,-1.61,-3.64,0.36,0.86,0.38
-5.6757812,-0.08681251,-0.029466655,-0.040768743,0.36,0.86,0.38,27280,10184.3,0,0,1,-3.43,-2.03,-2.94,0.36,0.86,0.38
-5.6757812,-0.083812505,-0.029466655,-0.031768743,0.36,0.87,0.38,27302,10184.3,0,0,1,-3.22,-2.03,-2.31,0.36,0.87,0.38
-5.6757812,-0.083812505,-0.023466656,-0.031768743,0.35,0.87,0.39,27325,10184.3,0,0,1,-3.22,-1.61,-2.31,0.35,0.87,0.39
-4.2753906,-0.076812506,-0.011466656,-0.032768745,0.35,0.86,0.39,27340,10185.7,0,0,1,-2.73,-0.77,-2.38,0.35,0.86,0.39
-3.6757812,-0.07381251,0.008533344,-0.020768743,0.35,0.86,0.4,27362,10186.3,0,0,1,-2.52,0.63,-1.54,0.35,0.86,0.4
-2.6757812,-0.08581251,0.016533345,-0.013768744,0.35,0.86,0.4,27384,10187.3,0,0,1,-3.36,1.19,-1.05,0.35,0.86,0.4
-1.2753906,-0.07981251,0.018533345,-0.008768744,0.35,0.88,0.39,27407,10188.7,0,0,1,-2.94,1.33,-0.7,0.35,0.88,0.39
-1.2753906,-0.06481251,0.018533345,-0.017768744,0.34,0.87,0.39,27430,10188.7,0,0,1,-1.89,1.33,-1.33,0.34,0.87,0.39
-0.27539062,-0.06781251,0.016533345,-0.013768744,0.35,0.86,0.4,27444,10189.7,0,0,1,-2.1,1.19,-1.05,0.35,0.86,0.4
1.7246094,-0.07081251,0.018533345,-0.005768744,0.35,0.85,0.41,27467,10191.7,0,0,1,-2.31,1.33,-0.49,0.35,0.85,0.41
0.7246094,-0.080812514,0.018533345,0.008231256,0.35,0.86,0.4,27475,10190.7,0,0,1,-3.01,1.33,0.49,0.35,0.86,0.4
1.7246094,-0.07581251,0.021533344,0.016231256,0.34,0.87,0.4,27497,10191.7,0,0,1,-2.66,1.54,1.05,0.34,0.87,0.4
-0.27539062,-0.06081251,0.032533344,0.020231258,0.34,0.87,0.4,27512,10189.7,0,0,1,-1.61,2.31,1.33,0.34,0.87,0.4
2.7246094,-0.049812507,0.037533347,0.028231258,0.34,0.86,0.4,27535,10192.7,0,0,1,-0.84,2.66,1.89,0.34,0.86,0.4
2.7246094,-0.05281251,0.036533345,0.034231257,0.35,0.85,0.4,27557,10192.7,0,0,1,-1.05,2.59,2.31,0.35,0.85,0.4
5.7246094,-0.05981251,0.028533343,0.034231257,0.35,0.86,0.4,27572,10195.7,0,0,1,-1.54,2.03,2.31,0.35,0.86,0.4
1.7246094,-0.06081251,0.033533346,0.04423126,0.35,0.86,0.4,27594,10191.7,0,0,1,-1.61,2.38,3.01,0.35,0.86,0.4
5.3242188,-0.058812506,0.04753334,0.05023126,0.35,0.86,0.41,27617,10195.3,0,0,1,-1.47,3.36,3.43,0.35,0.86,0.41
7.7246094,-0.06381251,0.060533345,0.04423126,0.35,0.87,0.41,27639,10197.7,0,0,1,-1.82,4.27,3.01,0.35,0.87,0.41
6.7246094,-0.05481251,0.056533344,0.03323126,0.35,0.86,0.41,27661,10196.7,0,0,1,-1.19,3.99,2.24,0.35,0.86,0.41
8.724609,-0.05681251,0.051533345,0.023231257,0.34,0.86,0.41,27691,10198.7,0,0,1,-1.33,3.64,1.54,0.34,0.86,0.41
8.724609,-0.051812507,0.050533343,0.027231257,0.35,0.86,0.41,27699,10198.7,0,0,1,-0.98,3.57,1.82,0.35,0.86,0.41
9.724609,-0.04881251,0.042533346,0.029231258,0.35,0.86,0.41,27715,10199.7,0,0,1,-0.77,3.01,1.96,0.35,0.86,0.41
9.424805,-0.04181251,0.038533345,0.024231257,0.35,0.86,0.41,27730,10199.4,0,0,1,-0.28,2.73,1.61,0.35,0.86,0.41
11.024414,-0.03681251,0.032533344,0.026231257,0.35,0.86,0.41,27752,10201,0,0,1,0.07,2.31,1.75,0.35,0.86,0.41
11.024414,-0.026812509,0.029533343,0.037231255,0.35,0.85,0.41,27767,10201,0,0,1,0.77,2.1,2.52,0.35,0.85,0.41
14.724609,-0.02581251,0.019533344,0.047231257,0.35,0.86,0.41,27789,10204.7,0,0,1,0.84,1.4,3.22,0.35,0.86,0.41
15.124023,-0.033812508,0.001533344,0.04623126,0.35,0.86,0.41,27811,10205.1,0,0,1,0.28,0.14,3.15,0.35,0.86,0.41
16.72461,-0.03281251,-0.0014666561,0.04423126,0.35,0.86,0.41,27835,10206.7,0,0,1,0.35,-0.07,3.01,0.35,0.86,0.41
18.124023,-0.026812509,0.001533344,0.05023126,0.35,0.86,0.41,27864,10208.1,0,0,1,0.77,0.14,3.43,0.35,0.86,0.41
19.124023,-0.014812509,-0.003466656,0.048231255,0.35,0.86,0.41,27902,10209.1,0,0,1,1.61,-0.21,3.29,0.35,0.86,0.41
20.124023,-0.0068125073,-0.008466656,0.041231256,0.35,0.86,0.41,27903,10210.1,0,0,1,2.17,-0.56,2.8,0.35,0.86,0.41
21.124023,0.0031874888,-0.004466656,0.041231256,0.36,0.86,0.41,27924,10211.1,0,0,1,2.87,-0.28,2.8,0.36,0.86,0.41
22.124023,0.00918749,-0.00046665609,0.047231257,0.35,0.86,0.41,27939,10212.1,0,0,1,3.29,0,3.22,0.35,0.86,0.41
23.424805,0.017187491,0.010533344,0.051231258,0.36,0.86,0.41,27954,10213.4,0,0,1,3.85,0.77,3.5,0.36,0.86,0.41
24.424805,0.014187492,0.009533344,0.03523126,0.36,0.86,0.4,27969,10214.4,0,0,1,3.64,0.7,2.38,0.36,0.86,0.4
23.124023,0.011187494,0.004533344,0.020231258,0.36,0.86,0.41,27984,10213.1,0,0,1,3.43,0.35,1.33,0.36,0.86,0.41
22.72461,0.008187491,-0.0024666563,0.019231256,0.36,0.86,0.4,28014,10212.7,0,0,1,3.22,-0.14,1.26,0.36,0.86,0.4
22.124023,0.01318749,-0.003466656,0.017231258,0.35,0.85,0.4,28030,10212.1,0,0,1,3.57,-0.21,1.12,0.35,0.85,0.4
23.124023,0.011187494,-0.005466656,0.014231256,0.36,0.86,0.4,28044,10213.1,0,0,1,3.43,-0.35,0.91,0.36,0.86,0.4
21.424805,0.005187493,-0.010466656,0.015231256,0.36,0.86,0.4,28067,10211.4,0,0,1,3.01,-0.7,0.98,0.36,0.86,0.4
21.72461,0.0031874888,-0.010466656,0.015231256,0.35,0.86,0.4,28098,10211.7,0,0,1,2.87,-0.7,0.98,0.35,0.86,0.4
22.424805,-0.0018125102,-0.010466656,0.007231256,0.35,0.86,0.39,28119,10212.4,0,0,1,2.52,-0.7,0.42,0.35,0.86,0.39
21.424805,-0.015812509,-0.013466656,0.0032312563,0.35,0.85,0.4,28142,10211.4,0,0,1,1.54,-0.91,0.14,0.35,0.85,0.4
21.124023,-0.033812508,-0.010466656,0.0062312563,0.35,0.86,0.39,28172,10211.1,0,0,1,0.28,-0.7,0.35,0.35,0.86,0.39
22.424805,-0.042812508,-0.004466656,0.020231258,0.35,0.85,0.4,28196,10212.4,0,0,1,-0.35,-0.28,1.33,0.35,0.85,0.4
21.72461,-0.05281251,-0.003466656,0.015231256,0.35,0.86,0.39,28197,10211.7,0,0,1,-1.05,-0.21,0.98,0.35,0.86,0.39
21.424805,-0.04681251,-0.004466656,0.013231255,0.35,0.87,0.39,28210,10211.4,0,0,1,-0.63,-0.28,0.84,0.35,0.87,0.39
21.424805,-0.04181251,-0.003466656,0.0062312563,0.35,0.87,0.39,28227,10211.4,0,0,1,-0.28,-0.21,0.35,0.35,0.87,0.39
22.424805,-0.038812507,-0.0024666563,0.0062312563,0.35,0.86,0.39,28239,10212.4,0,0,1,-0.07,-0.14,0.35,0.35,0.86,0.39
21.424805,-0.03781251,-0.0024666563,0.009231256,0.35,0.86,0.39,28262,10211.4,0,0,1,0,-0.14,0.56,0.35,0.86,0.39
20.72461,-0.04681251,-0.0024666563,0.013231255,0.35,0.85,0.39,28277,10210.7,0,0,1,-0.63,-0.14,0.84,0.35,0.85,0.39
21.424805,-0.055812508,-0.0064666555,0.007231256,0.35,0.86,0.4,28300,10211.4,0,0,1,-1.26,-0.42,0.42,0.35,0.86,0.4
22.424805,-0.05481251,-0.0064666555,0.007231256,0.35,0.87,0.4,28322,10212.4,0,0,1,-1.19,-0.42,0.42,0.35,0.87,0.4
21.72461,-0.055812508,-0.0064666555,0.009231256,0.35,0.86,0.4,28344,10211.7,0,0,1,-1.26,-0.42,0.56,0.35,0.86,0.4
20.72461,-0.055812508,-0.005466656,0.007231256,0.35,0.86,0.4,28374,10210.7,0,0,1,-1.26,-0.35,0.42,0.35,0.86,0.4
19.124023,-0.055812508,-0.008466656,0.009231256,0.35,0.86,0.4,28389,10209.1,0,0,1,-1.26,-0.56,0.56,0.35,0.86,0.4
20.72461,-0.05381251,-0.009466656,0.015231256,0.35,0.86,0.4,28420,10210.7,0,0,1,-1.12,-0.63,0.98,0.35,0.86,0.4
19.424805,-0.058812506,-0.016466657,0.020231258,0.35,0.86,0.4,28427,10209.4,0,0,1,-1.47,-1.12,1.33,0.35,0.86,0.4
20.72461,-0.05681251,-0.013466656,0.024231257,0.34,0.86,0.4,28457,10210.7,0,0,1,-1.33,-0.91,1.61,0.34,0.86,0.4
21.124023,-0.055812508,-0.009466656,0.025231255,0.35,0.86,0.4,28472,10211.1,0,0,1,-1.26,-0.63,1.68,0.35,0.86,0.4
18.424805,-0.055812508,-0.0064666555,0.03523126,0.34,0.86,0.4,28480,10208.4,0,0,1,-1.26,-0.42,2.38,0.34,0.86,0.4
19.72461,-0.04381251,-0.0014666561,0.03923126,0.34,0.86,0.41,28501,10209.7,0,0,1,-0.42,-0.07,2.66,0.34,0.86,0.41
20.124023,-0.04181251,0.0065333443,0.037231255,0.35,0.86,0.41,28516,10210.1,0,0,1,-0.28,0.49,2.52,0.35,0.86,0.41
19.72461,-0.04381251,0.0075333444,0.031231256,0.35,0.86,0.4,28532,10209.7,0,0,1,-0.42,0.56,2.1,0.35,0.86,0.4
17.424805,-0.2938125,0.004533344,0.026231257,0.35,0.86,0.41,28562,10207.4,0,0,1,-17.92,0.35,1.75,0.35,0.86,0.41
20.72461,-0.031812508,0.0065333443,0.030231256,0.35,0.86,0.41,28584,10210.7,0,0,1,0.42,0.49,2.03,0.35,0.86,0.41
19.72461,-0.027812509,0.0075333444,0.034231257,0.35,0.86,0.41,28606,10209.7,0,0,1,0.7,0.56,2.31,0.35,0.86,0.41
18.124023,-0.027812509,0.010533344,0.032231256,0.35,0.86,0.41,28621,10208.1,0,0,1,0.7,0.77,2.17,0.35,0.86,0.41
20.124023,-0.028812509,0.017533343,0.025231255,0.35,0.86,0.41,28644,10210.1,0,0,1,0.63,1.26,1.68,0.35,0.86,0.41
19.72461,-0.03081251,0.026533345,0.027231257,0.35,0.86,0.41,28683,10209.7,0,0,1,0.49,1.89,1.82,0.35,0.86,0.41
19.124023,-0.03081251,0.034533344,0.029231258,0.35,0.86,0.41,28684,10209.1,0,0,1,0.49,2.45,1.96,0.35,0.86,0.41
20.124023,-0.026812509,0.036533345,0.027231257,0.35,0.86,0.41,28704,10210.1,0,0,1,0.77,2.59,1.82,0.35,0.86,0.41
20.124023,-0.02581251,0.041533343,0.024231257,0.35,0.86,0.41,28719,10210.1,0,0,1,0.84,2.94,1.61,0.35,0.86,0.41
18.424805,-0.01981251,0.046533342,0.024231257,0.35,0.86,0.41,28741,10208.4,0,0,1,1.26,3.29,1.61,0.35,0.86,0.41
18.72461,-0.021812508,0.048533347,0.025231255,0.35,0.86,0.41,28765,10208.7,0,0,1,1.12,3.43,1.68,0.35,0.86,0.41
18.72461,-0.01781251,0.049533345,0.029231258,0.34,0.86,0.41,28771,10208.7,0,0,1,1.4,3.5,1.96,0.34,0.86,0.41
19.124023,-0.010812508,0.053533345,0.032231256,0.34,0.86,0.41,28809,10209.1,0,0,1,1.89,3.78,2.17,0.34,0.86,0.41
19.124023,-0.011812508,0.064533345,0.036231257,0.34,0.85,0.41,28816,10209.1,0,0,1,1.82,4.55,2.45,0.34,0.85,0.41
16.124023,-0.021812508,0.064533345,0.03923126,0.34,0.85,0.41,28843,10206.1,0,0,1,1.12,4.55,2.66,0.34,0.85,0.41
17.124023,-0.023812508,0.067533344,0.045231257,0.35,0.86,0.41,28870,10207.1,0,0,1,0.98,4.76,3.08,0.35,0.86,0.41
17.424805,-0.014812509,0.059533343,0.048231255,0.35,0.86,0.4,28892,10207.4,0,0,1,1.61,4.2,3.29,0.35,0.86,0.4
16.124023,-0.010812508,0.052533343,0.049231254,0.35,0.85,0.4,28929,10206.1,0,0,1,1.89,3.71,3.36,0.35,0.85,0.4
16.424805,-0.012812508,0.044533346,0.051231258,0.35,0.85,0.4,28936,10206.4,0,0,1,1.75,3.15,3.5,0.35,0.85,0.4
15.124023,-0.01381251,0.046533342,0.054231256,0.35,0.85,0.41,28938,10205.1,0,0,1,1.68,3.29,3.71,0.35,0.85,0.41
14.124023,-0.015812509,0.045533344,0.05523126,0.34,0.85,0.4,28959,10204.1,0,0,1,1.54,3.22,3.78,0.34,0.85,0.4
16.124023,-0.01981251,0.046533342,0.05523126,0.35,0.85,0.41,28974,10206.1,0,0,1,1.26,3.29,3.78,0.35,0.85,0.41
13.424805,-0.020812508,0.049533345,0.062231258,0.35,0.85,0.4,28989,10203.4,0,0,1,1.19,3.5,4.27,0.35,0.85,0.4
12.724609,-0.022812508,0.052533343,0.07123125,0.35,0.86,0.4,29004,10202.7,0,0,1,1.05,3.71,4.9,0.35,0.86,0.4
12.424805,-0.027812509,0.056533344,0.07423125,0.35,0.85,0.4,29027,10202.4,0,0,1,0.7,3.99,5.11,0.35,0.85,0.4
7.4248047,-0.04681251,0.049533345,0.07123125,0.35,0.85,0.41,29049,10197.4,0,0,1,-0.63,3.5,4.9,0.35,0.85,0.41
12.424805,-0.058812506,0.043533344,0.07123125,0.36,0.86,0.41,29068,10202.4,0,0,1,-1.47,3.08,4.9,0.36,0.86,0.41
8.724609,-0.06981251,0.04053334,0.07323125,0.36,0.86,0.4,29087,10198.7,0,0,1,-2.24,2.87,5.04,0.36,0.86,0.4
7.4248047,-0.076812506,0.034533344,0.06623126,0.36,0.86,0.4,29118,10197.4,0,0,1,-2.73,2.45,4.55,0.36,0.86,0.4
6.7246094,-0.08181251,0.025533345,0.053231258,0.36,0.85,0.41,29134,10196.7,0,0,1,-3.08,1.82,3.64,0.36,0.85,0.41
6.7246094,-0.08981251,0.021533344,0.049231254,0.36,0.85,0.41,29154,10196.7,0,0,1,-3.64,1.54,3.36,0.36,0.85,0.41
7.4248047,-0.10081251,0.0025333436,0.03923126,0.36,0.86,0.41,29184,10197.4,0,0,1,-4.41,0.21,2.66,0.36,0.86,0.41
4.7246094,-0.10381251,-0.0064666555,0.030231256,0.37,0.86,0.41,29215,10194.7,0,0,1,-4.62,-0.42,2.03,0.37,0.86,0.41
5.7246094,-0.09981251,-0.018466655,0.023231257,0.37,0.86,0.41,29216,10195.7,0,0,1,-4.34,-1.26,1.54,0.37,0.86,0.41
7.7246094,-0.09581251,-0.027466657,0.014231256,0.36,0.86,0.42,29221,10197.7,0,0,1,-4.06,-1.89,0.91,0.36,0.86,0.42
5.4248047,-0.09281251,-0.033466656,0.010231256,0.36,0.85,0.42,29244,10195.4,0,0,1,-3.85,-2.31,0.63,0.36,0.85,0.42
6.7246094,-0.09681251,-0.042466655,0.0052312566,0.36,0.85,0.42,29267,10196.7,0,0,1,-4.13,-2.94,0.28,0.36,0.85,0.42
7.024414,-0.09181251,-0.046466656,-0.005768744,0.36,0.85,0.41,29281,10197,0,0,1,-3.78,-3.22,-0.49,0.36,0.85,0.41
8.124023,-0.08481251,-0.052466657,-0.010768743,0.36,0.85,0.42,29296,10198.1,0,0,1,-3.29,-3.64,-0.84,0.36,0.85,0.42
7.7246094,-0.08181251,-0.057466656,-0.005768744,0.36,0.84,0.42,29319,10197.7,0,0,1,-3.08,-3.99,-0.49,0.36,0.84,0.42
6.7246094,-0.08681251,-0.06746666,-0.0017687435,0.35,0.84,0.43,29342,10196.7,0,0,1,-3.43,-4.69,-0.21,0.35,0.84,0.43
7.7246094,-0.08881251,-0.06746666,-0.0027687438,0.36,0.85,0.43,29372,10197.7,0,0,1,-3.57,-4.69,-0.28,0.36,0.85,0.43
6.7246094,-0.08581251,-0.07746666,-0.0017687435,0.36,0.85,0.43,29387,10196.7,0,0,1,-3.36,-5.39,-0.21,0.36,0.85,0.43
8.424805,-0.080812514,-0.08446666,-0.004768743,0.36,0.85,0.43,29418,10198.4,0,0,1,-3.01,-5.88,-0.42,0.36,0.85,0.43
8.724609,-0.083812505,-0.09546666,-0.005768744,0.36,0.84,0.43,29440,10198.7,0,0,1,-3.22,-6.65,-0.49,0.36,0.84,0.43
11.124023,-0.08281251,-0.10046666,0.0012312563,0.36,0.85,0.43,29462,10201.1,0,0,1,-3.15,-7,0,0.36,0.85,0.43
11.724609,-0.07981251,-0.10446666,0.0032312563,0.35,0.86,0.43,29463,10201.7,0,0,1,-2.94,-7.28,0.14,0.35,0.86,0.43
9.124023,-0.06981251,-0.10346666,-0.017768744,0.33,0.87,0.43,29484,10199.1,0,0,1,-2.24,-7.21,-1.33,0.33,0.87,0.43
8.424805,-0.06881251,-0.09146666,-0.037768744,0.32,0.86,0.43,29507,10198.4,0,0,1,-2.17,-6.37,-2.73,0.32,0.86,0.43
9.124023,-0.07781251,-0.07746666,-0.048768744,0.32,0.85,0.44,29515,10199.1,0,0,1,-2.8,-5.39,-3.5,0.32,0.85,0.44
8.124023,-0.09381251,-0.061466657,-0.04576874,0.33,0.83,0.44,29544,10198.1,0,0,1,-3.92,-4.27,-3.29,0.33,0.83,0.44
8.124023,-0.109812506,-0.041466653,-0.0017687435,0.34,0.83,0.43,29559,10198.1,0,0,1,-5.04,-2.87,-0.21,0.34,0.83,0.43
11.124023,-0.120812505,-0.039466657,0.040231258,0.36,0.83,0.43,29574,10201.1,0,0,1,-5.81,-2.73,2.73,0.36,0.83,0.43
11.124023,-0.12681252,-0.046466656,0.062231258,0.35,0.83,0.44,29604,10201.1,0,0,1,-6.23,-3.22,4.27,0.35,0.83,0.44
9.424805,-0.1288125,-0.06446666,0.047231257,0.35,0.84,0.43,29620,10199.4,0,0,1,-6.37,-4.48,3.22,0.35,0.84,0.43
10.124023,-0.1088125,-0.07446666,0.028231258,0.35,0.85,0.43,29649,10200.1,0,0,1,-4.97,-5.18,1.89,0.35,0.85,0.43
10.424805,-0.08681251,-0.06746666,0.026231257,0.36,0.84,0.44,29664,10200.4,0,0,1,-3.43,-4.69,1.75,0.36,0.84,0.44
11.124023,-0.08281251,-0.071466655,0.043231256,0.38,0.84,0.44,29687,10201.1,0,0,3,-3.15,-4.97,2.94,0.38,0.84,0.44
11.124023,-0.08581251,-0.07546666,0.051231258,0.39,0.84,0.44,29701,10201.1,0,0,3,-3.36,-5.25,3.5,0.39,0.84,0.44
12.424805,-0.08181251,-0.09046666,0.051231258,0.38,0.85,0.44,29717,10202.4,0,0,3,-3.08,-6.3,3.5,0.38,0.85,0.44
13.424805,-0.07081251,-0.09046666,0.03923126,0.38,0.85,0.44,29734,10203.4,0,0,3,-2.31,-6.3,2.66,0.38,0.85,0.44
13.424805,-0.06681251,-0.09346666,0.017231258,0.37,0.84,0.45,29754,10203.4,0,0,3,-2.03,-6.51,1.12,0.37,0.84,0.45
13.424805,-0.05781251,-0.09546666,-0.0007687438,0.37,0.85,0.44,29769,10203.4,0,0,3,-1.4,-6.65,-0.14,0.37,0.85,0.44
13.424805,-0.033812508,-0.07246666,-0.011768744,0.37,0.84,0.44,29799,10203.4,0,0,3,0.28,-5.04,-0.91,0.37,0.84,0.44
14.424805,-0.03781251,-0.059466656,-0.023768744,0.37,0.83,0.44,29815,10204.4,0,0,3,0,-4.13,-1.75,0.37,0.83,0.44
15.424805,-0.051812507,-0.054466657,-0.021768743,0.37,0.83,0.45,29852,10205.4,0,0,3,-0.98,-3.78,-1.61,0.37,0.83,0.45
14.424805,-0.061812505,-0.061466657,-0.027768742,0.36,0.84,0.45,29853,10204.4,0,0,3,-1.68,-4.27,-2.03,0.36,0.84,0.45
14.724609,-0.06981251,-0.059466656,-0.036768746,0.35,0.84,0.45,29867,10204.7,0,0,3,-2.24,-4.13,-2.66,0.35,0.84,0.45
16.824219,-0.06781251,-0.058466654,-0.043768745,0.35,0.85,0.46,29889,10206.8,0,0,3,-2.1,-4.06,-3.15,0.35,0.85,0.46
16.424805,-0.058812506,-0.057466656,-0.059768744,0.35,0.85,0.45,29904,10206.4,0,0,3,-1.47,-3.99,-4.27,0.35,0.85,0.45
18.824219,-0.033812508,-0.052466657,-0.06376875,0.35,0.86,0.44,29919,10208.8,0,0,3,0.28,-3.64,-4.55,0.35,0.86,0.44
18.124023,0.0031874888,-0.044466656,-0.054768745,0.35,0.86,0.44,29934,10208.1,0,0,3,2.87,-3.08,-3.92,0.35,0.86,0.44
19.824219,0.03118749,-0.03846666,-0.050768744,0.35,0.85,0.45,29949,10209.8,0,0,3,4.83,-2.66,-3.64,0.35,0.85,0.45
20.824219,0.051187493,-0.035466656,-0.033768743,0.35,0.85,0.45,29964,10210.8,0,0,3,6.23,-2.45,-2.45,0.35,0.85,0.45
19.824219,0.06118749,-0.036466654,-0.020768743,0.34,0.85,0.44,29979,10209.8,0,0,3,6.93,-2.52,-1.54,0.34,0.85,0.44
21.424805,0.07718749,-0.026466656,0.00023125624,0.33,0.85,0.45,30009,10211.4,0,0,3,8.05,-1.82,-0.07,0.33,0.85,0.45
24.824219,0.0921875,-0.009466656,0.019231256,0.33,0.85,0.45,30017,10214.8,0,0,3,9.1,-0.63,1.26,0.33,0.85,0.45
23.824219,0.10418748,0.0135333445,0.041231256,0.33,0.86,0.45,30034,10213.8,0,0,3,9.94,0.98,2.8,0.33,0.86,0.45
25.824219,0.12518749,0.04753334,0.052231256,0.33,0.85,0.45,30047,10215.8,0,0,3,11.41,3.36,3.57,0.33,0.85,0.45
29.824219,0.10018749,0.07153334,0.068231255,0.33,0.85,0.45,30062,10219.8,0,0,3,9.66,5.04,4.69,0.33,0.85,0.45
27.824219,0.12718749,0.10253334,0.065231256,0.32,0.85,0.44,30076,10217.8,0,0,3,11.55,7.21,4.48,0.32,0.85,0.44
28.124023,0.12618747,0.12253334,0.052231256,0.31,0.85,0.44,30099,10218.1,0,0,3,11.48,8.61,3.57,0.31,0.85,0.44
29.124023,0.10818749,0.13253334,0.021231256,0.3,0.84,0.45,30115,10219.1,0,0,3,10.22,9.31,1.4,0.3,0.84,0.45
28.824219,0.08518749,0.13953334,-0.0007687438,0.3,0.85,0.44,30137,10218.8,0,0,3,8.61,9.8,-0.14,0.3,0.85,0.44
36.22461,0.0861875,0.15053333,-0.004768743,0.29,0.86,0.43,30151,10226.2,0,0,3,8.68,10.57,-0.42,0.29,0.86,0.43
32.124023,0.1121875,0.18353334,-0.010768743,0.28,0.86,0.43,30166,10222.1,0,0,3,10.5,12.88,-0.84,0.28,0.86,0.43
32.124023,0.13718748,0.20653334,-0.007768743,0.29,0.87,0.42,30174,10222.1,0,0,3,12.25,14.49,-0.63,0.29,0.87,0.42
35.22461,0.16718748,0.23153333,0.014231256,0.31,0.87,0.41,30196,10225.2,0,0,3,14.35,16.24,0.91,0.31,0.87,0.41
32.124023,0.1841875,0.23253334,0.04623126,0.31,0.87,0.41,30219,10222.1,0,0,3,15.54,16.31,3.15,0.31,0.87,0.41
31.524414,0.2051875,0.23453335,0.08323125,0.32,0.87,0.39,30242,10221.5,0,0,3,17.01,16.45,5.74,0.32,0.87,0.39
31.524414,0.22918752,0.22753334,0.116231255,0.33,0.87,0.38,30250,10221.5,0,0,3,18.69,15.96,8.05,0.33,0.87,0.38
31.124023,0.2511875,0.21753335,0.14323124,0.34,0.87,0.37,30257,10221.1,0,0,3,20.23,15.26,9.94,0.34,0.87,0.37
28.124023,0.2611875,0.20053333,0.16823125,0.35,0.87,0.36,30271,10218.1,0,0,3,20.93,14.07,11.69,0.35,0.87,0.36
32.124023,0.26418748,0.18653335,0.20023125,0.36,0.86,0.36,30294,10222.1,0,0,3,21.14,13.09,13.93,0.36,0.86,0.36
32.124023,0.2561875,0.17153335,0.21523124,0.36,0.86,0.36,30309,10222.1,0,0,3,20.58,12.04,14.98,0.36,0.86,0.36
31.524414,0.22018749,0.15053333,0.20923126,0.36,0.85,0.36,30324,10221.5,0,0,3,18.06,10.57,14.56,0.36,0.85,0.36
31.124023,0.18118748,0.13853334,0.18923125,0.36,0.85,0.37,30339,10221.1,0,0,3,15.33,9.73,13.16,0.36,0.85,0.37
31.124023,0.15318748,0.12753335,0.16923125,0.36,0.85,0.37,30354,10221.1,0,0,3,13.37,8.96,11.76,0.36,0.85,0.37
30.124023,0.12618747,0.11453334,0.15223125,0.36,0.87,0.38,30369,10220.1,0,0,3,11.48,8.05,10.57,0.36,0.87,0.38
32.82422,0.106187485,0.108533345,0.13723126,0.35,0.89,0.38,30392,10222.8,0,0,3,10.08,7.63,9.52,0.35,0.89,0.38
30.524414,0.0991875,0.11253334,0.123231255,0.36,0.88,0.38,30407,10220.5,0,0,3,9.59,7.91,8.54,0.36,0.88,0.38
31.524414,0.096187495,0.12253334,0.11723125,0.36,0.85,0.39,30422,10221.5,0,0,3,9.38,8.61,8.12,0.36,0.85,0.39
32.524414,0.08818749,0.12753335,0.116231255,0.37,0.85,0.39,30437,10222.5,0,0,3,8.82,8.96,8.05,0.37,0.85,0.39
33.82422,0.07318749,0.12753335,0.11423125,0.37,0.85,0.38,30451,10223.8,0,0,3,7.77,8.96,7.91,0.37,0.85,0.38
31.524414,0.060187496,0.12653334,0.109231256,0.37,0.86,0.38,30475,10221.5,0,0,3,6.86,8.89,7.56,0.37,0.86,0.38
30.524414,0.059187494,0.12653334,0.11323126,0.38,0.85,0.38,30489,10220.5,0,0,3,6.79,8.89,7.84,0.38,0.85,0.38
30.824219,0.048187494,0.12053335,0.112231255,0.37,0.85,0.39,30512,10220.8,0,0,3,6.02,8.47,7.77,0.37,0.85,0.39
30.824219,0.041187495,0.12053335,0.11323126,0.37,0.85,0.39,30519,10220.8,0,0,3,5.53,8.47,7.84,0.37,0.85,0.39
30.524414,0.029187493,0.12253334,0.118231244,0.38,0.84,0.4,30534,10220.5,0,0,3,4.69,8.61,8.19,0.38,0.84,0.4
30.524414,0.01318749,0.118533336,0.12723126,0.37,0.85,0.41,30550,10220.5,0,0,3,3.57,8.33,8.82,0.37,0.85,0.41
29.824219,0.005187493,0.12453334,0.12523127,0.36,0.86,0.42,30572,10219.8,0,0,3,3.01,8.75,8.68,0.36,0.86,0.42
28.124023,0.015187491,0.14553334,0.123231255,0.35,0.86,0.42,30587,10218.1,0,0,3,3.71,10.22,8.54,0.35,0.86,0.42
29.22461,0.038187496,0.16353333,0.11523125,0.35,0.86,0.43,30603,10219.2,0,0,3,5.32,11.48,7.98,0.35,0.86,0.43
29.524414,0.06818749,0.18853334,0.13123126,0.36,0.86,0.43,30617,10219.5,0,0,3,7.42,13.23,9.1,0.36,0.86,0.43
27.824219,0.10718749,0.22353335,0.16423126,0.37,0.87,0.43,30632,10217.8,0,0,3,10.15,15.68,11.41,0.37,0.87,0.43
28.824219,0.17418748,0.28653336,0.22523126,0.35,0.88,0.43,30654,10218.8,0,0,3,14.84,20.09,15.68,0.35,0.88,0.43
31.824219,0.2351875,0.34553334,0.25023127,0.32,0.89,0.42,30669,10221.8,0,0,3,19.11,24.22,17.43,0.32,0.89,0.42
29.824219,0.2981875,0.40553334,0.25823125,0.33,0.89,0.4,30691,10219.8,0,0,3,23.52,28.42,17.99,0.33,0.89,0.4
31.22461,0.3401875,0.45253333,0.26623124,0.34,0.88,0.38,30706,10221.2,0,0,3,26.46,31.71,18.55,0.34,0.88,0.38
29.824219,0.3621875,0.49853337,0.29323125,0.38,0.84,0.39,30721,10219.8,0,0,3,28,34.93,20.44,0.38,0.84,0.39
29.824219,0.3601875,0.5395333,0.35023126,0.38,0.83,0.41,30737,10219.8,0,0,3,27.86,37.8,24.43,0.38,0.83,0.41
29.824219,0.34618747,0.58353335,0.38723126,0.36,0.85,0.42,30752,10219.8,0,0,3,26.88,40.88,27.02,0.36,0.85,0.42
30.22461,0.32718748,0.6405333,0.38023126,0.34,0.88,0.42,30767,10220.2,0,0,3,25.55,44.87,26.53,0.34,0.88,0.42
31.124023,0.3421875,0.74953336,0.36223125,0.32,0.88,0.42,30811,10221.1,0,0,3,26.6,52.5,25.27,0.32,0.88,0.42
29.22461,0.3821875,0.89953333,0.40623125,0.31,0.84,0.45,30813,10219.2,0,0,3,29.4,63,28.35,0.31,0.84,0.45
30.22461,0.4181875,1.1155334,0.51223123,0.3,0.82,0.47,30835,10220.2,0,0,3,31.92,78.12,35.77,0.3,0.82,0.47
29.824219,0.4181875,1.2995332,0.57123125,0.3,0.84,0.44,30856,10219.8,0,0,3,31.92,91,39.9,0.3,0.84,0.44
28.124023,0.4101875,1.4245332,0.56123126,0.33,0.86,0.41,30879,10218.1,0,0,3,31.36,99.75,39.2,0.33,0.86,0.41
30.22461,0.42018753,1.5135334,0.58023125,0.36,0.82,0.41,30902,10220.2,0,0,3,32.06,105.98,40.53,0.36,0.82,0.41
29.524414,0.4241875,1.6145333,0.6832313,0.39,0.8,0.41,30947,10219.5,0,0,3,32.34,113.05,47.74,0.39,0.8,0.41
30.524414,0.40918753,1.6805333,0.79823124,0.4,0.81,0.39,30950,10220.5,0,0,3,31.29,117.67,55.79,0.4,0.81,0.39
30.22461,0.38418752,1.6635333,0.78923124,0.43,0.81,0.37,30977,10220.2,0,0,3,29.54,116.48,55.16,0.43,0.81,0.37
29.22461,0.3501875,1.5915333,0.7532312,0.46,0.81,0.36,31000,10219.2,0,0,3,27.16,111.44,52.64,0.46,0.81,0.36
29.22461,0.3141875,1.5125333,0.7492313,0.48,0.8,0.37,31001,10219.2,0,0,3,24.64,105.91,52.36,0.48,0.8,0.37
29.22461,0.2801875,1.4485333,0.78423125,0.48,0.79,0.38,31015,10219.2,0,0,3,22.26,101.43,54.81,0.48,0.79,0.38
29.524414,0.2601875,1.4125334,0.8562312,0.46,0.8,0.39,31022,10219.5,0,0,3,20.86,98.91,59.85,0.46,0.8,0.39
28.524414,0.24818751,1.3605332,0.8952313,0.46,0.79,0.38,31044,10218.5,0,0,3,20.02,95.27,62.58,0.46,0.79,0.38
28.524414,0.22018749,1.2875334,0.90923125,0.47,0.77,0.41,31067,10218.5,0,0,3,18.06,90.16,63.56,0.47,0.77,0.41
28.524414,0.1521875,1.2075332,0.93123126,0.47,0.73,0.44,31089,10218.5,0,0,3,13.3,84.56,65.1,0.47,0.73,0.44
29.524414,0.023187492,1.1265333,0.9862312,0.49,0.7,0.44,31112,10219.5,0,0,3,4.27,78.89,68.95,0.49,0.7,0.44
27.524414,-0.0978125,1.0365332,1.0722313,0.51,0.66,0.45,31134,10217.5,0,0,3,-4.2,72.59,74.97,0.51,0.66,0.45
26.124023,-0.2278125,0.9605333,1.2122313,0.52,0.66,0.44,31149,10216.1,0,0,3,-13.3,67.27,84.77,0.52,0.66,0.44
26.524414,-0.25881252,0.88053334,1.2882313,0.47,0.82,0.36,31171,10216.5,0,0,3,-15.47,61.67,90.09,0.47,0.82,0.36
26.524414,-0.14081252,0.78853333,1.1792313,0.48,0.84,0.41,31194,10216.5,0,0,3,-7.21,55.23,82.46,0.48,0.84,0.41
25.824219,-0.09181251,0.7015333,1.0682313,0.5,0.79,0.46,31210,10215.8,0,0,3,-3.78,49.14,74.69,0.5,0.79,0.46
26.524414,-0.10281251,0.6135334,0.97323126,0.53,0.75,0.49,31232,10216.5,0,0,3,-4.55,42.98,68.04,0.53,0.75,0.49
26.824219,-0.13581252,0.53153336,0.8922312,0.53,0.76,0.48,31246,10216.8,0,0,3,-6.86,37.24,62.37,0.53,0.76,0.48
26.524414,-0.120812505,0.46053335,0.79223126,0.53,0.79,0.46,31261,10216.5,0,0,3,-5.81,32.27,55.37,0.53,0.79,0.46
25.824219,-0.055812508,0.39353335,0.69523126,0.55,0.76,0.49,31284,10215.8,0,0,3,-1.26,27.58,48.58,0.55,0.76,0.49
25.824219,-0.03281251,0.34353337,0.61223125,0.55,0.72,0.52,31307,10215.8,0,0,3,0.35,24.08,42.77,0.55,0.72,0.52
23.824219,-0.055812508,0.30053335,0.55223125,0.55,0.71,0.54,31330,10213.8,0,0,3,-1.26,21.07,38.57,0.55,0.71,0.54
24.524414,-0.08481251,0.26553336,0.48423126,0.54,0.71,0.53,31351,10214.5,0,0,3,-3.29,18.62,33.81,0.54,0.71,0.53
20.824219,-0.076812506,0.22953334,0.39423126,0.54,0.72,0.52,31366,10210.8,0,0,3,-2.73,16.1,27.51,0.54,0.72,0.52
22.124023,-0.049812507,0.20053333,0.33523124,0.55,0.7,0.55,31390,10212.1,0,0,3,-0.84,14.07,23.38,0.55,0.7,0.55
21.524414,-0.047812507,0.17453334,0.28523123,0.55,0.69,0.56,31412,10211.5,0,0,3,-0.7,12.25,19.88,0.55,0.69,0.56
