Pressure_Rel,GyroX_Rel,GyroY_Rel,GyroZ_Rel,AccX_Rel,AccY_Rel,AccZ_Rel,Timestamp,Pressure_abs,HeartRate,Oxygen,Status,GyroX,GyroY,GyroZ,AccX,AccY,AccZ
0,0,0,0,0,0,0,4242,9896.4,0,0,0,-26.6,-13.23,48.65,0.29,-1,-0.21
0,0,0,0,0,0,0,4250,9895.4,0,0,0,-115.22,-147.56,259.63,0.28,-1,-0.25
0,0,0,0,0,0,0,4267,9896.4,0,0,165,-60.34,-48.09,11.55,0.29,-0.93,-0.32
0,0,0,0,0,0,0,4280,9896.4,0,0,0,-53.2,-15.33,7,0.29,-0.87,-0.37
0,0,0,0,0,0,0,4287,9896.1,0,0,165,-33.04,-8.61,7.14,0.29,-0.85,-0.36
0,0,0,0,0,0,0,4302,9895.1,0,0,0,-17.71,-6.3,7.21,0.29,-0.85,-0.34
0,0,0,0,0,0,0,4317,9895.4,0,0,165,-10.85,-2.59,7.14,0.3,-0.86,-0.33
0,0,0,0,0,0,0,4324,9896.4,0,0,0,-6.44,-2.17,6.3,0.28,-0.86,-0.32
0,0,0,0,0,0,0,4340,9896.4,0,0,165,-6.72,-0.98,8.75,0.27,-0.99,-0.3
0,0,0,0,0,0,0,4354,9895.4,0,0,0,-11.97,2.87,8.54,0.3,-0.92,-0.26
0,0,0,0,0,0,0,4363,9895.4,0,0,165,-23.66,2.31,5.67,0.29,-0.92,-0.26
0,0,0,0,0,0,0,4377,9896.4,0,0,0,-29.33,-1.05,2.03,0.31,-0.88,-0.28
0,0,0,0,0,0,0,4399,9896.4,0,0,165,-19.74,-0.42,0.7,0.32,-0.86,-0.3
0,0,0,0,0,0,0,4401,9897.4,0,0,0,0.49,-2.87,2.31,0.32,-0.85,-0.31
0,0,0,0,0,0,0,4415,9896.4,0,0,165,8.54,-3.71,5.46,0.31,-0.85,-0.31
0,0,0,0,0,0,0,4430,9896.4,0,0,0,5.67,0.21,9.87,0.31,-0.88,-0.29
0,0,0,0,0,0,0,4437,9896.4,0,0,165,2.94,0.77,9.52,0.31,-0.95,-0.26
0,0,0,0,0,0,0,4453,9895.4,0,0,0,5.74,-2.38,3.43,0.3,-0.93,-0.27
0,0,0,0,0,0,0,4467,9896.4,0,0,165,0.56,-1.82,1.68,0.31,-0.92,-0.29
0,0,0,0,0,0,0,4475,9895.4,0,0,0,0.77,-0.77,-0.49,0.31,-0.89,-0.28
0,0,0,0,0,0,0,4493,9896.1,0,0,165,5.04,-2.52,17.78,0.32,-0.83,-0.28
0,0,0,0,0,0,0,4505,9895.4,0,0,0,8.54,-6.58,6.93,0.31,-0.86,-0.29
0,0,0,0,0,0,0,4513,9896.4,0,0,165,18.69,-7.14,10.08,0.3,-0.89,-0.29
0,0,0,0,0,0,0,4528,9896.4,0,0,0,25.13,-7.35,9.94,0.28,-0.93,-0.29
0,0,0,0,0,0,0,4542,9895.4,0,0,165,21.21,-7.77,10.01,0.27,-0.93,-0.3
0,0,0,0,0,0,0,4549,9895.4,0,0,0,10.71,-2.73,7.28,0.26,-0.97,-0.3
0,0,0,0,0,0,0,4565,9895.4,0,0,165,11.34,-1.89,0.28,0.25,-0.97,-0.3
0,0,0,0,0,0,0,4580,9897.4,0,0,0,12.32,-3.22,-4.97,0.26,-0.93,-0.32
0,0,0,0,0,0,0,4587,9896.4,0,0,165,10.08,-1.12,-6.3,0.26,-0.86,-0.34
0,0,0,0,0,0,0,4602,9895.1,0,0,0,16.03,4.06,-8.82,0.27,-0.9,-0.33
0,0,0,0,0,0,0,4617,9895.4,0,0,165,30.38,5.6,-11.83,0.28,-0.93,-0.29
0,0,0,0,0,0,0,4625,9895.4,0,0,0,42.07,3.29,-16.87,0.28,-0.98,-0.25
0,0,0,0,0,0,0,4639,9895.4,0,0,165,47.88,3.29,-26.95,0.29,-1.06,-0.23
0,0,0,0,0,0,0,4654,9896.4,0,0,0,56.42,2.03,-44.38,0.28,-1.12,-0.22
0,0,0,0,0,0,0,4662,9895.7,0,0,165,77.14,-2.94,-75.11,0.26,-1.13,-0.27
0,0,0,0,0,0,0,4677,9895.1,0,0,0,107.31,0.14,-100.87,0.26,-1.08,-0.32
0,0,0,0,0,0,0,4693,9895.4,0,0,165,132.58,8.61,-118.51,0.26,-1.06,-0.34
0,0,0,0,0,0,0,4699,9896.4,0,0,0,164.5,22.89,-138.53,0.28,-1.08,-0.32
0,0,0,0,0,0,0,4714,9896.4,0,0,165,208.88,38.57,-178.78,0.33,-1.09,-0.23
0,0,0,0,0,0,0,4729,9896.4,0,0,0,268.1,46.13,-239.4,0.37,-1.15,-0.11
0,0,0,0,0,0,0,4737,9895.4,0,0,165,331.59,39.27,-266.56,0.45,-0.96,-0.01
0,0,0,0,0,0,0,4752,9895.4,0,0,0,355.39,9.38,-267.89,0.46,-0.99,0.02
0,0,0,0,0,0,0,4767,9895.4,0,0,165,374.29,-6.51,-269.64,0.45,-1.04,0.02
0,0,0,0,0,0,0,4777,9895.4,0,0,0,374.01,-12.88,-261.31,0.47,-0.89,0.11
0,0,0,0,0,0,0,4789,9895.4,0,0,165,330.47,-17.5,-250.6,0.51,-0.75,0.17
0,0,0,0,0,0,0,4804,9894,0,0,0,278.46,-13.65,-253.96,0.54,-0.66,0.15
0,0,0,0,0,0,0,4812,9895.4,0,0,165,194.74,0.35,-246.82,0.58,-0.34,0.18
0,0,0,0,0,0,0,4827,9896.1,0,0,0,125.79,11.27,-233.31,0.63,-0.34,0.2
0,0,0,0,0,0,0,4843,9895.1,0,0,165,114.1,13.86,-222.53,0.71,-0.33,0.21
0,0,0,0,0,0,0,4850,9896.4,0,0,0,141.96,16.73,-209.51,0.72,-0.35,0.23
0,0,0,0,0,0,0,4865,9896.4,0,0,165,197.75,17.43,-210.21,0.76,-0.38,0.28
0,0,0,0,0,0,0,4879,9896.4,0,0,0,242.34,11.97,-218.75,0.71,-0.56,0.29
0,0,0,0,0,0,0,4887,9896.4,0,0,165,304.22,0.91,-261.1,0.69,-0.61,0.25
0,0,0,0,0,0,0,4902,9895.1,0,0,0,325.78,3.57,-282.31,0.69,-0.33,0.21
0,0,0,0,0,0,0,4917,9896.4,0,0,165,286.09,9.87,-286.44,0.69,-0.08,0.21
0,0,0,0,0,0,0,4924,9895.4,0,0,0,231.63,16.8,-268.38,0.71,0.09,0.28
0,0,0,0,0,0,0,4940,9896.4,0,0,165,203.42,14.28,-262.64,0.73,0.27,0.28
0,0,0,0,0,0,0,4955,9897.1,0,0,0,196.91,15.82,-222.95,0.8,0.49,0.3
0,0,0,0,0,0,0,4962,9897.4,0,0,165,228.9,26.81,-180.81,0.85,0.43,0.34
0,0,0,0,0,0,0,4977,9897.1,0,0,0,356.58,8.4,-152.95,0.84,0.44,0.39
0,0,0,0,0,0,0,4993,9896.4,0,0,165,471.45,-21.21,-119.14,0.99,0.77,0.43
0,0,0,0,0,0,0,5000,9896.1,0,0,0,553.84,-50.82,-61.18,0.88,0.44,0.47
0,0,0,0,0,0,0,5015,9896.4,0,0,165,619.01,-87.78,-60.13,0.87,0.62,0.53
0,0,0,0,0,0,0,5030,9897.4,0,0,0,586.32,-119.42,-36.47,0.87,0.58,0.31
0,0,0,0,0,0,0,5037,9896.4,0,0,165,541.24,-134.4,-37.17,0.81,0.51,0.16
0,0,0,0,0,0,0,5052,9895.4,0,0,0,483.28,-137.69,-45.5,0.86,0.61,0
0,0,0,0,0,0,0,5067,9896.1,0,0,165,428.82,-131.95,-43.12,0.85,0.56,-0.1
0,0,0,0,0,0,0,5075,9895.4,0,0,0,388.5,-124.95,-44.1,0.84,0.56,-0.22
0,0,0,0,0,0,0,5089,9896.4,0,0,165,328.58,-115.78,-40.6,0.82,0.55,-0.29
0,0,0,0,0,0,0,5105,9896.1,0,0,0,268.66,-103.67,-41.02,0.83,0.57,-0.35
0,0,0,0,0,0,0,5112,9895.1,0,0,165,170.52,-87.22,-34.51,0.84,0.7,-0.39
0,0,0,0,0,0,0,5128,9895.1,0,0,0,71.47,-66.64,-18.27,0.84,0.66,-0.46
0,0,0,0,0,0,0,5142,9896.4,0,0,165,-3.36,-44.59,-10.85,0.81,0.63,-0.46
0,0,0,0,0,0,0,5150,9897.4,0,0,0,-62.79,-25.69,-4.27,0.77,0.61,-0.45
0,0,0,0,0,0,0,5164,9896.1,0,0,165,-92.96,-11.2,-2.66,0.78,0.55,-0.4
0,0,0,0,0,0,0,5179,9896.4,0,0,0,-101.08,-10.08,-11.55,0.77,0.52,-0.36
0,0,0,0,0,0,0,5186,9896.4,0,0,165,-101.08,-6.37,-14.49,0.79,0.61,-0.38
0,0,0,0,0,0,0,5202,9896.4,0,0,0,-98.42,2.1,-8.33,0.82,0.62,-0.38
0,0,0,0,0,0,0,5218,9896.1,0,0,165,-77.56,10.5,-6.37,0.81,0.59,-0.3
0,0,0,0,0,0,0,5224,9896.1,0,0,0,-41.51,8.89,-5.11,0.82,0.6,-0.26
0,0,0,0,0,0,0,5240,9896.1,0,0,165,-18.83,7,0.42,0.82,0.59,-0.24
0,0,0,0,0,0,0,5254,9896.1,0,0,0,-0.14,2.17,3.29,0.8,0.52,-0.24
0,0,0,0,0,0,0,5263,9896.1,0,0,165,13.16,1.47,-0.56,0.8,0.52,-0.23
0,0,0,0,0,0,0,5277,9896.1,0,0,0,16.87,2.38,0.7,0.8,0.5,-0.21
0,0,0,0,0,0,0,5292,9896.4,0,0,165,15.33,1.89,0.77,0.8,0.51,-0.19
0,0,0,0,0,0,0,5299,9896.1,0,0,0,2.17,0,0.14,0.81,0.53,-0.19
0,0,0,0,0,0,0,5315,9895.1,0,0,165,-10.64,-1.82,0.98,0.83,0.53,-0.2
0,0,0,0,0,0,0,5329,9897.1,0,0,0,-15.68,-4.27,-2.45,0.8,0.54,-0.2
0,0,0,0,0,0,0,5337,9896.1,0,0,165,-21.56,-4.62,-2.66,0.8,0.57,-0.21
0,0,0,0,0,0,0,5352,9896.1,0,0,0,-36.61,-4.13,2.73,0.83,0.59,-0.2
0,0,0,0,0,0,0,5368,9896.1,0,0,165,-47.04,-6.72,0.63,0.79,0.53,-0.18
0,0,0,0,0,0,0,5375,9896.1,0,0,0,-47.53,-10.99,-14.21,0.8,0.56,-0.17
0,0,0,0,0,0,0,5389,9897.1,0,0,165,-53.27,-11.27,-9.1,0.79,0.54,-0.2
0,0,0,0,0,0,0,5405,9896.1,0,0,0,-40.88,-10.01,-12.18,0.79,0.55,-0.2
0,0,0,0,0,0,0,5412,9896.1,0,0,165,-22.96,-7.77,-10.5,0.79,0.57,-0.2
0,0,0,0,0,0,0,5427,9896.1,0,0,0,-11.9,-5.74,-8.82,0.8,0.58,-0.2
0,0,0,0,0,0,0,5442,9896.1,0,0,165,-12.95,-3.29,-8.4,0.79,0.59,-0.19
0,0,0,0,0,0,0,5450,9896.1,0,0,0,-15.82,-3.43,-8.54,0.78,0.58,-0.17
0,0,0,0,0,0,0,5465,9896.1,0,0,165,-18.9,-4.9,-6.58,0.8,0.61,-0.17
0,0,0,0,0,0,0,5480,9896.1,0,0,0,-24.99,-5.04,-4.97,0.78,0.56,-0.14
0,0,0,0,0,0,0,5487,9896.1,0,0,165,-29.47,-9.59,-4.48,0.8,0.62,-0.16
0,0,0,0,0,0,0,5503,9896.1,0,0,0,-35.14,-6.51,-5.04,0.79,0.57,-0.16
0,0,0,0,0,0,0,5517,9895.1,0,0,165,-31.92,-8.54,-6.37,0.79,0.58,-0.16
0,0,0,0,0,0,0,5525,9896.1,0,0,0,-29.61,-8.26,-5.11,0.78,0.59,-0.17
0,0,0,0,0,0,0,5539,9896.1,0,0,165,-34.44,-6.79,-3.64,0.79,0.61,-0.19
0,0,0,0,0,0,0,5555,9896.1,0,0,0,-47.67,-4.34,-9.8,0.76,0.61,-0.16
0,0,0,0,0,0,0,5562,9896.1,0,0,165,-83.02,-1.61,-7.77,0.79,0.66,-0.16
0,0,0,0,0,0,0,5577,9896.1,0,0,0,-109.62,-3.5,-12.6,0.78,0.62,-0.11
0,0,0,0,0,0,0,5592,9896.1,0,0,165,-120.89,-6.3,-15.19,0.8,0.63,-0.1
0,0,0,0,0,0,0,5600,9895.7,0,0,0,-116.97,-6.72,-10.99,0.82,0.61,-0.1
0,0,0,0,0,0,0,5615,9896.1,0,0,165,-94.92,-7.63,-9.8,0.78,0.6,-0.08
0,0,0,0,0,0,0,5630,9896.1,0,0,0,-79.8,-9.24,-6.02,0.79,0.65,-0.1
0,0,0,0,0,0,0,5637,9895.1,0,0,165,-72.73,-6.16,-2.87,0.77,0.64,-0.1
0,0,0,0,0,0,0,5652,9895.7,0,0,0,-59.85,-5.04,-2.59,0.78,0.63,-0.09
0,0,0,0,0,0,0,5668,9896.8,0,0,165,-39.41,-4.34,-2.03,0.77,0.62,-0.06
0,0,0,0,0,0,0,5675,9896.1,0,0,0,-14.35,-6.79,0.49,0.78,0.63,-0.07
0,0,0,0,0,0,0,5689,9896.1,0,0,165,7.28,-7.35,1.68,0.78,0.62,-0.08
0,0,0,0,0,0,0,5705,9895.7,0,0,0,19.6,-7.49,-1.54,0.76,0.59,-0.09
0,0,0,0,0,0,0,5715,9896.1,0,0,165,20.79,-5.81,-3.71,0.76,0.64,-0.09
0,0,0,0,0,0,0,5728,9896.1,0,0,0,1.26,-3.15,-2.17,0.76,0.63,-0.08
0,0,0,0,0,0,0,5742,9896.1,0,0,165,-7.42,-2.38,-6.37,0.77,0.61,-0.06
0,0,0,0,0,0,0,5751,9896.1,0,0,0,-4.83,-4.55,-9.31,0.77,0.64,-0.07
0,0,0,0,0,0,0,5764,9896.1,0,0,165,1.05,-6.23,-6.23,0.76,0.65,-0.1
0,0,0,0,0,0,0,5780,9896.1,0,0,0,6.02,-3.85,-4.48,0.75,0.65,-0.1
0,0,0,0,0,0,0,5787,9896.1,0,0,165,5.67,-2.24,-2.8,0.76,0.66,-0.1
0,0,0,0,0,0,0,5803,9895.7,0,0,0,2.1,-0.77,-3.01,0.75,0.63,-0.1
0,0,0,0,0,0,0,5818,9897.1,0,0,165,-0.91,0.56,-2.1,0.77,0.67,-0.09
0,0,0,0,0,0,0,5825,9896.1,0,0,0,-3.92,2.03,2.8,0.77,0.64,-0.07
0,0,0,0,0,0,0,5840,9895.1,0,0,165,-5.67,1.54,4.69,0.78,0.64,-0.05
0,0,0,0,0,0,0,5854,9895.7,0,0,0,-13.65,0.98,7.07,0.78,0.64,-0.05
0,0,0,0,0,0,0,5863,9895.7,0,0,165,-21.07,1.19,9.38,0.78,0.64,-0.06
0,0,0,0,0,0,0,5878,9895.7,0,0,0,-15.61,2.52,5.18,0.79,0.57,-0.03
0,0,0,0,0,0,0,5892,9895.7,0,0,165,-1.82,-3.29,-7.56,0.79,0.58,-0.04
0,0,0,0,0,0,0,5900,9896.1,0,0,0,-9.45,-2.8,-8.4,0.78,0.65,-0.05
0,0,0,0,0,0,0,5914,9896.1,0,0,165,-24.08,-1.33,-2.45,0.78,0.62,-0.06
0,0,0,0,0,0,0,5930,9897.1,0,0,0,-23.8,-0.21,-5.53,0.77,0.6,-0.08
0,0,0,0,0,0,0,5936,9897.1,0,0,165,-18.41,1.68,-0.49,0.78,0.61,-0.04
0,0,0,0,0,0,0,5952,9895.7,0,0,0,2.73,-1.05,-3.99,0.78,0.63,-0.04
0,0,0,0,0,0,0,5967,9895.7,0,0,165,19.67,-1.54,-6.16,0.77,0.61,-0.04
0,0,0,0,0,0,0,5974,9896.1,0,0,0,29.12,-3.01,-10.29,0.78,0.63,-0.01
0,0,0,0,0,0,0,5990,9895.7,0,0,165,19.88,-7,-7.98,0.78,0.66,-0
0,0,0,0,0,0,0,6004,9895.7,0,0,0,3.99,-9.52,-6.02,0.76,0.66,-0.01
0,0,0,0,0,0,0,6013,9896.1,0,0,165,-10.92,-12.53,-5.53,0.74,0.67,-0.04
0,0,0,0,0,0,0,6028,9896.8,0,0,0,-23.24,-14.63,-7.98,0.75,0.67,-0.1
0,0,0,0,0,0,0,6042,9895.7,0,0,165,-23.03,-9.1,-9.24,0.74,0.67,-0.1
0,0,0,0,0,0,0,6053,9896.1,0,0,0,-9.94,-7.63,-5.11,0.75,0.67,-0.09
0,0,0,0,0,0,0,6070,9894.7,0,0,165,1.05,-5.53,0.21,0.75,0.66,-0.08
0,0,0,0,0,0,0,6079,9896.8,0,0,0,3.29,-3.29,1.61,0.75,0.64,-0.08
0,0,0,0,0,0,0,6087,9895.7,0,0,165,-4.34,-2.1,1.4,0.73,0.63,-0.08
0,0,0,0,0,0,0,6102,9894.7,0,0,0,-12.88,1.89,0.63,0.75,0.62,-0.06
0,0,0,0,0,0,0,6117,9895.7,0,0,165,-17.15,0.77,2.59,0.76,0.62,-0.04
0,0,0,0,0,0,0,6125,9895.7,0,0,0,-13.72,-1.26,2.59,0.77,0.61,-0.04
0,0,0,0,0,0,0,6139,9895.7,0,0,165,-6.37,-3.08,-2.59,0.75,0.59,-0.05
0,0,0,0,0,0,0,6154,9896.8,0,0,0,-3.29,-4.06,-7.98,0.75,0.65,-0.06
0,0,0,0,0,0,0,6162,9896.1,0,0,165,-5.53,-2.94,-9.59,0.75,0.66,-0.06
0,0,0,0,0,0,0,6177,9894.7,0,0,0,-5.81,-3.22,-11.27,0.76,0.69,-0.04
0,0,0,0,0,0,0,6192,9896.8,0,0,165,-3.71,-4.41,-11.55,0.76,0.7,-0.03
0,0,0,0,0,0,0,6200,9895.7,0,0,0,0.35,-5.25,-9.59,0.76,0.71,-0.04
0,0,0,0,0,0,0,6215,9895.7,0,0,165,1.96,-2.45,-7.63,0.77,0.7,-0.03
0,0,0,0,0,0,0,6230,9895.7,0,0,0,-0.56,-3.43,-5.46,0.77,0.71,0
0,0,0,0,0,0,0,6237,9895.7,0,0,165,-5.11,-6.02,-0.63,0.77,0.7,-0.01
0,0,0,0,0,0,0,6251,9895.7,0,0,0,-7.21,-5.74,3.15,0.76,0.68,-0.03
0,0,0,0,0,0,0,6267,9895.7,0,0,165,-10.64,-4.62,6.09,0.76,0.69,-0.02
0,0,0,0,0,0,0,6275,9895.7,0,0,0,-18.9,-4.48,8.61,0.75,0.67,-0.02
0,0,0,0,0,0,0,6289,9896.1,0,0,165,-21.21,-4.2,7.28,0.75,0.64,-0.02
0,0,0,0,0,0,0,6304,9896.8,0,0,0,-20.09,-4.13,4.48,0.76,0.63,-0.02
0,0,0,0,0,0,0,6312,9895.4,0,0,165,-19.32,-4.06,2.24,0.76,0.65,-0.01
0,0,0,0,0,0,0,6327,9895.7,0,0,0,-20.23,-3.78,1.47,0.76,0.65,-0.01
0,0,0,0,0,0,0,6342,9895.7,0,0,165,-23.1,-3.78,2.1,0.76,0.66,-0
0,0,0,0,0,0,0,6349,9895.7,0,0,0,-27.3,-4.48,2.03,0.77,0.67,-0.02
0,0,0,0,0,0,0,6365,9895.7,0,0,165,-33.67,-3.01,4.9,0.75,0.62,-0.01
0,0,0,0,0,0,0,6379,9895.7,0,0,0,-27.37,-3.43,1.68,0.77,0.64,-0
0,0,0,0,0,0,0,6395,9895.7,0,0,165,-23.66,-3.85,3.43,0.76,0.63,0
0,0,0,0,0,0,0,6402,9895.7,0,0,0,-20.72,-3.92,2.66,0.78,0.65,-0
0,0,0,0,0,0,0,6418,9895.4,0,0,165,-20.86,-3.01,2.45,0.77,0.64,0
0,0,0,0,0,0,0,6425,9895.4,0,0,0,-19.46,-3.57,0.98,0.77,0.65,0.01
0,0,0,0,0,0,0,6439,9894.7,0,0,165,-19.18,-3.29,-1.26,0.77,0.67,0.02
0,0,0,0,0,0,0,6454,9896.8,0,0,0,-21.21,-3.36,-2.52,0.78,0.71,0.03
0,0,0,0,0,0,0,6462,9895.7,0,0,165,-24.57,-4.62,-0.42,0.78,0.7,0.03
0,0,0,0,0,0,0,6477,9895.7,0,0,0,-17.71,-6.37,-2.1,0.77,0.67,0.06
0,0,0,0,0,0,0,6493,9895.7,0,0,165,-17.92,-8.68,-6.02,0.79,0.71,0.04
0,0,0,0,0,0,0,6500,9896.8,0,0,0,-33.32,-10.5,-1.26,0.76,0.7,0.04
0,0,0,0,0,0,0,6515,9895.4,0,0,165,-41.16,-15.4,0.07,0.75,0.66,0
0,0,0,0,0,0,0,6530,9895.7,0,0,0,-36.33,-13.65,-0.84,0.75,0.67,-0
0,0,0,0,0,0,0,6537,9894.7,0,0,165,-30.31,-14.35,-1.47,0.74,0.65,0
0,0,0,0,0,0,0,6552,9896.8,0,0,0,-28.91,-15.47,-5.04,0.73,0.68,-0
0,0,0,0,0,0,0,6567,9895.7,0,0,165,-36.12,-15.82,-2.45,0.73,0.67,0
0,0,0,0,0,0,0,6575,9896.4,0,0,0,-34.79,-15.96,-1.68,0.74,0.67,0
0,0,0,0,0,0,0,6589,9894.7,0,0,165,-28.63,-14.98,0.42,0.74,0.66,-0
0,0,0,0,0,0,0,6605,9895.4,0,0,0,-23.87,-14.07,0.35,0.73,0.65,0
0,0,0,0,0,0,0,6613,9895.7,0,0,165,-23.87,-13.86,-3.15,0.73,0.66,0
0,0,0,0,0,0,0,6628,9895.7,0,0,0,-32.34,-13.09,-4.62,0.73,0.66,0
0,0,0,0,0,0,0,6643,9894.7,0,0,165,-37.31,-13.37,-6.51,0.73,0.67,0.02
0,0,0,0,0,0,0,6650,9894.4,0,0,0,-38.43,-14.49,-10.15,0.74,0.69,0.03
0,0,0,0,0,0,0,6665,9894.4,0,0,165,-33.88,-16.31,-10.85,0.75,0.68,0.04
0,0,0,0,0,0,0,6680,9895.4,0,0,0,-25.34,-16.59,-12.81,0.76,0.67,0.04
0,0,0,0,0,0,0,6687,9896.4,0,0,165,-18.41,-17.22,-14.14,0.75,0.67,0.04
0,0,0,0,0,0,0,6701,9895.7,0,0,0,-17.22,-0.28,-15.47,0.75,0.67,0.02
0,0,0,0,0,0,0,6716,9895.4,0,0,165,-21.84,-13.23,-12.74,0.74,0.69,0.03
0,0,0,0,0,0,0,6724,9896.4,0,0,0,-24.29,-12.95,-10.5,0.75,0.7,0.05
0,0,0,0,0,0,0,6739,9895.7,0,0,165,-24.29,-14.77,-9.52,0.74,0.7,0.03
0,0,0,0,0,0,0,6754,9895.7,0,0,0,-21,-15.61,-6.16,0.74,0.65,0.02
0,0,0,0,0,0,0,6770,9894.4,0,0,165,-14.35,-14.21,-7.7,0.73,0.67,0.01
0,0,0,0,0,0,0,6777,9894.4,0,0,0,-13.23,-11.48,-6.51,0.73,0.68,0.01
0,0,0,0,0,0,0,6793,9895.4,0,0,165,-12.53,-8.33,-3.85,0.73,0.66,0.02
0,0,0,0,0,0,0,6800,9895.4,0,0,0,-9.1,-7.98,-1.33,0.74,0.64,0.03
0,0,0,0,0,0,0,6819,9895.4,0,0,165,-7.42,-8.54,0.49,0.73,0.65,0.03
0,0,0,0,0,0,0,6829,9895.4,0,0,0,-8.96,-7.42,0.7,0.73,0.64,0.02
0,0,0,0,0,0,0,6837,9895.4,0,0,165,-9.17,-6.09,0.07,0.73,0.64,0.02
0,0,0,0,0,0,0,6852,9895.4,0,0,0,-5.39,-5.32,-1.96,0.73,0.63,0.01
0,0,0,0,0,0,0,6866,9895.4,0,0,165,-1.82,-3.36,-3.78,0.72,0.67,0
0,0,0,0,0,0,0,6874,9895.4,0,0,0,-7.63,-0.49,-1.26,0.72,0.68,0.02
0,0,0,0,0,0,0,6890,9895.4,0,0,165,-8.82,0.28,-2.17,0.72,0.67,0.03
0,0,0,0,0,0,0,6904,9895.4,0,0,0,-6.09,1.05,-2.17,0.72,0.69,0.03
0,0,0,0,0,0,0,6912,9894.4,0,0,165,-4.62,2.59,0.07,0.72,0.67,0.05
0,0,0,0,0,0,0,6931,9895.4,0,0,0,-1.47,2.17,0.21,0.72,0.65,0.07
0,0,0,0,0,0,0,6942,9895.4,0,0,165,-2.87,1.61,-1.61,0.72,0.65,0.07
0,0,0,0,0,0,0,6949,9895.4,0,0,0,-6.3,1.89,-2.94,0.73,0.66,0.07
0,0,0,0,0,0,0,6965,9895.4,0,0,165,-7.28,0.7,-3.01,0.72,0.65,0.07
0,0,0,0,0,0,0,6979,9895.4,0,0,0,-7.77,0.98,-3.08,0.72,0.65,0.06
0,0,0,0,0,0,0,6987,9894.4,0,0,165,-11.9,0.7,-3.5,0.69,0.69,0.09
-0.851071778355421,-0.18141875,0.021575,0.02033751,0.58,0.85,-0,10992,9890.7,0,0,0,-8.26,2.17,-1.82,0.58,0.85,-0
-0.04092943158627,-0.12541875,0.002574998,0.050337512,0.58,0.85,-0,11009,9891.7,0,0,165,-4.34,0.84,0.28,0.58,0.85,-0
0.175466974648944,-0.23741876,0.0075749997,0.08233751,0.58,0.86,0,11022,9891.7,0,0,0,-12.18,1.19,2.52,0.58,0.86,0
0.753076547269232,-0.42541873,0.0075749997,0.08633751,0.58,0.91,0.01,11034,9892.7,0,0,165,-25.34,1.19,2.8,0.58,0.91,0.01
-0.436532763545636,-0.71641874,0.0115749985,0.17933752,0.57,0.89,-0,11045,9890.4,0,0,0,-45.71,1.47,9.31,0.57,0.89,-0
-0.027362319070872,-0.85941875,0.028575001,0.21433751,0.59,0.89,0.02,11062,9891.4,0,0,165,-55.72,2.66,11.76,0.59,0.89,0.02
-0.101012482657746,-0.7944187,0.018575,0.24133751,0.59,0.89,0.03,11067,9891.4,0,0,0,-51.17,1.96,13.65,0.59,0.89,0.03
-0.12126358809639,-0.7094188,-0.0034250016,0.32133752,0.6,0.85,0,11082,9891.4,0,0,165,-45.22,0.42,19.25,0.6,0.85,0
-0.092597110702002,-0.61941874,0.026574997,0.33733752,0.6,0.8,0.01,11097,9891.4,0,0,0,-38.92,2.52,20.37,0.6,0.8,0.01
-0.045918724914684,-0.6864188,0.032574996,0.3303375,0.61,0.82,0.05,11106,9891.4,0,0,165,-43.61,2.94,19.88,0.61,0.82,0.05
0.134743415966316,-0.8314187,-0.018425,0.3403375,0.61,0.78,0.05,11122,9891.7,0,0,0,-53.76,-0.63,20.58,0.61,0.78,0.05
-0.0184409016827279,-0.91341877,-0.021425001,0.3173375,0.61,0.8,0.06,11138,9891.4,0,0,165,-59.5,-0.84,18.97,0.61,0.8,0.06
0.098059387387536,-0.9184187,-0.049425,0.27533752,0.6,0.77,0.05,11146,9891.7,0,0,0,-59.85,-2.8,16.03,0.6,0.77,0.05
-0.59630697950792,-0.74841875,-0.046425,0.20533751,0.6,0.77,0.05,11157,9890.4,0,0,165,-47.95,-2.59,11.13,0.6,0.77,0.05
0.368566500493532,-0.62441874,-0.046425,0.19433752,0.6,0.78,0.06,11172,9892.4,0,0,0,-39.27,-2.59,10.36,0.6,0.78,0.06
-0.647402699141144,-0.48741874,-0.106425,0.15033752,0.59,0.77,0.09,11179,9890.4,0,0,165,-29.68,-6.79,7.28,0.59,0.77,0.09
-0.149121285746886,-0.52041876,-0.13142501,0.17333752,0.58,0.78,0.07,11195,9891.4,0,0,0,-31.99,-8.54,8.89,0.58,0.78,0.07
-0.151480063591032,-0.64141876,-0.123425,0.2383375,0.58,0.81,0.07,11212,9891.4,0,0,165,-40.46,-7.98,13.44,0.58,0.81,0.07
-0.168643830544452,-0.88341874,-0.136425,0.3303375,0.56,0.77,0.09,11217,9891.4,0,0,0,-57.4,-8.89,19.88,0.56,0.77,0.09
-0.703387537558088,-1.1104188,-0.121425,0.3363375,0.59,0.88,0.1,11232,9890.4,0,0,165,-73.29,-7.84,20.3,0.59,0.88,0.1
0.256705037077724,-1.2104187,-0.106425,0.48733753,0.57,0.79,0.08,11247,9892.4,0,0,0,-80.29,-6.79,30.87,0.57,0.79,0.08
-0.767779108265504,-1.0604188,-0.047425,0.5403375,0.58,0.83,0.09,11255,9890.4,0,0,165,-69.79,-2.66,34.58,0.58,0.83,0.09
-0.763611198525812,-1.2054188,0.019574998,0.68733746,0.59,0.87,0.09,11270,9890.4,0,0,0,-79.94,2.03,44.87,0.59,0.87,0.09
-0.388951078487034,-1.5654187,0.171575,0.85833746,0.58,0.83,0.07,11285,9891.1,0,0,165,-105.14,12.67,56.84,0.58,0.83,0.07
-0.219883283187426,-1.9444187,0.364575,0.9563375,0.6,0.81,0.14,11300,9891.4,0,0,0,-131.67,26.18,63.7,0.6,0.81,0.14
-0.234856183962048,-2.1084185,0.38057497,1.0373375,0.64,0.75,0.17,11307,9891.4,0,0,165,-143.15,27.3,69.37,0.64,0.75,0.17
-0.288008516310714,-2.1364188,0.415575,1.1173375,0.67,0.75,0.22,11323,9891.4,0,0,0,-145.11,29.75,74.97,0.67,0.75,0.22
-0.855606501021218,-2.016419,0.395575,1.1653376,0.66,0.7,0.24,11339,9890.4,0,0,165,-136.71,28.35,78.33,0.66,0.7,0.24
-0.903997638355172,-1.8264188,0.383575,1.1283375,0.69,0.69,0.3,11346,9890.4,0,0,0,-123.41,27.51,75.74,0.69,0.69,0.3
-0.917102760081716,-1.7324188,0.328575,1.1653376,0.69,0.66,0.3,11363,9890.4,0,0,165,-116.83,23.66,78.33,0.69,0.66,0.3
-0.409694156289234,-1.7134187,0.320575,1.2433375,0.71,0.65,0.29,11367,9891.4,0,0,0,-115.5,23.1,83.79,0.71,0.65,0.29
-0.915040595172824,-1.7944187,0.42357498,1.3853376,0.67,0.58,0.28,11382,9890.4,0,0,165,-121.17,30.31,93.73,0.67,0.58,0.28
-0.456716967793339,-1.7914188,0.560575,1.3293375,0.69,0.58,0.34,11398,9891.4,0,0,0,-120.96,39.9,89.81,0.69,0.58,0.34
-1.02655877729892,-2.0134187,0.46557498,1.3183374,0.69,0.5,0.38,11413,9890.4,0,0,165,-136.5,33.25,89.04,0.69,0.5,0.38
-1.08570426041233,-2.3354187,0.339575,1.1493375,0.74,0.54,0.52,11420,9890.4,0,0,0,-159.04,24.43,77.21,0.74,0.54,0.52
-1.08881595990456,-2.7794185,0.082575,1.1563375,0.76,0.56,0.57,11435,9890.4,0,0,165,-190.12,6.44,77.7,0.76,0.56,0.57
-1.51458849791625,-2.8744187,-0.082425,1.0883375,0.8,0.52,0.51,11443,9889.4,0,0,0,-196.77,-5.11,72.94,0.8,0.52,0.51
-0.380228511754332,-2.5454187,-0.106425,1.0263375,0.76,0.37,0.47,11457,9891.4,0,0,165,-173.74,-6.79,68.6,0.76,0.37,0.47
0.27006325694807,-1.9604187,-0.069425,0.8333375,0.78,0.4,0.48,11473,9892.4,0,0,0,-132.79,-4.2,55.09,0.78,0.4,0.48
-0.459670318944554,-1.7024188,-0.110425,0.8303375,0.78,0.46,0.51,11480,9890.7,0,0,165,-114.73,-7.07,54.88,0.78,0.46,0.51
-0.54978992586158,-1.6204187,-0.149425,0.8973375,0.79,0.42,0.52,11494,9890.4,0,0,0,-108.99,-9.8,59.57,0.79,0.42,0.52
-0.065668266755802,-1.5534188,-0.199425,1.0103376,0.77,0.34,0.47,11510,9891.4,0,0,165,-104.3,-13.3,67.48,0.77,0.34,0.47
-0.160431665154504,-1.2614187,0.004574999,0.9563375,0.76,0.33,0.44,11517,9891.4,0,0,0,-83.86,0.98,63.7,0.76,0.33,0.44
-0.320835993423108,-1.0044188,0.140575,0.9903375,0.79,0.27,0.46,11536,9891.4,0,0,165,-65.87,10.5,66.08,0.79,0.27,0.46
-1.00963665990665,-0.77241874,0.23557499,0.90033746,0.78,0.19,0.5,11547,9890.4,0,0,0,-49.63,17.15,59.78,0.78,0.19,0.5
-1.17049898216256,-0.64541876,0.222575,0.65133744,0.79,0.17,0.6,11562,9890.4,0,0,165,-40.74,16.24,42.35,0.79,0.17,0.6
-1.75047986937761,-0.8614188,0.066575006,0.4993375,0.82,0.26,0.68,11571,9889.4,0,0,0,-55.86,5.32,31.71,0.82,0.26,0.68
-1.22747645080129,-1.1314188,-0.094425,0.44433752,0.81,0.23,0.65,11584,9890.4,0,0,165,-74.76,-5.95,27.86,0.81,0.23,0.65
-1.12323935651153,-1.0624187,-0.123425,0.34233752,0.81,0.19,0.59,11591,9890.4,0,0,0,-69.93,-7.98,20.72,0.81,0.19,0.59
-0.992037181208923,-0.80341876,-0.066425,0.2513375,0.81,0.22,0.59,11606,9890.4,0,0,165,-51.8,-3.99,14.35,0.81,0.22,0.59
-0.542076136816872,-0.63341874,-0.090425,0.2833375,0.81,0.23,0.59,11621,9891.1,0,0,0,-39.9,-5.67,16.59,0.81,0.23,0.59
-0.354909060902418,-0.53441876,-0.117425,0.2863375,0.79,0.21,0.57,11629,9891.4,0,0,165,-32.97,-7.56,16.8,0.79,0.21,0.57
-1.02880230993892,-0.5704188,-0.087425,0.28133753,0.78,0.21,0.57,11644,9890.1,0,0,0,-35.49,-5.46,16.45,0.78,0.21,0.57
-0.934685226924716,-0.6304187,-0.068425,0.26833752,0.79,0.21,0.59,11659,9890.4,0,0,165,-39.69,-4.13,15.54,0.79,0.21,0.59
-1.14517282625937,-0.65241873,-0.080424994,0.2843375,0.8,0.17,0.57,11667,9890.1,0,0,0,-41.23,-4.97,16.66,0.8,0.17,0.57
-0.693626455999588,-0.55341876,-0.081424996,0.2763375,0.79,0.19,0.6,11682,9891.1,0,0,165,-34.3,-5.04,16.1,0.79,0.19,0.6
-0.577137864565555,-0.56241876,-0.137425,0.33733752,0.8,0.2,0.6,11697,9891.4,0,0,0,-34.93,-8.96,20.37,0.8,0.2,0.6
-1.79847052352266,-0.55841875,-0.110425,0.32133752,0.81,0.19,0.61,11704,9889,0,0,165,-34.65,-7.07,19.25,0.81,0.19,0.61
-1.26036263833745,-0.56741875,-0.178425,0.32133752,0.8,0.16,0.61,11720,9890.1,0,0,0,-35.28,-11.83,19.25,0.8,0.16,0.61
-0.768447041155315,-0.5314187,-0.198425,0.3223375,0.79,0.16,0.58,11735,9891.1,0,0,165,-32.76,-13.23,19.32,0.79,0.16,0.58
-1.12841232728547,-0.45941874,-0.148425,0.24933751,0.81,0.14,0.57,11742,9890.4,0,0,0,-27.72,-9.73,14.21,0.81,0.14,0.57
-1.29181305009712,-0.50441873,-0.058425,0.23433751,0.82,0.2,0.64,11757,9890.1,0,0,165,-30.87,-3.43,13.16,0.82,0.2,0.64
-1.30151950450041,-0.59941876,-0.164425,0.27533752,0.83,0.18,0.64,11772,9890.1,0,0,0,-37.52,-10.85,16.03,0.83,0.18,0.64
-1.30192281682735,-0.53441876,-0.26142502,0.3053375,0.81,0.16,0.58,11787,9890.1,0,0,165,-32.97,-17.64,18.13,0.81,0.16,0.58
-1.14321625898747,-0.43841875,-0.257425,0.3673375,0.82,0.13,0.54,11794,9890.4,0,0,0,-26.25,-17.36,22.47,0.82,0.13,0.54
-1.13347727772654,-0.31941876,-0.209425,0.36233753,0.82,0.07,0.53,11810,9890.4,0,0,165,-17.92,-14,22.12,0.82,0.07,0.53
-1.13086172781513,-0.34141874,-0.176425,0.3273375,0.82,0.08,0.54,11817,9890.4,0,0,0,-19.46,-11.69,19.67,0.82,0.08,0.54
-1.29076509121845,-0.48441875,-0.136425,0.3083375,0.81,0.05,0.55,11832,9890.1,0,0,165,-29.47,-8.89,18.34,0.81,0.05,0.55
-1.31377853114072,-0.5424187,-0.063425004,0.19833753,0.83,0.07,0.57,11846,9890.1,0,0,0,-33.53,-3.78,10.64,0.83,0.07,0.57
-1.35050641975072,-0.5194187,-0.066425,0.17033751,0.84,0.05,0.6,11855,9890.1,0,0,165,-31.92,-3.99,8.68,0.84,0.05,0.6
-1.39997386474821,-0.30541876,-0.118425004,0.119337514,0.84,0.07,0.6,11869,9890.1,0,0,0,-16.94,-7.63,5.11,0.84,0.07,0.6
-1.45584205753426,-0.17441875,-0.140425,0.13333751,0.84,0.07,0.58,11884,9890.1,0,0,165,-7.77,-9.17,6.09,0.84,0.07,0.58
-1.50270278769009,0.014581256,-0.127425,0.03533751,0.83,0.07,0.53,11892,9890.1,0,0,0,5.46,-8.26,-0.77,0.83,0.07,0.53
-1.52005828451342,-0.07541875,-0.067425,0.06733751,0.83,0.09,0.54,11907,9890.1,0,0,165,-0.84,-4.06,1.47,0.83,0.09,0.54
-2.04591486156755,-0.25741875,-0.053425,0.08633751,0.83,0.08,0.56,11922,9889,0,0,0,-13.58,-3.08,2.8,0.83,0.08,0.56
-1.44310703160464,-0.26741874,-0.070425004,0.09233751,0.84,0.07,0.56,11930,9890.1,0,0,165,-14.28,-4.27,3.22,0.84,0.07,0.56
-1.39976307478751,-0.17941874,-0.080424994,-0.20866248,0.83,0.05,0.55,11945,9890.1,0,0,0,-8.12,-4.97,-17.85,0.83,0.05,0.55
-1.41283893237814,-0.18741876,-0.024425,0.03233751,0.84,0.05,0.58,11959,9890.1,0,0,165,-8.68,-1.05,-0.98,0.84,0.05,0.58
-1.50612679251605,-0.15041876,-0.067425,-0.010662489,0.84,0.07,0.6,11967,9890.1,0,0,0,-6.09,-4.06,-3.99,0.84,0.07,0.6
-1.65726190145017,-0.17441875,-0.065425,-0.010662489,0.84,0.09,0.6,11982,9890.1,0,0,165,-7.77,-3.92,-3.99,0.84,0.09,0.6
-2.35059952598034,-0.19341876,-0.093425,-0.0016624853,0.83,0.09,0.58,11997,9889,0,0,0,-9.1,-5.88,-3.36,0.83,0.09,0.58
-2.4101860983523,-0.21841875,-0.088425,0.013337512,0.83,0.1,0.56,12005,9889,0,0,165,-10.85,-5.53,-2.31,0.83,0.1,0.56
-2.34290161589649,-0.26841873,-0.047425,0.028337512,0.83,0.1,0.57,12020,9889,0,0,0,-14.35,-2.66,-1.26,0.83,0.1,0.57
-1.81793803948514,-0.23341875,-0.063425004,0.03133751,0.84,0.09,0.57,12034,9889.7,0,0,165,-11.9,-3.78,-1.05,0.84,0.09,0.57
-1.61018598246502,-0.09741875,-0.074425004,0.01833751,0.84,0.09,0.55,12046,9889.7,0,0,0,-2.38,-4.55,-1.96,0.84,0.09,0.55
-0.759532303324756,-0.06841875,-0.050425,0.04433751,0.83,0.09,0.55,12057,9891.1,0,0,165,-0.35,-2.87,-0.14,0.83,0.09,0.55
-0.720512492556946,-0.110418744,-0.046425,0.060337514,0.83,0.07,0.55,12072,9891.1,0,0,0,-3.29,-2.59,0.98,0.83,0.07,0.55
-1.83660244378052,-0.121418744,-0.051425003,0.050337512,0.82,0.06,0.56,12079,9889,0,0,165,-4.06,-2.94,0.28,0.82,0.06,0.56
-1.40128170778266,-0.15941873,-0.055425003,0.04633751,0.82,0.07,0.56,12095,9890.1,0,0,0,-6.72,-3.22,0,0.82,0.07,0.56
-1.69441186053206,-0.21241875,-0.048425004,0.05133751,0.83,0.08,0.57,12110,9889.7,0,0,165,-10.43,-2.73,0.35,0.83,0.08,0.57
-1.52363399114591,-0.19241874,-0.056424998,0.054337513,0.84,0.11,0.59,12116,9890.1,0,0,0,-9.03,-3.29,0.56,0.84,0.11,0.59
-2.03684438890033,-0.14441875,-0.090425,0.08933751,0.84,0.11,0.59,12131,9889,0,0,165,-5.67,-5.67,3.01,0.84,0.11,0.59
-0.918065204510812,-0.12241875,-0.114424996,0.16133751,0.83,0.09,0.55,12146,9891.1,0,0,0,-4.13,-7.35,8.05,0.83,0.09,0.55
-1.36136645686008,-0.032418743,-0.100425,0.16433752,0.84,0.13,0.54,12154,9890.1,0,0,165,2.17,-6.37,8.26,0.84,0.13,0.54
-2.05022344718512,-0.066418745,-0.046425,0.24533752,0.84,0.14,0.54,12169,9888.7,0,0,0,-0.21,-2.59,13.93,0.84,0.14,0.54
-0.894828264453069,-0.057418745,-0.037425004,0.3413375,0.85,0.09,0.55,12184,9891.1,0,0,165,0.42,-1.96,20.65,0.85,0.09,0.55
-1.47710355499139,0.120581254,-0.042425,0.3823375,0.84,0.03,0.54,12192,9890.1,0,0,0,12.88,-2.31,23.52,0.84,0.03,0.54
-2.11124610781281,0.26558125,-0.005425001,0.3223375,0.84,0.01,0.55,12207,9889,0,0,165,23.03,0.28,19.32,0.84,0.01,0.55
-1.61027269012407,0.23158124,0.044575,0.2873375,0.85,0.03,0.59,12222,9890.1,0,0,0,20.65,3.78,16.87,0.85,0.03,0.59
-2.30400761352463,0.11958127,0.036574997,0.24133751,0.85,0.02,0.63,12229,9888.7,0,0,165,12.81,3.22,13.65,0.85,0.02,0.63
-1.55288873221608,0.020581253,-0.014425001,0.1633375,0.85,0.04,0.63,12245,9890.1,0,0,0,5.88,-0.35,8.19,0.85,0.04,0.63
-1.48670688021156,-0.03941875,-0.075425,0.15033752,0.85,0.06,0.61,12259,9890.1,0,0,165,1.68,-4.62,7.28,0.85,0.06,0.61
-1.43813552151102,-0.059418745,-0.093425,0.15333751,0.85,0.08,0.59,12267,9890.1,0,0,0,0.28,-5.88,7.49,0.85,0.08,0.59
-1.42501139795741,0.042581253,-0.077425,0.16833751,0.86,0.08,0.57,12281,9890.1,0,0,165,7.42,-4.76,8.54,0.86,0.08,0.57
-2.14870405987479,0.25458124,-0.083425,0.24033752,0.85,0.11,0.58,12297,9888.7,0,0,0,22.26,-5.18,13.58,0.85,0.11,0.58
-1.50483772229575,0.44458127,-0.100425,0.31433752,0.85,0.11,0.58,12304,9890.1,0,0,165,35.56,-6.37,18.76,0.85,0.11,0.58
-1.58734868226043,0.4935813,-0.10542499,0.4083375,0.85,0.1,0.58,12320,9890.1,0,0,0,38.99,-6.72,25.34,0.85,0.1,0.58
-1.88939844123628,0.49458128,-0.147425,0.47833753,0.85,0.11,0.55,12334,9889.7,0,0,165,39.06,-9.66,30.24,0.85,0.11,0.55
-2.49915606859727,0.53558123,-0.140425,0.5553375,0.84,0.06,0.51,12342,9888.7,0,0,0,41.93,-9.17,35.63,0.84,0.06,0.51
-2.45039549957917,0.6845813,-0.104425,0.5473375,0.83,0.02,0.49,12357,9889,0,0,165,52.36,-6.65,35.07,0.83,0.02,0.49
-2.67897155703261,0.77858126,-0.028425002,0.5263375,0.83,0.02,0.49,12372,9888.7,0,0,0,58.94,-1.33,33.6,0.83,0.02,0.49
-2.22545623960286,0.63458127,0.017575,0.5273375,0.82,0.01,0.52,12379,9889.7,0,0,165,48.86,1.89,33.67,0.82,0.01,0.52
-2.73147437605117,0.30658126,0.025574999,0.4743375,0.82,-0.01,0.54,12394,9888.7,0,0,0,25.9,2.45,29.96,0.82,-0.01,0.54
-2.69041944877766,-0.026418746,0.0055749984,0.4043375,0.83,0.02,0.57,12409,9888.7,0,0,165,2.59,1.05,25.06,0.83,0.02,0.57
-2.4551206900704,-0.31441873,-0.028425002,0.3343375,0.83,0.02,0.56,12416,9889,0,0,0,-17.57,-1.33,20.16,0.83,0.02,0.56
-2.49574983666644,-0.31341875,-0.020425001,0.2713375,0.87,0.08,0.55,12432,9888.7,0,0,165,-17.5,-0.77,15.75,0.87,0.08,0.55
-1.89809063954408,-0.15041876,-0.0034250016,0.4263375,0.87,0.1,0.54,12447,9889.7,0,0,0,-6.09,0.42,26.6,0.87,0.1,0.54
-1.64581493180792,0.19258127,0.010574998,0.4963375,0.85,0.06,0.54,12454,9890.1,0,0,165,17.92,1.4,31.5,0.85,0.06,0.54
-1.84961268499403,0.57258123,0.044575,0.4733375,0.85,0.04,0.57,12470,9889.7,0,0,0,44.52,3.78,29.89,0.85,0.04,0.57
-2.54393440547329,0.67858124,0.020574998,0.42533752,0.84,0.02,0.58,12484,9888.4,0,0,165,51.94,2.1,26.53,0.84,0.02,0.58
-1.94767685791834,0.5955813,-0.013425002,0.31233752,0.84,0.02,0.59,12492,9889.7,0,0,0,46.13,-0.28,18.62,0.84,0.02,0.59
-2.48494713557588,0.38458127,-0.042425,0.2833375,0.85,0.06,0.59,12507,9888.7,0,0,165,31.36,-2.31,16.59,0.85,0.06,0.59
-1.99672122591275,0.37458125,-0.084425,0.3603375,0.86,0.05,0.58,12522,9889.7,0,0,0,30.66,-5.25,21.98,0.86,0.05,0.58
-1.98721543571164,0.61258125,-0.135425,0.3363375,0.84,-0,0.55,12537,9889.7,0,0,165,47.32,-8.82,20.3,0.84,-0,0.55
-2.46527240402858,0.6945813,-0.059425004,0.2783375,0.85,0.02,0.53,12546,9888.7,0,0,0,53.06,-3.5,16.24,0.85,0.02,0.53
-2.28990909551811,0.56658125,-0.047425,0.2873375,0.85,0,0.57,12558,9889,0,0,165,44.1,-2.66,16.87,0.85,0,0.57
-1.9196802723602,0.39758125,-0.079425,0.22233751,0.84,-0.01,0.6,12569,9889.7,0,0,0,32.27,-4.9,12.32,0.84,-0.01,0.6
-2.41142637951443,0.35058126,-0.11642499,0.097337514,0.86,-0.01,0.62,12584,9888.7,0,0,165,28.98,-7.49,3.57,0.86,-0.01,0.62
-1.41304460214781,0.41558123,-0.196425,-0.0046624877,0.87,0.02,0.6,12597,9890.7,0,0,0,33.53,-13.09,-3.57,0.87,0.02,0.6
-2.41079013665569,0.5815813,-0.266425,-0.08066249,0.86,0.02,0.6,12604,9888.7,0,0,165,45.15,-17.99,-8.89,0.86,0.02,0.6
-2.38661463409315,0.86658126,-0.33542502,-0.10366249,0.88,0.03,0.59,12619,9888.7,0,0,0,65.1,-22.82,-10.5,0.88,0.03,0.59
-1.83293146911639,1.1985812,-0.41342503,-0.22866249,0.84,0.01,0.55,12634,9889.7,0,0,165,88.34,-28.28,-19.25,0.84,0.01,0.55
-1.76168246739357,1.3495814,-0.37542504,-0.31166247,0.85,0.05,0.51,12642,9889.7,0,0,0,98.91,-25.62,-25.06,0.85,0.05,0.51
-1.69874516876027,1.3545812,-0.299425,-0.3896625,0.82,0.06,0.5,12657,9889.7,0,0,165,99.26,-20.3,-30.52,0.82,0.06,0.5
-1.66806203751818,1.1805813,-0.231425,-0.4366625,0.83,0.07,0.51,12671,9889.7,0,0,0,87.08,-15.54,-33.81,0.83,0.07,0.51
-1.67753335509024,1.1585813,-0.229425,-0.6286625,0.85,0.08,0.52,12682,9889.7,0,0,165,85.54,-15.4,-47.25,0.85,0.08,0.52
-1.71554574387949,1.2785813,-0.197425,-0.6396625,0.85,0.13,0.51,12694,9889.7,0,0,0,93.94,-13.16,-48.02,0.85,0.13,0.51
-1.75938937573697,1.4035813,-0.197425,-0.59966254,0.89,0.2,0.49,12710,9889.7,0,0,165,102.69,-13.16,-45.22,0.89,0.2,0.49
-2.29015858981741,1.3855813,-0.213425,-0.38666248,0.88,0.28,0.55,12716,9888.7,0,0,0,101.43,-14.28,-30.31,0.88,0.28,0.55
-1.80453754145966,1.3455812,-0.31642503,-0.20666248,0.88,0.26,0.5,12735,9889.7,0,0,165,98.63,-21.49,-17.71,0.88,0.26,0.5
-1.81502720738667,1.4115813,-0.32542503,-0.16566248,0.83,0.2,0.42,12751,9889.7,0,0,0,103.25,-22.12,-14.84,0.83,0.2,0.42
-1.83869095218905,1.3855813,-0.16142501,-0.14066249,0.84,0.22,0.41,12754,9889.7,0,0,165,101.43,-10.64,-13.09,0.84,0.22,0.41
-2.38402562885386,1.1605812,-0.106425,-0.13066249,0.86,0.27,0.46,12769,9888.7,0,0,0,85.68,-6.79,-12.39,0.86,0.27,0.46
-1.94604833904488,0.9835813,-0.14642501,-0.11866249,0.84,0.24,0.44,12786,9889.7,0,0,165,73.29,-9.59,-11.55,0.84,0.24,0.44
-2.5110885315879,0.9345813,-0.086425,-0.15466247,0.85,0.29,0.42,12792,9888.7,0,0,0,69.86,-5.39,-14.07,0.85,0.29,0.42
-2.56501838559124,0.80158126,-0.052425005,-0.13166249,0.85,0.32,0.42,12807,9888.7,0,0,165,60.55,-3.01,-12.46,0.85,0.32,0.42
-2.09837022104645,0.61258125,-0.013425002,-0.07566249,0.85,0.3,0.42,12822,9889.7,0,0,0,47.32,-0.28,-8.54,0.85,0.3,0.42
-2.60712420432082,0.46358126,-0.0004250016,-0.083662495,0.85,0.31,0.44,12830,9888.7,0,0,165,36.89,0.63,-9.1,0.85,0.31,0.44
-2.59256167233641,0.36058125,0.0115749985,-0.054662492,0.88,0.33,0.46,12844,9888.7,0,0,0,29.68,1.47,-7.07,0.88,0.33,0.46
-2.56216534631146,0.31258124,-0.045424998,0.0023375116,0.88,0.33,0.47,12860,9888.7,0,0,165,26.32,-2.52,-3.08,0.88,0.33,0.47
-2.17843571798546,0.42458126,-0.081424996,0.005337514,0.86,0.28,0.43,12872,9889.4,0,0,0,34.16,-5.04,-2.87,0.86,0.28,0.43
-2.30356118983298,0.61358124,-0.025425002,-0.00966249,0.86,0.27,0.42,12887,9889.1,0,0,165,47.39,-1.12,-3.92,0.86,0.27,0.42
-2.13934979698367,0.74758124,-0.008425001,-0.023662489,0.86,0.26,0.44,12904,9889.4,0,0,0,56.77,0.07,-4.9,0.86,0.26,0.44
-2.48028520029908,0.73858124,-0.043425,-0.07666248,0.86,0.27,0.45,12912,9888.7,0,0,165,56.14,-2.38,-8.61,0.86,0.27,0.45
-2.46633287933016,0.60258126,-0.075425,-0.107662484,0.86,0.3,0.43,12923,9888.7,0,0,0,46.62,-4.62,-10.78,0.86,0.3,0.43
-1.94487221454855,0.49758124,-0.059425004,-0.14166248,0.86,0.3,0.43,12938,9889.7,0,0,165,39.27,-3.5,-13.16,0.86,0.3,0.43
-2.07353366318184,0.5175812,-0.056424998,-0.21166247,0.85,0.27,0.42,12948,9889.4,0,0,0,40.67,-3.29,-18.06,0.85,0.27,0.42
-2.56726136473985,0.64058125,-0.036425002,-0.32266247,0.85,0.29,0.39,12957,9888.4,0,0,165,49.28,-1.89,-25.83,0.85,0.29,0.39
-1.94085574301275,0.6375812,-0.009425001,-0.3306625,0.85,0.37,0.41,12972,9889.7,0,0,0,49.07,0,-26.39,0.85,0.37,0.41
-2.50125419560438,0.48558128,-0.011425002,-0.2586625,0.86,0.39,0.41,12979,9888.7,0,0,165,38.43,-0.14,-21.35,0.86,0.39,0.41
-2.24123484024339,0.38358128,-0.012425001,-0.19766249,0.84,0.38,0.4,12996,9889.4,0,0,0,31.29,-0.21,-17.08,0.84,0.38,0.4
-2.83753292675032,0.44458127,0.020574998,-0.21266246,0.85,0.37,0.39,13013,9888.4,0,0,165,35.56,2.1,-18.13,0.85,0.37,0.39
-2.75715799735713,0.57458127,0.043574996,-0.21466249,0.83,0.37,0.41,13016,9888.7,0,0,0,44.66,3.71,-18.27,0.83,0.37,0.41
-2.92128169081139,0.62558126,0.032574996,-0.22366247,0.85,0.38,0.44,13032,9888.4,0,0,165,48.23,2.94,-18.9,0.85,0.38,0.44
-2.87020665959976,0.58358127,-0.019425001,-0.20266248,0.86,0.4,0.45,13047,9888.4,0,0,0,45.29,-0.7,-17.43,0.86,0.4,0.45
-2.26855434468736,0.46458125,-0.075425,-0.16066249,0.85,0.39,0.42,13054,9889.4,0,0,165,36.96,-4.62,-14.49,0.85,0.39,0.42
-2.65081020780256,0.44358128,-0.074425004,-0.19666249,0.83,0.37,0.38,13069,9888.4,0,0,0,35.49,-4.55,-17.01,0.83,0.37,0.38
-1.90826320672765,0.43958122,-0.032425,-0.21266246,0.84,0.4,0.39,13084,9889.7,0,0,165,35.21,-1.61,-18.13,0.84,0.4,0.39
-2.37327264729795,0.40958127,-0.034425,-0.16066249,0.85,0.41,0.39,13092,9888.7,0,0,0,33.11,-1.75,-14.49,0.85,0.41,0.39
-2.05735001419352,0.4705813,-0.045424998,-0.12466249,0.83,0.36,0.36,13106,9889.4,0,0,165,37.38,-2.52,-11.97,0.83,0.36,0.36
-2.145800902288,0.58958125,-0.0044250013,-0.15966249,0.84,0.45,0.39,13122,9889.4,0,0,0,45.71,0.35,-14.42,0.84,0.45,0.39
-2.75222563252311,0.51458126,-0.025425002,-0.07066248,0.83,0.46,0.4,13129,9888.4,0,0,165,40.46,-1.12,-8.19,0.83,0.46,0.4
-2.68442188253906,0.43758124,-0.026425002,-0.05766249,0.84,0.45,0.39,13146,9888.7,0,0,0,35.07,-1.19,-7.28,0.84,0.45,0.39
-2.86330165280705,0.37458125,-0.034425,-0.049662482,0.83,0.43,0.39,13161,9888.4,0,0,165,30.66,-1.75,-6.72,0.83,0.43,0.39
-2.68669332539623,0.33658126,-0.034425,-0.019662488,0.83,0.42,0.38,13166,9888.7,0,0,0,28,-1.75,-4.62,0.83,0.42,0.38
-2.62618302518799,0.34358126,-0.034425,-0.11266248,0.82,0.41,0.37,13182,9888.7,0,0,165,28.49,-1.75,-11.13,0.82,0.41,0.37
-2.21337764977917,0.27158126,-0.024425,-0.11966248,0.83,0.44,0.37,13197,9889.4,0,0,0,23.45,-1.05,-11.62,0.83,0.44,0.37
-2.67204618115093,0.22358125,-0.029425,-0.13066249,0.83,0.43,0.36,13204,9888.4,0,0,165,20.09,-1.4,-12.39,0.83,0.43,0.36
-2.15768554571096,0.20658123,-0.039425,-0.10666248,0.82,0.44,0.36,13224,9889.4,0,0,0,18.9,-2.1,-10.71,0.82,0.44,0.36
-2.66028308593263,0.19158125,-0.011425002,-0.09166248,0.82,0.47,0.37,13239,9888.4,0,0,165,17.85,-0.14,-9.66,0.82,0.47,0.37
-2.16523857321668,0.16458125,-0.034425,-0.110662475,0.84,0.48,0.39,13244,9889.4,0,0,0,15.96,-1.75,-10.99,0.84,0.48,0.39
-2.66490427125188,0.053581245,-0.083425,-0.06766249,0.83,0.47,0.38,13257,9888.4,0,0,165,8.19,-5.18,-7.98,0.83,0.47,0.38
-2.51305035255931,0.06558125,-0.098425,-0.08066249,0.83,0.46,0.38,13272,9888.7,0,0,0,9.03,-6.23,-8.89,0.83,0.46,0.38
-2.16829020039541,0.15858126,-0.127425,-0.107662484,0.83,0.45,0.35,13287,9889.4,0,0,165,15.54,-8.26,-10.78,0.83,0.45,0.35
-2.1829476417445,0.28758124,-0.100425,-0.15366249,0.82,0.45,0.32,13294,9889.4,0,0,0,24.57,-6.37,-14,0.82,0.45,0.32
-2.89522518139896,0.41758123,-0.064425,-0.14766249,0.81,0.47,0.31,13309,9888,0,0,165,33.67,-3.85,-13.58,0.81,0.47,0.31
-2.18534491717269,0.5265812,-0.029425,-0.21766248,0.81,0.47,0.32,13316,9889.4,0,0,0,41.3,-1.4,-18.48,0.81,0.47,0.32
-2.64428829512426,0.41358125,-0.046425,-0.20566249,0.82,0.51,0.33,13332,9888.4,0,0,165,33.39,-2.59,-17.64,0.82,0.51,0.33
-2.43516220221711,0.28958124,-0.048425004,-0.17366248,0.81,0.45,0.31,13347,9888.7,0,0,0,24.71,-2.73,-15.4,0.81,0.45,0.31
-2.04044207497051,0.33158123,-0.026425002,-0.24566248,0.81,0.49,0.34,13354,9889.4,0,0,165,27.65,-1.19,-20.44,0.81,0.49,0.34
-2.04232147998957,0.31858125,-0.077425,-0.2466625,0.82,0.53,0.36,13369,9889.4,0,0,0,26.74,-4.76,-20.51,0.82,0.53,0.36
-2.09783854388823,0.29458123,-0.114424996,-0.20366248,0.82,0.53,0.33,13385,9889.4,0,0,165,25.06,-7.35,-17.5,0.82,0.53,0.33
-2.68077881432129,0.30558124,-0.141425,-0.090662494,0.81,0.54,0.28,13392,9888.4,0,0,0,25.83,-9.24,-9.59,0.81,0.54,0.28
-2.94633384604543,0.35258126,-0.077425,-0.0776625,0.81,0.51,0.27,13407,9888,0,0,165,29.12,-4.76,-8.68,0.81,0.51,0.27
-2.2571188307795,0.29758126,-0.049425,-0.030662488,0.8,0.52,0.29,13422,9889.4,0,0,0,25.27,-2.8,-5.39,0.8,0.52,0.29
-2.70542856750228,0.20758125,-0.045424998,-0.029662494,0.8,0.52,0.29,13429,9888.4,0,0,165,18.97,-2.52,-5.32,0.8,0.52,0.29
-2.11403248114205,0.16858125,-0.012425001,-0.032662492,0.82,0.52,0.29,13445,9889.4,0,0,0,16.24,-0.21,-5.53,0.82,0.52,0.29
-2.52477849301563,0.24958125,-0.008425001,-0.06566249,0.82,0.53,0.32,13459,9888.4,0,0,165,21.91,0.07,-7.84,0.82,0.53,0.32
-1.97913912312467,0.35158125,-0.057425,-0.06566249,0.82,0.53,0.31,13467,9889.4,0,0,0,29.05,-3.36,-7.84,0.82,0.53,0.31
-1.99975348170031,0.40358123,-0.075425,-0.06166249,0.82,0.54,0.3,13482,9889.4,0,0,165,32.69,-4.62,-7.56,0.82,0.54,0.3
-2.08035565618933,0.42058128,-0.077425,-0.024662483,0.81,0.54,0.28,13497,9889.4,0,0,0,33.88,-4.76,-4.97,0.81,0.54,0.28
-2.89065967710947,0.48758125,-0.052425005,0.056337513,0.81,0.52,0.3,13505,9888,0,0,165,38.57,-3.01,0.7,0.81,0.52,0.3
-2.99311229611779,0.9605813,-0.064425,-0.047662485,0.81,0.51,0.29,13520,9888,0,0,0,71.68,-3.85,-6.58,0.81,0.51,0.29
-2.36161051355384,1.3075813,-0.101425,-0.047662485,0.8,0.52,0.28,13535,9889.4,0,0,165,95.97,-6.44,-6.58,0.8,0.52,0.28
-2.88721978169565,1.5335813,-0.127425,-0.100662485,0.82,0.53,0.27,13543,9888.4,0,0,0,111.79,-8.26,-10.29,0.82,0.53,0.27
-2.87150383092402,1.6305813,-0.145425,-0.06766249,0.79,0.51,0.23,13558,9888.4,0,0,165,118.58,-9.52,-7.98,0.79,0.51,0.23
-3.02028825323681,1.7115812,-0.155425,-0.1646625,0.79,0.57,0.21,13572,9888,0,0,0,124.25,-10.22,-14.77,0.79,0.57,0.21
-2.39013086773417,1.6495813,-0.114424996,-0.14266248,0.79,0.55,0.2,13580,9889.1,0,0,165,119.91,-7.35,-13.23,0.79,0.55,0.2
-2.28896335475803,1.6855812,-0.100425,-0.21166247,0.79,0.53,0.21,13594,9889.1,0,0,0,122.43,-6.37,-18.06,0.79,0.53,0.21
-2.52716306232099,1.7935814,-0.163425,-0.25966248,0.8,0.55,0.19,13610,9888.4,0,0,165,129.99,-10.78,-21.42,0.8,0.55,0.19
-1.92029213930567,1.8415813,-0.172425,-0.28966248,0.8,0.59,0.15,13617,9889.4,0,0,0,133.35,-11.41,-23.52,0.8,0.59,0.15
-1.83798703899594,1.7935814,-0.125425,-0.2516625,0.78,0.58,0.14,13631,9889.4,0,0,165,129.99,-8.12,-20.86,0.78,0.58,0.14
-1.95319363469181,1.7565813,-0.199425,-0.26866248,0.79,0.58,0.16,13647,9889.1,0,0,0,127.4,-13.3,-22.05,0.79,0.58,0.16
-1.83232734273402,1.7055813,-0.259425,-0.13366249,0.77,0.63,0.16,13662,9889.4,0,0,165,123.83,-17.5,-12.6,0.77,0.63,0.16
-2.07987585698338,1.7415812,-0.118425004,-0.32466248,0.73,0.49,0.12,13670,9889.1,0,0,0,126.35,-7.63,-25.97,0.73,0.49,0.12
-2.07590841234522,1.8415813,-0.35742503,-0.53966254,0.77,0.6,0.11,13684,9889.4,0,0,165,133.35,-24.36,-41.02,0.77,0.6,0.11
-2.73431382870012,1.8295811,-0.531425,-0.57666254,0.79,0.61,0.1,13692,9888.4,0,0,0,132.51,-36.54,-43.61,0.79,0.61,0.1
-3.06218080565494,1.8175812,-0.556425,-0.4666625,0.75,0.6,0.02,13707,9888,0,0,165,131.67,-38.29,-35.91,0.75,0.6,0.02
-3.129186634669,1.8555813,-0.579425,-0.61366254,0.76,0.65,-0.04,13722,9888,0,0,0,134.33,-39.9,-46.2,0.76,0.65,-0.04
-2.57986928113873,1.4665812,-0.601425,-0.59666246,0.79,0.75,-0.05,13729,9889.1,0,0,165,107.1,-41.44,-45.01,0.79,0.75,-0.05
-3.07979880560933,0.86358124,-0.449425,-0.4366625,0.75,0.67,-0.03,13744,9888,0,0,0,64.89,-30.8,-33.81,0.75,0.67,-0.03
-2.80622486295155,0.58558124,-0.582425,-0.63666254,0.75,0.64,-0.07,13759,9888.4,0,0,165,45.43,-40.11,-47.81,0.75,0.64,-0.07
-2.73473055821277,0.41058126,-0.54942495,-0.59766257,0.74,0.68,-0.08,13766,9888.4,0,0,0,33.18,-37.8,-45.08,0.74,0.68,-0.08
-2.18076985419907,0.38458127,-0.46742505,-0.5436625,0.72,0.65,-0.08,13782,9889.4,0,0,165,31.36,-32.06,-41.3,0.72,0.65,-0.08
-2.8474372290182,0.42758125,-0.415425,-0.5506625,0.73,0.65,-0.08,13797,9888,0,0,0,34.37,-28.42,-41.79,0.73,0.65,-0.08
-2.27748510307113,0.39358124,-0.437425,-0.5816625,0.71,0.69,-0.08,13804,9889.1,0,0,165,31.99,-29.96,-43.96,0.71,0.69,-0.08
-2.61051765338114,0.20158124,-0.421425,-0.5236625,0.69,0.67,-0.08,13819,9888.4,0,0,0,18.55,-28.84,-39.9,0.69,0.67,-0.08
-2.09261064534643,0.15258126,-0.46742505,-0.5576625,0.68,0.68,-0.1,13834,9889.4,0,0,165,15.12,-32.06,-42.28,0.68,0.68,-0.1
-2.5780403911667,0.07958126,-0.489425,-0.5056625,0.68,0.71,-0.11,13841,9888.4,0,0,0,10.01,-33.6,-38.64,0.68,0.71,-0.11
-2.58099208611653,0.05758126,-0.462425,-0.57266253,0.63,0.66,-0.13,13856,9888.4,0,0,165,8.47,-31.71,-43.33,0.63,0.66,-0.13
-2.26952073373339,0.120581254,-0.47142503,-0.6296625,0.66,0.73,-0.14,13872,9889.1,0,0,0,12.88,-32.34,-47.32,0.66,0.73,-0.14
-2.35271058153568,0.078581244,-0.461425,-0.57566255,0.65,0.76,-0.15,13882,9889.1,0,0,165,9.94,-31.64,-43.54,0.65,0.76,-0.15
-3.02257748238823,0.083581254,-0.485425,-0.50266254,0.65,0.78,-0.18,13894,9888,0,0,0,10.29,-33.32,-38.43,0.65,0.78,-0.18
-3.15250095015821,0.11458126,-0.440425,-0.4496625,0.65,0.79,-0.2,13909,9888,0,0,165,12.46,-30.17,-34.72,0.65,0.79,-0.2
-3.25674193665274,0.14158125,-0.345425,-0.3696625,0.65,0.78,-0.19,13917,9888,0,0,0,14.35,-23.52,-29.12,0.65,0.78,-0.19
-3.30549504181836,0.20058125,-0.31642503,-0.2976625,0.64,0.77,-0.16,13932,9888,0,0,165,18.48,-21.49,-24.08,0.64,0.77,-0.16
-3.28495077867689,0.19558123,-0.31442502,-0.24266249,0.63,0.75,-0.15,13947,9888,0,0,0,18.13,-21.35,-20.23,0.63,0.75,-0.15
-3.20088745862281,0.06858125,-0.334425,-0.1946625,0.63,0.76,-0.15,13954,9888,0,0,165,9.24,-22.75,-16.87,0.63,0.76,-0.15
-3.22622944664689,-0.15941873,-0.340425,-0.1496625,0.61,0.73,-0.17,13969,9887.7,0,0,0,-6.72,-23.17,-13.72,0.61,0.73,-0.17
-2.24359295396012,-0.28841874,-0.34942502,-0.16066249,0.63,0.75,-0.17,13984,9889.4,0,0,165,-15.75,-23.8,-14.49,0.63,0.75,-0.17
-2.8336386862492,-0.44641873,-0.378425,-0.115662485,0.63,0.78,-0.16,13991,9888,0,0,0,-26.81,-25.83,-11.34,0.63,0.78,-0.16
-2.21357112960254,-0.5664187,-0.40142503,-0.093662485,0.61,0.74,-0.19,14006,9889.1,0,0,165,-35.21,-27.44,-9.8,0.61,0.74,-0.19
-2.18391026425478,-0.49241877,-0.417425,-0.3606625,0.6,0.74,-0.25,14022,9889.1,0,0,0,-30.03,-28.56,-28.49,0.6,0.74,-0.25
-2.7334878395782,-0.51241875,-0.37742501,-0.28966248,0.63,0.85,-0.21,14029,9888,0,0,165,-31.43,-25.76,-23.52,0.63,0.85,-0.21
-2.19964419732883,-0.31941876,-0.404425,-0.2446625,0.6,0.79,-0.19,14045,9889.1,0,0,0,-17.92,-27.65,-20.37,0.6,0.79,-0.19
-2.22432219395223,-0.014418744,-0.429425,-0.2506625,0.61,0.81,-0.22,14061,9889.1,0,0,165,3.43,-29.4,-20.79,0.61,0.81,-0.22
-2.80736662281087,0.16558127,-0.355425,-0.16866249,0.6,0.83,-0.23,14076,9888,0,0,0,16.03,-24.22,-15.05,0.6,0.83,-0.23
-2.30247356525952,0.23758125,-0.279425,-0.085662484,0.59,0.79,-0.24,14083,9889.1,0,0,165,21.07,-18.9,-9.24,0.59,0.79,-0.24
-2.90893889977129,0.28558126,-0.179425,-0.049662482,0.6,0.78,-0.22,14096,9888,0,0,0,24.43,-11.9,-6.72,0.6,0.78,-0.22
-2.41956852925596,0.21958125,-0.155425,-0.048662487,0.59,0.8,-0.2,14105,9889.1,0,0,165,19.81,-10.22,-6.65,0.59,0.8,-0.2
-3.0175428045748,0.013581254,-0.167425,-0.002662491,0.59,0.8,-0.2,14118,9888,0,0,0,5.39,-11.06,-3.43,0.59,0.8,-0.2
-3.03642936244129,-0.12041874,-0.149425,-0.010662489,0.59,0.79,-0.2,14133,9888,0,0,165,-3.99,-9.8,-3.99,0.59,0.79,-0.2
-3.0187311306442,-0.15341875,-0.150425,-0.002662491,0.59,0.79,-0.21,14142,9888,0,0,0,-6.3,-9.87,-3.43,0.59,0.79,-0.21
-2.42325578776974,-0.12041874,-0.15142499,-0.024662483,0.57,0.77,-0.2,14157,9889.1,0,0,165,-3.99,-9.94,-4.97,0.57,0.77,-0.2
-3.07024261456739,-0.14041874,-0.159425,-0.044662487,0.59,0.84,-0.2,14171,9887.7,0,0,0,-5.39,-10.5,-6.37,0.59,0.84,-0.2
-2.33320997403012,-0.16741875,-0.16042499,-0.036662485,0.59,0.83,-0.23,14179,9889.1,0,0,165,-7.28,-10.57,-5.81,0.59,0.83,-0.23
-2.87437219397682,-0.09141874,-0.129425,-0.008662488,0.58,0.82,-0.24,14194,9888,0,0,0,-1.96,-8.4,-3.85,0.58,0.82,-0.24
-2.34417256653704,-0.032418743,-0.093425,0.025337512,0.58,0.82,-0.24,14209,9889.1,0,0,165,2.17,-5.88,-1.47,0.58,0.82,-0.24
-2.93129443370085,-0.031418744,-0.062425002,-0.013662487,0.59,0.78,-0.24,14217,9888,0,0,0,2.24,-3.71,-4.2,0.59,0.78,-0.24
-2.974915088324,-0.10241875,-0.056424998,0.01433751,0.58,0.8,-0.2,14232,9888,0,0,165,-2.73,-3.29,-2.24,0.58,0.8,-0.2
-3.02026297359574,-0.12441875,-0.084425,-0.033662487,0.59,0.8,-0.2,14246,9888,0,0,0,-4.27,-5.25,-5.6,0.59,0.8,-0.2
-2.51909465866471,-0.14041874,-0.102425,0.004337512,0.59,0.81,-0.2,14254,9889.1,0,0,165,-5.39,-6.51,-2.94,0.59,0.81,-0.2
-3.27033224283346,-0.09841874,-0.115425,0.02033751,0.59,0.81,-0.2,14270,9887.7,0,0,0,-2.45,-7.42,-1.82,0.59,0.81,-0.2
-3.31596876428779,-0.070418745,-0.117425,0.03133751,0.57,0.78,-0.22,14287,9887.7,0,0,165,-0.49,-7.56,-1.05,0.57,0.78,-0.22
-3.19092458128482,-0.06741875,-0.111425,-0.019662488,0.56,0.77,-0.23,14292,9888,0,0,0,-0.28,-7.14,-4.62,0.56,0.77,-0.23
-3.18286435375104,-0.16641875,-0.082425,-0.015662491,0.57,0.8,-0.21,14308,9888,0,0,165,-7.21,-5.11,-4.34,0.57,0.8,-0.21
-3.14077832110101,-0.18841875,-0.091424994,-0.036662485,0.58,0.79,-0.22,14323,9888,0,0,0,-8.75,-5.74,-5.81,0.58,0.79,-0.22
-3.07775392390551,-0.13841875,-0.084425,-0.054662492,0.61,0.84,-0.2,14329,9888,0,0,165,-5.25,-5.25,-7.07,0.61,0.84,-0.2
-3.01785174747683,-0.13541874,-0.140425,0.02733751,0.59,0.78,-0.18,14344,9888,0,0,0,-5.04,-9.17,-1.33,0.59,0.78,-0.18
-2.9863173803767,-0.055418745,-0.159425,0.0073375106,0.59,0.8,-0.19,14359,9888,0,0,165,0.56,-10.5,-2.73,0.59,0.8,-0.19
-2.44585308613288,-0.060418747,-0.189425,0.01233751,0.57,0.76,-0.21,14367,9889.1,0,0,0,0.21,-12.6,-2.38,0.57,0.76,-0.21
-3.03556788385435,-0.12941875,-0.177425,-0.00766249,0.58,0.82,-0.23,14381,9888,0,0,165,-4.62,-11.76,-3.78,0.58,0.82,-0.23
-3.22652333879225,-0.30841875,-0.16042499,0.060337514,0.57,0.81,-0.24,14397,9887.7,0,0,0,-17.15,-10.57,0.98,0.57,0.81,-0.24
-3.08916244236563,-0.36241874,-0.109425,0.07033751,0.54,0.8,-0.23,14404,9888,0,0,165,-20.93,-7,1.68,0.54,0.8,-0.23
-3.2149990980136,-0.5424187,-0.062425002,0.07633751,0.58,0.83,-0.25,14419,9887.7,0,0,0,-33.53,-3.71,2.1,0.58,0.83,-0.25
-3.02525689120165,-0.8984188,0.010574998,0.1283375,0.55,0.8,-0.21,14434,9888,0,0,165,-58.45,1.4,5.74,0.55,0.8,-0.21
-2.45553458693245,-1.1004187,-0.025425002,0.11433752,0.56,0.82,-0.19,14442,9889.1,0,0,0,-72.59,-1.12,4.76,0.56,0.82,-0.19
-3.03068751509337,-1.3344188,0.0055749984,0.19633752,0.59,0.85,-0.19,14457,9888,0,0,165,-88.97,1.05,10.5,0.59,0.85,-0.19
-3.24905344807577,-1.5794188,0.052575,0.24233752,0.56,0.8,-0.15,14472,9887.7,0,0,0,-106.12,4.34,13.72,0.56,0.8,-0.15
-3.48309581682695,-1.7464187,0.018575,0.2593375,0.58,0.79,-0.11,14479,9887.4,0,0,165,-117.81,1.96,14.91,0.58,0.79,-0.11
-3.24649592146481,-1.7824187,-0.019425001,0.24433751,0.59,0.82,-0.08,14494,9888,0,0,0,-120.33,-0.7,13.86,0.59,0.82,-0.08
-3.25957286784063,-1.8204187,-0.023425002,0.2633375,0.59,0.83,-0.07,14509,9888,0,0,165,-122.99,-0.98,15.19,0.59,0.83,-0.07
-3.36053656059191,-1.8154187,-0.043425,0.29833752,0.58,0.83,-0.07,14516,9887.7,0,0,0,-122.64,-2.38,17.64,0.58,0.83,-0.07
-3.25946546254424,-1.7864188,-0.018425,0.30733752,0.58,0.81,-0.06,14542,9887.7,0,0,165,-120.61,-0.63,18.27,0.58,0.81,-0.06
-3.13782928773701,-1.7894187,0.019574998,0.2953375,0.59,0.84,-0.02,14546,9887.7,0,0,0,-120.82,2.03,17.43,0.59,0.84,-0.02
-2.54045905886601,-1.8424187,0.002574998,0.3173375,0.59,0.82,0.01,14554,9888.7,0,0,165,-124.53,0.84,18.97,0.59,0.82,0.01
-2.50710078589134,-1.8224187,-0.035425,0.33233753,0.59,0.81,0.02,14568,9888.7,0,0,0,-123.13,-1.82,20.02,0.59,0.81,0.02
-3.05178538548408,-1.7694187,-0.041425005,0.34433752,0.59,0.78,0.03,14584,9887.7,0,0,165,-119.42,-2.24,20.86,0.59,0.78,0.03
-2.65290972039254,-1.6614188,-0.030425001,0.33533752,0.61,0.77,0.04,14591,9888.7,0,0,0,-111.86,-1.47,20.23,0.61,0.77,0.04
-3.26184850155266,-1.6084188,-0.014425001,0.3163375,0.6,0.78,0.08,14607,9887.7,0,0,165,-108.15,-0.35,18.9,0.6,0.78,0.08
-3.4767929485496,-1.5694187,-0.016425002,0.3083375,0.61,0.79,0.09,14622,9887.4,0,0,0,-105.42,-0.49,18.34,0.61,0.79,0.09
-3.31996152815129,-1.4094188,-0.016425002,0.32533753,0.63,0.77,0.11,14629,9887.7,0,0,165,-94.22,-0.49,19.53,0.63,0.77,0.11
-3.25077150986697,-1.0474187,-0.018425,0.3053375,0.63,0.76,0.12,14644,9887.7,0,0,0,-68.88,-0.63,18.13,0.63,0.76,0.12
-2.65969390857285,-0.6684187,0.012574999,0.3313375,0.63,0.77,0.13,14661,9888.7,0,0,165,-42.35,1.54,19.95,0.63,0.77,0.13
-3.09428608805865,-0.43241873,0.043574996,0.34233752,0.62,0.77,0.15,14667,9887.7,0,0,0,-25.83,3.71,20.72,0.62,0.77,0.15
-2.58479784309591,-0.45441875,0.027575,0.3553375,0.63,0.75,0.16,14682,9888.7,0,0,165,-27.37,2.59,21.63,0.63,0.75,0.16
-3.13299477373273,-0.69641876,0.056575,0.36333752,0.63,0.74,0.18,14697,9887.7,0,0,0,-44.31,4.62,22.19,0.63,0.74,0.18
-3.21802287041263,-0.84941876,0.035575002,0.3343375,0.63,0.7,0.19,14704,9887.7,0,0,165,-55.02,3.15,20.16,0.63,0.7,0.19
-3.31170169172387,-0.8664187,0.038574994,0.19633752,0.66,0.72,0.22,14720,9887.7,0,0,0,-56.21,3.36,10.5,0.66,0.72,0.22
-3.39156669396379,-0.91641873,-0.017425,0.15333751,0.65,0.74,0.23,14734,9887.7,0,0,165,-59.71,-0.56,7.49,0.65,0.74,0.23
-3.44525518119726,-0.9494187,-0.086425,0.16133751,0.65,0.76,0.21,14743,9887.7,0,0,0,-62.02,-5.39,8.05,0.65,0.76,0.21
-3.4687681559442,-1.0514188,-0.080424994,0.20833752,0.66,0.75,0.21,14762,9887.7,0,0,165,-69.16,-4.97,11.34,0.66,0.75,0.21
-3.96473953181789,-1.2034187,-0.072425,0.26133752,0.64,0.72,0.24,14780,9886.7,0,0,0,-79.8,-4.41,15.05,0.64,0.72,0.24
-3.44229266936978,-1.2894187,-0.084425,0.18633752,0.65,0.71,0.28,14787,9887.7,0,0,165,-85.82,-5.25,9.8,0.65,0.71,0.28
-3.41458964016953,-1.4014188,-0.112425,0.14433752,0.66,0.77,0.31,14794,9887.7,0,0,0,-93.66,-7.21,6.86,0.66,0.77,0.31
-3.39210795686767,-1.4264188,-0.19242501,0.1633375,0.68,0.75,0.29,14810,9887.7,0,0,165,-95.41,-12.81,8.19,0.68,0.75,0.29
-3.37667836528011,-1.4194187,-0.158425,0.16433752,0.65,0.75,0.29,14816,9887.7,0,0,0,-94.92,-10.43,8.26,0.65,0.75,0.29
-3.51291518779898,-1.4354187,-0.11642499,0.17233752,0.66,0.78,0.35,14832,9887.4,0,0,165,-96.04,-7.49,8.82,0.66,0.78,0.35
-3.84695826042028,-1.4234188,-0.138425,0.20033751,0.67,0.74,0.38,14846,9886.7,0,0,0,-95.2,-9.03,10.78,0.67,0.74,0.38
-2.83166135276032,-1.3094188,-0.197425,0.21933751,0.67,0.72,0.39,14854,9888.7,0,0,165,-87.22,-13.16,12.11,0.67,0.72,0.39
-3.32486044204081,-1.2234187,-0.23242499,0.2783375,0.67,0.71,0.37,14869,9887.7,0,0,0,-81.2,-15.61,16.24,0.67,0.71,0.37
-3.63115877619865,-1.2064188,-0.219425,0.3303375,0.66,0.69,0.37,14885,9887.1,0,0,165,-80.01,-14.7,19.88,0.66,0.69,0.37
-3.34617691349827,-1.2124188,-0.215425,0.39333752,0.66,0.66,0.38,14891,9887.7,0,0,0,-80.43,-14.42,24.29,0.66,0.66,0.38
-3.36218134642356,-1.2284188,-0.241425,0.43733752,0.67,0.62,0.4,14907,9887.7,0,0,165,-81.55,-16.24,27.37,0.67,0.62,0.4
-3.52112908882189,-1.2764188,-0.278425,0.4913375,0.67,0.62,0.39,14922,9887.4,0,0,0,-84.91,-18.83,31.15,0.67,0.62,0.39
-3.37162938126748,-1.4304187,-0.311425,0.5613375,0.65,0.63,0.39,14929,9887.7,0,0,165,-95.69,-21.14,36.05,0.65,0.63,0.39
-3.86937871778656,-1.7554188,-0.33342502,0.7233375,0.66,0.67,0.4,14944,9886.7,0,0,0,-118.44,-22.68,47.39,0.66,0.67,0.4
-2.87534206570116,-2.0274186,-0.35642502,0.9203375,0.67,0.69,0.39,14959,9888.7,0,0,165,-137.48,-24.29,61.18,0.67,0.69,0.39
-3.89879476069571,-2.214419,-0.38842502,1.1253375,0.68,0.67,0.4,14970,9886.7,0,0,0,-150.57,-26.53,75.53,0.68,0.67,0.4
-3.44119235233864,-2.1784186,-0.39042503,1.2453375,0.68,0.54,0.38,14983,9887.7,0,0,165,-148.05,-26.67,83.93,0.68,0.54,0.38
-3.99383974071337,-1.7844188,-0.23842502,1.0443375,0.69,0.42,0.38,15001,9886.7,0,0,0,-120.47,-16.03,69.86,0.69,0.42,0.38
-3.53955644526077,-1.5074188,-0.128425,0.8463375,0.72,0.47,0.44,15004,9887.7,0,0,165,-101.08,-8.33,56,0.72,0.47,0.44
-3.55758820483391,-1.4014188,-0.165425,0.77033746,0.72,0.47,0.48,15019,9887.7,0,0,0,-93.66,-10.92,50.68,0.72,0.47,0.48
-4.0331112554787,-1.3644187,-0.257425,0.7543375,0.74,0.46,0.5,15034,9886.7,0,0,165,-91.07,-17.36,49.56,0.74,0.46,0.5
-4.11955406390112,-1.3264188,-0.31342503,0.7193375,0.75,0.41,0.49,15041,9886.4,0,0,0,-88.41,-21.28,47.11,0.75,0.41,0.49
-3.54366189707148,-1.0944188,-0.329425,0.64533746,0.78,0.4,0.49,15057,9887.4,0,0,165,-72.17,-22.4,41.93,0.78,0.4,0.49
-2.99050582919759,-0.82141876,-0.338425,0.6243375,0.79,0.39,0.49,15071,9888.4,0,0,0,-53.06,-23.03,40.46,0.79,0.39,0.49
-2.9762040277303,-0.6214188,-0.37742501,0.6333375,0.76,0.4,0.47,15079,9888.4,0,0,165,-39.06,-25.76,41.09,0.76,0.4,0.47
-3.98142681684553,-0.5004188,-0.45642504,0.5823375,0.72,0.45,0.41,15094,9886.4,0,0,0,-30.59,-31.29,37.52,0.72,0.45,0.41
-3.46543855964357,-0.51541877,-0.396425,0.5843375,0.74,0.47,0.4,15111,9887.4,0,0,165,-31.64,-27.09,37.66,0.74,0.47,0.4
-3.40168780319808,-0.9214188,-0.31942502,0.7603375,0.81,0.46,0.48,15116,9887.4,0,0,0,-60.06,-21.7,49.98,0.81,0.46,0.48
-3.30495915752449,-0.99041873,-0.52742493,0.9333375,0.85,0.41,0.54,15132,9887.4,0,0,165,-64.89,-36.26,62.09,0.85,0.41,0.54
-2.7269062496318,-0.46441874,-0.566425,0.7273375,0.85,0.25,0.52,15147,9888.4,0,0,0,-28.07,-38.99,47.67,0.85,0.25,0.52
-2.72252805563656,0.37158126,-0.435425,0.3923375,0.84,0.2,0.5,15154,9888.4,0,0,165,30.45,-29.82,24.22,0.84,0.2,0.5
-3.31172288570225,1.2635813,-0.40142503,0.050337512,0.84,0.26,0.47,15169,9887.4,0,0,0,92.89,-27.44,0.28,0.84,0.26,0.47
-3.46230580745999,1.7325813,-0.340425,-0.10466248,0.85,0.27,0.46,15184,9887.4,0,0,165,125.72,-23.17,-10.57,0.85,0.27,0.46
-3.45522926011797,2.056581,-0.15142499,-0.31166247,0.87,0.21,0.53,15192,9887.7,0,0,0,148.4,-9.94,-25.06,0.87,0.21,0.53
-4.17171739289185,2.0865812,-0.185425,-0.45966247,0.87,0.33,0.57,15207,9886.4,0,0,165,150.5,-12.32,-35.42,0.87,0.33,0.57
-4.13232070658149,1.8655813,-0.292425,-0.5216625,0.85,0.33,0.49,15222,9886.4,0,0,0,135.03,-19.81,-39.76,0.85,0.33,0.49
-3.01219327228799,1.7375813,-0.34242502,-0.55966246,0.82,0.41,0.42,15230,9888.4,0,0,165,126.07,-23.31,-42.42,0.82,0.41,0.42
-3.37622315413135,1.5675812,-0.340425,-0.32266247,0.82,0.49,0.26,15244,9887.4,0,0,0,114.17,-23.17,-25.83,0.82,0.49,0.26
-3.29184508530074,1.6015813,-0.31642503,-0.43266246,0.8,0.44,0.32,15260,9887.4,0,0,165,116.55,-21.49,-33.53,0.8,0.44,0.32
-2.79284502843517,1.5665812,-0.20442499,-0.7496625,0.79,0.45,0.31,15267,9888.4,0,0,0,114.1,-13.65,-55.72,0.79,0.45,0.31
-3.36393890648845,1.2635813,-0.184425,-0.8796625,0.81,0.54,0.31,15282,9887.4,0,0,165,92.89,-12.25,-64.82,0.81,0.54,0.31
-3.4529842836137,1.0745813,-0.214425,-0.91266245,0.8,0.51,0.28,15297,9887.4,0,0,0,79.66,-14.35,-67.13,0.8,0.51,0.28
-4.00243472900647,1.2415812,-0.213425,-0.9996625,0.78,0.53,0.26,15307,9886.4,0,0,165,91.35,-14.28,-73.22,0.78,0.53,0.26
-3.48024422427029,1.2885813,-0.249425,-0.9556625,0.78,0.62,0.25,15319,9887.4,0,0,0,94.64,-16.8,-70.14,0.78,0.62,0.25
-2.89153801156385,1.1845813,-0.26142502,-0.87366253,0.78,0.61,0.24,15334,9888.4,0,0,165,87.36,-17.64,-64.4,0.78,0.61,0.24
-3.11859119182986,1.0535812,-0.264425,-0.8276625,0.77,0.63,0.22,15346,9887.7,0,0,0,78.19,-17.85,-61.18,0.77,0.63,0.22
-3.15235675380322,0.93658125,-0.245425,-0.8526625,0.77,0.59,0.21,15359,9887.4,0,0,165,70,-16.52,-62.93,0.77,0.59,0.21
-3.08081334904722,0.9885813,-0.28842503,-0.8296625,0.77,0.65,0.19,15372,9887.4,0,0,0,73.64,-19.53,-61.32,0.77,0.65,0.19
-2.58024259717811,1.0495813,-0.317425,-0.75266254,0.77,0.69,0.16,15379,9888.4,0,0,165,77.91,-21.56,-55.93,0.77,0.69,0.16
-2.65656051444705,1.1155813,-0.266425,-0.66366255,0.74,0.7,0.1,15394,9888.4,0,0,0,82.53,-17.99,-49.7,0.74,0.7,0.1
-3.2875533419992,1.1285813,-0.187425,-0.54766256,0.74,0.72,0.09,15410,9887.4,0,0,165,83.44,-12.46,-41.58,0.74,0.72,0.09
-3.42760712933132,1.2135812,-0.130425,-0.4156625,0.74,0.7,0.08,15417,9887.4,0,0,0,89.39,-8.47,-32.34,0.74,0.7,0.08
-4.0281800372349,1.3495814,-0.098425,-0.3236625,0.72,0.71,0.06,15432,9886.4,0,0,165,98.91,-6.23,-25.9,0.72,0.71,0.06
-3.56198093220478,1.2885813,-0.058425,-0.13566248,0.72,0.76,0.05,15447,9887.4,0,0,0,94.64,-3.43,-12.74,0.72,0.76,0.05
-3.53385046062015,1.1485811,0.023574999,-0.0056624897,0.72,0.73,0.05,15454,9887.4,0,0,165,84.84,2.31,-3.64,0.72,0.73,0.05
-3.62261892268347,1.1595813,0.073575,0.02933751,0.72,0.58,0.02,15469,9887.1,0,0,0,85.61,5.81,-1.19,0.72,0.58,0.02
-3.26002946336402,1.7145813,0.11857501,0.011337511,0.74,0.75,0.08,15484,9887.7,0,0,165,124.46,8.96,-2.45,0.74,0.75,0.08
-3.51852405226818,2.1625814,0.008574998,0.21233751,0.76,0.79,0.06,15492,9887.1,0,0,0,155.82,1.26,11.62,0.76,0.79,0.06
-3.35134416486398,2.4515815,0.009575,0.28933752,0.73,0.68,0.03,15507,9887.4,0,0,165,176.05,1.33,17.01,0.73,0.68,0.03
-3.35196282311753,2.610581,0.063575,0.22333752,0.72,0.67,0.03,15522,9887.4,0,0,0,187.18,5.11,12.39,0.72,0.67,0.03
-3.35810230990003,2.351581,0.071575,0.24833752,0.74,0.74,0.07,15529,9887.4,0,0,165,169.05,5.67,14.14,0.74,0.74,0.07
-3.35957275099579,1.9145813,-0.022425001,0.115337506,0.73,0.7,0.03,15544,9887.4,0,0,0,138.46,-0.91,4.83,0.73,0.7,0.03
-3.35076272831826,1.2865813,-0.067425,0.15533751,0.74,0.74,-0,15560,9887.4,0,0,165,94.5,-4.06,7.63,0.74,0.74,-0
-3.33164671780707,1.2275813,-0.091424994,0.17833751,0.73,0.69,-0.06,15567,9887.4,0,0,0,90.37,-5.74,9.24,0.73,0.69,-0.06
-3.30802711682653,1.2685813,-0.037425004,0.15833752,0.72,0.67,-0.07,15582,9887.4,0,0,165,93.24,-1.96,7.84,0.72,0.67,-0.07
-3.29070078802987,1.3705813,0.032574996,0.17533751,0.73,0.7,-0.09,15597,9887.4,0,0,0,100.38,2.94,9.03,0.73,0.7,-0.09
-3.2923363064969,1.2895813,0.041575,0.2253375,0.74,0.71,-0.07,15604,9887.4,0,0,165,94.71,3.57,12.53,0.74,0.71,-0.07
-3.32164596928496,1.0205812,0.043574996,0.22133751,0.72,0.69,-0.07,15619,9887.4,0,0,0,75.88,3.71,12.25,0.72,0.69,-0.07
-3.37695656160324,0.73758125,0.051574998,0.18333752,0.73,0.7,-0.08,15634,9887.4,0,0,165,56.07,4.27,9.59,0.73,0.7,-0.08
-3.44391033701167,0.49858123,0.077575006,0.18233752,0.73,0.71,-0.08,15642,9887.4,0,0,0,39.34,6.09,9.52,0.73,0.71,-0.08
-3.65212533169947,0.60258126,0.089575,0.16733752,0.74,0.65,-0.09,15657,9887.1,0,0,165,46.62,6.93,8.47,0.74,0.65,-0.09
-4.03682949767368,1.0665812,0.055575006,0.19233751,0.74,0.67,-0.11,15672,9886.4,0,0,0,79.1,4.55,10.22,0.74,0.67,-0.11
-4.20404752871133,1.7135812,0.094575,0.21133752,0.77,0.68,-0.1,15680,9886.1,0,0,165,124.39,7.28,11.55,0.77,0.68,-0.1
-3.0705875763239,2.1925812,0.027575,0.2853375,0.75,0.64,-0.1,15694,9888.4,0,0,0,157.92,2.59,16.73,0.75,0.64,-0.1
-3.75069365983459,2.2505813,-0.014425001,0.36933753,0.75,0.68,-0.11,15710,9887.1,0,0,165,161.98,-0.35,22.61,0.75,0.68,-0.11
-4.33178845630771,1.985581,-0.020425001,0.21433751,0.74,0.62,-0.19,15717,9886,0,0,0,143.43,-0.77,11.76,0.74,0.62,-0.19
-3.7814417531019,1.9285812,0.025574999,0.1303375,0.76,0.66,-0.23,15731,9887.1,0,0,165,139.44,2.45,5.88,0.76,0.66,-0.23
-4.06518959685988,2.147581,0.058575004,0.23633751,0.77,0.7,-0.26,15747,9886.4,0,0,0,154.77,4.76,13.3,0.77,0.7,-0.26
-3.42604437951887,2.4425812,0.099575005,0.3823375,0.8,0.73,-0.32,15754,9887.4,0,0,165,175.42,7.63,23.52,0.8,0.73,-0.32
-3.2427990288659,2.6925812,0.23157501,0.5093375,0.74,0.54,-0.34,15769,9887.4,0,0,0,192.92,16.87,32.41,0.74,0.54,-0.34
-3.22348055906288,2.925581,0.302575,0.4793375,0.76,0.58,-0.32,15784,9887.1,0,0,165,209.23,21.84,30.31,0.76,0.58,-0.32
-2.47844991258057,2.8535814,0.365575,0.5583375,0.75,0.46,-0.28,15792,9888.4,0,0,0,204.19,26.25,35.84,0.75,0.46,-0.28
-2.64569240096057,2.9095812,0.277575,0.37033752,0.74,0.47,-0.28,15807,9888.1,0,0,165,208.11,20.09,22.68,0.74,0.47,-0.28
-3.11648809212409,2.7905812,0.203575,0.21433751,0.76,0.49,-0.33,15821,9887.4,0,0,0,199.78,14.91,11.76,0.76,0.49,-0.33
-3.29472912419486,2.397581,0.095575,0.12533751,0.8,0.57,-0.31,15829,9887.4,0,0,165,172.27,7.35,5.53,0.8,0.57,-0.31
-4.16652276932603,1.6355813,0.042575,0.18233752,0.79,0.49,-0.36,15845,9886,0,0,0,118.93,3.64,9.52,0.79,0.49,-0.36
-3.72968791078507,1.1635813,0.073575,0.15433751,0.78,0.48,-0.4,15859,9887.1,0,0,165,85.89,5.81,7.56,0.78,0.48,-0.4
-3.75887325133516,0.7405812,0.139575,0.15533751,0.79,0.5,-0.4,15867,9887.1,0,0,0,56.28,10.43,7.63,0.79,0.5,-0.4
-3.70391826346701,0.31158125,0.171575,0.17933752,0.81,0.48,-0.41,15882,9887.1,0,0,165,26.25,12.67,9.31,0.81,0.48,-0.41
-3.92992919828525,0.017581254,0.210575,0.18933752,0.79,0.47,-0.4,15897,9886.4,0,0,0,5.67,15.4,10.01,0.79,0.47,-0.4
-3.41440432147014,-0.18741876,0.242575,0.17233752,0.78,0.46,-0.38,15904,9887.1,0,0,165,-8.68,17.64,8.82,0.78,0.46,-0.38
-2.7424319516097,-0.27041876,0.22557501,0.1593375,0.8,0.47,-0.37,15919,9888.1,0,0,0,-14.49,16.45,7.91,0.8,0.47,-0.37
-3.10714987871044,0.09458126,0.209575,0.09533751,0.8,0.44,-0.35,15934,9887.1,0,0,165,11.06,15.33,3.43,0.8,0.44,-0.35
-2.54834532257752,0.8715812,0.023574999,0.1303375,0.82,0.49,-0.41,15950,9888.1,0,0,0,65.45,2.31,5.88,0.82,0.49,-0.41
-2.59036884580031,1.3785813,0.072574995,0.19033751,0.81,0.48,-0.41,15957,9888.1,0,0,165,100.94,5.74,10.08,0.81,0.48,-0.41
-3.23268331039997,1.5635812,0.030574998,0.20533751,0.8,0.43,-0.38,15972,9887.1,0,0,0,113.89,2.8,11.13,0.8,0.43,-0.38
-3.44840468899776,1.4825813,0.008574998,0.19933751,0.8,0.39,-0.39,15984,9887.1,0,0,165,108.22,1.26,10.71,0.8,0.39,-0.39
-3.69182106083125,1.2475812,0.067575,0.3403375,0.79,0.34,-0.43,15999,9887.1,0,0,0,91.77,5.39,20.58,0.79,0.34,-0.43
-4.46171932670435,1.1845813,0.019574998,0.11033751,0.79,0.37,-0.41,16009,9886,0,0,165,87.36,2.03,4.48,0.79,0.37,-0.41
-4.61710874146679,0.6935813,0.025574999,0.10233751,0.78,0.36,-0.44,16016,9886,0,0,0,52.99,2.45,3.92,0.78,0.36,-0.44
-4.68759479340102,0.15258126,0.109574996,0.07133751,0.79,0.37,-0.44,16032,9886,0,0,165,15.12,8.33,1.75,0.79,0.37,-0.44
-4.67816808511502,-0.36641872,0.189575,0.025337512,0.79,0.35,-0.42,16047,9886,0,0,0,-21.21,13.93,-1.47,0.79,0.35,-0.42
-4.61419684097597,-0.44741872,0.199575,-0.0046624877,0.8,0.35,-0.38,16054,9886,0,0,165,-26.88,14.63,-3.57,0.8,0.35,-0.38
-4.53012951093614,-0.25041875,0.13257499,-0.03966249,0.81,0.38,-0.35,16069,9886,0,0,0,-13.09,9.94,-6.02,0.81,0.38,-0.35
-4.40601027183291,0.13658126,0.071575,-0.06766249,0.83,0.36,-0.33,16084,9886.1,0,0,165,14,5.67,-7.98,0.83,0.36,-0.33
-3.70531836067086,0.49458128,-0.080424994,-0.023662489,0.83,0.45,-0.4,16091,9887.4,0,0,0,39.06,-4.97,-4.9,0.83,0.45,-0.4
-4.37591190339774,0.62158126,-0.039425,-0.002662491,0.82,0.42,-0.42,16106,9886,0,0,165,47.95,-2.1,-3.43,0.82,0.42,-0.42
-4.50616932496729,0.74858123,-0.082425,0.008337509,0.82,0.42,-0.43,16122,9885.7,0,0,0,56.84,-5.11,-2.66,0.82,0.42,-0.43
-4.34307234258359,0.8715812,-0.092424996,0.03633751,0.82,0.42,-0.46,16130,9886,0,0,165,65.45,-5.81,-0.7,0.82,0.42,-0.46
-3.79397135354676,0.8605813,-0.078425,0.03133751,0.82,0.42,-0.45,16144,9887.1,0,0,0,64.68,-4.83,-1.05,0.82,0.42,-0.45
-3.81352557545165,0.7865813,-0.079425,0.043337513,0.81,0.4,-0.47,16159,9887.1,0,0,165,59.5,-4.9,-0.21,0.81,0.4,-0.47
-4.38747798616213,0.66058123,-0.014425001,0.043337513,0.81,0.38,-0.47,16166,9886,0,0,0,50.68,-0.35,-0.21,0.81,0.38,-0.47
-4.38328393497911,0.30958125,0.040574998,0.054337513,0.81,0.37,-0.46,16181,9886,0,0,165,26.11,3.5,0.56,0.81,0.37,-0.46
-4.47024345435132,-0.12041874,0.099575005,0.05833751,0.81,0.36,-0.45,16197,9885.7,0,0,0,-3.99,7.63,0.84,0.81,0.36,-0.45
-3.64474750816758,-0.50341874,0.16457501,0.043337513,0.81,0.36,-0.44,16204,9887.1,0,0,165,-30.8,12.18,-0.21,0.81,0.36,-0.44
-3.48455973424274,-0.59041876,0.159575,0.013337512,0.82,0.37,-0.42,16219,9887.1,0,0,0,-36.89,11.83,-2.31,0.82,0.37,-0.42
-3.33686448341064,-0.46241876,0.099575005,0.023337511,0.83,0.38,-0.41,16235,9887.1,0,0,165,-27.93,7.63,-1.61,0.83,0.38,-0.41
-3.24580177260955,-0.12541875,0.051574998,0.008337509,0.83,0.35,-0.45,16242,9887.1,0,0,0,-4.34,4.27,-2.66,0.83,0.35,-0.45
-3.23788299032755,0.14858125,0.059575,0.004337512,0.82,0.38,-0.39,16257,9887.1,0,0,165,14.84,4.83,-2.94,0.82,0.38,-0.39
-3.31658310907733,0.25258127,-0.058425,0.004337512,0.81,0.34,-0.44,16272,9887.1,0,0,0,22.12,-3.43,-2.94,0.81,0.34,-0.44
-3.6621981804751,0.28558126,-0.013425002,-0.013662487,0.81,0.38,-0.48,16279,9886.7,0,0,165,24.43,-0.28,-4.2,0.81,0.38,-0.48
-3.63649573823003,0.24058127,0.045575,0.013337512,0.82,0.38,-0.44,16294,9887.1,0,0,0,21.28,3.85,-2.31,0.82,0.38,-0.44
-4.33791554397203,0.21258125,0.017575,0.01233751,0.82,0.36,-0.44,16310,9886,0,0,165,19.32,1.89,-2.38,0.82,0.36,-0.44
-4.42110342051521,0.16758126,0.003574999,0.025337512,0.82,0.37,-0.45,16317,9886,0,0,0,16.17,0.91,-1.47,0.82,0.37,-0.45
-4.41356283936086,0.032581247,-0.005425001,0.03533751,0.82,0.36,-0.45,16332,9886,0,0,165,6.72,0.28,-0.77,0.82,0.36,-0.45
-4.47822656424349,-0.021418747,-0.018425,0.034337513,0.8,0.35,-0.47,16347,9885.7,0,0,0,2.94,-0.63,-0.84,0.8,0.35,-0.47
-3.65763244213939,-0.06541874,0.018575,0.045337513,0.8,0.36,-0.49,16355,9887.1,0,0,165,-0.14,1.96,-0.07,0.8,0.36,-0.49
-3.74862803417044,-0.16841874,0.093575,0.05333751,0.8,0.36,-0.47,16369,9886.7,0,0,0,-7.35,7.21,0.49,0.8,0.36,-0.47
-3.67966857539166,-0.19141875,0.112575,0.05933751,0.79,0.37,-0.47,16385,9886.7,0,0,165,-8.96,8.54,0.91,0.79,0.37,-0.47
-3.64648019515377,-0.23041874,0.172575,0.08133751,0.81,0.36,-0.46,16392,9886.7,0,0,0,-11.69,12.74,2.45,0.81,0.36,-0.46
-3.4246191272984,-0.24741875,0.187575,0.08633751,0.81,0.34,-0.42,16407,9887.1,0,0,165,-12.88,13.79,2.8,0.81,0.34,-0.42
-4.09242829798009,-0.28241873,0.196575,0.07133751,0.82,0.29,-0.46,16422,9885.7,0,0,0,-15.33,14.42,1.75,0.82,0.29,-0.46
-3.35453970641809,-0.114418745,0.245575,0.039337512,0.83,0.35,-0.37,16429,9887.1,0,0,165,-3.57,17.85,-0.49,0.83,0.35,-0.37
-3.33740736551217,-0.050418746,0.157575,0.07933751,0.83,0.35,-0.32,16445,9887.1,0,0,0,0.91,11.69,2.31,0.83,0.35,-0.32
-3.37027870689693,-0.18641874,0.085575,0.10033751,0.82,0.32,-0.37,16460,9887.1,0,0,165,-8.61,6.65,3.78,0.82,0.32,-0.37
-3.45650940633531,-0.35641876,0.079575,0.08133751,0.82,0.31,-0.4,16467,9887.1,0,0,0,-20.51,6.23,2.45,0.82,0.31,-0.4
-4.2637590660484,-0.47541875,0.117575005,0.04433751,0.81,0.31,-0.4,16482,9885.7,0,0,165,-28.84,8.89,-0.14,0.81,0.31,-0.4
-3.84202520412145,-0.70141876,0.139575,0.04633751,0.84,0.38,-0.4,16497,9886.7,0,0,0,-44.66,10.43,0,0.84,0.38,-0.4
-4.20453080538441,-1.0594187,0.14757499,0.10733751,0.85,0.38,-0.38,16504,9886,0,0,165,-69.72,10.99,4.27,0.85,0.38,-0.38
-4.30435594596159,-1.3704187,0.068575,0.1813375,0.88,0.36,-0.41,16520,9885.7,0,0,0,-91.49,5.46,9.45,0.88,0.36,-0.41
-3.73592680157109,-1.6694187,0.059575,0.18633752,0.85,0.4,-0.39,16534,9886.7,0,0,165,-112.42,4.83,9.8,0.85,0.4,-0.39
-3.50694827243349,-2.0944185,0.12657501,0.19233751,0.8,0.35,-0.37,16549,9887.1,0,0,0,-142.17,9.52,10.22,0.8,0.35,-0.37
-3.74828663751259,-2.568419,0.17357501,0.18333752,0.83,0.36,-0.38,16557,9886.7,0,0,165,-175.35,12.81,9.59,0.83,0.36,-0.38
-4.19310398253224,-3.2414188,0.290575,0.17533751,0.82,0.36,-0.35,16572,9886,0,0,0,-222.46,21,9.03,0.82,0.36,-0.35
-4.28297358946503,-3.7974186,0.34057498,0.18733752,0.83,0.37,-0.34,16579,9886,0,0,165,-261.38,24.5,9.87,0.83,0.37,-0.34
-4.60614143233546,-4.460419,0.426575,0.17533751,0.84,0.35,-0.25,16594,9885.4,0,0,0,-307.79,30.52,9.03,0.84,0.35,-0.25
-4.2354516343487,-4.720419,0.46557498,0.13533752,0.8,0.29,-0.2,16609,9886,0,0,165,-325.99,33.25,6.23,0.8,0.29,-0.2
-3.74010586200323,-4.593419,0.431575,0.056337513,0.8,0.35,-0.17,16617,9886.7,0,0,0,-317.1,30.87,0.7,0.8,0.35,-0.17
-3.37196696492653,-4.456419,0.446575,0.11333752,0.81,0.53,-0.19,16639,9887.1,0,0,165,-307.51,31.92,4.69,0.81,0.53,-0.19
-3.43162588461951,-4.613419,0.545575,0.31933752,0.85,0.67,-0.2,16654,9886.7,0,0,0,-318.5,38.85,19.11,0.85,0.67,-0.2
-3.34887775803159,-4.7504187,0.64957505,0.5143375,0.85,0.64,-0.16,16655,9886.7,0,0,165,-328.09,46.13,32.76,0.85,0.64,-0.16
-3.12612664647081,-4.397419,0.63557506,0.6433375,0.83,0.59,-0.13,16669,9887.1,0,0,0,-303.38,45.15,41.79,0.83,0.59,-0.13
-3.34864385497974,-3.8684187,0.626575,0.80733746,0.85,0.57,-0.11,16684,9886.7,0,0,165,-266.35,44.52,53.27,0.85,0.57,-0.11
-3.39917544034498,-3.2504187,0.675575,0.9153375,0.85,0.49,-0.07,16691,9886.7,0,0,0,-223.09,47.95,60.83,0.85,0.49,-0.07
-3.26071089648685,-2.5714188,0.736575,0.8853375,0.85,0.43,-0.03,16707,9887.1,0,0,165,-175.56,52.22,58.73,0.85,0.43,-0.03
-3.51605138539733,-1.8394188,0.777575,0.7693375,0.87,0.45,0.01,16714,9886.7,0,0,0,-124.32,55.09,50.61,0.87,0.45,0.01
-3.5509859966084,-1.5434188,0.808575,0.7643375,0.9,0.51,0.05,16729,9886.7,0,0,165,-103.6,57.26,50.26,0.9,0.51,0.05
-4.05751623970692,-1.4824188,0.83557504,0.92333746,0.9,0.46,0.09,16744,9885.7,0,0,0,-99.33,59.15,61.39,0.9,0.46,0.09
-3.54287130277169,-1.3714187,0.827575,0.98033744,0.89,0.39,0.09,16752,9886.7,0,0,165,-91.56,58.59,65.38,0.89,0.39,0.09
-3.52842232474784,-1.3314188,0.84857506,1.2343376,0.89,0.54,0.09,16775,9886.7,0,0,0,-88.76,60.06,83.16,0.89,0.54,0.09
-3.53689358865871,-1.5244187,1.006575,1.4943374,0.86,0.4,0.06,16782,9886.7,0,0,165,-102.27,71.12,101.36,0.86,0.4,0.06
-3.57622885381405,-1.7024188,1.174575,1.7753375,0.83,0.45,0.09,16789,9886.7,0,0,0,-114.73,82.88,121.03,0.83,0.45,0.09
-4.13353958547681,-2.0114188,1.3765749,2.1003375,0.82,0.39,0.12,16804,9885.7,0,0,165,-136.36,97.02,143.78,0.82,0.39,0.12
-3.68449672243305,-2.5624185,1.5105749,2.3463376,0.83,0.41,0.16,16819,9886.7,0,0,0,-174.93,106.4,161,0.83,0.41,0.16
-4.21097117062953,-3.1514187,1.6175749,2.5763376,0.77,0.31,0.2,16827,9885.7,0,0,165,-216.16,113.89,177.1,0.77,0.31,0.2
-4.21356327527544,-3.555419,1.609575,2.7583375,0.79,0.2,0.29,16842,9885.7,0,0,0,-244.44,113.33,189.84,0.79,0.2,0.29
-3.70954431039575,-3.8474188,1.578575,2.8083375,0.86,0.1,0.39,16857,9886.7,0,0,165,-264.88,111.16,193.34,0.86,0.1,0.39
-3.7179798961052,-4.097419,1.529575,2.7073376,0.88,-0.05,0.55,16865,9886.7,0,0,0,-282.38,107.73,186.27,0.88,-0.05,0.55
-4.24494632045391,-4.117419,1.110575,2.3263376,0.89,-0.15,0.65,16879,9885.7,0,0,165,-283.78,78.4,159.6,0.89,-0.15,0.65
-4.43172546753652,-4.2294188,0.702575,2.2313375,0.95,-0.13,0.65,16894,9885.4,0,0,0,-291.62,49.84,152.95,0.95,-0.13,0.65
-4.3161828328439,-4.4614186,0.425575,2.1343377,0.95,-0.1,0.64,16902,9885.7,0,0,165,-307.86,30.45,146.16,0.95,-0.1,0.64
-3.84245144258104,-4.810419,0.25457498,2.1493378,0.93,-0.11,0.6,16916,9886.7,0,0,0,-332.29,18.48,147.21,0.93,-0.11,0.6
-4.51274310128564,-4.906419,0.053575,2.1883376,0.9,-0.29,0.56,16932,9885.4,0,0,165,-339.01,4.41,149.94,0.9,-0.29,0.56
-4.3817035805766,-4.550419,-0.152425,1.9823376,0.86,-0.35,0.49,16939,9885.7,0,0,0,-314.09,-10.01,135.52,0.86,-0.35,0.49
-4.4015331886105,-4.0874186,-0.337425,1.8943375,0.82,-0.33,0.43,16955,9885.7,0,0,165,-281.68,-22.96,129.36,0.82,-0.33,0.43
-4.42333727671954,-3.602419,-0.41342503,1.9423375,0.83,-0.36,0.38,16969,9885.7,0,0,0,-247.73,-28.28,132.72,0.83,-0.36,0.38
-4.59822453763558,-3.101419,-0.46742505,1.9393374,0.79,-0.41,0.34,16978,9885.4,0,0,165,-212.66,-32.06,132.51,0.79,-0.41,0.34
-4.62734817574583,-2.4814186,-0.46042502,1.9193375,0.8,-0.48,0.29,16991,9885.4,0,0,0,-169.26,-31.57,131.11,0.8,-0.48,0.29
-4.50825968752864,-1.8944187,-0.382425,1.8303374,0.79,-0.55,0.29,17007,9885.7,0,0,165,-128.17,-26.11,124.88,0.79,-0.55,0.29
-4.53216054092297,-1.0584188,-0.36342502,1.7143375,0.81,-0.65,0.31,17014,9885.7,0,0,0,-69.65,-24.78,116.76,0.81,-0.65,0.31
-4.68729002819052,-0.2974187,-0.359425,1.4803375,0.79,-0.7,0.34,17029,9885.4,0,0,165,-16.38,-24.5,100.38,0.79,-0.7,0.34
-5.16926352697437,0.22958127,-0.371425,1.3253374,0.79,-0.72,0.37,17044,9884.4,0,0,0,20.51,-25.34,89.53,0.79,-0.72,0.37
-4.49067202540377,0.46458125,-0.396425,1.1743375,0.77,-0.73,0.36,17052,9885.7,0,0,165,36.96,-27.09,78.96,0.77,-0.73,0.36
-4.4785899373761,0.42858124,-0.39442503,1.0303375,0.74,-0.73,0.34,17067,9885.7,0,0,0,34.44,-26.95,68.88,0.74,-0.73,0.34
-4.65697118046926,0.38858125,-0.38142502,0.94633746,0.73,-0.72,0.31,17082,9885.4,0,0,165,31.64,-26.04,63,0.73,-0.72,0.31
-4.72547176354987,0.26058125,-0.341425,0.9203375,0.7,-0.69,0.3,17088,9885.4,0,0,0,22.68,-23.24,61.18,0.7,-0.69,0.3
-4.8024253173754,0.071581244,-0.26542503,0.9363375,0.69,-0.67,0.3,17104,9885.4,0,0,165,9.45,-17.92,62.3,0.69,-0.67,0.3
-5.34112072257686,-0.22041874,-0.21042499,0.9493375,0.7,-0.64,0.32,17119,9884.4,0,0,0,-10.99,-14.07,63.21,0.7,-0.64,0.32
-5.30858288134874,-0.34541875,-0.231425,0.8833375,0.69,-0.69,0.27,17126,9884.4,0,0,165,-19.74,-15.54,58.59,0.69,-0.69,0.27
-4.55703503479754,-0.5824188,-0.196425,0.9963375,0.69,-0.6,0.31,17142,9885.7,0,0,0,-36.33,-13.09,66.5,0.69,-0.6,0.31
-4.42183574534909,-0.6204188,-0.27042502,1.1283375,0.67,-0.69,0.29,17158,9885.7,0,0,165,-38.99,-18.27,75.74,0.67,-0.69,0.29
-4.30014867326449,-0.36541873,-0.35642502,1.1123375,0.66,-0.69,0.25,17164,9885.7,0,0,0,-21.14,-24.29,74.62,0.66,-0.69,0.25
-4.37586510073778,-0.34241876,-0.317425,1.1883376,0.66,-0.69,0.24,17179,9885.4,0,0,165,-19.53,-21.56,79.94,0.66,-0.69,0.24
-4.2083099469117,-0.41041875,-0.189425,1.1083374,0.65,-0.76,0.26,17195,9885.7,0,0,0,-24.29,-12.6,74.34,0.65,-0.76,0.26
-4.23415305988694,-0.42741874,-0.162425,0.8913375,0.64,-0.81,0.25,17201,9885.7,0,0,165,-25.48,-10.71,59.15,0.64,-0.81,0.25
-4.42854542996646,-0.49941877,-0.245425,0.7583375,0.63,-0.77,0.23,17217,9885.4,0,0,0,-30.52,-16.52,49.84,0.63,-0.77,0.23
-4.46546979585943,-0.5744187,-0.17042501,0.65033746,0.63,-0.76,0.19,17232,9885.4,0,0,165,-35.77,-11.27,42.28,0.63,-0.76,0.19
-3.97570575119449,-0.5554187,-0.026425002,0.5463375,0.64,-0.76,0.18,17240,9886.4,0,0,0,-34.44,-1.19,35,0.64,-0.76,0.18
-4.95474586041074,-0.41041875,0.035575002,0.44633752,0.62,-0.79,0.18,17254,9884.4,0,0,165,-24.29,3.15,28,0.62,-0.79,0.18
-4.41811651006625,-0.26841873,-0.0014250008,0.47133753,0.59,-0.71,0.17,17269,9885.4,0,0,0,-14.35,0.56,29.75,0.59,-0.71,0.17
-4.3982919054346,-0.37541875,0.032574996,0.6493375,0.61,-0.68,0.19,17276,9885.4,0,0,165,-21.84,2.94,42.21,0.61,-0.68,0.19
-3.92831092368183,-0.5014187,0.027575,0.7833375,0.58,-0.75,0.17,17292,9886.4,0,0,0,-30.66,2.59,51.59,0.58,-0.75,0.17
-4.51962975776164,-0.6214188,0.049575,0.9423375,0.61,-0.68,0.2,17307,9885.4,0,0,165,-39.06,4.13,62.72,0.61,-0.68,0.2
-5.15140241190931,-0.87641877,0.050574996,1.0373375,0.63,-0.73,0.25,17315,9884.4,0,0,0,-56.91,4.2,69.37,0.63,-0.73,0.25
-5.28059396446747,-0.9194187,-0.017425,1.0513375,0.62,-0.81,0.27,17329,9884.4,0,0,165,-59.92,-0.56,70.35,0.62,-0.81,0.27
-4.86428683497227,-0.7874187,-0.132425,0.95233744,0.61,-0.89,0.26,17345,9885.4,0,0,0,-50.68,-8.61,63.42,0.61,-0.89,0.26
-5.37799432232282,-0.7194187,-0.171425,0.8343375,0.59,-0.89,0.24,17352,9884.4,0,0,165,-45.92,-11.34,55.16,0.59,-0.89,0.24
-5.32208770937283,-0.9454188,-0.253425,0.8113375,0.58,-0.84,0.24,17367,9884.4,0,0,0,-61.74,-17.08,53.55,0.58,-0.84,0.24
-4.71858238861604,-1.1494187,-0.31442502,0.7933375,0.57,-0.91,0.2,17382,9885.4,0,0,165,-76.02,-21.35,52.29,0.57,-0.91,0.2
-5.10257653516871,-1.1094187,-0.37942502,0.6793375,0.55,-0.91,0.16,17390,9884.4,0,0,0,-73.22,-25.9,44.31,0.55,-0.91,0.16
-4.51064408053212,-0.9734188,-0.435425,0.5683375,0.52,-0.9,0.1,17405,9885.4,0,0,165,-63.7,-29.82,36.54,0.52,-0.9,0.1
-4.46843474431304,-0.9314187,-0.43242502,0.56433743,0.49,-0.85,0.05,17419,9885.4,0,0,0,-60.76,-29.61,36.26,0.49,-0.85,0.05
-4.48172839149629,-0.96641874,-0.33142504,0.6023375,0.49,-0.86,0.05,17427,9885.4,0,0,165,-63.21,-22.54,38.92,0.49,-0.86,0.05
-5.03568683056159,-0.9494187,-0.253425,0.5693375,0.5,-0.93,0.07,17442,9884.4,0,0,0,-62.02,-17.08,36.61,0.5,-0.93,0.07
-4.60307130450589,-0.8944187,-0.27542502,0.4803375,0.48,-0.95,0.06,17456,9885.4,0,0,165,-58.17,-18.62,30.38,0.48,-0.95,0.06
-5.15634081289261,-0.79841876,-0.362425,0.37733752,0.45,-0.93,-0,17464,9884.4,0,0,0,-51.45,-24.71,23.17,0.45,-0.93,-0
-4.67720119827924,-0.70241874,-0.34942502,0.2763375,0.44,-0.89,-0.07,17479,9885.4,0,0,165,-44.73,-23.8,16.1,0.44,-0.89,-0.07
-5.16103967637559,-0.34641874,-0.172425,0.22133751,0.43,-0.89,-0.1,17494,9884.4,0,0,0,-19.81,-11.41,12.25,0.43,-0.89,-0.1
-5.11670680363211,-0.36141875,-0.089425,0.16833751,0.41,-0.86,-0.09,17502,9884.4,0,0,165,-20.86,-5.6,8.54,0.41,-0.86,-0.09
-4.56167497173173,-0.23341875,-0.010425001,0.1633375,0.42,-0.81,-0.05,17517,9885.4,0,0,0,-11.9,-0.07,8.19,0.42,-0.81,-0.05
-4.51336098016325,-0.24041875,0.010574998,0.23133752,0.45,-0.85,-0.02,17532,9885.4,0,0,165,-12.39,1.4,12.95,0.45,-0.85,-0.02
-4.98157561362386,-0.06941874,-0.053425,0.22933753,0.43,-0.89,-0.03,17554,9884.4,0,0,0,-0.42,-3.08,12.81,0.43,-0.89,-0.03
-4.46818384499989,-0.024418745,-0.096425004,0.5443375,0.42,-0.85,-0.03,17555,9885.4,0,0,165,2.73,-6.09,34.86,0.42,-0.85,-0.03
-4.97348630506205,-0.20741874,-0.012425001,0.3913375,0.44,-0.88,-0,17569,9884.4,0,0,0,-10.08,-0.21,24.15,0.44,-0.88,-0
-4.70164438536954,-0.33741876,0.018575,0.40633753,0.45,-0.93,0.03,17580,9885,0,0,165,-19.18,1.96,25.2,0.45,-0.93,0.03
-4.5570486607445,-0.27941877,-0.038425,0.3483375,0.46,-0.98,0.04,17592,9885.4,0,0,0,-15.12,-2.03,21.14,0.46,-0.98,0.04
-5.13771756738169,-0.20341875,-0.107425004,0.29633752,0.45,-1,0.02,17607,9884.4,0,0,165,-9.8,-6.86,17.5,0.45,-1,0.02
-5.22758432449728,-0.21941875,-0.121425,0.20533751,0.42,-0.99,-0.02,17614,9884.4,0,0,0,-10.92,-7.84,11.13,0.42,-0.99,-0.02
-5.30086309086661,-0.34241876,-0.065425,0.13933751,0.41,-0.92,-0.06,17629,9884.4,0,0,165,-19.53,-3.92,6.51,0.41,-0.92,-0.06
-5.33279613423686,-0.5394187,0.078575,0.15033752,0.42,-0.85,-0.04,17645,9884.4,0,0,0,-33.32,6.16,7.28,0.42,-0.85,-0.04
-5.51136472748986,-0.6034187,0.122575,0.18933752,0.43,-0.85,-0.02,17652,9884,0,0,165,-37.8,9.24,10.01,0.43,-0.85,-0.02
-5.44159857094593,-0.58541876,0.068575,0.2383375,0.44,-0.89,-0.03,17667,9884,0,0,0,-36.54,5.46,13.44,0.44,-0.89,-0.03
-4.64180535596607,-0.52641875,0.049575,0.24533752,0.46,-0.88,-0.02,17682,9885.4,0,0,165,-32.41,4.13,13.93,0.46,-0.88,-0.02
-5.0321420836485,-0.5794187,0.026574997,0.2593375,0.45,-0.88,-0.04,17689,9884.4,0,0,0,-36.12,2.52,14.91,0.45,-0.88,-0.04
-4.42488963913287,-0.6704188,0.048575,0.20433752,0.45,-0.88,-0.04,17705,9885.4,0,0,165,-42.49,4.06,11.06,0.45,-0.88,-0.04
-5.02690308468948,-0.7964188,0.026574997,0.19833753,0.45,-0.82,-0.01,17719,9884,0,0,0,-51.31,2.52,10.64,0.45,-0.82,-0.01
-4.44704365966942,-0.87941873,-0.030425001,0.13333751,0.44,-0.88,-0.07,17745,9885,0,0,165,-57.12,-1.47,6.09,0.44,-0.88,-0.07
-3.85146102563508,-0.87941873,-0.053425,0.12533751,0.43,-0.79,-0.11,17746,9886.1,0,0,0,-57.12,-3.08,5.53,0.43,-0.79,-0.11
-4.40508790507616,-0.6864188,-0.013425002,0.1303375,0.42,-0.8,-0.13,17749,9885,0,0,165,-43.61,-0.28,5.88,0.42,-0.8,-0.13
-4.7622367870562,-0.5564187,0.027575,0.25233752,0.43,-0.78,-0.12,17764,9884.4,0,0,0,-34.51,2.59,14.42,0.43,-0.78,-0.12
-4.35954188901999,-0.38241875,0.033575,0.2953375,0.43,-0.84,-0.11,17779,9885.4,0,0,165,-22.33,3.01,17.43,0.43,-0.84,-0.11
-4.66944200274972,-0.35941875,-0.057425,0.39333752,0.42,-0.81,-0.07,17787,9885,0,0,0,-20.72,-3.36,24.29,0.42,-0.81,-0.07
-5.41036003403518,-0.56841874,-0.13342501,0.44333753,0.42,-0.89,-0.12,17801,9883.7,0,0,165,-35.35,-8.68,27.79,0.42,-0.89,-0.12
-5.11022627019243,-0.5014187,-0.059425004,0.3613375,0.41,-0.98,-0.15,17831,9884.4,0,0,0,-30.66,-3.5,22.05,0.41,-0.98,-0.15
-5.11248074431231,-0.25841874,-0.013425002,0.28933752,0.4,-0.98,-0.15,17831,9884.4,0,0,165,-13.65,-0.28,17.01,0.4,-0.98,-0.15
-4.77358979280579,-0.22241874,-0.014425001,0.2603375,0.41,-0.97,-0.12,17839,9885,0,0,0,-11.13,-0.35,14.98,0.41,-0.97,-0.12
-5.00454899286197,-0.27041876,0.040574998,0.13533752,0.41,-0.99,-0.13,17854,9884.4,0,0,165,-14.49,3.5,6.23,0.41,-0.99,-0.13
-4.91936747533842,-0.29341877,0.081575,0.052337512,0.41,-0.97,-0.14,17861,9884.4,0,0,0,-16.1,6.37,0.42,0.41,-0.97,-0.14
-5.03680736169793,-0.34741873,0.084575,0.04733751,0.42,-0.91,-0.14,17879,9884,0,0,165,-19.88,6.58,0.07,0.42,-0.91,-0.14
-4.28196116359087,-0.36141875,0.075575,0.03233751,0.42,-0.86,-0.11,17907,9885.4,0,0,0,-20.86,5.95,-0.98,0.42,-0.86,-0.11
-4.47915897686254,-0.38741875,0.057575002,0.105337515,0.42,-0.87,-0.12,17909,9885,0,0,165,-22.68,4.69,4.13,0.42,-0.87,-0.12
-4.53363756014314,-0.30241874,0.035575002,0.08433752,0.43,-0.84,-0.14,17914,9885,0,0,0,-16.73,3.15,2.66,0.43,-0.84,-0.14
-5.12550181249383,-0.14041874,0.024575,0.09533751,0.43,-0.86,-0.15,17929,9884,0,0,165,-5.39,2.38,3.43,0.43,-0.86,-0.15
-5.2165830598438,0.0065812543,0.013574999,0.098337516,0.41,-0.84,-0.17,17937,9884,0,0,0,4.9,1.61,3.64,0.41,-0.84,-0.17
-4.76927915724973,-0.061418746,0.020574998,0.13533752,0.41,-0.82,-0.18,17952,9885,0,0,165,0.14,2.1,6.23,0.41,-0.82,-0.18
-5.26415556252788,-0.10141875,0.060575,0.1593375,0.43,-0.85,-0.17,17966,9884,0,0,0,-2.66,4.9,7.91,0.43,-0.85,-0.17
-5.50803805863319,0.014581256,0.075575,0.15533751,0.44,-0.89,-0.15,17974,9883.4,0,0,165,5.46,5.95,7.63,0.44,-0.89,-0.15
-4.63084581938904,0.13758124,0.032574996,0.18033752,0.44,-0.92,-0.13,17989,9885,0,0,0,14.07,2.94,9.38,0.44,-0.92,-0.13
-4.56821008233909,0.115581244,-0.031425,0.19433752,0.43,-0.92,-0.14,18005,9885,0,0,165,12.53,-1.54,10.36,0.43,-0.92,-0.14
-4.84471728174247,0.017581254,-0.029425,0.18633752,0.43,-0.96,-0.16,18013,9884.4,0,0,0,5.67,-1.4,9.8,0.43,-0.96,-0.16
-5.06480643570529,0.021581255,-0.015425,0.1283375,0.42,-0.96,-0.17,18034,9884,0,0,165,5.95,-0.42,5.74,0.42,-0.96,-0.17
-4.91595303803072,0.066581264,-0.0034250016,0.083337516,0.42,-0.96,-0.17,18035,9884.4,0,0,0,9.1,0.42,2.59,0.42,-0.96,-0.17
-5.18244259397544,0.058581255,0.026574997,0.054337513,0.41,-0.95,-0.16,18050,9884,0,0,165,8.54,2.52,0.56,0.41,-0.95,-0.16
-5.24701216228357,0.03458126,0.055575006,0.03733751,0.42,-0.96,-0.15,18064,9884,0,0,0,6.86,4.55,-0.63,0.42,-0.96,-0.15
-4.78927528456768,0.10258125,0.048575,0.01233751,0.42,-0.97,-0.15,18071,9885,0,0,165,11.62,4.06,-2.38,0.42,-0.97,-0.15
-5.28282181931541,0.14958125,0.050574996,0.01533751,0.42,-0.95,-0.13,18092,9884,0,0,0,14.91,4.2,-2.17,0.42,-0.95,-0.13
-5.70576216451045,0.10158126,0.052575,0.03233751,0.43,-0.98,-0.1,18101,9883,0,0,165,11.55,4.34,-0.98,0.43,-0.98,-0.1
-5.05942432293959,0.12358126,-0.008425001,-0.0046624877,0.42,-0.99,-0.1,18110,9884,0,0,0,13.09,0.07,-3.57,0.42,-0.99,-0.1
-4.37715901843129,0.15058124,-0.058425,-0.024662483,0.4,-0.99,-0.14,18131,9885,0,0,165,14.98,-3.43,-4.97,0.4,-0.99,-0.14
-3.66081640641495,0.15058124,-0.022425001,-0.017662492,0.4,-0.96,-0.14,18139,9886.1,0,0,0,14.98,-0.91,-4.48,0.4,-0.96,-0.14
-4.60312042334655,0.14658125,0.030574998,-0.02066249,0.39,-0.96,-0.12,18148,9884,0,0,165,14.7,2.8,-4.69,0.39,-0.96,-0.12
-4.07179249391317,0.16058126,0.033575,-0.04266249,0.39,-0.97,-0.1,18162,9885,0,0,0,15.68,3.01,-6.23,0.39,-0.97,-0.1
-4.10869992332061,0.16758126,0.0115749985,-0.06166249,0.39,-0.96,-0.09,18169,9885,0,0,165,16.17,1.47,-7.56,0.39,-0.96,-0.09
-4.19286792564849,0.14358126,-0.0014250008,-0.06766249,0.37,-0.94,-0.11,18184,9885,0,0,0,14.49,0.56,-7.98,0.37,-0.94,-0.11
-4.60074723822572,0.09958126,0.004574999,-0.048662487,0.37,-0.93,-0.13,18200,9884.4,0,0,165,11.41,0.98,-6.65,0.37,-0.93,-0.13
-4.91129427374298,-0.0024187453,0.055575006,0.017337512,0.39,-0.89,-0.09,18207,9884,0,0,0,4.27,4.55,-2.03,0.39,-0.89,-0.09
-4.5029354939998,-0.025418743,0.045575,0.008337509,0.39,-0.92,-0.08,18222,9885,0,0,165,2.66,3.85,-2.66,0.39,-0.92,-0.08
-5.05394381391966,-0.020418745,-0.031425,0.023337511,0.39,-0.9,-0.09,18236,9884,0,0,0,3.01,-1.54,-1.61,0.39,-0.9,-0.09
-5.04541074874866,-0.059418745,-0.015425,0.043337513,0.39,-0.88,-0.1,18245,9884,0,0,165,0.28,-0.42,-0.21,0.39,-0.88,-0.1
-4.97274690994222,-0.06441875,-0.0004250016,0.04933751,0.38,-0.88,-0.11,18259,9884,0,0,0,-0.07,0.63,0.21,0.38,-0.88,-0.11
-4.85684177129626,-0.047418743,0.018575,0.07033751,0.38,-0.87,-0.11,18274,9884,0,0,165,1.12,1.96,1.68,0.38,-0.87,-0.11
-4.39256712934728,-0.022418749,0.055575006,0.09433751,0.39,-0.88,-0.09,18282,9884.7,0,0,0,2.87,4.55,3.36,0.39,-0.88,-0.09
-4.18028977181312,-0.018418744,0.049575,0.12233752,0.39,-0.88,-0.07,18298,9885,0,0,165,3.15,4.13,5.32,0.39,-0.88,-0.07
-4.1982825503644,-0.029418744,0.014574997,0.13533752,0.38,-0.9,-0.08,18312,9885,0,0,0,2.38,1.68,6.23,0.38,-0.9,-0.08
-4.78810649447013,-0.031418744,0.00057499856,0.1373375,0.38,-0.88,-0.09,18319,9884,0,0,165,2.24,0.7,6.37,0.38,-0.88,-0.09
-4.91116832066175,-0.063418746,0.028575001,0.1593375,0.39,-0.88,-0.08,18334,9884,0,0,0,0,2.66,7.91,0.39,-0.88,-0.08
-5.17250177685414,-0.09041875,0.049575,0.15833752,0.4,-0.88,-0.07,18356,9883.7,0,0,165,-1.89,4.13,7.84,0.4,-0.88,-0.07
-5.09395516531929,-0.08041875,0.034575,0.1523375,0.39,-0.88,-0.07,18356,9884,0,0,0,-1.19,3.08,7.42,0.39,-0.88,-0.07
-5.12085456578586,-0.06941874,0.023574999,0.1653375,0.41,-0.86,-0.06,18372,9884,0,0,165,-0.42,2.31,8.33,0.41,-0.86,-0.06
-5.26523953931157,-0.035418745,0.047574997,0.18233752,0.41,-0.88,-0.05,18387,9883.7,0,0,0,1.96,3.99,9.52,0.41,-0.88,-0.05
-5.24263708923503,0.028581254,0.032574996,0.18733752,0.41,-0.9,-0.05,18395,9883.7,0,0,165,6.44,2.94,9.87,0.41,-0.9,-0.05
-5.21228589858818,0.08058125,0.026574997,0.1593375,0.42,-0.93,-0.04,18412,9883.7,0,0,0,10.08,2.52,7.91,0.42,-0.93,-0.04
-5.02521695078659,0.07258126,0.022575,0.11833751,0.41,-0.93,-0.05,18424,9884,0,0,165,9.52,2.24,5.04,0.41,-0.93,-0.05
-4.97684701839578,-0.0034187473,0.022575,0.08533751,0.41,-0.91,-0.06,18432,9884,0,0,0,4.2,2.24,2.73,0.41,-0.91,-0.06
-5.06363862678132,-0.060418747,0.040574998,0.050337512,0.41,-0.89,-0.08,18446,9883.7,0,0,165,0.21,3.5,0.28,0.41,-0.89,-0.08
-4.98918143832155,-0.107418746,0.064575,0.043337513,0.42,-0.86,-0.08,18461,9883.7,0,0,0,-3.08,5.18,-0.21,0.42,-0.86,-0.08
-4.26583886296349,-0.073418744,0.081575,0.03133751,0.42,-0.86,-0.08,18469,9885,0,0,165,-0.7,6.37,-1.05,0.42,-0.86,-0.08
-4.71131884388296,-0.027418748,0.058575004,0.054337513,0.43,-0.85,-0.08,18485,9884,0,0,0,2.52,4.76,0.56,0.43,-0.85,-0.08
-4.69322301496715,0.022581257,0.048575,0.075337514,0.43,-0.86,-0.09,18500,9884,0,0,165,6.02,4.06,2.03,0.43,-0.86,-0.09
-4.87311452669528,0.051581256,0.043574996,0.098337516,0.42,-0.87,-0.09,18507,9883.7,0,0,0,8.05,3.71,3.64,0.42,-0.87,-0.09
-4.30177192597656,0.05658125,0.048575,0.10933751,0.42,-0.9,-0.1,18522,9885,0,0,165,8.4,4.06,4.41,0.42,-0.9,-0.1
-4.91381895768895,0.07258126,0.065575,0.10033751,0.42,-0.92,-0.1,18537,9884,0,0,0,9.52,5.25,3.78,0.42,-0.92,-0.1
-5.68068628936698,0.07958126,0.198575,-0.006662488,0.39,-0.98,-0.22,18544,9882.7,0,0,165,10.01,14.56,-3.71,0.39,-0.98,-0.22
-5.271953815577,-0.050418746,0.34157497,-0.07966249,0.4,-0.99,-0.01,18559,9883.7,0,0,0,0.91,24.57,-8.82,0.4,-0.99,-0.01
-5.668396252999,-0.20641875,0.234575,-0.16266249,0.43,-0.95,-0.05,18574,9883,0,0,165,-10.01,17.08,-14.63,0.43,-0.95,-0.05
-5.31642089190902,-0.021418747,0.14257501,-0.17466249,0.44,-0.96,-0.05,18582,9883.7,0,0,0,2.94,10.64,-15.47,0.44,-0.96,-0.05
-5.1232742999987,0.08558126,0.098575,-0.19766249,0.43,-0.94,-0.05,18596,9884,0,0,165,10.43,7.56,-17.08,0.43,-0.94,-0.05
-5.69863053239446,-0.033418745,0.079575,-0.18766247,0.42,-0.92,-0.07,18612,9882.7,0,0,0,2.1,6.23,-16.38,0.42,-0.92,-0.07
-5.45540198226731,-0.045418747,0.109574996,-0.15566249,0.43,-0.91,-0.06,18619,9883,0,0,165,1.26,8.33,-14.14,0.43,-0.91,-0.06
-4.5104062664828,-0.06441875,0.14757499,-0.105662495,0.43,-0.9,-0.06,18635,9884.7,0,0,0,-0.07,10.99,-10.64,0.43,-0.9,-0.06
-4.93359429086988,-0.12841874,0.206575,-0.013662487,0.43,-0.89,-0.07,18650,9883.7,0,0,165,-4.55,15.12,-4.2,0.43,-0.89,-0.07
-4.89010089580123,-0.103418745,0.23257501,0.045337513,0.43,-0.92,-0.07,18657,9883.7,0,0,0,-2.8,16.94,-0.07,0.43,-0.92,-0.07
-4.88551755923206,-0.008418746,0.25257498,0.06533751,0.41,-0.89,-0.08,18671,9883.7,0,0,165,3.85,18.34,1.33,0.41,-0.89,-0.08
-4.76551460432608,0.044581257,0.28257498,0.11733751,0.41,-0.89,-0.06,18687,9884,0,0,0,7.56,20.44,4.97,0.41,-0.89,-0.06
-4.96761829533167,0.10158126,0.28257498,0.14733751,0.42,-0.9,-0.05,18694,9883.7,0,0,165,11.55,20.44,7.07,0.42,-0.9,-0.05
-5.02524288175362,0.23058125,0.250575,0.14633751,0.41,-0.92,-0.04,18709,9883.7,0,0,0,20.58,18.2,7,0.41,-0.92,-0.04
-5.42120989522556,0.32358125,0.193575,0.12333751,0.41,-0.93,-0.02,18724,9883,0,0,165,27.09,14.21,5.39,0.41,-0.93,-0.02
-5.09312825039442,0.36358124,0.11857501,0.09133752,0.41,-0.93,-0.01,18732,9883.7,0,0,0,29.89,8.96,3.15,0.41,-0.93,-0.01
-5.08825225109612,0.34058127,0.051574998,0.041337512,0.42,-0.95,0.02,18746,9883.7,0,0,165,28.28,4.27,-0.35,0.42,-0.95,0.02
-5.56322465928567,0.31658125,-0.029425,0.022337513,0.41,-0.95,0,18762,9882.7,0,0,0,26.6,-1.4,-1.68,0.41,-0.95,0
-5.03170139072205,0.27358127,-0.059425004,0.017337512,0.41,-0.93,-0,18776,9883.7,0,0,165,23.59,-3.5,-2.03,0.41,-0.93,-0
-5.00821796162638,0.21058127,-0.022425001,0.03033751,0.41,-0.93,-0.01,18784,9883.7,0,0,0,19.18,-0.91,-1.12,0.41,-0.93,-0.01
-5.00128013334249,0.22758126,0.022575,0.01833751,0.41,-0.92,-0.01,18800,9883.7,0,0,165,20.37,2.24,-1.96,0.41,-0.92,-0.01
-5.51008491750598,0.23358127,0.055575006,0.021337511,0.4,-0.91,0,18807,9882.7,0,0,0,20.79,4.55,-1.75,0.4,-0.91,0
-5.02682287781695,0.17558125,0.11857501,0.0073375106,0.41,-0.91,0.01,18823,9883.7,0,0,165,16.73,8.96,-2.73,0.41,-0.91,0.01
-5.54067416127513,0.13158125,0.161575,0.01433751,0.4,-0.91,0.03,18836,9882.7,0,0,0,13.65,11.97,-2.24,0.4,-0.91,0.03
-4.53927433481184,0.15358125,0.108575,-0.002662491,0.41,-0.92,0.04,18844,9884.7,0,0,165,15.19,8.26,-3.43,0.41,-0.92,0.04
-5.51003537661075,0.30958125,-0.0014250008,-0.07266249,0.41,-0.91,0.03,18859,9882.7,0,0,0,26.11,0.56,-8.33,0.41,-0.91,0.03
-5.4465263130913,0.33258125,-0.028425002,-0.09466249,0.41,-0.91,0.02,18874,9882.7,0,0,165,27.72,-1.33,-9.87,0.41,-0.91,0.02
-4.85726915878493,0.25758123,-0.007425001,-0.08066249,0.41,-0.9,0.03,18881,9883.7,0,0,0,22.47,0.14,-8.89,0.41,-0.9,0.03
-4.76616810521496,0.18458126,0.030574998,-0.06766249,0.42,-0.9,0.03,18897,9883.7,0,0,165,17.36,2.8,-7.98,0.42,-0.9,0.03
-4.19959964698061,0.13258126,0.077575006,-0.049662482,0.41,-0.9,0.03,18912,9884.7,0,0,0,13.72,6.09,-6.72,0.41,-0.9,0.03
-5.02005983877341,0.15858126,0.105575,-0.060662482,0.41,-0.91,0.04,18919,9883,0,0,165,15.54,8.05,-7.49,0.41,-0.91,0.04
-4.67010463537948,0.21058127,0.072574995,-0.08166249,0.41,-0.91,0.05,18934,9883.7,0,0,0,19.18,5.74,-8.96,0.41,-0.91,0.05
-4.68170980662492,0.20358127,0.060575,-0.093662485,0.42,-0.92,0.06,18950,9883.7,0,0,165,18.69,4.9,-9.8,0.42,-0.92,0.06
-4.68808642221069,0.22058123,0.140575,-0.095662475,0.42,-0.93,0.04,18957,9883.7,0,0,0,19.88,10.5,-9.94,0.42,-0.93,0.04
-4.68130445926364,0.30258128,0.24857499,-0.068662494,0.41,-0.93,0.03,18972,9883.7,0,0,165,25.62,18.06,-8.05,0.41,-0.93,0.03
-4.6618105329606,0.42058128,0.35957497,-0.0776625,0.41,-0.94,0.04,18987,9883.7,0,0,0,33.88,25.83,-8.68,0.41,-0.94,0.04
-4.63481885013455,0.49658126,0.402575,-0.08766249,0.4,-0.94,0.06,18994,9883.7,0,0,165,39.2,28.84,-9.38,0.4,-0.94,0.06
-4.60785627184945,0.38858125,0.461575,-0.06966248,0.4,-0.9,0.09,19009,9883.7,0,0,0,31.64,32.97,-8.12,0.4,-0.9,0.09
-4.59052621229584,0.10458125,0.53457505,-0.095662475,0.41,-0.92,0.11,19023,9883.7,0,0,165,11.76,38.08,-9.94,0.41,-0.92,0.11
-4.74414729934767,-0.16541874,0.577575,-0.08166249,0.42,-0.92,0.11,19031,9883.4,0,0,0,-7.14,41.09,-8.96,0.42,-0.92,0.11
-4.62867382380114,-0.16041875,0.662575,-0.09666249,0.43,-0.89,0.12,19046,9883.7,0,0,165,-6.79,47.04,-10.01,0.43,-0.89,0.12
-4.69432103455448,-0.12841874,0.694575,-0.0626625,0.42,-0.96,0.1,19062,9883.7,0,0,0,-4.55,49.28,-7.63,0.42,-0.96,0.1
-4.77619512366855,0.00058125705,0.751575,-0.110662475,0.41,-0.92,0.11,19069,9883.7,0,0,165,4.48,53.27,-10.99,0.41,-0.92,0.11
-5.34600430243516,0.08158125,0.749575,-0.15566249,0.42,-0.87,0.14,19084,9882.7,0,0,0,10.15,53.13,-14.14,0.42,-0.87,0.14
-5.3748904331041,0.15458126,0.646575,-0.14566247,0.41,-0.91,0.15,19099,9882.7,0,0,165,15.26,45.92,-13.44,0.41,-0.91,0.15
-4.99868217342318,0.105581254,0.53457505,-0.16166249,0.41,-0.88,0.17,19107,9883.4,0,0,0,11.83,38.08,-14.56,0.41,-0.88,0.17
-4.77531181399376,0.03058125,0.46957496,-0.1946625,0.44,-0.91,0.16,19122,9883.7,0,0,165,6.58,33.53,-16.87,0.44,-0.91,0.16
-5.1788718819324,0.076581255,0.46657497,-0.3416625,0.43,-0.91,0.18,19137,9882.7,0,0,0,9.8,33.32,-27.16,0.43,-0.91,0.18
-4.58883770054691,0.12858124,0.409575,-0.4796625,0.45,-0.88,0.21,19145,9883.7,0,0,165,13.44,29.33,-36.82,0.45,-0.88,0.21
-4.5272547548069,0.49758124,0.16457501,-0.6446625,0.47,-0.87,0.24,19159,9883.7,0,0,0,39.27,12.18,-48.37,0.47,-0.87,0.24
-4.649420115642,1.0275813,-0.29142502,-0.5556625,0.51,-0.84,0.26,19174,9883.4,0,0,165,76.37,-19.74,-42.14,0.51,-0.84,0.26
-4.49132116027957,1.4985812,-0.45742503,-0.42166245,0.48,-0.76,0.11,19181,9883.7,0,0,0,109.34,-31.36,-32.76,0.48,-0.76,0.11
-4.12540601087217,1.3645812,-0.125425,-0.22866249,0.45,-0.75,0.08,19196,9884.4,0,0,165,99.96,-8.12,-19.25,0.45,-0.75,0.08
-5.07872594167486,0.7805813,0.33357498,-0.13966249,0.46,-0.79,0.15,19212,9882.4,0,0,0,59.08,24.01,-13.02,0.46,-0.79,0.15
-4.50036035409589,0.29758126,0.57557505,-0.17066248,0.48,-0.8,0.24,19219,9883.4,0,0,165,25.27,40.95,-15.19,0.48,-0.8,0.24
-3.91760460330575,-0.021418747,0.557575,-0.15966249,0.49,-0.84,0.29,19234,9884.4,0,0,0,2.94,39.69,-14.42,0.49,-0.84,0.29
-3.72086882178883,-0.015418749,0.47057498,-0.11666249,0.5,-0.85,0.29,19249,9884.7,0,0,165,3.36,33.6,-11.41,0.5,-0.85,0.29
-4.38728128165018,0.110581264,0.39257497,-0.037662487,0.49,-0.85,0.28,19257,9883.4,0,0,0,12.18,28.14,-5.88,0.49,-0.85,0.28
-4.4649694554296,0.28958124,0.360575,-0.01666249,0.49,-0.9,0.28,19272,9883.4,0,0,165,24.71,25.9,-4.41,0.49,-0.9,0.28
-4.57439184707323,0.36258125,0.36357498,-0.090662494,0.47,-0.92,0.3,19287,9883.4,0,0,0,29.82,26.11,-9.59,0.47,-0.92,0.3
-4.52337191830794,0.32858127,0.375575,-0.19866247,0.48,-0.94,0.32,19294,9883.7,0,0,165,27.44,26.95,-17.15,0.48,-0.94,0.32
-4.72223559455031,0.24658126,0.375575,-0.28966248,0.48,-0.95,0.33,19309,9883.4,0,0,0,21.7,26.95,-23.52,0.48,-0.95,0.33
-5.04778833073929,0.24158126,0.337575,-0.34866247,0.47,-0.94,0.33,19324,9882.7,0,0,165,21.35,24.29,-27.65,0.47,-0.94,0.33
-4.60125754415823,0.28058127,0.32657498,-0.37266248,0.49,-0.94,0.33,19332,9883.4,0,0,0,24.08,23.52,-29.33,0.49,-0.94,0.33
-4.31196492290009,0.41858128,0.337575,-0.44566247,0.49,-0.93,0.36,19347,9883.7,0,0,165,33.74,24.29,-34.44,0.49,-0.93,0.36
-4.32616655017983,0.43258128,0.327575,-0.5076625,0.5,-0.97,0.4,19363,9883.4,0,0,0,34.72,23.59,-38.78,0.5,-0.97,0.4
-3.58938669581578,0.38058126,0.30357498,-0.63666254,0.52,-1,0.44,19370,9884.7,0,0,165,31.08,21.91,-47.81,0.52,-1,0.44
-4.07590476207301,0.31758127,0.212575,-0.86266255,0.53,-1.05,0.48,19385,9883.7,0,0,0,26.67,15.54,-63.63,0.53,-1.05,0.48
-4.28154869506216,0.40058124,0.090575,-1.0926626,0.53,-1.07,0.47,19400,9883.4,0,0,165,32.48,7,-79.73,0.53,-1.07,0.47
-4.22949194404899,0.63458127,-0.076425,-1.2986625,0.51,-1.04,0.42,19407,9883.7,0,0,0,48.86,-4.69,-94.15,0.51,-1.04,0.42
-4.48285804092476,0.83858126,-0.111425,-1.6246625,0.5,-0.97,0.37,19422,9883.4,0,0,165,63.14,-7.14,-116.97,0.5,-0.97,0.37
-4.55898938877835,0.8005813,-0.089425,-1.7096624,0.51,-0.89,0.4,19437,9883.4,0,0,0,60.48,-5.6,-122.92,0.51,-0.89,0.4
-4.58706760050601,0.6745812,-0.13142501,-1.8256624,0.52,-0.87,0.42,19445,9883.4,0,0,165,51.66,-8.54,-131.04,0.52,-0.87,0.42
-5.06342453906689,0.60258126,-0.233425,-1.9256624,0.54,-0.82,0.43,19459,9882.4,0,0,0,46.62,-15.68,-138.04,0.54,-0.82,0.43
-4.50132093218961,0.72458124,-0.359425,-1.9676625,0.57,-0.83,0.44,19475,9883.4,0,0,165,55.16,-24.5,-140.98,0.57,-0.83,0.44
-3.92367446246768,1.3345813,-0.50542504,-2.0936625,0.58,-0.77,0.4,19482,9884.4,0,0,0,97.86,-34.72,-149.8,0.58,-0.77,0.4
-4.85116981133115,1.8685813,-0.596425,-2.0776622,0.55,-0.68,-0.1,19497,9882.4,0,0,165,135.24,-41.09,-148.68,0.55,-0.68,-0.1
-3.79371889277832,3.3565812,-0.378425,-2.7266624,0.52,-0.75,0.04,19512,9884.4,0,0,0,239.4,-25.83,-194.11,0.52,-0.75,0.04
-4.45098376234681,3.6085815,0.406575,-3.0586624,0.56,-0.34,0.3,19519,9883,0,0,165,257.04,29.12,-217.35,0.56,-0.34,0.3
-4.21790506683692,2.6315813,0.58457506,-2.8556623,0.69,-0.26,0.46,19534,9883.4,0,0,0,188.65,41.58,-203.14,0.69,-0.26,0.46
-3.69231202741383,1.8185813,0.521575,-2.6626625,0.7,-0.24,0.56,19549,9884.4,0,0,165,131.74,37.17,-189.63,0.7,-0.24,0.56
-4.17404618195844,1.0735812,0.14857501,-2.4986622,0.68,-0.23,0.49,19557,9883.4,0,0,0,79.59,11.06,-178.15,0.68,-0.23,0.49
-4.16413404856413,0.5075813,0.096575,-2.3556623,0.64,-0.29,0.38,19572,9883.4,0,0,165,39.97,7.42,-168.14,0.64,-0.29,0.38
-4.16249708414853,0.25258127,0.27857497,-2.2126625,0.68,-0.24,0.39,19587,9883.4,0,0,0,22.12,20.16,-158.13,0.68,-0.24,0.39
-3.66560472642055,-0.009418745,0.288575,-2.1436625,0.68,-0.26,0.43,19595,9884.4,0,0,165,3.78,20.86,-153.3,0.68,-0.26,0.43
-4.1646372391908,-0.14441875,0.287575,-2.0666625,0.71,-0.2,0.45,19609,9883.4,0,0,0,-5.67,20.79,-147.91,0.71,-0.2,0.45
-4.14798472908897,-0.08241875,0.130575,-2.0916624,0.69,-0.27,0.48,19624,9883.4,0,0,165,-1.33,9.8,-149.66,0.69,-0.27,0.48
-4.10916983860816,0.28658125,-0.136425,-2.1236622,0.71,-0.28,0.52,19632,9883.4,0,0,0,24.5,-8.89,-151.9,0.71,-0.28,0.52
-4.05336188176645,0.76958126,-0.366425,-2.5816624,0.71,-0.18,0.58,19646,9883.4,0,0,165,58.31,-24.99,-183.96,0.71,-0.18,0.58
-3.49401785994709,0.88558125,-0.607425,-2.4826624,0.77,-0.11,0.59,19662,9884.4,0,0,0,66.43,-41.86,-177.03,0.77,-0.11,0.59
-3.44105039687689,0.89158124,-0.73742497,-2.4676623,0.8,-0.05,0.61,19669,9884.4,0,0,165,66.85,-50.96,-175.98,0.8,-0.05,0.61
-3.89271618766069,1.0055813,-1.244425,-2.5586624,0.82,-0.04,0.61,19684,9883.4,0,0,0,74.83,-86.45,-182.35,0.82,-0.04,0.61
-3.84071188794018,1.1285813,-1.284425,-2.5876625,0.81,-0.01,0.6,19699,9883.4,0,0,165,83.44,-89.25,-184.38,0.81,-0.01,0.6
-3.43314417908042,1.1605812,-1.481425,-2.7976625,0.82,0.03,0.55,19706,9884.1,0,0,0,85.68,-103.04,-199.08,0.82,0.03,0.55
-3.22725454372453,1.1685812,-1.682425,-2.9556625,0.8,0.05,0.43,19722,9884.4,0,0,165,86.24,-117.11,-210.14,0.8,0.05,0.43
-3.18335425906979,1.0225812,-1.832425,-3.0686624,0.79,0.11,0.27,19736,9884.4,0,0,0,76.02,-127.61,-218.05,0.79,0.11,0.27
-3.14677196369544,0.54858124,-1.714425,-3.0666625,0.77,0.19,0.2,19744,9884.4,0,0,165,42.84,-119.35,-217.91,0.77,0.19,0.2
-3.0981706228517,-0.5144187,-1.4004251,-3.1826625,0.76,0.42,0.24,19759,9884.4,0,0,0,-31.57,-97.37,-226.03,0.76,0.42,0.24
-3.51932507573961,-1.9784188,-1.2304251,-3.0576625,0.81,0.41,0.17,19775,9883.4,0,0,165,-134.05,-85.47,-217.28,0.81,0.41,0.17
-2.91434550128437,-2.4974189,-0.88742495,-3.1726625,0.76,0.37,0.12,19782,9884.4,0,0,0,-170.38,-61.46,-225.33,0.76,0.37,0.12
-2.3157662614167,-2.0394187,-0.484425,-3.0136623,0.81,0.53,0.11,19797,9885.4,0,0,165,-138.32,-33.25,-214.2,0.81,0.53,0.11
-2.76690907949193,-1.3884188,-0.216425,-2.6066625,0.8,0.66,0.13,19812,9884.4,0,0,0,-92.75,-14.49,-185.71,0.8,0.66,0.13
-2.29262613008085,-0.6954188,-0.120425,-2.0646625,0.79,0.77,0.11,19819,9885.4,0,0,165,-44.24,-7.77,-147.77,0.79,0.77,0.11
-3.03107859043308,0.22558126,-0.036425002,-1.4696625,0.77,0.86,0.18,19834,9884.1,0,0,0,20.23,-1.89,-106.12,0.77,0.86,0.18
-3.1376811788917,0.6805813,-0.040425003,-0.9136625,0.79,0.91,0.22,19849,9884.1,0,0,165,52.08,-2.17,-67.2,0.79,0.91,0.22
-3.21238191993248,0.77558124,-0.076425,-0.4246625,0.8,0.9,0.21,19857,9884.1,0,0,0,58.73,-4.69,-32.97,0.8,0.9,0.21
-3.22544860311687,0.7165812,-0.046425,-0.044662487,0.81,0.88,0.21,19872,9884.1,0,0,165,54.6,-2.59,-6.37,0.81,0.88,0.21
-3.18152361145481,0.6675812,0.036574997,0.3383375,0.82,0.88,0.23,19886,9884.1,0,0,0,51.17,3.22,20.44,0.82,0.88,0.23
-2.96344871993795,0.67758125,0.100575,0.6753375,0.88,0.9,0.28,19894,9884.4,0,0,165,51.87,7.7,44.03,0.88,0.9,0.28
-3.06411179051943,0.94158125,0.099575005,1.0963374,0.92,0.88,0.29,19909,9884.1,0,0,0,70.35,7.63,73.5,0.92,0.88,0.29
-2.75908216107994,1.4445813,0.068575,1.4153376,0.93,0.85,0.25,19924,9884.7,0,0,165,105.56,5.46,95.83,0.93,0.85,0.25
-2.94762026556779,1.8265812,0.128575,1.9203374,0.93,0.83,0.2,19932,9884.4,0,0,0,132.3,9.66,131.18,0.93,0.83,0.2
-3.15318640402874,1.8855811,0.365575,2.2943375,0.96,0.81,0.2,19947,9884.1,0,0,165,136.43,26.25,157.36,0.96,0.81,0.2
-3.74191093583684,1.6055813,0.570575,2.5123374,0.94,0.69,0.2,19962,9883,0,0,0,116.83,40.6,172.62,0.94,0.69,0.2
-3.04734416080742,1.3325813,0.73457503,2.5973377,0.9,0.6,0.21,19969,9884.4,0,0,165,97.72,52.08,178.57,0.9,0.6,0.21
-3.17662604669047,0.9165812,0.89957505,2.6393375,0.9,0.52,0.21,19984,9884.1,0,0,0,68.6,63.63,181.51,0.9,0.52,0.21
-2.99799186660154,0.41158125,1.1635749,2.7413375,0.9,0.49,0.25,19999,9884.4,0,0,165,33.25,82.11,188.65,0.9,0.49,0.25
-2.97845509488842,-0.22341874,1.416575,2.8233376,0.89,0.41,0.32,20007,9884.4,0,0,0,-11.2,99.82,194.39,0.89,0.41,0.32
-3.67276945290024,-0.9124187,1.472575,2.8663375,0.85,0.28,0.4,20022,9883,0,0,165,-59.43,103.74,197.4,0.85,0.28,0.4
-3.13059022369868,-1.4474187,1.286575,2.7193377,0.85,0.14,0.48,20036,9884.1,0,0,0,-96.88,90.72,187.11,0.85,0.14,0.48
-3.15423462563494,-1.6644187,0.94857496,2.3613377,0.83,0.02,0.53,20045,9884.1,0,0,165,-112.07,67.06,162.05,0.83,0.02,0.53
-3.04764397499771,-1.6774188,0.59957504,1.7763375,0.81,-0.08,0.51,20059,9884.4,0,0,0,-112.98,42.63,121.1,0.81,-0.08,0.51
-3.8092555121629,-1.5504187,0.31857497,1.4563375,0.79,-0.08,0.48,20074,9883,0,0,165,-104.09,22.96,98.7,0.79,-0.08,0.48
-3.32349711561115,-1.3064188,0.138575,1.3413376,0.79,-0.11,0.43,20081,9884.1,0,0,0,-87.01,10.36,90.65,0.79,-0.11,0.43
-3.91540658638034,-1.0474187,0.14857501,1.2383375,0.78,-0.16,0.44,20104,9883,0,0,165,-68.88,11.06,83.44,0.78,-0.16,0.44
-3.21121806892438,-0.7734188,0.110575,1.0893375,0.77,-0.24,0.45,20111,9884.4,0,0,0,-49.7,8.4,73.01,0.77,-0.24,0.45
-4.14944615465294,-0.52641875,0.0115749985,0.87733746,0.76,-0.26,0.43,20119,9882.4,0,0,165,-32.41,1.47,58.17,0.76,-0.26,0.43
-3.18928079271888,-0.31941876,-0.044425003,0.6483375,0.77,-0.24,0.4,20134,9884.1,0,0,0,-17.92,-2.45,42.14,0.77,-0.24,0.4
-3.05819947794142,-0.16841874,-0.022425001,0.4963375,0.79,-0.2,0.4,20149,9884.1,0,0,165,-7.35,-0.91,31.5,0.79,-0.2,0.4
-2.94188140499602,-0.052418746,0.015574999,0.33733752,0.81,-0.16,0.4,20156,9884.1,0,0,0,0.77,1.75,20.37,0.81,-0.16,0.4
-2.71599236655767,0.051581256,0.008574998,0.1373375,0.82,-0.14,0.37,20172,9884.4,0,0,165,8.05,1.26,6.37,0.82,-0.14,0.37
-2.83855146264429,0.13358125,0.034575,0.06533751,0.82,-0.06,0.34,20187,9884.1,0,0,0,13.79,3.08,1.33,0.82,-0.06,0.34
-2.8475216442908,0.15858126,0.092575,0.03333751,0.84,-0.02,0.32,20194,9884.1,0,0,165,15.54,7.14,-0.91,0.84,-0.02,0.32
-2.87441802861325,0.22558126,0.17057501,-0.0036624894,0.86,0.03,0.31,20209,9884.1,0,0,0,20.23,12.6,-3.5,0.86,0.03,0.31
-2.90268634088403,0.30958125,0.239575,0.021337511,0.88,0.06,0.32,20224,9884.1,0,0,165,26.11,17.43,-1.75,0.88,0.06,0.32
-2.92357746691021,0.38358128,0.351575,0.07433751,0.9,0.11,0.37,20231,9884.1,0,0,0,31.29,25.27,1.96,0.9,0.11,0.37
-2.9366365358207,0.33458126,0.390575,0.1633375,0.92,0.12,0.4,20246,9884.1,0,0,165,27.86,28,8.19,0.92,0.12,0.4
-2.94839049421377,0.24658126,0.45157498,0.2643375,0.95,0.15,0.45,20262,9884.1,0,0,0,21.7,32.27,15.26,0.95,0.15,0.45
-3.52057513088241,0.12358126,0.523575,0.39333752,0.98,0.17,0.53,20269,9883,0,0,165,13.09,37.31,24.29,0.98,0.17,0.53
-3.01650153663549,-0.027418748,0.550575,0.5503375,1.01,0.15,0.63,20284,9884.1,0,0,0,2.52,39.2,35.28,1.01,0.15,0.63
-3.08886875826882,-0.031418744,0.439575,0.6443375,1,0.11,0.64,20299,9884.1,0,0,165,2.24,31.43,41.86,1,0.11,0.64
-3.17152873588168,0.42658123,0.351575,0.7233375,0.99,0.09,0.64,20306,9884.1,0,0,0,34.3,25.27,47.39,0.99,0.09,0.64
-3.7809576197649,0.43258128,0.334575,0.8653375,0.99,0.07,0.66,20322,9883,0,0,165,34.72,24.08,57.33,0.99,0.07,0.66
-4.28774175269289,0.53758126,0.30357498,1.0133375,0.96,0.03,0.68,20337,9882,0,0,0,42.07,21.91,67.69,0.96,0.03,0.68
-3.18991714573666,0.50958127,0.21457501,1.0913376,0.93,-0.04,0.66,20344,9884.1,0,0,165,40.11,15.68,73.15,0.93,-0.04,0.66
-3.11918559534045,0.47158128,0.159575,1.0903375,0.9,-0.11,0.63,20359,9884.1,0,0,0,37.45,11.83,73.08,0.9,-0.11,0.63
-3.4230603952743,0.48258126,0.174575,1.0293375,0.89,-0.16,0.63,20374,9883.4,0,0,165,38.22,12.88,68.81,0.89,-0.16,0.63
-3.63728680980221,0.5415812,0.16957499,0.9303375,0.87,-0.2,0.62,20381,9883,0,0,0,42.35,12.53,61.88,0.87,-0.2,0.62
-3.16332270506098,0.5805813,0.130575,0.8563375,0.85,-0.22,0.62,20396,9884.1,0,0,165,45.08,9.8,56.7,0.85,-0.22,0.62
-3.81766460450136,0.53458124,0.089575,0.73933744,0.84,-0.25,0.61,20411,9883,0,0,0,41.86,6.93,48.51,0.84,-0.25,0.61
-3.89675957925888,0.48758125,0.083575,0.4773375,0.82,-0.27,0.6,20419,9883,0,0,165,38.57,6.51,30.17,0.82,-0.27,0.6
-3.90036154057271,0.44658124,0.069575004,0.24433751,0.8,-0.23,0.59,20434,9883,0,0,0,35.7,5.53,13.86,0.8,-0.23,0.59
-3.80841274353653,0.37458125,0.039575003,0.1293375,0.79,-0.18,0.59,20449,9883,0,0,165,30.66,3.43,5.81,0.79,-0.18,0.59
-3.64440178558568,0.22258127,-0.005425001,0.050337512,0.77,-0.16,0.55,20457,9883,0,0,0,20.02,0.28,0.28,0.77,-0.16,0.55
-2.91751979407343,0.15458126,-0.010425001,-0.049662482,0.76,-0.14,0.52,20472,9884.1,0,0,165,15.26,-0.07,-6.72,0.76,-0.14,0.52
-2.79417344801043,0.18758124,0.014574997,-0.090662494,0.75,-0.1,0.51,20487,9884.1,0,0,0,17.57,1.68,-9.59,0.75,-0.1,0.51
-2.76622907018349,0.26558125,-0.002425001,-0.032662492,0.75,-0.08,0.51,20495,9884.1,0,0,165,23.03,0.49,-5.53,0.75,-0.08,0.51
-3.03064778345678,0.38758126,-0.024425,0.01533751,0.76,-0.08,0.51,20509,9883.7,0,0,0,31.57,-1.05,-2.17,0.76,-0.08,0.51
-3.49551580486236,0.42458126,-0.026425002,0.03033751,0.76,-0.07,0.51,20524,9883,0,0,165,34.16,-1.19,-1.12,0.76,-0.07,0.51
-3.05165428604866,0.35158125,-0.0034250016,0.05933751,0.77,-0.07,0.51,20531,9884.1,0,0,0,29.05,0.42,0.91,0.77,-0.07,0.51
-3.65187523870005,0.22858125,0.026574997,0.08233751,0.76,-0.07,0.5,20547,9883,0,0,165,20.44,2.52,2.52,0.76,-0.07,0.5
-3.78230245457972,0.14458126,0.057575002,0.11433752,0.76,-0.06,0.49,20561,9882.7,0,0,0,14.56,4.69,4.76,0.76,-0.06,0.49
-3.01522009340316,0.05558125,0.095575,0.14833751,0.77,-0.06,0.49,20569,9884.1,0,0,165,8.33,7.35,7.14,0.77,-0.06,0.49
-3.49447638837242,-0.031418744,0.165575,0.14333752,0.78,-0.08,0.52,20584,9883,0,0,0,2.24,12.25,6.79,0.78,-0.08,0.52
-2.91362278398654,-0.08741874,0.21357499,0.1423375,0.79,-0.08,0.55,20598,9884.1,0,0,165,-1.68,15.61,6.72,0.79,-0.08,0.55
-3.13998241176649,-0.14341874,0.209575,0.17133752,0.8,-0.09,0.58,20607,9883.7,0,0,0,-5.6,15.33,8.75,0.8,-0.09,0.58
-3.56118788982333,-0.13241875,0.184575,0.17233752,0.81,-0.11,0.61,20622,9883,0,0,165,-4.83,13.58,8.82,0.81,-0.11,0.61
-3.79349502613041,-0.06841875,0.15457499,0.16133751,0.82,-0.13,0.64,20636,9882.7,0,0,0,-0.35,11.48,8.05,0.82,-0.13,0.64
-3.35471840415411,-0.0014187433,0.090575,0.16133751,0.81,-0.15,0.62,20643,9883.7,0,0,165,4.34,7,8.05,0.81,-0.15,0.62
-3.87855727674187,0.07258126,0.044575,0.12333751,0.81,-0.16,0.61,20659,9882.7,0,0,0,9.52,3.78,5.39,0.81,-0.16,0.61
-3.71807423920655,0.09558125,0.042575,0.08833751,0.81,-0.16,0.6,20674,9883,0,0,165,11.13,3.64,2.94,0.81,-0.16,0.6
-3.68725231839072,0.053581245,0.049575,0.07033751,0.81,-0.16,0.61,20681,9883,0,0,0,8.19,4.13,1.68,0.81,-0.16,0.61
-3.10025881573063,-0.031418744,0.054575004,0.060337514,0.82,-0.16,0.61,20696,9884.1,0,0,165,2.24,4.48,0.98,0.82,-0.16,0.61
-4.11301491204979,-0.10541874,0.036574997,0.07233751,0.82,-0.16,0.59,20716,9882,0,0,0,-2.94,3.22,1.82,0.82,-0.16,0.59
-3.22654254943504,-0.16441876,0.046575002,0.06433751,0.83,-0.18,0.59,20719,9883.7,0,0,165,-7.07,3.92,1.26,0.83,-0.18,0.59
-3.54155435191998,-0.20541874,0.086574994,0.034337513,0.84,-0.18,0.62,20734,9883,0,0,0,-9.94,6.72,-0.84,0.84,-0.18,0.62
-3.51093899106498,-0.25341874,0.094575,0.02033751,0.85,-0.19,0.64,20749,9883,0,0,165,-13.3,7.28,-1.82,0.85,-0.19,0.64
-2.93621537629601,-0.29341877,0.069575004,0.01233751,0.85,-0.18,0.65,20756,9884.1,0,0,0,-16.1,5.53,-2.38,0.85,-0.18,0.65
-3.11064440256214,-0.33241874,0.033575,0.01533751,0.86,-0.17,0.65,20772,9883.7,0,0,165,-18.83,3.01,-2.17,0.86,-0.17,0.65
-3.57532184619903,-0.35441875,0.017575,0.0003375113,0.86,-0.17,0.64,20786,9882.7,0,0,0,-20.37,1.89,-3.22,0.86,-0.17,0.64
-3.53008347700117,-0.34041873,0.015574999,-0.013662487,0.86,-0.17,0.63,20794,9882.7,0,0,165,-19.39,1.75,-4.2,0.86,-0.17,0.63
-2.79516342436078,-0.27541876,-0.002425001,-0.00766249,0.85,-0.19,0.61,20809,9884.1,0,0,0,-14.84,0.49,-3.78,0.85,-0.19,0.61
-3.00138432791596,-0.19441874,-0.018425,0.011337511,0.86,-0.2,0.61,20824,9883.7,0,0,165,-9.17,-0.63,-2.45,0.86,-0.2,0.61
-3.06927884615967,-0.10541874,-0.045424998,0.009337511,0.86,-0.21,0.57,20831,9883.7,0,0,0,-2.94,-2.52,-2.59,0.86,-0.21,0.57
-3.53611420986798,-0.008418746,-0.064425,-0.04666249,0.85,-0.2,0.55,20847,9883,0,0,165,3.85,-3.85,-6.51,0.85,-0.2,0.55
-3.80792507601228,0.018581249,-0.035425,-0.12066248,0.86,-0.17,0.55,20862,9882.7,0,0,0,5.74,-1.82,-11.69,0.86,-0.17,0.55
-3.88222707988617,-0.035418745,-0.031425,-0.15966249,0.88,-0.11,0.57,20869,9882.7,0,0,165,1.96,-1.54,-14.42,0.88,-0.11,0.57
-3.8744339734321,-0.15241875,-0.020425001,-0.16566248,0.9,-0.08,0.57,20884,9882.7,0,0,0,-6.23,-0.77,-14.84,0.9,-0.08,0.57
-3.63437018421201,-0.12441875,-0.053425,-0.16566248,0.9,-0.04,0.58,20899,9883,0,0,165,-4.27,-3.08,-14.84,0.9,-0.04,0.58
-3.14364836719436,-0.008418746,-0.083425,-0.13266248,0.93,-0,0.59,20906,9883.7,0,0,0,3.85,-5.18,-12.53,0.93,-0,0.59
-3.5015086084081,0.11658126,-0.096425004,-0.058662485,0.95,0.02,0.61,20922,9882.7,0,0,165,12.6,-6.09,-7.35,0.95,0.02,0.61
-2.90464307801424,0.22958127,-0.086425,0.0013375096,0.97,0,0.62,20936,9883.7,0,0,0,20.51,-5.39,-3.15,0.97,0,0.62
-2.88104916692063,0.17158127,-0.070425004,0.03833751,0.99,0.09,0.67,20944,9883.7,0,0,165,16.45,-4.27,-0.56,0.99,0.09,0.67
-2.73070012919263,0.08758125,-0.13942501,0.18933752,1,0.05,0.67,20959,9884.1,0,0,0,10.57,-9.1,10.01,1,0.05,0.67
-3.52633154135768,0.20258126,-0.158425,0.20133752,1,0.05,0.65,20974,9882.7,0,0,165,18.62,-10.43,10.85,1,0.05,0.65
-3.63121745226574,0.28058127,-0.130425,0.2623375,1.01,0.09,0.65,20981,9882.7,0,0,0,24.08,-8.47,15.12,1.01,0.09,0.65
-3.21543873096754,0.29058126,-0.120425,0.31833753,1.02,0.09,0.7,20997,9883.7,0,0,165,24.78,-7.77,19.04,1.02,0.09,0.7
-4.11832926609731,0.34958124,-0.179425,0.45133752,1.02,0.09,0.73,21012,9882,0,0,0,28.91,-11.9,28.35,1.02,0.09,0.73
-3.29443903429677,0.47958124,-0.336425,0.5613375,1.01,0.1,0.69,21019,9883.7,0,0,165,38.01,-22.89,36.05,1.01,0.1,0.69
-3.80271324339579,0.78958124,-0.484425,0.62733746,0.99,0.08,0.64,21034,9882.7,0,0,0,59.71,-33.25,40.67,0.99,0.08,0.64
-3.79632667611404,1.0735812,-0.47842503,0.68833745,1,0.15,0.7,21049,9882.7,0,0,165,79.59,-32.83,44.94,1,0.15,0.7
-3.7738011258956,1.3515813,-0.57142496,0.8933375,0.99,0.07,0.7,21057,9882.7,0,0,0,99.05,-39.34,59.29,0.99,0.07,0.7
-3.58734648922491,1.6555812,-0.721425,1.1163375,0.97,0.08,0.68,21071,9883,0,0,165,120.33,-49.84,74.9,0.97,0.08,0.68
-3.69951845929715,2.0215812,-0.846425,1.2303375,0.95,-0.06,0.67,21087,9882.7,0,0,0,145.95,-58.59,82.88,0.95,-0.06,0.67
-3.68205596693368,2.167581,-0.86242497,1.2363375,0.96,-0.03,0.74,21094,9882.7,0,0,165,156.17,-59.71,83.3,0.96,-0.03,0.74
-3.20250496798471,1.8755811,-0.908425,1.3753375,0.97,-0.04,0.79,21109,9883.7,0,0,0,135.73,-62.93,93.03,0.97,-0.04,0.79
-3.75989056370372,1.3425813,-1.021425,1.4403375,0.96,-0.06,0.8,21125,9882.7,0,0,165,98.42,-70.84,97.58,0.96,-0.06,0.8
-3.82983207151557,0.5405812,-1.1554251,1.4603375,0.93,-0.08,0.8,21131,9882.7,0,0,0,42.28,-80.22,98.98,0.93,-0.08,0.8
-3.87687721833638,-0.110418744,-1.192425,1.4103376,0.94,-0.15,0.77,21147,9882.7,0,0,165,-3.29,-82.81,95.48,0.94,-0.15,0.77
-4.37743756139505,-0.5664187,-1.1004251,1.3933375,0.93,-0.16,0.71,21164,9881.7,0,0,0,-35.21,-76.37,94.29,0.93,-0.16,0.71
-3.83607144238059,-0.9444187,-0.86342496,1.4813374,0.9,-0.23,0.68,21169,9882.7,0,0,165,-61.67,-59.78,100.45,0.9,-0.23,0.68
-3.28111015960241,-1.2124188,-0.90042496,1.5983375,0.89,-0.31,0.7,21184,9883.7,0,0,0,-80.43,-62.37,108.64,0.89,-0.31,0.7
-3.74243003290279,-0.9684187,-1.419425,1.0483375,0.78,-0.53,0.8,21199,9882.7,0,0,165,-63.35,-98.7,70.14,0.78,-0.53,0.8
-3.72978549259018,-0.25241876,-2.561425,0.47633752,0.86,-0.35,0.64,21207,9882.7,0,0,0,-13.23,-178.64,30.1,0.86,-0.35,0.64
-3.72865739540559,0.105581254,-2.5464249,0.66333747,0.8,-0.37,0.26,21222,9882.7,0,0,165,11.83,-177.59,43.19,0.8,-0.37,0.26
-3.71408422804955,0.47858125,-2.041425,0.6443375,0.78,-0.34,0.22,21238,9882.7,0,0,0,37.94,-142.24,41.86,0.78,-0.34,0.22
-3.66905889309203,0.23958123,-1.684425,0.6413375,0.82,-0.2,0.31,21247,9882.7,0,0,165,21.21,-117.25,41.65,0.82,-0.2,0.31
-3.09432597397579,0.015581258,-1.7254251,0.6713375,0.79,-0.31,0.33,21259,9883.7,0,0,0,5.53,-120.12,43.75,0.79,-0.31,0.33
-3.50644540784373,0.26658127,-1.8854251,0.72433746,0.77,-0.29,0.2,21275,9882.7,0,0,165,23.1,-131.32,47.46,0.77,-0.29,0.2
-2.92960245727402,0.5795812,-1.7094251,0.8373375,0.73,-0.27,-0,21282,9883.7,0,0,0,45.01,-119,55.37,0.73,-0.27,-0
-3.38729129367497,0.69158125,-1.3554251,0.94033754,0.7,-0.27,-0.02,21297,9882.7,0,0,165,52.85,-94.22,62.58,0.7,-0.27,-0.02
-2.89549273949255,0.5735813,-0.97042495,1.0293375,0.69,-0.23,0.04,21312,9883.7,0,0,0,44.59,-67.27,68.81,0.69,-0.23,0.04
-2.9569339104694,0.26658127,-0.854425,1.1653376,0.69,-0.27,0.05,21319,9883.7,0,0,165,23.1,-59.15,78.33,0.69,-0.27,0.05
-3.55868418930731,-0.059418745,-0.77442497,1.2473375,0.71,-0.31,0.09,21334,9882.7,0,0,0,0.28,-53.55,84.07,0.71,-0.31,0.09
-3.67653033921239,-0.26541877,-0.72542495,1.2353375,0.71,-0.4,0.15,21349,9882.7,0,0,165,-14.14,-50.12,83.23,0.71,-0.4,0.15
-3.78475282174102,-0.15941873,-0.77642494,0.9153375,0.74,-0.49,0.16,21364,9882.7,0,0,0,-6.72,-53.69,60.83,0.74,-0.49,0.16
-3.864600617601,-0.021418747,-0.94342494,0.68833745,0.72,-0.32,0.08,21371,9882.7,0,0,165,2.94,-65.38,44.94,0.72,-0.32,0.08
-4.05635680802193,-0.092418745,-0.936425,0.8533375,0.68,-0.32,-0.07,21387,9882.4,0,0,0,-2.03,-64.89,56.49,0.68,-0.32,-0.07
-3.90729665059931,0.04558126,-0.721425,0.9553375,0.65,-0.41,-0.14,21394,9882.7,0,0,165,7.63,-49.84,63.63,0.65,-0.41,-0.14
-4.01874866933324,0.23958123,-0.39042503,0.9593375,0.67,-0.45,-0.09,21410,9882.4,0,0,0,21.21,-26.67,63.91,0.67,-0.45,-0.09
-3.79957287795436,0.22258127,-0.16142501,0.92333746,0.7,-0.5,0.01,21424,9882.7,0,0,165,20.02,-10.64,61.39,0.7,-0.5,0.01
-3.71882115086716,0.11458126,-0.129425,0.8163375,0.71,-0.53,0.06,21431,9882.7,0,0,0,12.46,-8.4,53.9,0.71,-0.53,0.06
-3.65749868662677,0.025581256,-0.149425,0.6623375,0.71,-0.56,0.06,21447,9882.7,0,0,165,6.23,-9.8,43.12,0.71,-0.56,0.06
-3.64997452382955,-0.20741874,-0.079425,0.4963375,0.77,-0.51,0.1,21462,9882.7,0,0,0,-10.08,-4.9,31.5,0.77,-0.51,0.1
-3.36701438395284,-0.50741875,-0.052425005,0.3293375,0.82,-0.5,0.2,21469,9883.4,0,0,165,-31.08,-3.01,19.81,0.82,-0.5,0.2
-3.84895794668179,-0.61441875,-0.273425,0.22133751,0.83,-0.47,0.2,21484,9882.7,0,0,0,-38.57,-18.48,12.25,0.83,-0.47,0.2
-4.15075839995679,-0.44141874,-0.40242502,0.15033752,0.84,-0.42,0.13,21499,9882.4,0,0,165,-26.46,-27.51,7.28,0.84,-0.42,0.13
-4.76089516268843,-0.24641876,-0.37742501,0.18433751,0.83,-0.43,0.06,21507,9881.4,0,0,0,-12.81,-25.76,9.66,0.83,-0.43,0.06
-4.13219962532418,-0.13441874,-0.318425,0.2103375,0.81,-0.42,0.02,21522,9882.7,0,0,165,-4.97,-21.63,11.48,0.81,-0.42,0.02
-4.70860952728692,-0.21641874,-0.22042501,0.2643375,0.83,-0.39,0.03,21536,9881.4,0,0,0,-10.71,-14.77,15.26,0.83,-0.39,0.03
-4.08000072165455,-0.44041875,-0.142425,0.41233754,0.85,-0.35,0.04,21545,9882.4,0,0,165,-26.39,-9.31,25.62,0.85,-0.35,0.04
-3.30885141737119,-0.5824188,-0.129425,0.48233753,0.85,-0.4,0.06,21560,9883.7,0,0,0,-36.33,-8.4,30.52,0.85,-0.4,0.06
-3.74543967189621,-0.52641875,-0.153425,0.5843375,0.87,-0.43,0.05,21574,9882.7,0,0,165,-32.41,-10.08,37.66,0.87,-0.43,0.05
-3.90378433521668,-0.36841875,-0.0004250016,0.5903375,0.88,-0.43,0.1,21582,9882.4,0,0,0,-21.35,0.63,38.08,0.88,-0.43,0.1
-3.96212016494463,-0.36841875,-0.024425,0.64533746,0.91,-0.46,0.18,21597,9882.4,0,0,165,-21.35,-1.05,41.93,0.91,-0.46,0.18
-3.88294115295213,-0.33041877,-0.242425,0.69033754,0.88,-0.54,0.17,21612,9882.7,0,0,0,-18.69,-16.31,45.08,0.88,-0.54,0.17
-4.08613690550828,-0.020418745,-0.382425,0.5813375,0.84,-0.6,0.08,21619,9882.4,0,0,165,3.01,-26.11,37.45,0.84,-0.6,0.08
-4.11239426433968,0.24758127,-0.32542503,0.44333753,0.83,-0.57,0.03,21634,9882.4,0,0,0,21.77,-22.12,27.79,0.83,-0.57,0.03
-4.12125595728891,0.21058127,-0.249425,0.33233753,0.85,-0.56,0.04,21649,9882.4,0,0,165,19.18,-16.8,20.02,0.85,-0.56,0.04
-4.13158307423621,-0.030418746,-0.254425,0.3153375,0.9,-0.47,0.08,21656,9882.4,0,0,0,2.31,-17.15,18.83,0.9,-0.47,0.08
-4.15898033031954,-0.15841874,-0.33942503,0.3843375,0.88,-0.46,0.04,21672,9882.4,0,0,165,-6.65,-23.1,23.66,0.88,-0.46,0.04
-4.20730704682428,-0.10541874,-0.378425,0.5133375,0.92,-0.4,0.03,21686,9882.4,0,0,0,-2.94,-25.83,32.69,0.92,-0.4,0.03
-4.26872250976715,-0.04241875,-0.290425,0.6323375,0.91,-0.46,0.05,21694,9882.4,0,0,165,1.47,-19.67,41.02,0.91,-0.46,0.05
-4.83202766240559,0.14058125,-0.35842502,0.6323375,0.89,-0.51,0.06,21709,9881.4,0,0,0,14.28,-24.43,41.02,0.89,-0.51,0.06
-4.74242597965243,0.18258125,-0.422425,0.65233743,0.89,-0.51,0.04,21724,9881.7,0,0,165,17.22,-28.91,42.42,0.89,-0.51,0.04
-4.45235013333728,0.13458125,-0.42542502,0.61433744,0.86,-0.57,0.02,21732,9882.4,0,0,0,13.86,-29.12,39.76,0.86,-0.57,0.02
-4.36329463468072,0.17558125,-0.47842503,0.5533375,0.84,-0.6,0,21747,9882.7,0,0,165,16.73,-32.83,35.49,0.84,-0.6,0
-5.56462712530177,0.28558126,-0.510425,0.5543375,0.84,-0.65,-0.04,21762,9880.4,0,0,0,24.43,-35.07,35.56,0.84,-0.65,-0.04
-4.58699695574124,0.4545812,-0.43942502,0.4493375,0.81,-0.71,0.52,21769,9882.4,0,0,165,36.26,-30.1,28.21,0.81,-0.71,0.52
-5.06499725517524,-2.0534186,1.8375748,-0.23366249,0.8,-0.24,1.35,21784,9881.4,0,0,0,-139.3,129.29,-19.6,0.8,-0.24,1.35
-5.00123203338184,-2.8304186,-0.934425,0.3823375,0.96,-0.71,0.36,21799,9881.4,0,0,165,-193.69,-64.75,23.52,0.96,-0.71,0.36
-4.41789790706727,-1.0274189,-1.031425,0.08433752,0.84,-0.51,-0,21807,9882.4,0,0,0,-67.48,-71.54,2.66,0.84,-0.51,-0
-4.34486470391297,0.8715812,-1.325425,0.47133753,0.79,-0.74,-0.3,21822,9882.4,0,0,165,65.45,-92.12,29.75,0.79,-0.74,-0.3
-4.30320430765734,1.6215812,0.025574999,0.075337514,0.73,-0.46,-0.21,21836,9882.4,0,0,0,117.95,2.45,2.03,0.73,-0.46,-0.21
-4.79614988420411,0.43658125,0.0055749984,0.42333752,0.74,-0.46,-0,21844,9881.4,0,0,165,35,1.05,26.39,0.74,-0.46,-0
-4.31160026877128,-0.50341874,-0.208425,0.77633744,0.74,-0.43,-0.11,21859,9882.4,0,0,0,-30.8,-13.93,51.1,0.74,-0.43,-0.11
-4.33017070589083,-0.6074188,-0.102425,0.8343375,0.74,-0.59,-0.06,21874,9882.4,0,0,165,-38.08,-6.51,55.16,0.74,-0.59,-0.06
-4.33222088669531,0.0035812557,-0.208425,0.78833747,0.77,-0.61,0.01,21881,9882.4,0,0,0,4.69,-13.93,51.94,0.77,-0.61,0.01
-4.30438282255092,0.21858126,-0.262425,0.8453375,0.78,-0.64,0.04,21897,9882.4,0,0,165,19.74,-17.71,55.93,0.78,-0.64,0.04
-4.74793708030048,0.08958125,-0.39042503,0.9333375,0.81,-0.67,0.04,21912,9881.4,0,0,0,10.71,-26.67,62.09,0.81,-0.67,0.04
-4.18400134633941,-0.13141875,-0.442425,0.9223375,0.8,-0.64,-0.01,21919,9882.4,0,0,165,-4.76,-30.31,61.32,0.8,-0.64,-0.01
-3.64585736386119,-0.016418748,-0.428425,0.7683375,0.76,-0.71,-0.03,21934,9883.4,0,0,0,3.29,-29.33,50.54,0.76,-0.71,-0.03
-4.15765582623604,0.27458125,-0.449425,0.4193375,0.81,-0.73,-0,21949,9882.4,0,0,165,23.66,-30.8,26.11,0.81,-0.73,-0
