Pressure_Rel,GyroX_Rel,GyroY_Rel,GyroZ_Rel,AccX_Rel,AccY_Rel,AccZ_Rel,Timestamp,Pressure_abs,HeartRate,Oxygen,Status,GyroX,GyroY,GyroZ,AccX,AccY,AccZ
8.331055,5.936865E-4,-0.004329391,-5.6015886E-4,0.28,0.83,0.5,14253,10057.90,0,0,2,-0.28,-1.75,0.56,0.28,0.83,0.50
8.331055,-4.0631322E-4,-0.005329391,4.3984037E-4,0.27,0.83,0.5,14277,10057.90,0,0,2,-0.35,-1.82,0.63,0.27,0.83,0.50
8.331055,5.936865E-4,-3.2939017E-4,4.3984037E-4,0.27,0.84,0.5,14299,10057.90,0,0,2,-0.28,-1.47,0.63,0.27,0.84,0.50
9.331055,0.0015936869,0.004670609,0.0024398407,0.27,0.83,0.5,14314,10058.90,0,0,2,-0.21,-1.12,0.77,0.27,0.83,0.50
8.331055,0.0015936869,0.00967061,0.004439841,0.28,0.83,0.5,14328,10057.90,0,0,2,-0.21,-0.77,0.91,0.28,0.83,0.50
8.630859,-4.0631322E-4,0.00967061,0.0064398404,0.28,0.83,0.5,14344,10058.20,0,0,2,-0.35,-0.77,1.05,0.28,0.83,0.50
8.630859,-0.0024063135,0.006670609,0.00943984,0.28,0.83,0.5,14367,10058.20,0,0,2,-0.49,-0.98,1.26,0.28,0.83,0.50
9.030273,-4.0631322E-4,0.0016706083,0.010439842,0.28,0.84,0.5,14382,10058.60,0,0,2,-0.35,-1.33,1.33,0.28,0.84,0.50
9.630859,0.005593687,6.7061E-4,0.013439841,0.27,0.84,0.5,14404,10059.20,0,0,3,0.07,-1.40,1.54,0.27,0.84,0.50
5.6308594,0.010593686,0.006670609,0.00943984,0.28,0.83,0.5,14419,10055.20,0,0,3,0.42,-0.98,1.26,0.28,0.83,0.50
9.030273,0.0035936865,0.00567061,0.010439842,0.28,0.83,0.5,14442,10058.60,0,0,3,-0.07,-1.05,1.33,0.28,0.83,0.50
9.030273,0.0015936869,0.004670609,0.015439839,0.28,0.83,0.5,14465,10058.60,0,0,3,-0.21,-1.12,1.68,0.28,0.83,0.50
8.630859,0.0045936867,0.004670609,0.02043984,0.28,0.83,0.5,14487,10058.20,0,0,3,0.00,-1.12,2.03,0.28,0.83,0.50
6.6308594,0.005593687,0.0076706093,0.019439843,0.28,0.83,0.5,14509,10056.20,0,0,3,0.07,-0.91,1.96,0.28,0.83,0.50
8.630859,0.0075936867,0.00867061,0.01843984,0.28,0.83,0.5,14532,10058.20,0,0,3,0.21,-0.84,1.89,0.28,0.83,0.50
8.630859,0.011593686,0.00867061,0.01643984,0.28,0.83,0.49,14546,10058.20,0,0,3,0.49,-0.84,1.75,0.28,0.83,0.49
7.6308594,0.011593686,0.0076706093,0.013439841,0.28,0.83,0.5,14569,10057.20,0,0,3,0.49,-0.91,1.54,0.28,0.83,0.50
8.630859,0.013593687,0.00967061,0.014439841,0.28,0.83,0.5,14584,10058.20,0,0,3,0.63,-0.77,1.61,0.28,0.83,0.50
9.030273,0.014593687,0.00967061,0.017439842,0.28,0.83,0.5,14599,10058.60,0,0,3,0.70,-0.77,1.82,0.28,0.83,0.50
9.030273,0.016593685,0.01067061,0.017439842,0.28,0.83,0.5,14615,10058.60,0,0,3,0.84,-0.70,1.82,0.28,0.83,0.50
8.630859,0.018593688,0.012670609,0.02143984,0.28,0.84,0.5,14629,10058.20,0,0,3,0.98,-0.56,2.10,0.28,0.84,0.50
10.630859,0.021593688,0.01167061,0.014439841,0.28,0.83,0.5,14651,10060.20,0,0,3,1.19,-0.63,1.61,0.28,0.83,0.50
5.6308594,0.013593687,0.013670609,0.0124398405,0.28,0.83,0.5,14674,10055.20,0,0,3,0.63,-0.49,1.47,0.28,0.83,0.50
7.6308594,0.0065936865,0.01467061,0.01643984,0.28,0.83,0.49,14696,10057.20,0,0,3,0.14,-0.42,1.75,0.28,0.83,0.49
7.6308594,0.0045936867,0.017670609,0.0124398405,0.28,0.84,0.49,14712,10057.20,0,0,3,0.00,-0.21,1.47,0.28,0.84,0.49
9.030273,0.0065936865,0.02367061,0.0064398404,0.28,0.83,0.49,14734,10058.60,0,0,3,0.14,0.21,1.05,0.28,0.83,0.49
8.630859,-0.0014063129,0.02067061,0.0014398405,0.28,0.83,0.49,14756,10058.20,0,0,3,-0.42,0.00,0.70,0.28,0.83,0.49
8.030273,-0.0024063135,0.01067061,-5.6015886E-4,0.28,0.83,0.49,14778,10057.60,0,0,3,-0.49,-0.70,0.56,0.28,0.83,0.49
8.030273,-0.0074063125,0.004670609,0.005439841,0.28,0.83,0.5,14800,10057.60,0,0,3,-0.84,-1.12,0.98,0.28,0.83,0.50
11.030273,-0.005406313,0.0016706083,0.008439842,0.28,0.83,0.5,14817,10060.60,0,0,3,-0.70,-1.33,1.19,0.28,0.83,0.50
9.331055,-0.005406313,-3.2939017E-4,0.0074398415,0.28,0.84,0.5,14831,10058.90,0,0,3,-0.70,-1.47,1.12,0.28,0.84,0.50
8.331055,5.936865E-4,6.7061E-4,0.0124398405,0.28,0.84,0.5,14847,10057.90,0,0,3,-0.28,-1.40,1.47,0.28,0.84,0.50
9.030273,0.0015936869,6.7061E-4,0.013439841,0.28,0.84,0.5,14861,10058.60,0,0,3,-0.21,-1.40,1.54,0.28,0.84,0.50
8.331055,0.0045936867,0.0036706086,0.0124398405,0.28,0.84,0.5,14876,10057.90,0,0,3,0.00,-1.19,1.47,0.28,0.84,0.50
7.0302734,0.008593687,0.01167061,0.005439841,0.28,0.84,0.5,14899,10056.60,0,0,3,0.28,-0.63,0.98,0.28,0.84,0.50
4.0302734,0.012593687,0.017670609,-5.6015886E-4,0.28,0.83,0.49,14921,10053.60,0,0,3,0.56,-0.21,0.56,0.28,0.83,0.49
8.331055,0.012593687,0.015670609,-0.004560159,0.28,0.84,0.49,14944,10057.90,0,0,3,0.56,-0.35,0.28,0.28,0.84,0.49
8.331055,0.011593686,0.01167061,-0.004560159,0.28,0.84,0.49,14966,10057.90,0,0,3,0.49,-0.63,0.28,0.28,0.84,0.49
9.331055,0.0065936865,0.006670609,-0.0055601597,0.28,0.83,0.49,14989,10058.90,0,0,3,0.14,-0.98,0.21,0.28,0.83,0.49
9.331055,0.0015936869,0.0016706083,-0.006560159,0.28,0.83,0.49,15019,10058.90,0,0,3,-0.21,-1.33,0.14,0.28,0.83,0.49
9.630859,5.936865E-4,-0.0023293905,-0.008560159,0.28,0.83,0.49,15027,10059.20,0,0,3,-0.28,-1.61,0.00,0.28,0.83,0.49
9.331055,-0.0014063129,-0.005329391,-0.004560159,0.28,0.83,0.5,15049,10058.90,0,0,3,-0.42,-1.82,0.28,0.28,0.83,0.50
9.030273,-0.004406313,-0.013329392,-0.004560159,0.28,0.84,0.49,15071,10058.60,0,0,3,-0.63,-2.38,0.28,0.28,0.84,0.49
9.331055,0.0025936866,-0.017329393,-0.007560159,0.28,0.85,0.49,15086,10058.90,0,0,3,-0.14,-2.66,0.07,0.28,0.85,0.49
9.331055,0.0075936867,-0.018329391,-0.008560159,0.27,0.84,0.5,15101,10058.90,0,0,3,0.21,-2.73,0.00,0.27,0.84,0.50
8.331055,0.0065936865,-0.015329389,-0.012560159,0.27,0.83,0.5,15116,10057.90,0,0,3,0.14,-2.52,-0.28,0.27,0.83,0.50
10.630859,0.0015936869,-0.013329392,-0.011560159,0.27,0.83,0.5,15131,10060.20,0,0,3,-0.21,-2.38,-0.21,0.27,0.83,0.50
10.030273,-0.012406314,-0.015329389,4.3984037E-4,0.28,0.84,0.5,15153,10059.60,0,0,3,-1.19,-2.52,0.63,0.28,0.84,0.50
11.030273,-0.008406313,-0.013329392,0.004439841,0.27,0.84,0.49,15177,10060.60,0,0,3,-0.91,-2.38,0.91,0.27,0.84,0.49
8.331055,0.0035936865,-0.006329391,-0.001560159,0.27,0.84,0.49,15199,10057.90,0,0,3,-0.07,-1.89,0.49,0.27,0.84,0.49
9.331055,0.010593686,-0.0033293888,-0.0035601594,0.27,0.83,0.49,15213,10058.90,0,0,3,0.42,-1.68,0.35,0.27,0.83,0.49
9.630859,0.010593686,-0.00932939,-0.0025601597,0.28,0.83,0.49,15236,10059.20,0,0,3,0.42,-2.10,0.42,0.28,0.83,0.49
9.630859,0.005593687,-0.01232939,4.3984037E-4,0.27,0.83,0.5,15259,10059.20,0,0,3,0.07,-2.31,0.63,0.27,0.83,0.50
13.730469,0.005593687,-0.006329391,0.00943984,0.28,0.83,0.5,15281,10063.30,0,0,3,0.07,-1.89,1.26,0.28,0.83,0.50
10.630859,0.0025936866,-0.004329391,0.015439839,0.28,0.83,0.49,15296,10060.20,0,0,3,-0.14,-1.75,1.68,0.28,0.83,0.49
9.630859,0.0045936867,-0.0073293913,0.017439842,0.28,0.84,0.5,15319,10059.20,0,0,3,0.00,-1.96,1.82,0.28,0.84,0.50
8.630859,0.0035936865,-0.006329391,0.024439842,0.28,0.84,0.49,15334,10058.20,0,0,3,-0.07,-1.89,2.31,0.28,0.84,0.49
9.630859,0.0025936866,-0.0033293888,0.017439842,0.28,0.84,0.5,15349,10059.20,0,0,3,-0.14,-1.68,1.82,0.28,0.84,0.50
9.630859,-0.005406313,-3.2939017E-4,0.0064398404,0.28,0.83,0.5,15363,10059.20,0,0,3,-0.70,-1.47,1.05,0.28,0.83,0.50
10.030273,-0.009406313,-3.2939017E-4,0.005439841,0.28,0.84,0.5,15378,10059.60,0,0,3,-0.98,-1.47,0.98,0.28,0.84,0.50
11.630859,-0.013406312,6.7061E-4,-0.0025601597,0.28,0.84,0.49,15401,10061.20,0,0,3,-1.26,-1.40,0.42,0.28,0.84,0.49
8.630859,-0.011406314,-3.2939017E-4,-0.01056016,0.27,0.84,0.49,15424,10058.20,0,0,3,-1.12,-1.47,-0.14,0.27,0.84,0.49
8.030273,-0.009406313,-0.0013293903,-0.015560159,0.28,0.83,0.49,15446,10057.60,0,0,3,-0.98,-1.54,-0.49,0.28,0.83,0.49
10.030273,-0.010406313,-0.004329391,-0.015560159,0.27,0.83,0.49,15461,10059.60,0,0,3,-1.05,-1.75,-0.49,0.27,0.83,0.49
9.630859,-0.009406313,-0.01232939,-0.014560159,0.27,0.83,0.49,15484,10059.20,0,0,3,-0.98,-2.31,-0.42,0.27,0.83,0.49
11.030273,-0.005406313,-0.01932939,-0.012560159,0.26,0.84,0.49,15506,10060.60,0,0,3,-0.70,-2.80,-0.28,0.26,0.84,0.49
10.030273,-0.0064063133,-0.02132939,-0.008560159,0.27,0.83,0.49,15529,10059.60,0,0,3,-0.77,-2.94,0.00,0.27,0.83,0.49
10.030273,-0.008406313,-0.02132939,0.0014398405,0.27,0.83,0.49,15551,10059.60,0,0,3,-0.91,-2.94,0.70,0.27,0.83,0.49
10.030273,-0.013406312,-0.020329388,0.0074398415,0.27,0.83,0.49,15566,10059.60,0,0,3,-1.26,-2.87,1.12,0.27,0.83,0.49
9.030273,-0.015406312,-0.020329388,0.0124398405,0.28,0.83,0.49,15581,10058.60,0,0,3,-1.40,-2.87,1.47,0.28,0.83,0.49
12.030273,-0.018406313,-0.02132939,0.017439842,0.28,0.83,0.5,15596,10061.60,0,0,3,-1.61,-2.94,1.82,0.28,0.83,0.50
10.030273,-0.016406313,-0.020329388,0.019439843,0.28,0.84,0.5,15611,10059.60,0,0,3,-1.47,-2.87,1.96,0.28,0.84,0.50
11.630859,-0.014406314,-0.01932939,0.01843984,0.28,0.84,0.5,15626,10061.20,0,0,3,-1.33,-2.80,1.89,0.28,0.84,0.50
11.030273,-0.004406313,-0.01632939,0.02143984,0.28,0.84,0.5,15648,10060.60,0,0,3,-0.63,-2.59,2.10,0.28,0.84,0.50
12.331055,0.0035936865,-0.01932939,0.024439842,0.29,0.84,0.5,15671,10061.90,0,0,3,-0.07,-2.80,2.31,0.29,0.84,0.50
11.331055,0.0075936867,-0.02132939,0.02143984,0.29,0.84,0.5,15694,10060.90,0,0,3,0.21,-2.94,2.10,0.29,0.84,0.50
10.331055,0.010593686,-0.013329392,0.014439841,0.29,0.84,0.5,15717,10059.90,0,0,3,0.42,-2.38,1.61,0.29,0.84,0.50
10.331055,0.009593686,-0.011329392,0.0124398405,0.29,0.84,0.5,15731,10059.90,0,0,3,0.35,-2.24,1.47,0.29,0.84,0.50
10.030273,0.013593687,-0.0013293903,0.0024398407,0.28,0.83,0.5,15753,10059.60,0,0,3,0.63,-1.54,0.77,0.28,0.83,0.50
9.331055,0.014593687,-0.0023293905,-0.0055601597,0.28,0.84,0.5,15777,10058.90,0,0,3,0.70,-1.61,0.21,0.28,0.84,0.50
10.331055,0.015593687,-0.010329392,-0.004560159,0.28,0.83,0.5,15799,10059.90,0,0,3,0.77,-2.17,0.28,0.28,0.83,0.50
10.331055,0.008593687,-0.01232939,-0.008560159,0.29,0.83,0.49,15814,10059.90,0,0,3,0.28,-2.31,0.00,0.29,0.83,0.49
11.331055,0.009593686,-0.014329391,-0.001560159,0.29,0.83,0.49,15828,10060.90,0,0,3,0.35,-2.45,0.49,0.29,0.83,0.49
10.630859,0.015593687,-0.029329391,0.005439841,0.29,0.83,0.49,15844,10060.20,0,0,3,0.77,-3.50,0.98,0.29,0.83,0.49
11.331055,0.011593686,-0.035329394,0.00343984,0.29,0.83,0.49,15866,10060.90,0,0,3,0.49,-3.92,0.84,0.29,0.83,0.49
12.331055,0.016593685,-0.043329395,0.0064398404,0.28,0.83,0.49,15881,10061.90,0,0,3,0.84,-4.48,1.05,0.28,0.83,0.49
10.331055,0.037593685,-0.068329394,0.025439844,0.28,0.83,0.49,15905,10059.90,0,0,3,2.31,-6.23,2.38,0.28,0.83,0.49
13.331055,0.088593684,-0.11132939,0.07143984,0.28,0.83,0.5,15920,10062.90,0,0,3,5.88,-9.24,5.60,0.28,0.83,0.50
12.030273,0.110593684,-0.11232939,0.07143984,0.29,0.84,0.49,15942,10061.60,0,0,3,7.42,-9.31,5.60,0.29,0.84,0.49
12.331055,0.07359368,-0.069329396,0.03243984,0.3,0.83,0.48,15971,10061.90,0,0,3,4.83,-6.30,2.87,0.30,0.83,0.48
12.331055,0.036593687,-0.01232939,0.0064398404,0.29,0.84,0.48,15986,10061.90,0,0,3,2.24,-2.31,1.05,0.29,0.84,0.48
11.630859,0.019593686,-0.004329391,0.0014398405,0.29,0.83,0.48,16016,10061.20,0,0,3,1.05,-1.75,0.70,0.29,0.83,0.48
10.630859,0.005593687,-0.0013293903,-0.0055601597,0.29,0.84,0.48,16031,10060.20,0,0,3,0.07,-1.54,0.21,0.29,0.84,0.48
10.630859,0.030593688,-0.022329392,0.015439839,0.29,0.84,0.48,16047,10060.20,0,0,3,1.82,-3.01,1.68,0.29,0.84,0.48
9.630859,0.031593688,-0.022329392,0.01143984,0.29,0.84,0.49,16069,10059.20,0,0,3,1.89,-3.01,1.40,0.29,0.84,0.49
11.630859,0.020593688,-0.013329392,-0.007560159,0.3,0.84,0.48,16083,10061.20,0,0,3,1.12,-2.38,0.07,0.30,0.84,0.48
12.730469,0.019593686,-0.015329389,-0.01056016,0.3,0.84,0.48,16098,10062.30,0,0,3,1.05,-2.52,-0.14,0.30,0.84,0.48
10.630859,-0.025406312,0.0036706086,-0.01856016,0.29,0.85,0.48,16114,10060.20,0,0,3,-2.10,-1.19,-0.70,0.29,0.85,0.48
14.331055,5.936865E-4,-0.0023293905,-0.017560158,0.29,0.83,0.48,16129,10063.90,0,0,3,-0.28,-1.61,-0.63,0.29,0.83,0.48
14.730469,0.024593687,-0.02532939,-5.6015886E-4,0.29,0.84,0.48,16152,10064.30,0,0,3,1.40,-3.22,0.56,0.29,0.84,0.48
17.030273,0.046593685,-0.053329393,0.014439841,0.3,0.84,0.48,16174,10066.60,0,0,3,2.94,-5.18,1.61,0.30,0.84,0.48
10.630859,0.029593688,-0.026329389,0.008439842,0.3,0.83,0.48,16196,10060.20,0,0,3,1.75,-3.29,1.19,0.30,0.83,0.48
14.331055,0.014593687,-0.014329391,0.00343984,0.3,0.83,0.48,16212,10063.90,0,0,3,0.70,-2.45,0.84,0.30,0.83,0.48
13.730469,0.0015936869,0.004670609,-5.6015886E-4,0.3,0.84,0.47,16241,10063.30,0,0,3,-0.21,-1.12,0.56,0.30,0.84,0.47
13.030273,0.005593687,-0.011329392,0.0074398415,0.3,0.83,0.48,16264,10062.60,0,0,3,0.07,-2.24,1.12,0.30,0.83,0.48
12.030273,0.025593687,-0.01932939,0.02043984,0.3,0.83,0.48,16280,10061.60,0,0,3,1.47,-2.80,2.03,0.30,0.83,0.48
9.630859,0.044593684,-0.026329389,0.036439843,0.3,0.84,0.48,16301,10059.20,0,0,3,2.80,-3.29,3.15,0.30,0.84,0.48
8.030273,0.037593685,-0.0073293913,0.03743984,0.3,0.84,0.48,16324,10057.60,0,0,3,2.31,-1.96,3.22,0.30,0.84,0.48
7.0302734,0.056593686,-0.035329394,0.04643984,0.3,0.85,0.48,16331,10056.60,0,0,3,3.64,-3.92,3.85,0.30,0.85,0.48
1.9306641,0.059593685,-0.03632939,0.047439843,0.3,0.84,0.47,16347,10051.50,0,0,3,3.85,-3.99,3.92,0.30,0.84,0.47
1.3310547,0.061593685,-0.02332939,0.041439842,0.3,0.84,0.47,16361,10050.90,0,0,3,3.99,-3.08,3.50,0.30,0.84,0.47
0.93066406,0.057593685,-0.02332939,0.03343984,0.31,0.84,0.47,16383,10050.50,0,0,3,3.71,-3.08,2.94,0.31,0.84,0.47
-4.069336,0.047593687,-0.011329392,0.029439844,0.3,0.84,0.47,16406,10045.50,0,0,3,3.01,-2.24,2.66,0.30,0.84,0.47
-2.069336,0.016593685,0.015670609,0.014439841,0.3,0.85,0.47,16421,10047.50,0,0,3,0.84,-0.35,1.61,0.30,0.85,0.47
-3.069336,0.017593687,0.0076706093,-0.004560159,0.3,0.83,0.47,16444,10046.50,0,0,3,0.91,-0.91,0.28,0.30,0.83,0.47
-4.069336,-0.024406312,0.026670609,-0.008560159,0.3,0.83,0.48,16466,10045.50,0,0,3,-2.03,0.42,0.00,0.30,0.83,0.48
-5.069336,-0.023406314,0.012670609,0.019439843,0.31,0.84,0.48,16488,10044.50,0,0,3,-1.96,-0.56,1.96,0.31,0.84,0.48
-7.069336,0.0065936865,0.00867061,0.02143984,0.3,0.86,0.47,16511,10042.50,0,0,3,0.14,-0.84,2.10,0.30,0.86,0.47
-7.069336,0.008593687,0.017670609,0.0074398415,0.3,0.85,0.47,16533,10042.50,0,0,3,0.28,-0.21,1.12,0.30,0.85,0.47
-4.6689453,0.009593686,0.028670609,0.00343984,0.3,0.84,0.47,16549,10044.90,0,0,3,0.35,0.56,0.84,0.30,0.84,0.47
-6.7695312,0.0075936867,0.02067061,0.005439841,0.3,0.84,0.47,16571,10042.80,0,0,3,0.21,0.00,0.98,0.30,0.84,0.47
-5.6689453,0.0025936866,0.02367061,-0.001560159,0.29,0.84,0.47,16586,10043.90,0,0,3,-0.14,0.21,0.49,0.29,0.84,0.47
-5.6689453,0.009593686,0.02367061,-0.0025601597,0.3,0.84,0.47,16616,10043.90,0,0,3,0.35,0.21,0.42,0.30,0.84,0.47
-3.6689453,0.021593688,0.01167061,0.008439842,0.3,0.84,0.47,16617,10045.90,0,0,3,1.19,-0.63,1.19,0.30,0.84,0.47
-4.6689453,0.023593688,0.012670609,0.0064398404,0.3,0.85,0.47,16631,10044.90,0,0,3,1.33,-0.56,1.05,0.30,0.85,0.47
-3.6689453,0.020593688,0.02967061,-0.0025601597,0.3,0.84,0.47,16654,10045.90,0,0,3,1.12,0.63,0.42,0.30,0.84,0.47
-4.6689453,0.0065936865,0.04167061,-0.013560159,0.3,0.83,0.47,16675,10044.90,0,0,3,0.14,1.47,-0.35,0.30,0.83,0.47
-2.6689453,-0.009406313,0.02467061,-0.0055601597,0.3,0.84,0.47,16699,10046.90,0,0,3,-0.98,0.28,0.21,0.30,0.84,0.47
-1.6689453,-0.015406312,0.017670609,0.0024398407,0.29,0.84,0.47,16721,10047.90,0,0,3,-1.40,-0.21,0.77,0.29,0.84,0.47
-1.3691406,-0.0074063125,0.02967061,-0.001560159,0.29,0.84,0.47,16736,10048.20,0,0,3,-0.84,0.63,0.49,0.29,0.84,0.47
-1.6689453,0.009593686,0.02067061,-5.6015886E-4,0.29,0.84,0.47,16758,10047.90,0,0,3,0.35,0.00,0.56,0.29,0.84,0.47
1.6308594,0.0035936865,0.01467061,-0.0035601594,0.29,0.85,0.47,16780,10051.20,0,0,3,-0.07,-0.42,0.35,0.29,0.85,0.47
-0.6689453,-0.004406313,0.02067061,-0.0055601597,0.3,0.84,0.47,16796,10048.90,0,0,3,-0.63,0.00,0.21,0.30,0.84,0.47
-0.36914062,-0.020406313,0.01967061,-0.0055601597,0.29,0.84,0.47,16811,10049.20,0,0,3,-1.75,-0.07,0.21,0.29,0.84,0.47
-0.36914062,5.936865E-4,0.0036706086,0.008439842,0.29,0.84,0.47,16833,10049.20,0,0,3,-0.28,-1.19,1.19,0.29,0.84,0.47
-2.6689453,-0.0074063125,0.004670609,0.010439842,0.28,0.84,0.47,16849,10046.90,0,0,3,-0.84,-1.12,1.33,0.28,0.84,0.47
1.6308594,0.0025936866,0.0036706086,0.015439839,0.29,0.85,0.47,16863,10051.20,0,0,3,-0.14,-1.19,1.68,0.29,0.85,0.47
2.3310547,0.018593688,0.0036706086,0.017439842,0.29,0.84,0.47,16878,10051.90,0,0,3,0.98,-1.19,1.82,0.29,0.84,0.47
2.6308594,0.005593687,0.006670609,0.010439842,0.29,0.84,0.47,16916,10052.20,0,0,3,0.07,-0.98,1.33,0.29,0.84,0.47
3.6308594,-0.010406313,0.02167061,0.0074398415,0.29,0.84,0.47,16932,10053.20,0,0,3,-1.05,0.07,1.12,0.29,0.84,0.47
4.3310547,-0.018406313,0.02767061,0.0024398407,0.29,0.84,0.47,16947,10053.90,0,0,3,-1.61,0.49,0.77,0.29,0.84,0.47
5.0302734,-0.0024063135,0.00567061,0.01143984,0.29,0.84,0.47,16961,10054.60,0,0,3,-0.49,-1.05,1.40,0.29,0.84,0.47
5.6308594,0.008593687,-0.017329393,0.0124398405,0.29,0.84,0.47,16984,10055.20,0,0,3,0.28,-2.66,1.47,0.29,0.84,0.47
7.6308594,0.008593687,-0.02132939,0.0074398415,0.29,0.85,0.47,17006,10057.20,0,0,3,0.28,-2.94,1.12,0.29,0.85,0.47
9.030273,-0.0024063135,6.7061E-4,-0.008560159,0.29,0.85,0.47,17029,10058.60,0,0,3,-0.49,-1.40,0.00,0.29,0.85,0.47
10.030273,-0.011406314,0.01067061,-0.024560161,0.29,0.84,0.47,17059,10059.60,0,0,3,-1.12,-0.70,-1.12,0.29,0.84,0.47
12.030273,-0.017406313,0.006670609,-0.023560159,0.29,0.84,0.47,17066,10061.60,0,0,3,-1.54,-0.98,-1.05,0.29,0.84,0.47
13.030273,-0.017406313,-0.00832939,-0.01856016,0.29,0.83,0.48,17081,10062.60,0,0,3,-1.54,-2.03,-0.70,0.29,0.83,0.48
12.630859,-0.012406314,-0.015329389,-0.0035601594,0.29,0.84,0.48,17097,10062.20,0,0,3,-1.19,-2.52,0.35,0.29,0.84,0.48
16.030273,-0.014406314,-0.00932939,0.005439841,0.29,0.84,0.48,17112,10065.60,0,0,3,-1.33,-2.10,0.98,0.29,0.84,0.48
15.730469,-0.009406313,-3.2939017E-4,0.00343984,0.29,0.85,0.47,17142,10065.30,0,0,3,-0.98,-1.47,0.84,0.29,0.85,0.47
18.030273,-0.0074063125,0.015670609,-0.01056016,0.28,0.85,0.47,17150,10067.60,0,0,3,-0.84,-0.35,-0.14,0.28,0.85,0.47
21.730469,0.0015936869,-0.0023293905,-0.019560158,0.29,0.84,0.47,17172,10071.30,0,0,3,-0.21,-1.61,-0.77,0.29,0.84,0.47
22.331055,0.0065936865,-0.005329391,-0.024560161,0.29,0.84,0.47,17202,10071.90,0,0,3,0.14,-1.82,-1.12,0.29,0.84,0.47
25.730469,0.012593687,-0.00832939,-0.015560159,0.29,0.84,0.48,17232,10075.30,0,0,3,0.56,-2.03,-0.49,0.29,0.84,0.48
28.030273,0.013593687,-0.014329391,-5.6015886E-4,0.29,0.83,0.48,17239,10077.60,0,0,3,0.63,-2.45,0.56,0.29,0.83,0.48
29.030273,0.010593686,0.0016706083,0.008439842,0.29,0.84,0.48,17262,10078.60,0,0,3,0.42,-1.33,1.19,0.29,0.84,0.48
31.030273,0.022593686,0.004670609,0.019439843,0.3,0.85,0.48,17277,10080.60,0,0,3,1.26,-1.12,1.96,0.30,0.85,0.48
30.030273,0.008593687,0.0026706103,0.015439839,0.29,0.85,0.48,17299,10079.60,0,0,3,0.28,-1.26,1.68,0.29,0.85,0.48
31.030273,0.0025936866,0.01067061,0.008439842,0.29,0.84,0.48,17314,10080.60,0,0,3,-0.14,-0.70,1.19,0.29,0.84,0.48
30.430664,-0.2484063,0.01967061,0.0074398415,0.29,0.85,0.48,17336,10080.00,0,0,3,-17.71,-0.07,1.12,0.29,0.85,0.48
28.730469,0.0075936867,0.02267061,4.3984037E-4,0.29,0.85,0.48,17359,10078.30,0,0,3,0.21,0.14,0.63,0.29,0.85,0.48
28.030273,0.013593687,0.02367061,0.0014398405,0.29,0.84,0.48,17366,10077.60,0,0,3,0.63,0.21,0.70,0.29,0.84,0.48
28.030273,0.005593687,0.02367061,-0.006560159,0.29,0.84,0.48,17388,10077.60,0,0,3,0.07,0.21,0.14,0.29,0.84,0.48
29.030273,-0.008406313,0.03067061,-0.013560159,0.29,0.84,0.47,17404,10078.60,0,0,3,-0.91,0.70,-0.35,0.29,0.84,0.47
28.430664,-0.009406313,0.02467061,-0.012560159,0.29,0.84,0.47,17426,10078.00,0,0,3,-0.98,0.28,-0.28,0.29,0.84,0.47
27.730469,-0.0074063125,0.013670609,-0.013560159,0.29,0.84,0.47,17449,10077.30,0,0,3,-0.84,-0.49,-0.35,0.29,0.84,0.47
27.430664,-0.029406315,0.02267061,-0.02756016,0.29,0.84,0.48,17464,10077.00,0,0,3,-2.38,0.14,-1.33,0.29,0.84,0.48
27.430664,-0.019406311,0.015670609,-0.020560158,0.29,0.84,0.48,17486,10077.00,0,0,3,-1.68,-0.35,-0.84,0.29,0.84,0.48
26.430664,-0.016406313,0.004670609,-0.01656016,0.29,0.84,0.48,17508,10076.00,0,0,3,-1.47,-1.12,-0.56,0.29,0.84,0.48
26.430664,-0.012406314,6.7061E-4,-0.0025601597,0.29,0.84,0.48,17531,10076.00,0,0,3,-1.19,-1.40,0.42,0.29,0.84,0.48
26.430664,-0.016406313,0.00567061,-0.006560159,0.28,0.84,0.48,17554,10076.00,0,0,3,-1.47,-1.05,0.14,0.28,0.84,0.48
24.430664,-0.012406314,-0.0023293905,-5.6015886E-4,0.29,0.84,0.48,17569,10074.00,0,0,3,-1.19,-1.61,0.56,0.29,0.84,0.48
25.430664,-4.0631322E-4,-0.0073293913,0.004439841,0.28,0.84,0.48,17583,10075.00,0,0,3,-0.35,-1.96,0.91,0.28,0.84,0.48
25.030273,-0.0034063137,-0.005329391,4.3984037E-4,0.28,0.84,0.48,17599,10074.60,0,0,3,-0.56,-1.82,0.63,0.28,0.84,0.48
25.430664,-0.0024063135,0.0076706093,-0.0035601594,0.28,0.84,0.48,17614,10075.00,0,0,3,-0.49,-0.91,0.35,0.28,0.84,0.48
24.730469,-0.010406313,0.01967061,-0.007560159,0.28,0.84,0.48,17636,10074.30,0,0,3,-1.05,-0.07,0.07,0.28,0.84,0.48
24.430664,-4.0631322E-4,0.0076706093,-5.6015886E-4,0.28,0.84,0.48,17658,10074.00,0,0,3,-0.35,-0.91,0.56,0.28,0.84,0.48
24.730469,0.0045936867,6.7061E-4,0.0024398407,0.28,0.84,0.48,17673,10074.30,0,0,3,0.00,-1.40,0.77,0.28,0.84,0.48
23.730469,0.0015936869,-3.2939017E-4,-0.0035601594,0.28,0.84,0.48,17697,10073.30,0,0,3,-0.21,-1.47,0.35,0.28,0.84,0.48
24.730469,-0.009406313,0.0016706083,-0.0055601597,0.29,0.84,0.48,17719,10074.30,0,0,3,-0.98,-1.33,0.21,0.29,0.84,0.48
24.730469,-0.015406312,0.0026706103,-0.0035601594,0.29,0.84,0.48,17741,10074.30,0,0,3,-1.40,-1.26,0.35,0.29,0.84,0.48
25.730469,-0.0064063133,-0.00832939,-0.001560159,0.29,0.85,0.48,17763,10075.30,0,0,3,-0.77,-2.03,0.49,0.29,0.85,0.48
24.730469,-0.0014063129,-0.013329392,-0.006560159,0.29,0.84,0.47,17778,10074.30,0,0,3,-0.42,-2.38,0.14,0.29,0.84,0.47
23.730469,0.0045936867,-0.015329389,-0.0035601594,0.29,0.84,0.48,17801,10073.30,0,0,3,0.00,-2.52,0.35,0.29,0.84,0.48
28.730469,0.0065936865,-0.013329392,-0.004560159,0.28,0.84,0.48,17816,10078.30,0,0,3,0.14,-2.38,0.28,0.28,0.84,0.48
23.730469,-0.005406313,-0.005329391,-0.009560159,0.29,0.84,0.48,17838,10073.30,0,0,3,-0.70,-1.82,-0.07,0.29,0.84,0.48
23.730469,-0.004406313,-0.0023293905,-0.007560159,0.29,0.84,0.48,17853,10073.30,0,0,3,-0.63,-1.61,0.07,0.29,0.84,0.48
24.730469,-0.010406313,0.006670609,-0.014560159,0.29,0.83,0.48,17869,10074.30,0,0,3,-1.05,-0.98,-0.42,0.29,0.83,0.48
22.730469,-0.016406313,0.004670609,-0.013560159,0.29,0.84,0.48,17891,10072.30,0,0,3,-1.47,-1.12,-0.35,0.29,0.84,0.48
22.030273,-0.008406313,-0.0023293905,-0.006560159,0.29,0.84,0.48,17906,10071.60,0,0,3,-0.91,-1.61,0.14,0.29,0.84,0.48
22.030273,-0.015406312,-0.0033293888,-0.007560159,0.29,0.84,0.48,17929,10071.60,0,0,3,-1.40,-1.68,0.07,0.29,0.84,0.48
22.331055,-0.014406314,-0.010329392,-0.004560159,0.29,0.84,0.48,17943,10071.90,0,0,3,-1.33,-2.17,0.28,0.29,0.84,0.48
21.030273,-0.015406312,-0.01632939,-0.004560159,0.29,0.84,0.48,17973,10070.60,0,0,3,-1.40,-2.59,0.28,0.29,0.84,0.48
19.030273,-0.014406314,-0.01932939,-0.0055601597,0.29,0.84,0.48,17988,10068.60,0,0,3,-1.33,-2.80,0.21,0.29,0.84,0.48
19.030273,-0.0014063129,-0.022329392,0.004439841,0.29,0.83,0.48,18012,10068.60,0,0,3,-0.42,-3.01,0.91,0.29,0.83,0.48
23.030273,0.0045936867,-0.024329392,0.015439839,0.29,0.83,0.49,18034,10072.60,0,0,3,0.00,-3.15,1.68,0.29,0.83,0.49
18.030273,0.0025936866,-0.011329392,0.01643984,0.28,0.84,0.49,18056,10067.60,0,0,3,-0.14,-2.24,1.75,0.28,0.84,0.49
13.331055,-0.004406313,0.004670609,0.00943984,0.28,0.84,0.49,18070,10062.90,0,0,3,-0.63,-1.12,1.26,0.28,0.84,0.49
13.030273,-4.0631322E-4,0.013670609,0.005439841,0.28,0.84,0.49,18085,10062.60,0,0,3,-0.35,-0.49,0.98,0.28,0.84,0.49
13.030273,0.0025936866,0.0076706093,-5.6015886E-4,0.28,0.84,0.48,18101,10062.60,0,0,3,-0.14,-0.91,0.56,0.28,0.84,0.48
6.3310547,0.0015936869,0.0076706093,0.0024398407,0.29,0.84,0.48,18116,10055.90,0,0,3,-0.21,-0.91,0.77,0.29,0.84,0.48
9.630859,-0.004406313,0.01167061,-5.6015886E-4,0.29,0.84,0.48,18138,10059.20,0,0,3,-0.63,-0.63,0.56,0.29,0.84,0.48
8.030273,-0.009406313,0.00567061,-5.6015886E-4,0.28,0.84,0.48,18153,10057.60,0,0,3,-0.98,-1.05,0.56,0.28,0.84,0.48
7.0302734,-0.014406314,6.7061E-4,-0.007560159,0.28,0.84,0.48,18175,10056.60,0,0,3,-1.33,-1.40,0.07,0.28,0.84,0.48
6.0302734,-0.014406314,-3.2939017E-4,-0.007560159,0.28,0.84,0.49,18198,10055.60,0,0,3,-1.33,-1.47,0.07,0.28,0.84,0.49
6.3310547,-0.005406313,-0.00832939,-0.006560159,0.28,0.84,0.49,18221,10055.90,0,0,3,-0.70,-2.03,0.14,0.28,0.84,0.49
7.0302734,-0.012406314,-0.013329392,-0.006560159,0.28,0.84,0.49,18244,10056.60,0,0,3,-1.19,-2.38,0.14,0.28,0.84,0.49
10.030273,-0.009406313,-0.010329392,-0.01056016,0.28,0.84,0.49,18266,10059.60,0,0,3,-0.98,-2.17,-0.14,0.28,0.84,0.49
7.0302734,0.005593687,-0.011329392,-0.0035601594,0.27,0.84,0.48,18281,10056.60,0,0,3,0.07,-2.24,0.35,0.27,0.84,0.48
8.331055,0.018593688,-0.014329391,-0.004560159,0.27,0.84,0.49,18304,10057.90,0,0,3,0.98,-2.45,0.28,0.27,0.84,0.49
9.030273,0.011593686,-0.01232939,-0.004560159,0.28,0.83,0.49,18326,10058.60,0,0,3,0.49,-2.31,0.28,0.28,0.83,0.49
7.3310547,0.0035936865,-0.0073293913,0.0014398405,0.28,0.83,0.49,18334,10056.90,0,0,3,-0.07,-1.96,0.70,0.28,0.83,0.49
8.331055,0.0075936867,-3.2939017E-4,0.01843984,0.28,0.84,0.49,18356,10057.90,0,0,3,0.21,-1.47,1.89,0.28,0.84,0.49
8.331055,0.019593686,-0.0013293903,0.02743984,0.28,0.85,0.49,18371,10057.90,0,0,3,1.05,-1.54,2.52,0.28,0.85,0.49
8.331055,0.027593687,0.0076706093,0.028439842,0.28,0.85,0.49,18386,10057.90,0,0,3,1.61,-0.91,2.59,0.28,0.85,0.49
8.331055,0.036593687,0.01467061,0.017439842,0.28,0.85,0.48,18408,10057.90,0,0,3,2.24,-0.42,1.82,0.28,0.85,0.48
8.331055,0.033593684,0.01967061,0.01143984,0.28,0.84,0.48,18424,10057.90,0,0,3,2.03,-0.07,1.40,0.28,0.84,0.48
9.331055,0.026593687,0.028670609,0.0014398405,0.28,0.84,0.48,18446,10058.90,0,0,3,1.54,0.56,0.70,0.28,0.84,0.48
9.331055,0.024593687,0.026670609,0.004439841,0.28,0.84,0.48,18469,10058.90,0,0,3,1.40,0.42,0.91,0.28,0.84,0.48
11.630859,0.016593685,0.02567061,0.00943984,0.28,0.84,0.47,18492,10061.20,0,0,3,0.84,0.35,1.26,0.28,0.84,0.47
12.331055,0.008593687,0.02067061,0.005439841,0.28,0.85,0.47,18514,10061.90,0,0,3,0.28,0.00,0.98,0.28,0.85,0.47
9.630859,0.0075936867,0.015670609,4.3984037E-4,0.28,0.84,0.48,18536,10059.20,0,0,3,0.21,-0.35,0.63,0.28,0.84,0.48
11.331055,0.0065936865,0.0076706093,0.01143984,0.28,0.84,0.48,18551,10060.90,0,0,3,0.14,-0.91,1.40,0.28,0.84,0.48
11.630859,0.0075936867,0.00567061,0.022439841,0.27,0.84,0.48,18574,10061.20,0,0,3,0.21,-1.05,2.17,0.27,0.84,0.48
11.630859,0.011593686,0.006670609,0.029439844,0.27,0.85,0.48,18589,10061.20,0,0,3,0.49,-0.98,2.66,0.27,0.85,0.48
10.630859,0.016593685,0.01167061,0.019439843,0.27,0.85,0.48,18611,10060.20,0,0,3,0.84,-0.63,1.96,0.27,0.85,0.48
11.630859,0.011593686,0.02067061,0.017439842,0.27,0.84,0.48,18627,10061.20,0,0,3,0.49,0.00,1.82,0.27,0.84,0.48
12.331055,0.008593687,0.03067061,0.01843984,0.28,0.84,0.48,18634,10061.90,0,0,3,0.28,0.70,1.89,0.28,0.84,0.48
12.630859,0.015593687,0.03467061,0.026439842,0.27,0.84,0.48,18657,10062.20,0,0,3,0.77,0.98,2.45,0.27,0.84,0.48
13.630859,0.008593687,0.04367061,0.026439842,0.28,0.85,0.48,18679,10063.20,0,0,3,0.28,1.61,2.45,0.28,0.85,0.48
12.630859,0.012593687,0.04067061,0.028439842,0.28,0.84,0.48,18702,10062.20,0,0,3,0.56,1.40,2.59,0.28,0.84,0.48
14.030273,0.0075936867,0.038670607,0.02743984,0.28,0.84,0.48,18725,10063.60,0,0,3,0.21,1.26,2.52,0.28,0.84,0.48
12.030273,5.936865E-4,0.04167061,0.024439842,0.28,0.85,0.48,18739,10061.60,0,0,3,-0.28,1.47,2.31,0.28,0.85,0.48
15.730469,0.0045936867,0.04067061,0.01843984,0.28,0.85,0.48,18762,10065.30,0,0,3,0.00,1.40,1.89,0.28,0.85,0.48
15.730469,0.0035936865,0.04067061,0.015439839,0.28,0.85,0.48,18791,10065.30,0,0,3,-0.07,1.40,1.68,0.28,0.85,0.48
16.030273,0.0015936869,0.03667061,0.013439841,0.28,0.84,0.48,18806,10065.60,0,0,3,-0.21,1.12,1.54,0.28,0.84,0.48
17.730469,0.0025936866,0.03367061,0.0124398405,0.27,0.84,0.48,18821,10067.30,0,0,3,-0.14,0.91,1.47,0.27,0.84,0.48
18.730469,-4.0631322E-4,0.03667061,0.013439841,0.27,0.84,0.48,18835,10068.30,0,0,3,-0.35,1.12,1.54,0.27,0.84,0.48
20.030273,0.0025936866,0.03367061,0.010439842,0.27,0.84,0.48,18852,10069.60,0,0,3,-0.14,0.91,1.33,0.27,0.84,0.48
21.030273,0.0015936869,0.02967061,0.01143984,0.27,0.84,0.48,18874,10070.60,0,0,3,-0.21,0.63,1.40,0.27,0.84,0.48
22.030273,-0.005406313,0.028670609,0.013439841,0.27,0.84,0.48,18888,10071.60,0,0,3,-0.70,0.56,1.54,0.27,0.84,0.48
24.030273,-0.010406313,0.026670609,0.014439841,0.27,0.84,0.48,18911,10073.60,0,0,3,-1.05,0.42,1.61,0.27,0.84,0.48
26.030273,-0.0024063135,0.015670609,0.022439841,0.27,0.84,0.48,18925,10075.60,0,0,3,-0.49,-0.35,2.17,0.27,0.84,0.48
28.430664,-0.010406313,0.01467061,0.025439844,0.27,0.84,0.49,18949,10078.00,0,0,3,-1.05,-0.42,2.38,0.27,0.84,0.49
30.430664,-0.012406314,0.017670609,0.03343984,0.28,0.84,0.49,18972,10080.00,0,0,3,-1.19,-0.21,2.94,0.28,0.84,0.49
32.430664,-0.0014063129,0.016670609,0.036439843,0.28,0.84,0.49,18993,10082.00,0,0,3,-0.42,-0.28,3.15,0.28,0.84,0.49
36.13086,0.0065936865,0.01167061,0.03743984,0.28,0.84,0.49,19016,10085.70,0,0,3,0.14,-0.63,3.22,0.28,0.84,0.49
32.73047,0.020593688,0.016670609,0.040439844,0.28,0.84,0.49,19038,10082.30,0,0,3,1.12,-0.28,3.43,0.28,0.84,0.49
33.430664,0.025593687,0.017670609,0.045439843,0.28,0.84,0.49,19054,10083.00,0,0,3,1.47,-0.21,3.78,0.28,0.84,0.49
33.430664,0.019593686,0.02067061,0.045439843,0.28,0.84,0.49,19076,10083.00,0,0,3,1.05,0.00,3.78,0.28,0.84,0.49
33.030273,0.014593687,0.02767061,0.03743984,0.29,0.84,0.49,19091,10082.60,0,0,3,0.70,0.49,3.22,0.29,0.84,0.49
32.430664,0.0075936867,0.03467061,0.03343984,0.29,0.84,0.48,19106,10082.00,0,0,3,0.21,0.98,2.94,0.29,0.84,0.48
32.430664,0.0045936867,0.03067061,0.026439842,0.29,0.84,0.49,19121,10082.00,0,0,3,0.00,0.70,2.45,0.29,0.84,0.49
36.430664,0.0075936867,0.017670609,0.02143984,0.29,0.85,0.48,19136,10086.00,0,0,3,0.21,-0.21,2.10,0.29,0.85,0.48
31.430664,0.0075936867,0.00967061,0.014439841,0.29,0.84,0.49,19158,10081.00,0,0,3,0.21,-0.77,1.61,0.29,0.84,0.49
31.430664,0.0035936865,0.0016706083,0.0024398407,0.29,0.83,0.49,19181,10081.00,0,0,3,-0.07,-1.33,0.77,0.29,0.83,0.49
31.430664,-0.008406313,0.006670609,-0.004560159,0.28,0.84,0.49,19204,10081.00,0,0,3,-0.91,-0.98,0.28,0.28,0.84,0.49
30.430664,-0.009406313,0.0016706083,-0.0055601597,0.28,0.84,0.49,19226,10080.00,0,0,3,-0.98,-1.33,0.21,0.28,0.84,0.49
26.430664,-0.011406314,0.004670609,-0.004560159,0.29,0.84,0.49,19241,10076.00,0,0,3,-1.12,-1.12,0.28,0.29,0.84,0.49
34.430664,-0.0034063137,0.0036706086,-0.0025601597,0.28,0.84,0.49,19264,10084.00,0,0,3,-0.56,-1.19,0.42,0.28,0.84,0.49
29.430664,-0.005406313,0.004670609,-0.001560159,0.28,0.84,0.49,19286,10079.00,0,0,3,-0.70,-1.12,0.49,0.28,0.84,0.49
29.730469,0.0025936866,0.00567061,0.0024398407,0.28,0.84,0.49,19309,10079.30,0,0,3,-0.14,-1.05,0.77,0.28,0.84,0.49
29.030273,-4.0631322E-4,0.004670609,0.005439841,0.28,0.84,0.49,19331,10078.60,0,0,3,-0.35,-1.12,0.98,0.28,0.84,0.49
32.73047,5.936865E-4,0.00967061,0.00943984,0.28,0.83,0.49,19339,10082.30,0,0,3,-0.28,-0.77,1.26,0.28,0.83,0.49
29.730469,-0.0034063137,0.00867061,0.0124398405,0.28,0.84,0.48,19354,10079.30,0,0,3,-0.56,-0.84,1.47,0.28,0.84,0.48
29.030273,-0.013406312,0.012670609,0.0014398405,0.28,0.83,0.49,19368,10078.60,0,0,3,-1.26,-0.56,0.70,0.28,0.83,0.49
30.730469,-0.014406314,0.0076706093,-0.001560159,0.29,0.84,0.49,19398,10080.30,0,0,3,-1.33,-0.91,0.49,0.29,0.84,0.49
28.730469,-0.016406313,0.0016706083,-0.0035601594,0.28,0.84,0.49,19405,10078.30,0,0,3,-1.47,-1.33,0.35,0.28,0.84,0.49
28.730469,-0.0034063137,-0.017329393,0.00343984,0.28,0.84,0.49,19428,10078.30,0,0,3,-0.56,-2.66,0.84,0.28,0.84,0.49
28.430664,0.005593687,-0.02332939,0.005439841,0.28,0.84,0.49,19451,10078.00,0,0,3,0.07,-3.08,0.98,0.28,0.84,0.49
28.730469,0.0045936867,-0.018329391,4.3984037E-4,0.28,0.83,0.49,19473,10078.30,0,0,3,0.00,-2.73,0.63,0.28,0.83,0.49
31.030273,-0.009406313,-0.00832939,-0.008560159,0.28,0.83,0.49,19497,10080.60,0,0,3,-0.98,-2.03,0.00,0.28,0.83,0.49
29.730469,-0.015406312,-0.010329392,-0.001560159,0.29,0.84,0.49,19511,10079.30,0,0,3,-1.40,-2.17,0.49,0.29,0.84,0.49
29.430664,-0.0034063137,-0.01632939,0.00343984,0.28,0.84,0.49,19533,10079.00,0,0,3,-0.56,-2.59,0.84,0.28,0.84,0.49
29.030273,0.0035936865,-0.022329392,0.0064398404,0.29,0.84,0.49,19556,10078.60,0,0,3,-0.07,-3.01,1.05,0.29,0.84,0.49
29.030273,-0.005406313,-0.01232939,0.005439841,0.29,0.83,0.49,19571,10078.60,0,0,3,-0.70,-2.31,0.98,0.29,0.83,0.49
28.030273,-0.020406313,-0.01632939,4.3984037E-4,0.29,0.83,0.49,19586,10077.60,0,0,3,-1.75,-2.59,0.63,0.29,0.83,0.49
29.030273,-0.021406313,-0.024329392,0.00343984,0.3,0.84,0.49,19608,10078.60,0,0,3,-1.82,-3.15,0.84,0.30,0.84,0.49
29.030273,-0.014406314,-0.05132939,-0.0055601597,0.3,0.85,0.48,19631,10078.60,0,0,3,-1.33,-5.04,0.21,0.30,0.85,0.48
26.730469,0.0065936865,-0.08132939,-0.020560158,0.3,0.84,0.49,19654,10076.30,0,0,3,0.14,-7.14,-0.84,0.30,0.84,0.49
29.030273,0.039593685,-0.11132939,-0.019560158,0.3,0.84,0.5,19661,10078.60,0,0,3,2.45,-9.24,-0.77,0.30,0.84,0.50
29.030273,0.081593685,-0.1163294,0.03543984,0.29,0.84,0.52,19677,10078.60,0,0,3,5.39,-9.59,3.08,0.29,0.84,0.52
29.430664,0.11759368,-0.0773294,0.10443984,0.26,0.82,0.53,19706,10079.00,0,0,3,7.91,-6.86,7.91,0.26,0.82,0.53
29.030273,0.14959368,0.03967061,0.16943984,0.26,0.81,0.54,19721,10078.60,0,0,3,10.15,1.33,12.46,0.26,0.81,0.54
27.430664,0.18359368,0.14267062,0.23043983,0.27,0.82,0.53,19743,10077.00,0,0,3,12.53,8.54,16.73,0.27,0.82,0.53
26.030273,0.21259369,0.23667061,0.27543983,0.29,0.84,0.5,19766,10075.60,0,0,3,14.56,15.12,19.88,0.29,0.84,0.50
24.730469,0.2335937,0.3086706,0.27143985,0.32,0.83,0.48,19788,10074.30,0,0,3,16.03,20.16,19.60,0.32,0.83,0.48
24.331055,0.23259369,0.3236706,0.24043983,0.35,0.83,0.46,19811,10073.90,0,0,3,15.96,21.21,17.43,0.35,0.83,0.46
22.331055,0.22559369,0.29867062,0.23243985,0.37,0.82,0.45,19826,10071.90,0,0,3,15.47,19.46,16.87,0.37,0.82,0.45
21.331055,0.21659368,0.2646706,0.23443983,0.38,0.83,0.45,19841,10070.90,0,0,3,14.84,17.08,17.01,0.38,0.83,0.45
21.331055,0.20659369,0.22067061,0.22443983,0.38,0.83,0.44,19856,10070.90,0,0,3,14.14,14.00,16.31,0.38,0.83,0.44
16.331055,0.19259368,0.16367061,0.19543983,0.37,0.83,0.45,19872,10065.90,0,0,3,13.16,10.01,14.28,0.37,0.83,0.45
14.030273,0.17359369,0.11867061,0.15243985,0.37,0.85,0.45,19886,10063.60,0,0,3,11.83,6.86,11.27,0.37,0.85,0.45
11.331055,0.14759369,0.07067061,0.10043985,0.35,0.86,0.44,19909,10060.90,0,0,3,10.01,3.50,7.63,0.35,0.86,0.44
10.630859,0.13259369,0.016670609,0.045439843,0.33,0.87,0.44,19932,10060.20,0,0,3,8.96,-0.28,3.78,0.33,0.87,0.44
10.630859,0.10859369,-0.015329389,-0.0055601597,0.32,0.87,0.43,19954,10060.20,0,0,3,7.28,-2.52,0.21,0.32,0.87,0.43
6.6308594,0.09459369,-0.03332939,-0.052560158,0.32,0.87,0.43,19976,10056.20,0,0,3,6.30,-3.78,-3.08,0.32,0.87,0.43
9.331055,0.06959369,-0.047329396,-0.08356016,0.3,0.87,0.42,19999,10058.90,0,0,3,4.55,-4.76,-5.25,0.30,0.87,0.42
11.030273,0.043593686,-0.06232939,-0.11556015,0.29,0.87,0.41,20014,10060.60,0,0,3,2.73,-5.81,-7.49,0.29,0.87,0.41
8.630859,0.022593686,-0.08432939,-0.14556018,0.29,0.87,0.4,20037,10058.20,0,0,3,1.26,-7.35,-9.59,0.29,0.87,0.40
11.630859,-0.0014063129,-0.11232939,-0.16156016,0.29,0.87,0.39,20059,10061.20,0,0,3,-0.42,-9.31,-10.71,0.29,0.87,0.39
12.630859,-0.012406314,-0.1493294,-0.15556017,0.29,0.85,0.39,20074,10062.20,0,0,3,-1.19,-11.90,-10.29,0.29,0.85,0.39
11.030273,-0.032406315,-0.1873294,-0.15656017,0.29,0.85,0.39,20089,10060.60,0,0,3,-2.59,-14.56,-10.36,0.29,0.85,0.39
12.630859,-0.052406315,-0.21232939,-0.14456017,0.29,0.84,0.4,20110,10062.20,0,0,3,-3.99,-16.31,-9.52,0.29,0.84,0.40
12.630859,-0.072406314,-0.23432939,-0.13156016,0.28,0.84,0.41,20125,10062.20,0,0,3,-5.39,-17.85,-8.61,0.28,0.84,0.41
12.630859,-0.09340632,-0.24132939,-0.11956016,0.28,0.84,0.42,20141,10062.20,0,0,3,-6.86,-18.34,-7.77,0.28,0.84,0.42
12.630859,-0.117406316,-0.2453294,-0.09856016,0.28,0.85,0.43,20163,10062.20,0,0,3,-8.54,-18.62,-6.30,0.28,0.85,0.43
14.030273,-0.09740631,-0.24632941,-0.059560157,0.28,0.84,0.46,20178,10063.60,0,0,3,-7.14,-18.69,-3.57,0.28,0.84,0.46
16.030273,-0.072406314,-0.2033294,0.0024398407,0.27,0.83,0.5,20201,10065.60,0,0,3,-5.39,-15.68,0.77,0.27,0.83,0.50
9.030273,-0.039406314,-0.1353294,0.07643984,0.26,0.83,0.52,20224,10058.60,0,0,3,-3.08,-10.92,5.95,0.26,0.83,0.52
14.630859,0.0025936866,-0.03632939,0.14043984,0.27,0.84,0.52,20246,10064.20,0,0,3,-0.14,-3.99,10.43,0.27,0.84,0.52
14.030273,0.07159369,0.07367061,0.21243984,0.27,0.85,0.51,20268,10063.60,0,0,3,4.69,3.71,15.47,0.27,0.85,0.51
15.030273,0.13559368,0.18267061,0.25843987,0.29,0.84,0.5,20284,10064.60,0,0,3,9.17,11.34,18.69,0.29,0.84,0.50
15.030273,0.16459368,0.2696706,0.28043985,0.31,0.83,0.49,20306,10064.60,0,0,3,11.20,17.43,20.23,0.31,0.83,0.49
16.030273,0.17059368,0.31467062,0.27543983,0.32,0.84,0.47,20328,10065.60,0,0,3,11.62,20.58,19.88,0.32,0.84,0.47
16.030273,0.16059369,0.33767062,0.25743985,0.33,0.85,0.46,20344,10065.60,0,0,3,10.92,22.19,18.62,0.33,0.85,0.46
17.331055,0.15759368,0.3476706,0.24843983,0.34,0.86,0.45,20359,10066.90,0,0,3,10.71,22.89,17.99,0.34,0.86,0.45
17.030273,0.17559369,0.3526706,0.25843987,0.34,0.86,0.44,20373,10066.60,0,0,3,11.97,23.24,18.69,0.34,0.86,0.44
16.030273,0.17759368,0.35667062,0.23943985,0.33,0.87,0.44,20389,10065.60,0,0,3,12.11,23.52,17.36,0.33,0.87,0.44
17.030273,0.17159368,0.35067064,0.18743984,0.33,0.86,0.44,20411,10066.60,0,0,3,11.69,23.10,13.72,0.33,0.86,0.44
14.030273,0.16359368,0.3416706,0.15743983,0.33,0.86,0.44,20434,10063.60,0,0,3,11.13,22.47,11.62,0.33,0.86,0.44
16.730469,0.17159368,0.3456706,0.15643984,0.32,0.86,0.44,20456,10066.30,0,0,3,11.69,22.75,11.55,0.32,0.86,0.44
16.331055,0.18859369,0.36367062,0.15043983,0.3,0.87,0.44,20478,10065.90,0,0,3,12.88,24.01,11.13,0.30,0.87,0.44
16.331055,0.20759368,0.3966706,0.14043984,0.29,0.87,0.44,20501,10065.90,0,0,3,14.21,26.32,10.43,0.29,0.87,0.44
18.331055,0.23859367,0.47667062,0.16843984,0.26,0.86,0.47,20516,10067.90,0,0,3,16.38,31.92,12.39,0.26,0.86,0.47
19.331055,0.2665937,0.6496706,0.23843984,0.23,0.84,0.5,20539,10068.90,0,0,3,18.34,44.03,17.29,0.23,0.84,0.50
19.331055,0.3005937,0.86167055,0.32443985,0.2,0.85,0.51,20561,10068.90,0,0,3,20.72,58.87,23.31,0.20,0.85,0.51
21.730469,0.3225937,1.0426706,0.36543986,0.19,0.86,0.51,20576,10071.30,0,0,3,22.26,71.54,26.18,0.19,0.86,0.51
22.331055,0.3405937,1.2126707,0.39443985,0.21,0.85,0.51,20599,10071.90,0,0,3,23.52,83.44,28.21,0.21,0.85,0.51
23.331055,0.3565937,1.3546706,0.41143984,0.23,0.86,0.51,20614,10072.90,0,0,3,24.64,93.38,29.40,0.23,0.86,0.51
22.331055,0.3775937,1.4636707,0.42443985,0.26,0.86,0.51,20628,10071.90,0,0,3,26.11,101.01,30.31,0.26,0.86,0.51
26.430664,0.3975937,1.5356706,0.43143985,0.29,0.86,0.49,20643,10076.00,0,0,3,27.51,106.05,30.80,0.29,0.86,0.49
27.430664,0.4155937,1.5576706,0.42443985,0.32,0.86,0.46,20666,10077.00,0,0,3,28.77,107.59,30.31,0.32,0.86,0.46
29.030273,0.40359372,1.4926707,0.37443984,0.36,0.86,0.43,20689,10078.60,0,0,3,27.93,103.04,26.81,0.36,0.86,0.43
31.430664,0.38959372,1.3406707,0.32543984,0.39,0.87,0.4,20703,10081.00,0,0,3,26.95,92.40,23.38,0.39,0.87,0.40
33.73047,0.3715937,1.1506706,0.29143986,0.4,0.85,0.39,20726,10083.30,0,0,3,25.69,79.10,21.00,0.40,0.85,0.39
35.73047,0.3545937,0.9426706,0.27343985,0.39,0.84,0.4,20748,10085.30,0,0,3,24.50,64.54,19.74,0.39,0.84,0.40
37.73047,0.3205937,0.75167054,0.25743985,0.37,0.84,0.4,20771,10087.30,0,0,3,22.12,51.17,18.62,0.37,0.84,0.40
37.73047,0.2925937,0.5896706,0.24543984,0.34,0.85,0.4,20793,10087.30,0,0,3,20.16,39.83,17.78,0.34,0.85,0.40
38.73047,0.2605937,0.4726706,0.23443983,0.31,0.85,0.42,20816,10088.30,0,0,3,17.92,31.64,17.01,0.31,0.85,0.42
37.73047,0.23759368,0.41267064,0.21943983,0.29,0.86,0.43,20831,10087.30,0,0,3,16.31,27.44,15.96,0.29,0.86,0.43
37.73047,0.21159369,0.36467063,0.20443983,0.27,0.86,0.43,20846,10087.30,0,0,3,14.49,24.08,14.91,0.27,0.86,0.43
38.13086,0.19859369,0.33367062,0.19443983,0.26,0.87,0.43,20861,10087.70,0,0,3,13.58,21.91,14.21,0.26,0.87,0.43
36.73047,0.19859369,0.3386706,0.19243982,0.25,0.87,0.43,20876,10086.30,0,0,3,13.58,22.26,14.07,0.25,0.87,0.43
37.13086,0.19259368,0.3526706,0.18443984,0.24,0.86,0.44,20898,10086.70,0,0,3,13.16,23.24,13.51,0.24,0.86,0.44
37.13086,0.19259368,0.3856706,0.18943983,0.23,0.87,0.45,20921,10086.70,0,0,3,13.16,25.55,13.86,0.23,0.87,0.45
38.13086,0.19459368,0.4266706,0.19143984,0.24,0.86,0.45,20944,10087.70,0,0,3,13.30,28.42,14.00,0.24,0.86,0.45
35.13086,0.17359369,0.45667064,0.18843983,0.25,0.87,0.43,20966,10084.70,0,0,3,11.83,30.52,13.79,0.25,0.87,0.43
38.430664,0.16659369,0.4406706,0.17643984,0.26,0.88,0.41,20981,10088.00,0,0,3,11.34,29.40,12.95,0.26,0.88,0.41
36.430664,0.18659368,0.41967064,0.18943983,0.26,0.89,0.42,21004,10086.00,0,0,3,12.74,27.93,13.86,0.26,0.89,0.42
36.13086,0.20759368,0.42367062,0.20843983,0.27,0.87,0.42,21026,10085.70,0,0,3,14.21,28.21,15.19,0.27,0.87,0.42
35.13086,0.18659368,0.41367063,0.19843984,0.26,0.86,0.43,21048,10084.70,0,0,3,12.74,27.51,14.49,0.26,0.86,0.43
34.430664,0.15359369,0.39967063,0.18343982,0.26,0.87,0.42,21063,10084.00,0,0,3,10.43,26.53,13.44,0.26,0.87,0.42
35.430664,0.1285937,0.35667062,0.16943984,0.27,0.87,0.41,21086,10085.00,0,0,3,8.68,23.52,12.46,0.27,0.87,0.41
35.430664,0.118593685,0.31867063,0.15943983,0.28,0.88,0.4,21101,10085.00,0,0,3,7.98,20.86,11.76,0.28,0.88,0.40
33.430664,0.114593685,0.27767062,0.15743983,0.28,0.88,0.4,21123,10083.00,0,0,3,7.70,17.99,11.62,0.28,0.88,0.40
34.430664,0.11559369,0.2476706,0.15743983,0.27,0.88,0.41,21138,10084.00,0,0,3,7.77,15.89,11.62,0.27,0.88,0.41
33.430664,0.12559369,0.2336706,0.16943984,0.26,0.88,0.42,21145,10083.00,0,0,3,8.47,14.91,12.46,0.26,0.88,0.42
34.430664,0.11959369,0.2256706,0.16343984,0.25,0.88,0.42,21168,10084.00,0,0,3,8.05,14.35,12.04,0.25,0.88,0.42
34.430664,0.08459368,0.20767061,0.14443983,0.26,0.86,0.42,21190,10084.00,0,0,3,5.60,13.09,10.71,0.26,0.86,0.42
33.430664,0.051593684,0.1776706,0.13943984,0.27,0.86,0.41,21213,10083.00,0,0,3,3.29,10.99,10.36,0.27,0.86,0.41
36.430664,0.031593688,0.14167061,0.14043984,0.27,0.88,0.41,21236,10086.00,0,0,3,1.89,8.47,10.43,0.27,0.88,0.41
38.430664,0.014593687,0.111670606,0.120439835,0.27,0.88,0.41,21251,10088.00,0,0,3,0.70,6.37,9.03,0.27,0.88,0.41
33.430664,0.0025936866,0.082670614,0.099439844,0.28,0.87,0.41,21274,10083.00,0,0,3,-0.14,4.34,7.56,0.28,0.87,0.41
33.73047,5.936865E-4,0.07367061,0.09743984,0.28,0.88,0.42,21297,10083.30,0,0,3,-0.28,3.71,7.42,0.28,0.88,0.42
33.430664,0.013593687,0.06967061,0.10443984,0.27,0.88,0.42,21319,10083.00,0,0,3,0.63,3.43,7.91,0.27,0.88,0.42
33.73047,0.0065936865,0.052670613,0.092439845,0.27,0.87,0.43,21341,10083.30,0,0,3,0.14,2.24,7.07,0.27,0.87,0.43
33.73047,-0.019406311,0.04667061,0.06943984,0.28,0.87,0.42,21355,10083.30,0,0,3,-1.68,1.82,5.46,0.28,0.87,0.42
33.73047,-0.019406311,0.03267061,0.055439845,0.28,0.88,0.42,21378,10083.30,0,0,3,-1.68,0.84,4.48,0.28,0.88,0.42
32.73047,-0.017406313,0.02167061,0.036439843,0.29,0.89,0.42,21394,10082.30,0,0,3,-1.54,0.07,3.15,0.29,0.89,0.42
30.030273,-0.005406313,0.004670609,0.024439842,0.29,0.88,0.42,21416,10079.60,0,0,3,-0.70,-1.12,2.31,0.29,0.88,0.42
33.73047,-0.010406313,-0.01232939,0.01143984,0.29,0.87,0.43,21431,10083.30,0,0,3,-1.05,-2.31,1.40,0.29,0.87,0.43
32.73047,-0.013406312,-0.02332939,0.01143984,0.28,0.87,0.43,21453,10082.30,0,0,3,-1.26,-3.08,1.40,0.28,0.87,0.43
30.730469,-0.013406312,-0.03032939,-0.001560159,0.27,0.87,0.43,21476,10080.30,0,0,3,-1.26,-3.57,0.49,0.27,0.87,0.43
31.030273,-0.014406314,-0.042329393,-0.014560159,0.29,0.87,0.43,21498,10080.60,0,0,3,-1.33,-4.41,-0.42,0.29,0.87,0.43
30.730469,-0.019406311,-0.07432939,-0.01856016,0.29,0.87,0.42,21522,10080.30,0,0,3,-1.68,-6.65,-0.70,0.29,0.87,0.42
30.730469,-0.024406312,-0.09332939,-0.015560159,0.29,0.86,0.43,21544,10080.30,0,0,3,-2.03,-7.98,-0.49,0.29,0.86,0.43
29.030273,-0.045406315,-0.11132939,-0.026560158,0.29,0.85,0.43,21566,10078.60,0,0,3,-3.50,-9.24,-1.26,0.29,0.85,0.43
28.030273,-0.06640631,-0.1283294,-0.03356016,0.29,0.86,0.43,21580,10077.60,0,0,3,-4.97,-10.43,-1.75,0.29,0.86,0.43
23.331055,-0.07840631,-0.14832939,-0.03456016,0.29,0.87,0.42,21604,10072.90,0,0,3,-5.81,-11.83,-1.82,0.29,0.87,0.42
22.030273,-0.083406314,-0.1573294,-0.037560157,0.29,0.87,0.42,21618,10071.60,0,0,3,-6.16,-12.46,-2.03,0.29,0.87,0.42
19.030273,-0.08540632,-0.1593294,-0.03356016,0.28,0.87,0.43,21633,10068.60,0,0,3,-6.30,-12.60,-1.75,0.28,0.87,0.43
17.331055,-0.098406315,-0.1593294,-0.04056016,0.27,0.87,0.43,21656,10066.90,0,0,3,-7.21,-12.60,-2.24,0.27,0.87,0.43
16.030273,-0.10240631,-0.1413294,-0.04656016,0.26,0.89,0.43,21679,10065.60,0,0,3,-7.49,-11.34,-2.66,0.26,0.89,0.43
16.331055,-0.08240632,-0.113329396,-0.04756016,0.26,0.88,0.43,21693,10065.90,0,0,3,-6.09,-9.38,-2.73,0.26,0.88,0.43
17.030273,-0.07740631,-0.07132939,-0.03656016,0.26,0.86,0.44,21716,10066.60,0,0,3,-5.74,-6.44,-1.96,0.26,0.86,0.44
16.331055,-0.08940631,-0.04832939,-0.015560159,0.26,0.85,0.43,21739,10065.90,0,0,3,-6.58,-4.83,-0.49,0.26,0.85,0.43
17.331055,-0.10040631,-0.024329392,0.02143984,0.27,0.85,0.43,21761,10066.90,0,0,3,-7.35,-3.15,2.10,0.27,0.85,0.43
18.63086,-0.098406315,0.017670609,0.06443984,0.27,0.86,0.43,21784,10068.20,0,0,3,-7.21,-0.21,5.11,0.27,0.86,0.43
18.331055,-0.08240632,0.04667061,0.11143984,0.28,0.86,0.43,21806,10067.90,0,0,3,-6.09,1.82,8.40,0.28,0.86,0.43
11.331055,-0.083406314,0.06667061,0.13143983,0.26,0.87,0.43,21821,10060.90,0,0,3,-6.16,3.22,9.80,0.26,0.87,0.43
17.030273,-0.087406315,0.09367061,0.14343984,0.26,0.86,0.43,21844,10066.60,0,0,3,-6.44,5.11,10.64,0.26,0.86,0.43
18.331055,-0.09940632,0.12567061,0.15643984,0.26,0.85,0.44,21858,10067.90,0,0,3,-7.28,7.35,11.55,0.26,0.85,0.44
19.730469,-0.106406316,0.1516706,0.17643984,0.26,0.85,0.45,21874,10069.30,0,0,3,-7.77,9.17,12.95,0.26,0.85,0.45
25.030273,-0.11040632,0.17267062,0.19543983,0.26,0.85,0.44,21888,10074.60,0,0,3,-8.05,10.64,14.28,0.26,0.85,0.44
19.331055,-0.12240632,0.1936706,0.19643983,0.26,0.86,0.44,21911,10068.90,0,0,3,-8.89,12.11,14.35,0.26,0.86,0.44
19.730469,-0.11040632,0.2116706,0.19043984,0.27,0.87,0.45,21933,10069.30,0,0,3,-8.05,13.37,13.93,0.27,0.87,0.45
14.331055,-0.09040631,0.2376706,0.19843984,0.26,0.86,0.47,21963,10063.90,0,0,3,-6.65,15.19,14.49,0.26,0.86,0.47
19.730469,-0.09940632,0.28267062,0.20243984,0.27,0.84,0.47,21978,10069.30,0,0,3,-7.28,18.34,14.77,0.27,0.84,0.47
20.331055,-0.106406316,0.29967064,0.21843983,0.28,0.84,0.46,22001,10069.90,0,0,3,-7.77,19.53,15.89,0.28,0.84,0.46
21.730469,-0.105406314,0.30767062,0.23543984,0.27,0.85,0.47,22015,10071.30,0,0,3,-7.70,20.09,17.08,0.27,0.85,0.47
20.730469,-0.12640631,0.3156706,0.22743984,0.26,0.82,0.49,22037,10070.30,0,0,3,-9.17,20.65,16.52,0.26,0.82,0.49
20.730469,-0.16540632,0.31467062,0.21143983,0.28,0.82,0.5,22061,10070.30,0,0,3,-11.90,20.58,15.40,0.28,0.82,0.50
20.730469,-0.18940632,0.3016706,0.21243984,0.29,0.83,0.49,22084,10070.30,0,0,3,-13.58,19.67,15.47,0.29,0.83,0.49
20.730469,-0.1744063,0.2796706,0.21143983,0.28,0.84,0.49,22098,10070.30,0,0,3,-12.53,18.13,15.40,0.28,0.84,0.49
22.030273,-0.1524063,0.26367062,0.20043984,0.29,0.83,0.5,22114,10071.60,0,0,3,-10.99,17.01,14.63,0.29,0.83,0.50
21.730469,-0.13540632,0.2436706,0.19443983,0.29,0.82,0.52,22136,10071.30,0,0,3,-9.80,15.61,14.21,0.29,0.82,0.52
21.730469,-0.14040631,0.2126706,0.18743984,0.29,0.82,0.53,22151,10071.30,0,0,3,-10.15,13.44,13.72,0.29,0.82,0.53
23.030273,-0.12340632,0.1966706,0.19243982,0.29,0.82,0.54,22174,10072.60,0,0,3,-8.96,12.32,14.07,0.29,0.82,0.54
23.030273,-0.117406316,0.18367061,0.19443983,0.3,0.81,0.54,22196,10072.60,0,0,3,-8.54,11.41,14.21,0.30,0.81,0.54
24.030273,-0.11540631,0.15067062,0.18943983,0.31,0.81,0.54,22218,10073.60,0,0,3,-8.40,9.10,13.86,0.31,0.81,0.54
23.030273,-0.095406316,0.12667061,0.18243983,0.31,0.83,0.54,22242,10072.60,0,0,3,-7.00,7.42,13.37,0.31,0.83,0.54
23.030273,-0.056406315,0.12067061,0.16743983,0.3,0.82,0.56,22263,10072.60,0,0,3,-4.27,7.00,12.32,0.30,0.82,0.56
24.030273,-0.040406317,0.13167061,0.15043983,0.29,0.81,0.57,22286,10073.60,0,0,3,-3.15,7.77,11.13,0.29,0.81,0.57
27.430664,-0.044406317,0.13367061,0.13143983,0.3,0.8,0.56,22309,10077.00,0,0,3,-3.43,7.91,9.80,0.30,0.80,0.56
25.331055,-0.038406316,0.10567061,0.11943985,0.32,0.8,0.56,22323,10074.90,0,0,3,-3.01,5.95,8.96,0.32,0.80,0.56
25.730469,-0.019406311,0.07067061,0.11743984,0.33,0.8,0.55,22345,10075.30,0,0,3,-1.68,3.50,8.82,0.33,0.80,0.55
26.030273,-0.005406313,0.049670607,0.12343984,0.33,0.78,0.56,22369,10075.60,0,0,3,-0.70,2.03,9.24,0.33,0.78,0.56
27.430664,-0.0024063135,0.037670612,0.13143983,0.34,0.77,0.56,22383,10077.00,0,0,3,-0.49,1.19,9.80,0.34,0.77,0.56
28.430664,-0.025406312,0.01967061,0.11043984,0.34,0.77,0.56,22406,10078.00,0,0,3,-2.10,-0.07,8.33,0.34,0.77,0.56
32.430664,-0.029406315,-0.020329388,0.081439845,0.35,0.79,0.55,22421,10082.00,0,0,3,-2.38,-2.87,6.30,0.35,0.79,0.55
31.430664,-4.0631322E-4,-0.034329392,0.06843984,0.35,0.79,0.55,22444,10081.00,0,0,3,-0.35,-3.85,5.39,0.35,0.79,0.55
34.030273,0.009593686,-0.043329395,0.062439837,0.36,0.78,0.56,22466,10083.60,0,0,3,0.35,-4.48,4.97,0.36,0.78,0.56
36.73047,-0.009406313,-0.050329387,0.045439843,0.37,0.76,0.55,22489,10086.30,0,0,3,-0.98,-4.97,3.78,0.37,0.76,0.55
38.430664,-0.018406313,-0.0663294,0.030439842,0.37,0.76,0.54,22512,10088.00,0,0,3,-1.61,-6.09,2.73,0.37,0.76,0.54
39.73047,-0.005406313,-0.07132939,0.03743984,0.36,0.76,0.55,22533,10089.30,0,0,3,-0.70,-6.44,3.22,0.36,0.76,0.55
41.73047,0.0065936865,-0.068329394,0.059439845,0.36,0.76,0.56,22557,10091.30,0,0,3,0.14,-6.23,4.76,0.36,0.76,0.56
42.73047,-0.005406313,-0.057329394,0.06543984,0.36,0.77,0.56,22571,10092.30,0,0,3,-0.70,-5.46,5.18,0.36,0.77,0.56
39.73047,-4.0631322E-4,-0.050329387,0.07143984,0.36,0.79,0.54,22594,10089.30,0,0,3,-0.35,-4.97,5.60,0.36,0.79,0.54
40.430664,0.015593687,-0.039329387,0.07543984,0.36,0.8,0.53,22608,10090.00,0,0,3,0.77,-4.20,5.88,0.36,0.80,0.53
40.73047,0.025593687,-0.038329393,0.062439837,0.36,0.8,0.54,22623,10090.30,0,0,3,1.47,-4.13,4.97,0.36,0.80,0.54
40.73047,0.032593686,-0.045329392,0.040439844,0.35,0.78,0.54,22645,10090.30,0,0,3,1.96,-4.62,3.43,0.35,0.78,0.54
39.73047,0.020593688,-0.043329395,0.036439843,0.36,0.77,0.54,22668,10089.30,0,0,3,1.12,-4.48,3.15,0.36,0.77,0.54
39.73047,0.021593688,-0.032329388,0.052439842,0.36,0.78,0.53,22691,10089.30,0,0,3,1.19,-3.71,4.27,0.36,0.78,0.53
40.13086,0.029593688,-0.029329391,0.047439843,0.35,0.78,0.53,22713,10089.70,0,0,3,1.75,-3.50,3.92,0.35,0.78,0.53
41.73047,0.027593687,-0.02332939,0.041439842,0.36,0.79,0.52,22736,10091.30,0,0,3,1.61,-3.08,3.50,0.36,0.79,0.52
38.73047,0.025593687,-0.02532939,0.04243984,0.35,0.78,0.52,22758,10088.30,0,0,3,1.47,-3.22,3.57,0.35,0.78,0.52
38.73047,0.022593686,-0.028329393,0.056439847,0.35,0.77,0.52,22781,10088.30,0,0,3,1.26,-3.43,4.55,0.35,0.77,0.52
40.13086,0.0015936869,-0.024329392,0.061439842,0.35,0.77,0.52,22796,10089.70,0,0,3,-0.21,-3.15,4.90,0.35,0.77,0.52
39.13086,-0.009406313,-0.03732939,0.07543984,0.35,0.78,0.53,22826,10088.70,0,0,3,-0.98,-4.06,5.88,0.35,0.78,0.53
39.13086,-0.035406314,-0.044329397,0.06843984,0.35,0.77,0.53,22841,10088.70,0,0,3,-2.80,-4.55,5.39,0.35,0.77,0.53
39.13086,-0.06340632,-0.056329392,0.056439847,0.37,0.77,0.52,22855,10088.70,0,0,3,-4.76,-5.39,4.55,0.37,0.77,0.52
39.13086,-0.09940632,-0.10132939,0.03843984,0.38,0.77,0.52,22870,10088.70,0,0,3,-7.28,-8.54,3.29,0.38,0.77,0.52
40.13086,-0.12940632,-0.17732939,0.01643984,0.4,0.77,0.51,22894,10089.70,0,0,3,-9.38,-13.86,1.75,0.40,0.77,0.51
37.13086,-0.17140631,-0.28032938,0.0014398405,0.42,0.76,0.5,22908,10086.70,0,0,3,-12.32,-21.07,0.70,0.42,0.76,0.50
38.430664,-0.19840631,-0.39632937,4.3984037E-4,0.42,0.75,0.5,22930,10088.00,0,0,3,-14.21,-29.19,0.63,0.42,0.75,0.50
37.13086,-0.22740631,-0.5093294,-0.004560159,0.41,0.75,0.52,22953,10086.70,0,0,3,-16.24,-37.10,0.28,0.41,0.75,0.52
37.13086,-0.2484063,-0.6003294,-0.026560158,0.4,0.76,0.53,22976,10086.70,0,0,3,-17.71,-43.47,-1.26,0.40,0.76,0.53
38.430664,-0.2564063,-0.65332943,-0.07256016,0.39,0.77,0.54,22999,10088.00,0,0,3,-18.27,-47.18,-4.48,0.39,0.77,0.54
37.430664,-0.23940632,-0.6783294,-0.11156016,0.38,0.8,0.55,23021,10087.00,0,0,3,-17.08,-48.93,-7.21,0.38,0.80,0.55
38.430664,-0.17340632,-0.6593294,-0.15456016,0.37,0.8,0.55,23044,10088.00,0,0,3,-12.46,-47.60,-10.22,0.37,0.80,0.55
38.430664,-0.120406315,-0.5943294,-0.17456016,0.38,0.78,0.57,23058,10088.00,0,0,3,-8.75,-43.05,-11.62,0.38,0.78,0.57
38.430664,-0.09340632,-0.5063294,-0.17556016,0.39,0.77,0.58,23089,10088.00,0,0,3,-6.86,-36.89,-11.69,0.39,0.77,0.58
39.430664,-0.07940631,-0.43032938,-0.15256016,0.38,0.77,0.58,23103,10089.00,0,0,3,-5.88,-31.57,-10.08,0.38,0.77,0.58
38.430664,-0.06640631,-0.3583294,-0.15356016,0.37,0.77,0.57,23119,10088.00,0,0,3,-4.97,-26.53,-10.15,0.37,0.77,0.57
37.73047,-0.047406316,-0.27132937,-0.15056016,0.37,0.78,0.57,23134,10087.30,0,0,3,-3.64,-20.44,-9.94,0.37,0.78,0.57
39.73047,-0.009406313,-0.1513294,-0.12856016,0.37,0.77,0.57,23156,10089.30,0,0,3,-0.98,-12.04,-8.40,0.37,0.77,0.57
38.73047,0.020593688,-0.032329388,-0.09356016,0.37,0.76,0.56,23178,10088.30,0,0,3,1.12,-3.71,-5.95,0.37,0.76,0.56
38.73047,0.052593682,0.07167061,-0.05756016,0.37,0.76,0.56,23194,10088.30,0,0,3,3.36,3.57,-3.43,0.37,0.76,0.56
38.13086,0.07259369,0.16067061,-0.03256016,0.37,0.75,0.56,23216,10087.70,0,0,3,4.76,9.80,-1.68,0.37,0.75,0.56
36.73047,0.06759369,0.2306706,-0.006560159,0.39,0.76,0.54,23238,10086.30,0,0,3,4.41,14.70,0.14,0.39,0.76,0.54
36.73047,0.061593685,0.27767062,0.02043984,0.4,0.76,0.53,23260,10086.30,0,0,3,3.99,17.99,2.03,0.40,0.76,0.53
36.73047,0.06259368,0.3106706,0.056439847,0.42,0.76,0.5,23283,10086.30,0,0,3,4.06,20.30,4.55,0.42,0.76,0.50
35.73047,0.07359368,0.27267063,0.08343984,0.43,0.76,0.49,23306,10085.30,0,0,3,4.83,17.64,6.44,0.43,0.76,0.49
33.73047,0.061593685,0.20367062,0.08943985,0.45,0.77,0.48,23321,10083.30,0,0,3,3.99,12.81,6.86,0.45,0.77,0.48
33.73047,0.053593688,0.08367061,0.08343984,0.45,0.77,0.47,23343,10083.30,0,0,3,3.43,4.41,6.44,0.45,0.77,0.47
33.030273,0.051593684,-0.0023293905,0.07443984,0.44,0.77,0.47,23365,10082.60,0,0,3,3.29,-1.61,5.81,0.44,0.77,0.47
25.730469,0.052593682,-0.068329394,0.06943984,0.42,0.77,0.49,23388,10075.30,0,0,3,3.36,-6.23,5.46,0.42,0.77,0.49
31.030273,0.060593687,-0.09832939,0.07643984,0.41,0.77,0.52,23396,10080.60,0,0,3,3.92,-8.33,5.95,0.41,0.77,0.52
28.030273,0.054593686,-0.091329396,0.07843985,0.38,0.78,0.53,23418,10077.60,0,0,3,3.50,-7.84,6.09,0.38,0.78,0.53
27.030273,0.044593684,-0.061329387,0.055439845,0.36,0.78,0.53,23441,10076.60,0,0,3,2.80,-5.74,4.48,0.36,0.78,0.53
22.730469,0.029593688,-0.00932939,0.034439843,0.37,0.77,0.54,23464,10072.30,0,0,3,1.75,-2.10,3.01,0.37,0.77,0.54
25.030273,0.029593688,0.05467061,0.03943984,0.37,0.77,0.54,23486,10074.60,0,0,3,1.75,2.38,3.36,0.37,0.77,0.54
25.030273,0.028593685,0.10567061,0.04443984,0.36,0.77,0.54,23509,10074.60,0,0,3,1.68,5.95,3.71,0.36,0.77,0.54
24.030273,0.027593687,0.1516706,0.03143984,0.36,0.79,0.53,23546,10073.60,0,0,3,1.61,9.17,2.80,0.36,0.79,0.53
25.030273,0.040593684,0.19467062,0.026439842,0.37,0.79,0.52,23547,10074.60,0,0,3,2.52,12.18,2.45,0.37,0.79,0.52
25.331055,0.074593686,0.21467061,0.03843984,0.38,0.78,0.52,23569,10074.90,0,0,3,4.90,13.58,3.29,0.38,0.78,0.52
25.030273,0.09059369,0.22967061,0.056439847,0.38,0.77,0.53,23591,10074.60,0,0,3,6.02,14.63,4.55,0.38,0.77,0.53
24.331055,0.092593685,0.2336706,0.062439837,0.38,0.77,0.53,23606,10073.90,0,0,3,6.16,14.91,4.97,0.38,0.77,0.53
22.030273,0.08459368,0.2376706,0.066439845,0.38,0.77,0.52,23620,10071.60,0,0,3,5.60,15.19,5.25,0.38,0.77,0.52
25.331055,0.074593686,0.22767061,0.06943984,0.39,0.77,0.52,23635,10074.90,0,0,3,4.90,14.49,5.46,0.39,0.77,0.52
26.030273,0.07259369,0.2106706,0.07643984,0.39,0.78,0.51,23658,10075.60,0,0,3,4.76,13.30,5.95,0.39,0.78,0.51
26.030273,0.08359369,0.19267061,0.084439844,0.4,0.78,0.51,23681,10075.60,0,0,3,5.53,12.04,6.51,0.40,0.78,0.51
27.331055,0.09059369,0.19267061,0.088439845,0.39,0.77,0.51,23703,10076.90,0,0,3,6.02,12.04,6.79,0.39,0.77,0.51
27.331055,0.092593685,0.2026706,0.08943985,0.39,0.76,0.51,23718,10076.90,0,0,3,6.16,12.74,6.86,0.39,0.76,0.51
27.331055,0.081593685,0.2116706,0.09743984,0.4,0.76,0.52,23741,10076.90,0,0,2,5.39,13.37,7.42,0.40,0.76,0.52
30.730469,0.07659368,0.2176706,0.11043984,0.4,0.76,0.51,23763,10080.30,0,0,2,5.04,13.79,8.33,0.40,0.76,0.51
28.730469,0.06559369,0.22067061,0.11243985,0.4,0.76,0.51,23787,10078.30,0,0,2,4.27,14.00,8.47,0.40,0.76,0.51
27.730469,0.051593684,0.21667062,0.103439845,0.4,0.77,0.52,23801,10077.30,0,0,2,3.29,13.72,7.84,0.40,0.77,0.52
27.331055,0.031593688,0.2116706,0.07643984,0.39,0.76,0.53,23816,10076.90,0,0,2,1.89,13.37,5.95,0.39,0.76,0.53
29.430664,0.0075936867,0.20567061,0.05143984,0.39,0.77,0.53,23838,10079.00,0,0,2,0.21,12.95,4.20,0.39,0.77,0.53
27.730469,-0.017406313,0.1936706,0.02743984,0.4,0.77,0.53,23854,10077.30,0,0,2,-1.54,12.11,2.52,0.40,0.77,0.53
28.730469,-0.025406312,0.1806706,0.014439841,0.4,0.77,0.52,23869,10078.30,0,0,2,-2.10,11.20,1.61,0.40,0.77,0.52
28.331055,-0.022406314,0.1596706,0.010439842,0.4,0.77,0.52,23883,10077.90,0,0,2,-1.89,9.73,1.33,0.40,0.77,0.52
34.73047,-0.017406313,0.1276706,0.015439839,0.4,0.77,0.52,23905,10084.30,0,0,2,-1.54,7.49,1.68,0.40,0.77,0.52
30.730469,-0.017406313,0.1026706,0.019439843,0.39,0.76,0.53,23928,10080.30,0,0,2,-1.54,5.74,1.96,0.39,0.76,0.53
33.73047,-0.029406315,0.08467061,0.024439842,0.39,0.75,0.53,23944,10083.30,0,0,2,-2.38,4.48,2.31,0.39,0.75,0.53
30.430664,-0.049406316,0.06567061,0.030439842,0.38,0.75,0.53,23966,10080.00,0,0,2,-3.78,3.15,2.73,0.38,0.75,0.53
30.730469,-0.056406315,0.05167061,0.040439844,0.38,0.76,0.53,23989,10080.30,0,0,2,-4.27,2.17,3.43,0.38,0.76,0.53
31.730469,-0.052406315,0.049670607,0.053439844,0.37,0.76,0.54,24010,10081.30,0,0,2,-3.99,2.03,4.34,0.37,0.76,0.54
31.730469,-0.053406313,0.05067061,0.05143984,0.37,0.75,0.55,24033,10081.30,0,0,2,-4.06,2.10,4.20,0.37,0.75,0.55
33.73047,-0.07540631,0.059670612,0.050439842,0.37,0.74,0.56,24056,10083.30,0,0,2,-5.60,2.73,4.13,0.37,0.74,0.56
33.73047,-0.07740631,0.06467061,0.058439843,0.38,0.75,0.57,24071,10083.30,0,0,2,-5.74,3.08,4.69,0.38,0.75,0.57
34.030273,-0.08240632,0.06867061,0.055439845,0.38,0.75,0.57,24086,10083.60,0,0,2,-6.09,3.36,4.48,0.38,0.75,0.57
34.030273,-0.08240632,0.06667061,0.05143984,0.38,0.76,0.57,24101,10083.60,0,0,2,-6.09,3.22,4.20,0.38,0.76,0.57
28.030273,-0.07840631,0.05567061,0.034439843,0.38,0.76,0.57,24115,10077.60,0,0,2,-5.81,2.45,3.01,0.38,0.76,0.57
35.030273,-0.072406314,0.056670606,0.025439844,0.38,0.76,0.57,24138,10084.60,0,0,2,-5.39,2.52,2.38,0.38,0.76,0.57
36.030273,-0.061406314,0.04667061,0.022439841,0.38,0.75,0.58,24153,10085.60,0,0,2,-4.62,1.82,2.17,0.38,0.75,0.58
37.13086,-0.052406315,0.03967061,0.025439844,0.38,0.76,0.57,24177,10086.70,0,0,2,-3.99,1.33,2.38,0.38,0.76,0.57
40.13086,-0.035406314,0.031670608,0.022439841,0.38,0.78,0.56,24198,10089.70,0,0,2,-2.80,0.77,2.17,0.38,0.78,0.56
40.13086,-0.018406313,0.02167061,0.013439841,0.38,0.77,0.55,24221,10089.70,0,0,2,-1.61,0.07,1.54,0.38,0.77,0.55
41.13086,0.0035936865,0.00867061,0.0124398405,0.37,0.77,0.55,24243,10090.70,0,0,2,-0.07,-0.84,1.47,0.37,0.77,0.55
46.13086,0.019593686,-0.0033293888,0.005439841,0.38,0.77,0.54,24266,10095.70,0,0,2,1.05,-1.68,0.98,0.38,0.77,0.54
38.13086,0.023593688,-0.014329391,-0.007560159,0.38,0.76,0.54,24288,10087.70,0,0,2,1.33,-2.45,0.07,0.38,0.76,0.54
44.430664,0.014593687,-0.02332939,-0.009560159,0.38,0.75,0.54,24303,10094.00,0,0,2,0.70,-3.08,-0.07,0.38,0.75,0.54
46.430664,-4.0631322E-4,-0.03332939,-0.019560158,0.38,0.76,0.54,24319,10096.00,0,0,2,-0.35,-3.78,-0.77,0.38,0.76,0.54
46.13086,-0.011406314,-0.055329397,-0.02256016,0.39,0.77,0.52,24333,10095.70,0,0,2,-1.12,-5.32,-0.98,0.39,0.77,0.52
44.430664,-0.0024063135,-0.076329395,-0.01056016,0.39,0.77,0.53,24348,10094.00,0,0,2,-0.49,-6.79,-0.14,0.39,0.77,0.53
46.430664,-0.010406313,-0.08932939,-0.01056016,0.4,0.76,0.53,24371,10096.00,0,0,2,-1.05,-7.70,-0.14,0.40,0.76,0.53
46.430664,-0.023406314,-0.10132939,-0.011560159,0.39,0.76,0.53,24385,10096.00,0,0,2,-1.96,-8.54,-0.21,0.39,0.76,0.53
40.73047,-0.037406314,-0.11832939,-0.02256016,0.39,0.75,0.54,24401,10090.30,0,0,2,-2.94,-9.73,-0.98,0.39,0.75,0.54
45.831055,-0.056406315,-0.1273294,-0.02256016,0.39,0.75,0.54,24424,10095.40,0,0,2,-4.27,-10.36,-0.98,0.39,0.75,0.54
46.13086,-0.045406315,-0.11432938,0.004439841,0.38,0.77,0.55,24446,10095.70,0,0,2,-3.50,-9.45,0.91,0.38,0.77,0.55
44.430664,-0.027406314,-0.083329394,0.01643984,0.37,0.76,0.56,24468,10094.00,0,0,2,-2.24,-7.28,1.75,0.37,0.76,0.56
44.831055,-0.020406313,-0.04032939,0.022439841,0.37,0.75,0.57,24491,10094.40,0,0,2,-1.75,-4.27,2.17,0.37,0.75,0.57
43.73047,-0.011406314,0.013670609,0.03143984,0.36,0.75,0.58,24513,10093.30,0,0,2,-1.12,-0.49,2.80,0.36,0.75,0.58
44.831055,-0.0024063135,0.06167061,0.04243984,0.37,0.74,0.58,24536,10094.40,0,0,2,-0.49,2.87,3.57,0.37,0.74,0.58
44.831055,-0.0064063133,0.09567061,0.040439844,0.37,0.74,0.58,24558,10094.40,0,0,2,-0.77,5.25,3.43,0.37,0.74,0.58
44.831055,-0.0034063137,0.11867061,0.04843984,0.38,0.75,0.58,24573,10094.40,0,0,2,-0.56,6.86,3.99,0.38,0.75,0.58
43.73047,-0.0034063137,0.1436706,0.054439843,0.39,0.74,0.57,24589,10093.30,0,0,2,-0.56,8.61,4.41,0.39,0.74,0.57
42.73047,-0.0034063137,0.14867061,0.052439842,0.39,0.74,0.57,24603,10092.30,0,0,2,-0.56,8.96,4.27,0.39,0.74,0.57
46.13086,-0.004406313,0.1436706,0.04843984,0.39,0.74,0.57,24619,10095.70,0,0,2,-0.63,8.61,3.99,0.39,0.74,0.57
44.13086,-0.005406313,0.1366706,0.045439843,0.39,0.75,0.58,24641,10093.70,0,0,2,-0.70,8.12,3.78,0.39,0.75,0.58
42.73047,0.0035936865,0.12467061,0.03943984,0.39,0.75,0.57,24656,10092.30,0,0,2,-0.07,7.28,3.36,0.39,0.75,0.57
42.73047,0.016593685,0.09567061,0.017439842,0.38,0.76,0.56,24678,10092.30,0,0,2,0.84,5.25,1.82,0.38,0.76,0.56
42.73047,0.019593686,0.053670608,-0.004560159,0.39,0.76,0.56,24700,10092.30,0,0,2,1.05,2.31,0.28,0.39,0.76,0.56
42.73047,0.019593686,0.02067061,-0.02756016,0.39,0.75,0.56,24723,10092.30,0,0,2,1.05,0.00,-1.33,0.39,0.75,0.56
43.73047,0.014593687,-0.014329391,-0.03656016,0.39,0.75,0.56,24746,10093.30,0,0,2,0.70,-2.45,-1.96,0.39,0.75,0.56
42.13086,0.029593688,-0.043329395,-0.03156016,0.37,0.76,0.56,24768,10091.70,0,0,2,1.75,-4.48,-1.61,0.37,0.76,0.56
42.430664,0.03559369,-0.02532939,-0.03556016,0.35,0.77,0.58,24790,10092.00,0,0,2,2.17,-3.22,-1.89,0.35,0.77,0.58
42.13086,0.041593686,0.01967061,-0.03656016,0.34,0.77,0.58,24805,10091.70,0,0,2,2.59,-0.07,-1.96,0.34,0.77,0.58
43.13086,0.036593687,0.048670612,-0.04056016,0.34,0.76,0.57,24821,10092.70,0,0,2,2.24,1.96,-2.24,0.34,0.76,0.57
42.73047,0.029593688,0.06667061,-0.04256016,0.35,0.76,0.57,24836,10092.30,0,0,2,1.75,3.22,-2.38,0.35,0.76,0.57
43.73047,0.027593687,0.06667061,-0.04556016,0.35,0.76,0.56,24865,10093.30,0,0,2,1.61,3.22,-2.59,0.35,0.76,0.56
44.13086,0.03559369,0.06467061,-0.04756016,0.35,0.75,0.56,24868,10093.70,0,0,2,2.17,3.08,-2.73,0.35,0.75,0.56
43.430664,0.036593687,0.053670608,-0.052560158,0.35,0.74,0.57,24888,10093.00,0,0,2,2.24,2.31,-3.08,0.35,0.74,0.57
43.430664,0.019593686,0.04067061,-0.049560156,0.36,0.73,0.58,24911,10093.00,0,0,2,1.05,1.40,-2.87,0.36,0.73,0.58
42.430664,0.0025936866,0.02267061,-0.02756016,0.37,0.73,0.58,24926,10092.00,0,0,2,-0.14,0.14,-1.33,0.37,0.73,0.58
42.430664,0.0065936865,0.012670609,0.014439841,0.36,0.75,0.58,24949,10092.00,0,0,2,0.14,-0.56,1.61,0.36,0.75,0.58
41.430664,0.027593687,0.02267061,0.03843984,0.35,0.76,0.59,24971,10091.00,0,0,2,1.61,0.14,3.29,0.35,0.76,0.59
41.430664,0.037593685,0.04067061,0.04643984,0.35,0.75,0.59,24994,10091.00,0,0,2,2.31,1.40,3.85,0.35,0.75,0.59
41.430664,0.037593685,0.06167061,0.056439847,0.36,0.75,0.58,25016,10091.00,0,0,2,2.31,2.87,4.55,0.36,0.75,0.58
41.430664,0.03559369,0.060670607,0.06043984,0.37,0.76,0.56,25031,10091.00,0,0,2,2.17,2.80,4.83,0.37,0.76,0.56
39.430664,0.044593684,0.056670606,0.04943984,0.36,0.76,0.56,25053,10089.00,0,0,2,2.80,2.52,4.06,0.36,0.76,0.56
39.430664,0.052593682,0.05567061,0.03843984,0.37,0.76,0.56,25069,10089.00,0,0,2,3.36,2.45,3.29,0.37,0.76,0.56
38.430664,0.051593684,0.05467061,0.030439842,0.37,0.75,0.57,25083,10088.00,0,0,2,3.29,2.38,2.73,0.37,0.75,0.57
36.73047,0.042593688,0.052670613,0.026439842,0.36,0.74,0.57,25099,10086.30,0,0,2,2.66,2.24,2.45,0.36,0.74,0.57
37.430664,0.03559369,0.049670607,0.025439844,0.36,0.74,0.57,25114,10087.00,0,0,2,2.17,2.03,2.38,0.36,0.74,0.57
38.73047,0.024593687,0.05067061,0.025439844,0.36,0.75,0.56,25129,10088.30,0,0,2,1.40,2.10,2.38,0.36,0.75,0.56
34.73047,0.023593688,0.042670608,0.023439843,0.36,0.76,0.56,25151,10084.30,0,0,2,1.33,1.54,2.24,0.36,0.76,0.56
36.73047,0.032593686,0.04067061,0.022439841,0.35,0.77,0.56,25174,10086.30,0,0,2,1.96,1.40,2.17,0.35,0.77,0.56
32.73047,0.026593687,0.037670612,0.0124398405,0.36,0.76,0.56,25196,10082.30,0,0,2,1.54,1.19,1.47,0.36,0.76,0.56
31.030273,0.010593686,0.02067061,0.00343984,0.36,0.76,0.55,25226,10080.60,0,0,2,0.42,0.00,0.84,0.36,0.76,0.55
29.730469,-0.010406313,-0.0073293913,-5.6015886E-4,0.35,0.76,0.55,25240,10079.30,0,0,2,-1.05,-1.96,0.56,0.35,0.76,0.55
28.730469,-0.023406314,-0.053329393,-0.013560159,0.35,0.75,0.55,25264,10078.30,0,0,2,-1.96,-5.18,-0.35,0.35,0.75,0.55
29.030273,-0.053406313,-0.08532939,-0.015560159,0.36,0.74,0.57,25279,10078.60,0,0,2,-4.06,-7.42,-0.49,0.36,0.74,0.57
30.030273,-0.08640631,-0.1033294,-0.015560159,0.35,0.74,0.57,25301,10079.60,0,0,2,-6.37,-8.68,-0.49,0.35,0.74,0.57
29.030273,-0.10140631,-0.113329396,-0.009560159,0.35,0.74,0.58,25323,10078.60,0,0,2,-7.42,-9.38,-0.07,0.35,0.74,0.58
29.030273,-0.10840631,-0.1093294,-0.004560159,0.36,0.74,0.58,25330,10078.60,0,0,2,-7.91,-9.10,0.28,0.36,0.74,0.58
29.030273,-0.113406315,-0.11032939,0.0064398404,0.37,0.73,0.59,25353,10078.60,0,0,2,-8.26,-9.17,1.05,0.37,0.73,0.59
29.030273,-0.105406314,-0.10132939,0.03143984,0.37,0.73,0.6,25369,10078.60,0,0,2,-7.70,-8.54,2.80,0.37,0.73,0.60
29.030273,-0.087406315,-0.083329394,0.059439845,0.37,0.73,0.6,25390,10078.60,0,0,2,-6.44,-7.28,4.76,0.37,0.73,0.60
30.030273,-0.06340632,-0.055329397,0.08243984,0.38,0.75,0.6,25406,10079.60,0,0,2,-4.76,-5.32,6.37,0.38,0.75,0.60
29.331055,-0.013406312,-0.02332939,0.08943985,0.38,0.75,0.59,25428,10078.90,0,0,2,-1.26,-3.08,6.86,0.38,0.75,0.59
29.331055,0.044593684,0.02167061,0.11043984,0.38,0.75,0.6,25443,10078.90,0,0,2,2.80,0.07,8.33,0.38,0.75,0.60
30.430664,0.08259369,0.07667061,0.12443984,0.39,0.74,0.6,25466,10080.00,0,0,2,5.46,3.92,9.31,0.39,0.74,0.60
31.430664,0.09559368,0.11767061,0.120439835,0.39,0.74,0.59,25488,10081.00,0,0,3,6.37,6.79,9.03,0.39,0.74,0.59
32.430664,0.107593685,0.1376706,0.106439844,0.4,0.75,0.58,25511,10082.00,0,0,3,7.21,8.19,8.05,0.40,0.75,0.58
31.430664,0.12759368,0.1436706,0.08243984,0.4,0.76,0.55,25534,10081.00,0,0,3,8.61,8.61,6.37,0.40,0.76,0.55
32.430664,0.12459368,0.14667061,0.062439837,0.4,0.75,0.56,25556,10082.00,0,0,3,8.40,8.82,4.97,0.40,0.75,0.56
33.430664,0.107593685,0.13367061,0.04243984,0.4,0.74,0.56,25570,10083.00,0,0,3,7.21,7.91,3.57,0.40,0.74,0.56
32.430664,0.08759368,0.10767061,0.023439843,0.4,0.75,0.55,25585,10082.00,0,0,3,5.81,6.09,2.24,0.40,0.75,0.55
32.73047,0.07259369,0.08367061,0.00343984,0.4,0.75,0.55,25600,10082.30,0,0,3,4.76,4.41,0.84,0.40,0.75,0.55
32.430664,0.06859369,0.05567061,-0.01056016,0.4,0.75,0.55,25616,10082.00,0,0,3,4.48,2.45,-0.14,0.40,0.75,0.55
32.430664,0.07259369,0.026670609,-0.013560159,0.39,0.75,0.55,25638,10082.00,0,0,3,4.76,0.42,-0.35,0.39,0.75,0.55
32.73047,0.06659369,0.0026706103,-0.021560159,0.39,0.75,0.55,25653,10082.30,0,0,3,4.34,-1.26,-0.91,0.39,0.75,0.55
34.030273,0.058593687,-0.01232939,-0.03156016,0.38,0.75,0.55,25676,10083.60,0,0,3,3.78,-2.31,-1.61,0.38,0.75,0.55
33.430664,0.049593687,-0.017329393,-0.04656016,0.38,0.75,0.55,25698,10083.00,0,0,3,3.15,-2.66,-2.66,0.38,0.75,0.55
33.73047,0.059593685,-0.026329389,-0.03556016,0.37,0.76,0.56,25721,10083.30,0,0,3,3.85,-3.29,-1.89,0.37,0.76,0.56
32.73047,0.060593687,-0.018329391,-0.02956016,0.37,0.76,0.56,25743,10082.30,0,0,3,3.92,-2.73,-1.47,0.37,0.76,0.56
34.030273,0.051593684,-0.006329391,-0.03256016,0.38,0.77,0.56,25766,10083.60,0,0,3,3.29,-1.89,-1.68,0.38,0.77,0.56
34.73047,0.048593685,0.0026706103,-0.04756016,0.37,0.78,0.55,25788,10084.30,0,0,3,3.08,-1.26,-2.73,0.37,0.78,0.55
35.430664,0.059593685,0.017670609,-0.056560155,0.36,0.78,0.55,25803,10085.00,0,0,3,3.85,-0.21,-3.36,0.36,0.78,0.55
35.430664,0.06559369,0.017670609,-0.06456016,0.36,0.78,0.55,25826,10085.00,0,0,3,4.27,-0.21,-3.92,0.36,0.78,0.55
37.030273,0.070593685,0.01167061,-0.06956016,0.35,0.77,0.55,25840,10086.60,0,0,3,4.62,-0.63,-4.27,0.35,0.77,0.55
36.030273,0.06659369,0.02067061,-0.07356016,0.35,0.77,0.55,25855,10085.60,0,0,3,4.34,0.00,-4.55,0.35,0.77,0.55
35.030273,0.055593684,0.02467061,-0.08356016,0.35,0.77,0.55,25871,10084.60,0,0,3,3.57,0.28,-5.25,0.35,0.77,0.55
37.030273,0.045593683,0.02467061,-0.08556016,0.35,0.77,0.55,25886,10086.60,0,0,3,2.87,0.28,-5.39,0.35,0.77,0.55
37.73047,0.037593685,0.01467061,-0.08656016,0.35,0.77,0.54,25909,10087.30,0,0,3,2.31,-0.42,-5.46,0.35,0.77,0.54
38.13086,0.03559369,-0.0013293903,-0.07456016,0.35,0.77,0.54,25930,10087.70,0,0,3,2.17,-1.54,-4.62,0.35,0.77,0.54
39.13086,0.031593688,-0.010329392,-0.070560165,0.34,0.77,0.54,25946,10088.70,0,0,3,1.89,-2.17,-4.34,0.34,0.77,0.54
40.13086,0.022593686,-0.017329393,-0.070560165,0.34,0.76,0.54,25968,10089.70,0,0,3,1.26,-2.66,-4.34,0.34,0.76,0.54
41.13086,0.017593687,-0.020329388,-0.056560155,0.35,0.76,0.55,25990,10090.70,0,0,3,0.91,-2.87,-3.36,0.35,0.76,0.55
42.13086,0.017593687,-0.032329388,-0.03456016,0.35,0.77,0.55,26013,10091.70,0,0,3,0.91,-3.71,-1.82,0.35,0.77,0.55
48.430664,0.018593688,-0.039329387,-0.019560158,0.35,0.78,0.55,26036,10098.00,0,0,3,0.98,-4.20,-0.77,0.35,0.78,0.55
44.430664,0.027593687,-0.039329387,-0.01056016,0.35,0.78,0.55,26051,10094.00,0,0,3,1.61,-4.20,-0.14,0.35,0.78,0.55
45.430664,0.037593685,-0.03732939,-0.0035601594,0.35,0.78,0.55,26066,10095.00,0,0,3,2.31,-4.06,0.35,0.35,0.78,0.55
46.13086,0.048593685,-0.032329388,-0.0035601594,0.34,0.79,0.55,26081,10095.70,0,0,3,3.08,-3.71,0.35,0.34,0.79,0.55
49.430664,0.056593686,-0.02132939,-0.007560159,0.34,0.78,0.55,26096,10099.00,0,0,3,3.64,-2.94,0.07,0.34,0.78,0.55
49.13086,0.060593687,-0.010329392,-0.015560159,0.34,0.77,0.55,26117,10098.70,0,0,3,3.92,-2.17,-0.49,0.34,0.77,0.55
49.430664,0.058593687,-0.005329391,-0.015560159,0.35,0.76,0.55,26141,10099.00,0,0,3,3.78,-1.82,-0.49,0.35,0.76,0.55
49.430664,0.040593684,0.012670609,-0.01056016,0.35,0.77,0.54,26156,10099.00,0,0,3,2.52,-0.56,-0.14,0.35,0.77,0.54
42.73047,0.042593688,0.017670609,0.004439841,0.35,0.78,0.54,26179,10092.30,0,0,3,2.66,-0.21,0.91,0.35,0.78,0.54
53.831055,0.051593684,0.0026706103,0.017439842,0.34,0.79,0.54,26194,10103.40,0,0,3,3.29,-1.26,1.82,0.34,0.79,0.54
49.430664,0.038593687,0.026670609,4.3984037E-4,0.34,0.79,0.53,26216,10099.00,0,0,3,2.38,0.42,0.63,0.34,0.79,0.53
49.831055,0.025593687,0.02167061,-0.0035601594,0.35,0.79,0.52,26239,10099.40,0,0,3,1.47,0.07,0.35,0.35,0.79,0.52
49.831055,0.010593686,0.006670609,-0.006560159,0.35,0.78,0.51,26261,10099.40,0,0,3,0.42,-0.98,0.14,0.35,0.78,0.51
48.831055,-4.0631322E-4,-0.028329393,-0.01856016,0.35,0.78,0.5,26283,10098.40,0,0,3,-0.35,-3.43,-0.70,0.35,0.78,0.50
48.831055,-0.016406313,-0.057329394,-0.019560158,0.36,0.77,0.5,26305,10098.40,0,0,3,-1.47,-5.46,-0.77,0.36,0.77,0.50
48.831055,-0.034406316,-0.08232939,-0.014560159,0.35,0.77,0.5,26320,10098.40,0,0,3,-2.73,-7.21,-0.42,0.35,0.77,0.50
47.13086,-0.054406315,-0.1003294,-0.01656016,0.35,0.77,0.51,26343,10096.70,0,0,3,-4.13,-8.47,-0.56,0.35,0.77,0.51
46.831055,-0.069406316,-0.11732939,-0.008560159,0.35,0.76,0.51,26358,10096.40,0,0,3,-5.18,-9.66,0.00,0.35,0.76,0.51
46.13086,-0.08940631,-0.13232939,0.005439841,0.35,0.75,0.52,26365,10095.70,0,0,3,-6.58,-10.71,0.98,0.35,0.75,0.52
47.831055,-0.11040632,-0.13932939,0.022439841,0.35,0.76,0.53,26389,10097.40,0,0,3,-8.05,-11.20,2.17,0.35,0.76,0.53
48.13086,-0.13240632,-0.1373294,0.041439842,0.35,0.76,0.54,26403,10097.70,0,0,3,-9.59,-11.06,3.50,0.35,0.76,0.54
46.831055,-0.14540632,-0.13032939,0.04243984,0.35,0.77,0.54,26427,10096.40,0,0,3,-10.50,-10.57,3.57,0.35,0.77,0.54
49.430664,-0.15440631,-0.12632939,0.03943984,0.36,0.77,0.55,26448,10099.00,0,0,3,-11.13,-10.29,3.36,0.36,0.77,0.55
46.13086,-0.16540632,-0.12132938,0.030439842,0.37,0.77,0.55,26471,10095.70,0,0,3,-11.90,-9.94,2.73,0.37,0.77,0.55
46.13086,-0.15640633,-0.123329386,0.02743984,0.38,0.77,0.55,26493,10095.70,0,0,3,-11.27,-10.08,2.52,0.38,0.77,0.55
46.13086,-0.14940631,-0.13232939,0.023439843,0.38,0.76,0.56,26515,10095.70,0,0,3,-10.78,-10.71,2.24,0.38,0.76,0.56
46.13086,-0.14540632,-0.1373294,0.017439842,0.38,0.76,0.56,26538,10095.70,0,0,3,-10.50,-11.06,1.82,0.38,0.76,0.56
45.13086,-0.14040631,-0.1353294,0.0074398415,0.38,0.76,0.56,26553,10094.70,0,0,3,-10.15,-10.92,1.12,0.38,0.76,0.56
46.831055,-0.1374063,-0.1373294,-5.6015886E-4,0.38,0.76,0.56,26598,10096.40,0,0,3,-9.94,-11.06,0.56,0.38,0.76,0.56
48.13086,-0.13140632,-0.1413294,-0.004560159,0.39,0.75,0.56,26606,10097.70,0,0,3,-9.52,-11.34,0.28,0.39,0.75,0.56
47.430664,-0.13540632,-0.1403294,-0.006560159,0.39,0.75,0.56,26607,10097.00,0,0,3,-9.80,-11.27,0.14,0.39,0.75,0.56
46.430664,-0.12540632,-0.14332938,-5.6015886E-4,0.39,0.75,0.56,26628,10096.00,0,0,3,-9.10,-11.48,0.56,0.39,0.75,0.56
46.13086,-0.11540631,-0.1373294,0.00343984,0.4,0.76,0.56,26636,10095.70,0,0,3,-8.40,-11.06,0.84,0.40,0.76,0.56
46.430664,-0.09740631,-0.1343294,0.010439842,0.4,0.76,0.55,26658,10096.00,0,0,3,-7.14,-10.85,1.33,0.40,0.76,0.55
46.430664,-0.08440632,-0.1223294,0.01143984,0.39,0.76,0.55,26680,10096.00,0,0,3,-6.23,-10.01,1.40,0.39,0.76,0.55
45.430664,-0.07040632,-0.11132939,0.0074398415,0.39,0.75,0.56,26704,10095.00,0,0,3,-5.25,-9.24,1.12,0.39,0.75,0.56
45.430664,-0.065406315,-0.09932939,0.0064398404,0.4,0.75,0.56,26734,10095.00,0,0,3,-4.90,-8.40,1.05,0.40,0.75,0.56
42.430664,-0.06740631,-0.087329395,0.004439841,0.4,0.75,0.56,26756,10092.00,0,0,3,-5.04,-7.56,0.91,0.40,0.75,0.56
48.831055,-0.059406318,-0.07132939,0.00943984,0.4,0.75,0.56,26763,10098.40,0,0,3,-4.48,-6.44,1.26,0.40,0.75,0.56
46.831055,-0.052406315,-0.06332939,0.0064398404,0.4,0.74,0.56,26786,10096.40,0,0,3,-3.99,-5.88,1.05,0.40,0.74,0.56
45.430664,-0.050406314,-0.06232939,-0.007560159,0.4,0.75,0.56,26808,10095.00,0,0,3,-3.85,-5.81,0.07,0.40,0.75,0.56
45.430664,-0.057406317,-0.076329395,-0.03156016,0.41,0.74,0.56,26831,10095.00,0,0,3,-4.34,-6.79,-1.61,0.41,0.74,0.56
45.831055,-0.065406315,-0.087329395,-0.041560158,0.41,0.74,0.57,26853,10095.40,0,0,3,-4.90,-7.56,-2.31,0.41,0.74,0.57
44.73047,-0.061406314,-0.0883294,-0.03856016,0.41,0.74,0.57,26868,10094.30,0,0,3,-4.62,-7.63,-2.10,0.41,0.74,0.57
44.73047,-0.052406315,-0.079329394,-0.02956016,0.4,0.74,0.57,26883,10094.30,0,0,3,-3.99,-7.00,-1.47,0.40,0.74,0.57
40.73047,-0.040406317,-0.068329394,-0.024560161,0.4,0.74,0.57,26905,10090.30,0,0,3,-3.15,-6.23,-1.12,0.40,0.74,0.57
41.13086,-0.022406314,-0.053329393,-0.03656016,0.39,0.75,0.58,26928,10090.70,0,0,3,-1.89,-5.18,-1.96,0.39,0.75,0.58
43.430664,-0.015406312,-0.04132939,-0.048560157,0.4,0.75,0.58,26958,10093.00,0,0,3,-1.40,-4.34,-2.80,0.40,0.75,0.58
41.73047,-0.0024063135,-0.035329394,-0.05356016,0.4,0.74,0.57,26973,10091.30,0,0,3,-0.49,-3.92,-3.15,0.40,0.74,0.57
40.13086,0.0045936867,-0.035329394,-0.061560158,0.4,0.74,0.57,26996,10089.70,0,0,3,0.00,-3.92,-3.71,0.40,0.74,0.57
38.030273,-4.0631322E-4,-0.038329393,-0.06356016,0.4,0.74,0.57,27011,10087.60,0,0,3,-0.35,-4.13,-3.85,0.40,0.74,0.57
29.730469,-4.0631322E-4,-0.039329387,-0.06256016,0.4,0.73,0.56,27034,10079.30,0,0,3,-0.35,-4.20,-3.78,0.40,0.73,0.56
35.030273,0.0025936866,-0.034329392,-0.04756016,0.39,0.74,0.56,27056,10084.60,0,0,3,-0.14,-3.85,-2.73,0.39,0.74,0.56
34.030273,0.009593686,-0.031329393,-0.03456016,0.39,0.74,0.56,27078,10083.60,0,0,3,0.35,-3.64,-1.82,0.39,0.74,0.56
33.030273,0.010593686,-0.029329391,-0.03356016,0.39,0.75,0.56,27094,10082.60,0,0,3,0.42,-3.50,-1.75,0.39,0.75,0.56
28.030273,0.017593687,-0.020329388,-0.02556016,0.39,0.75,0.56,27108,10077.60,0,0,3,0.91,-2.87,-1.19,0.39,0.75,0.56
33.030273,0.024593687,-0.01232939,-0.02956016,0.38,0.75,0.55,27123,10082.60,0,0,3,1.40,-2.31,-1.47,0.38,0.75,0.55
31.730469,0.031593688,-0.0023293905,-0.02556016,0.39,0.75,0.56,27146,10081.30,0,0,3,1.89,-1.61,-1.19,0.39,0.75,0.56
32.030273,0.022593686,0.0036706086,-0.023560159,0.39,0.74,0.56,27183,10081.60,0,0,3,1.26,-1.19,-1.05,0.39,0.74,0.56
33.030273,0.012593687,0.00867061,-0.012560159,0.39,0.74,0.56,27185,10082.60,0,0,3,0.56,-0.84,-0.28,0.39,0.74,0.56
33.030273,0.010593686,0.017670609,-0.0055601597,0.38,0.75,0.55,27206,10082.60,0,0,3,0.42,-0.21,0.21,0.38,0.75,0.55
34.430664,0.008593687,0.02767061,-0.01056016,0.39,0.75,0.56,27228,10084.00,0,0,3,0.28,0.49,-0.14,0.39,0.75,0.56
34.430664,0.011593686,0.03267061,-0.01056016,0.39,0.75,0.56,27250,10084.00,0,0,3,0.49,0.84,-0.14,0.39,0.75,0.56
34.430664,0.005593687,0.037670612,-0.008560159,0.39,0.75,0.56,27280,10084.00,0,0,3,0.07,1.19,0.00,0.39,0.75,0.56
35.430664,0.0065936865,0.044670608,-0.008560159,0.38,0.75,0.56,27288,10085.00,0,0,3,0.14,1.68,0.00,0.38,0.75,0.56
35.430664,0.0065936865,0.04667061,-0.01056016,0.38,0.75,0.56,27311,10085.00,0,0,3,0.14,1.82,-0.14,0.38,0.75,0.56
35.430664,0.0075936867,0.056670606,-0.009560159,0.38,0.75,0.56,27333,10085.00,0,0,3,0.21,2.52,-0.07,0.38,0.75,0.56
35.430664,0.009593686,0.059670612,-0.0055601597,0.38,0.75,0.56,27348,10085.00,0,0,3,0.35,2.73,0.21,0.38,0.75,0.56
35.73047,0.013593687,0.06367061,-5.6015886E-4,0.38,0.75,0.57,27363,10085.30,0,0,3,0.63,3.01,0.56,0.38,0.75,0.57
34.430664,0.008593687,0.06367061,-5.6015886E-4,0.38,0.75,0.57,27385,10084.00,0,0,3,0.28,3.01,0.56,0.38,0.75,0.57
36.430664,0.0035936865,0.06467061,-0.0055601597,0.38,0.75,0.57,27400,10086.00,0,0,3,-0.07,3.08,0.21,0.38,0.75,0.57
36.430664,0.0035936865,0.07167061,-0.006560159,0.38,0.75,0.57,27423,10086.00,0,0,3,-0.07,3.57,0.14,0.38,0.75,0.57
32.73047,0.012593687,0.06667061,-0.006560159,0.38,0.75,0.57,27445,10082.30,0,0,3,0.56,3.22,0.14,0.38,0.75,0.57
40.73047,0.018593688,0.06267061,-0.006560159,0.38,0.75,0.57,27468,10090.30,0,0,3,0.98,2.94,0.14,0.38,0.75,0.57
38.030273,0.023593688,0.060670607,-0.004560159,0.38,0.75,0.57,27491,10087.60,0,0,3,1.33,2.80,0.28,0.38,0.75,0.57
38.430664,0.025593687,0.05867061,-0.0055601597,0.38,0.75,0.57,27506,10088.00,0,0,3,1.47,2.66,0.21,0.38,0.75,0.57
39.030273,0.030593688,0.05867061,-0.001560159,0.38,0.75,0.56,27528,10088.60,0,0,3,1.82,2.66,0.49,0.38,0.75,0.56
38.73047,0.025593687,0.059670612,0.0064398404,0.37,0.75,0.56,27552,10088.30,0,0,3,1.47,2.73,1.05,0.37,0.75,0.56
39.73047,0.023593688,0.05867061,0.004439841,0.38,0.75,0.56,27574,10089.30,0,0,3,1.33,2.66,0.91,0.38,0.75,0.56
39.73047,0.016593685,0.06167061,-5.6015886E-4,0.38,0.75,0.56,27596,10089.30,0,0,3,0.84,2.87,0.56,0.38,0.75,0.56
40.13086,0.0075936867,0.06267061,-0.001560159,0.38,0.74,0.56,27611,10089.70,0,0,3,0.21,2.94,0.49,0.38,0.74,0.56
39.73047,-0.0034063137,0.05767061,-0.004560159,0.38,0.75,0.57,27626,10089.30,0,0,3,-0.56,2.59,0.28,0.38,0.75,0.57
39.73047,-0.011406314,0.052670613,-0.008560159,0.38,0.75,0.56,27641,10089.30,0,0,3,-1.12,2.24,0.00,0.38,0.75,0.56
40.73047,-0.004406313,0.03467061,-0.01656016,0.38,0.75,0.56,27663,10090.30,0,0,3,-0.63,0.98,-0.56,0.38,0.75,0.56
39.030273,-0.005406313,0.016670609,-0.01856016,0.38,0.75,0.56,27686,10088.60,0,0,3,-0.70,-0.28,-0.70,0.38,0.75,0.56
43.13086,-0.009406313,0.0016706083,-0.023560159,0.37,0.75,0.58,27709,10092.70,0,0,3,-0.98,-1.33,-1.05,0.37,0.75,0.58
43.13086,-0.016406313,-0.0073293913,-0.023560159,0.37,0.75,0.58,27731,10092.70,0,0,3,-1.47,-1.96,-1.05,0.37,0.75,0.58
43.13086,-0.008406313,-0.0073293913,-0.017560158,0.37,0.75,0.58,27746,10092.70,0,0,3,-0.91,-1.96,-0.63,0.37,0.75,0.58
44.13086,0.005593687,-0.005329391,-0.015560159,0.36,0.75,0.58,27768,10093.70,0,0,3,0.07,-1.82,-0.49,0.36,0.75,0.58
44.13086,0.014593687,-3.2939017E-4,-0.019560158,0.36,0.75,0.57,27791,10093.70,0,0,3,0.70,-1.47,-0.77,0.36,0.75,0.57
46.13086,0.020593688,0.00967061,-0.028560158,0.36,0.76,0.57,27814,10095.70,0,0,3,1.12,-0.77,-1.40,0.36,0.76,0.57
47.430664,0.026593687,0.02067061,-0.02256016,0.36,0.75,0.58,27835,10097.00,0,0,3,1.54,0.00,-0.98,0.36,0.75,0.58
47.430664,0.027593687,0.028670609,-0.013560159,0.36,0.75,0.58,27851,10097.00,0,0,3,1.61,0.56,-0.35,0.36,0.75,0.58
49.430664,0.024593687,0.03267061,-0.009560159,0.36,0.75,0.58,27865,10099.00,0,0,3,1.40,0.84,-0.07,0.36,0.75,0.58
45.430664,0.019593686,0.031670608,-0.0035601594,0.35,0.76,0.57,27880,10095.00,0,0,3,1.05,0.77,0.35,0.35,0.76,0.57
51.430664,0.03559369,0.03267061,0.0074398415,0.36,0.76,0.57,27903,10101.00,0,0,3,2.17,0.84,1.12,0.36,0.76,0.57
52.430664,0.050593685,0.03367061,0.01643984,0.35,0.76,0.57,27926,10102.00,0,0,3,3.22,0.91,1.75,0.35,0.76,0.57
55.530273,0.051593684,0.038670607,0.01643984,0.35,0.75,0.58,27956,10105.10,0,0,3,3.29,1.26,1.75,0.35,0.75,0.58
54.530273,0.052593682,0.03967061,0.029439844,0.35,0.75,0.57,27970,10104.10,0,0,3,3.36,1.33,2.66,0.35,0.75,0.57
52.831055,0.059593685,0.04667061,0.03843984,0.35,0.76,0.57,27987,10102.40,0,0,3,3.85,1.82,3.29,0.35,0.76,0.57
53.831055,0.06459369,0.053670608,0.040439844,0.35,0.76,0.57,28008,10103.40,0,0,3,4.20,2.31,3.43,0.35,0.76,0.57
53.530273,0.06459369,0.056670606,0.03743984,0.36,0.76,0.57,28030,10103.10,0,0,3,4.20,2.52,3.22,0.36,0.76,0.57
52.831055,0.06459369,0.05567061,0.03843984,0.36,0.76,0.56,28053,10102.40,0,0,3,4.20,2.45,3.29,0.36,0.76,0.56
51.831055,0.060593687,0.05767061,0.04243984,0.35,0.76,0.56,28076,10101.40,0,0,3,3.92,2.59,3.57,0.35,0.76,0.56
47.831055,0.055593684,0.06167061,0.045439843,0.35,0.76,0.56,28098,10097.40,0,0,3,3.57,2.87,3.78,0.35,0.76,0.56
54.831055,0.056593686,0.05767061,0.040439844,0.36,0.76,0.56,28113,10104.40,0,0,3,3.64,2.59,3.43,0.36,0.76,0.56
50.831055,0.055593684,0.056670606,0.040439844,0.36,0.76,0.56,28128,10100.40,0,0,3,3.57,2.52,3.43,0.36,0.76,0.56
51.831055,0.051593684,0.05767061,0.045439843,0.36,0.75,0.56,28143,10101.40,0,0,3,3.29,2.59,3.78,0.36,0.75,0.56
55.831055,0.038593687,0.049670607,0.04243984,0.36,0.76,0.56,28165,10105.40,0,0,3,2.38,2.03,3.57,0.36,0.76,0.56
50.831055,0.033593684,0.04167061,0.041439842,0.36,0.76,0.56,28188,10100.40,0,0,3,2.03,1.47,3.50,0.36,0.76,0.56
51.13086,0.027593687,0.03667061,0.045439843,0.36,0.76,0.56,28210,10100.70,0,0,3,1.61,1.12,3.78,0.36,0.76,0.56
51.831055,0.019593686,0.03267061,0.04843984,0.36,0.75,0.56,28233,10101.40,0,0,3,1.05,0.84,3.99,0.36,0.75,0.56
51.13086,0.009593686,0.03067061,0.040439844,0.36,0.76,0.56,28255,10100.70,0,0,3,0.35,0.70,3.43,0.36,0.76,0.56
51.13086,-0.0034063137,0.028670609,0.02743984,0.37,0.76,0.56,28271,10100.70,0,0,3,-0.56,0.56,2.52,0.37,0.76,0.56
51.13086,-0.005406313,0.02067061,0.022439841,0.37,0.76,0.56,28293,10100.70,0,0,3,-0.70,0.00,2.17,0.37,0.76,0.56
50.13086,-0.010406313,0.00567061,0.015439839,0.36,0.77,0.56,28315,10099.70,0,0,3,-1.05,-1.05,1.68,0.36,0.77,0.56
50.430664,-0.0074063125,-3.2939017E-4,0.0014398405,0.37,0.76,0.56,28338,10100.00,0,0,3,-0.84,-1.47,0.70,0.37,0.76,0.56
50.13086,-4.0631322E-4,-0.006329391,-0.0025601597,0.36,0.76,0.56,28353,10099.70,0,0,3,-0.35,-1.89,0.42,0.36,0.76,0.56
47.430664,0.0025936866,-0.011329392,4.3984037E-4,0.36,0.76,0.56,28368,10097.00,0,0,3,-0.14,-2.24,0.63,0.36,0.76,0.56
50.13086,0.0045936867,-0.011329392,0.00343984,0.36,0.76,0.56,28390,10099.70,0,0,3,0.00,-2.24,0.84,0.36,0.76,0.56
50.430664,0.0025936866,-0.013329392,0.0014398405,0.36,0.76,0.56,28421,10100.00,0,0,3,-0.14,-2.38,0.70,0.36,0.76,0.56
51.430664,0.005593687,-0.017329393,-5.6015886E-4,0.36,0.76,0.57,28428,10101.00,0,0,3,0.07,-2.66,0.56,0.36,0.76,0.57
50.430664,0.0065936865,-0.018329391,4.3984037E-4,0.36,0.76,0.56,28450,10100.00,0,0,3,0.14,-2.73,0.63,0.36,0.76,0.56
50.430664,0.009593686,-0.01232939,0.00343984,0.36,0.76,0.56,28473,10100.00,0,0,3,0.35,-2.31,0.84,0.36,0.76,0.56
50.13086,0.011593686,-0.018329391,0.013439841,0.36,0.76,0.56,28495,10099.70,0,0,3,0.49,-2.73,1.54,0.36,0.76,0.56
50.430664,0.009593686,-0.01932939,0.010439842,0.36,0.76,0.56,28518,10100.00,0,0,3,0.35,-2.80,1.33,0.36,0.76,0.56
51.13086,-0.0014063129,-0.014329391,-5.6015886E-4,0.36,0.76,0.57,28540,10100.70,0,0,3,-0.42,-2.45,0.56,0.36,0.76,0.57
49.13086,-0.0064063133,-0.006329391,0.00343984,0.37,0.76,0.56,28563,10098.70,0,0,3,-0.77,-1.89,0.84,0.37,0.76,0.56
50.430664,5.936865E-4,-0.00832939,0.008439842,0.37,0.76,0.56,28578,10100.00,0,0,3,-0.28,-2.03,1.19,0.37,0.76,0.56
49.430664,0.010593686,-0.00832939,0.004439841,0.37,0.77,0.56,28600,10099.00,0,0,3,0.42,-2.03,0.91,0.37,0.77,0.56
50.430664,0.014593687,-0.00832939,-0.0035601594,0.37,0.76,0.56,28623,10100.00,0,0,3,0.70,-2.03,0.35,0.37,0.76,0.56
48.831055,0.017593687,-0.006329391,-0.007560159,0.36,0.76,0.56,28638,10098.40,0,0,3,0.91,-1.89,0.07,0.36,0.76,0.56
49.831055,0.014593687,-0.004329391,-0.006560159,0.37,0.75,0.56,28668,10099.40,0,0,3,0.70,-1.75,0.14,0.37,0.75,0.56
49.13086,0.0075936867,-0.0023293905,-0.0055601597,0.37,0.76,0.56,28676,10098.70,0,0,3,0.21,-1.61,0.21,0.37,0.76,0.56
48.13086,0.0025936866,-0.0013293903,-0.007560159,0.37,0.76,0.55,28698,10097.70,0,0,3,-0.14,-1.54,0.07,0.37,0.76,0.55
48.831055,0.0035936865,-0.0013293903,-0.009560159,0.37,0.77,0.56,28728,10098.40,0,0,3,-0.07,-1.54,-0.07,0.37,0.77,0.56
45.73047,0.0075936867,-0.0033293888,-0.014560159,0.37,0.76,0.56,28743,10095.30,0,0,3,0.21,-1.68,-0.42,0.37,0.76,0.56
42.73047,-0.004406313,-0.00832939,-0.02556016,0.37,0.76,0.56,28766,10092.30,0,0,3,-0.63,-2.03,-1.19,0.37,0.76,0.56
41.73047,-0.004406313,-0.00932939,-0.026560158,0.37,0.76,0.56,28780,10091.30,0,0,3,-0.63,-2.10,-1.26,0.37,0.76,0.56
40.73047,-0.0014063129,-0.011329392,-0.02556016,0.37,0.77,0.56,28811,10090.30,0,0,3,-0.42,-2.24,-1.19,0.37,0.77,0.56
33.73047,-0.004406313,-0.013329392,-0.028560158,0.36,0.77,0.55,28825,10083.30,0,0,3,-0.63,-2.38,-1.40,0.36,0.77,0.55
36.030273,-0.008406313,-0.015329389,-0.03656016,0.36,0.77,0.56,28848,10085.60,0,0,3,-0.91,-2.52,-1.96,0.36,0.77,0.56
34.73047,-0.012406314,-0.010329392,-0.03556016,0.36,0.76,0.56,28864,10084.30,0,0,3,-1.19,-2.17,-1.89,0.36,0.76,0.56
34.73047,-0.012406314,-0.00932939,-0.04056016,0.35,0.76,0.56,28878,10084.30,0,0,3,-1.19,-2.10,-2.24,0.35,0.76,0.56
39.030273,-0.010406313,-0.005329391,-0.04056016,0.35,0.76,0.56,28893,10088.60,0,0,3,-1.05,-1.82,-2.24,0.35,0.76,0.56
33.030273,-0.016406313,6.7061E-4,-0.04056016,0.35,0.76,0.56,28915,10082.60,0,0,3,-1.47,-1.40,-2.24,0.35,0.76,0.56
37.030273,-0.017406313,6.7061E-4,-0.03356016,0.36,0.76,0.56,28938,10086.60,0,0,3,-1.54,-1.40,-1.75,0.36,0.76,0.56
33.030273,-0.011406314,-0.0023293905,-0.02256016,0.35,0.76,0.56,28961,10082.60,0,0,3,-1.12,-1.61,-0.98,0.35,0.76,0.56
36.430664,-0.005406313,6.7061E-4,-0.015560159,0.35,0.76,0.57,28976,10086.00,0,0,3,-0.70,-1.40,-0.49,0.35,0.76,0.57
38.030273,-0.004406313,0.004670609,-0.011560159,0.35,0.76,0.56,28998,10087.60,0,0,3,-0.63,-1.12,-0.21,0.35,0.76,0.56
38.030273,0.005593687,0.01167061,-0.004560159,0.35,0.76,0.57,29028,10087.60,0,0,3,0.07,-0.63,0.28,0.35,0.76,0.57
38.030273,0.009593686,0.017670609,0.0014398405,0.35,0.76,0.57,29043,10087.60,0,0,3,0.35,-0.21,0.70,0.35,0.76,0.57
37.030273,0.009593686,0.01967061,0.005439841,0.35,0.76,0.57,29066,10086.60,0,0,3,0.35,-0.07,0.98,0.35,0.76,0.57
38.73047,0.014593687,0.02167061,0.00943984,0.35,0.76,0.56,29088,10088.30,0,0,3,0.70,0.07,1.26,0.35,0.76,0.56
39.030273,0.013593687,0.02567061,0.0124398405,0.35,0.76,0.56,29110,10088.60,0,0,3,0.63,0.35,1.47,0.35,0.76,0.56
39.430664,0.018593688,0.02567061,0.013439841,0.35,0.77,0.56,29118,10089.00,0,0,3,0.98,0.35,1.54,0.35,0.77,0.56
39.430664,0.015593687,0.028670609,0.0124398405,0.35,0.76,0.56,29134,10089.00,0,0,3,0.77,0.56,1.47,0.35,0.76,0.56
40.430664,0.012593687,0.028670609,0.01143984,0.35,0.76,0.56,29156,10090.00,0,0,3,0.56,0.56,1.40,0.35,0.76,0.56
40.73047,0.010593686,0.02267061,0.00943984,0.35,0.76,0.56,29178,10090.30,0,0,3,0.42,0.14,1.26,0.35,0.76,0.56
42.430664,0.008593687,0.02567061,0.01143984,0.35,0.76,0.56,29201,10092.00,0,0,3,0.28,0.35,1.40,0.35,0.76,0.56
42.430664,0.008593687,0.02067061,0.008439842,0.35,0.77,0.56,29223,10092.00,0,0,3,0.28,0.00,1.19,0.35,0.77,0.56
42.73047,0.010593686,0.016670609,0.004439841,0.35,0.77,0.56,29246,10092.30,0,0,3,0.42,-0.28,0.91,0.35,0.77,0.56
42.73047,0.009593686,0.02067061,0.0064398404,0.35,0.76,0.56,29268,10092.30,0,0,3,0.35,0.00,1.05,0.35,0.76,0.56
37.73047,0.0035936865,0.016670609,0.0064398404,0.35,0.76,0.56,29284,10087.30,0,0,3,-0.07,-0.28,1.05,0.35,0.76,0.56
42.73047,-0.0024063135,0.01167061,0.0064398404,0.35,0.76,0.56,29306,10092.30,0,0,3,-0.49,-0.63,1.05,0.35,0.76,0.56
43.73047,0.0015936869,0.00567061,0.0024398407,0.35,0.77,0.55,29329,10093.30,0,0,3,-0.21,-1.05,0.77,0.35,0.77,0.55
43.73047,0.014593687,0.0026706103,0.01143984,0.35,0.77,0.56,29343,10093.30,0,0,3,0.70,-1.26,1.40,0.35,0.77,0.56
43.73047,0.013593687,0.0016706083,0.013439841,0.35,0.77,0.57,29358,10093.30,0,0,3,0.63,-1.33,1.54,0.35,0.77,0.57
44.430664,0.0045936867,-3.2939017E-4,0.0074398415,0.35,0.76,0.56,29374,10094.00,0,0,3,0.00,-1.47,1.12,0.35,0.76,0.56
46.13086,-0.005406313,0.0016706083,0.0024398407,0.36,0.76,0.57,29395,10095.70,0,0,3,-0.70,-1.33,0.77,0.36,0.76,0.57
44.73047,-0.008406313,-3.2939017E-4,0.0064398404,0.36,0.76,0.56,29418,10094.30,0,0,3,-0.91,-1.47,1.05,0.36,0.76,0.56
45.73047,0.0035936865,-0.010329392,0.013439841,0.36,0.77,0.56,29433,10095.30,0,0,3,-0.07,-2.17,1.54,0.36,0.77,0.56
45.73047,0.012593687,-0.013329392,0.00943984,0.35,0.77,0.56,29463,10095.30,0,0,3,0.56,-2.38,1.26,0.35,0.77,0.56
51.831055,0.014593687,-0.011329392,-5.6015886E-4,0.35,0.76,0.56,29478,10101.40,0,0,3,0.70,-2.24,0.56,0.35,0.76,0.56
47.13086,0.009593686,-0.00932939,-0.007560159,0.35,0.76,0.56,29500,10096.70,0,0,3,0.35,-2.10,0.07,0.35,0.76,0.56
47.13086,0.0035936865,-0.004329391,-0.0025601597,0.36,0.75,0.57,29523,10096.70,0,0,3,-0.07,-1.75,0.42,0.36,0.75,0.57
49.13086,-0.004406313,-0.006329391,0.00343984,0.35,0.76,0.57,29538,10098.70,0,0,3,-0.63,-1.89,0.84,0.35,0.76,0.57
48.831055,-0.009406313,-0.00932939,0.0024398407,0.36,0.77,0.56,29560,10098.40,0,0,3,-0.98,-2.10,0.77,0.36,0.77,0.56
50.13086,-0.0014063129,-0.005329391,0.0074398415,0.36,0.77,0.56,29583,10099.70,0,0,3,-0.42,-1.82,1.12,0.36,0.77,0.56
51.13086,0.008593687,-0.004329391,0.0014398405,0.35,0.77,0.56,29605,10100.70,0,0,3,0.28,-1.75,0.70,0.35,0.77,0.56
50.831055,0.005593687,-0.010329392,-0.006560159,0.35,0.77,0.56,29621,10100.40,0,0,3,0.07,-2.17,0.14,0.35,0.77,0.56
55.530273,0.011593686,-0.00932939,-0.006560159,0.35,0.76,0.56,29643,10105.10,0,0,3,0.49,-2.10,0.14,0.35,0.76,0.56
56.13086,0.017593687,-0.010329392,0.0014398405,0.35,0.76,0.56,29657,10105.70,0,0,3,0.91,-2.17,0.70,0.35,0.76,0.56
56.13086,0.021593688,-0.011329392,0.00943984,0.36,0.76,0.56,29680,10105.70,0,0,3,1.19,-2.24,1.26,0.36,0.76,0.56
57.530273,0.017593687,-0.011329392,0.0124398405,0.36,0.76,0.56,29703,10107.10,0,0,3,0.91,-2.24,1.47,0.36,0.76,0.56
57.530273,0.0075936867,-0.0073293913,0.004439841,0.36,0.77,0.56,29726,10107.10,0,0,3,0.21,-1.96,0.91,0.36,0.77,0.56
56.530273,-0.0014063129,-0.0073293913,4.3984037E-4,0.35,0.76,0.56,29748,10106.10,0,0,3,-0.42,-1.96,0.63,0.35,0.76,0.56
57.530273,-0.004406313,-0.010329392,-0.006560159,0.35,0.77,0.55,29763,10107.10,0,0,3,-0.63,-2.17,0.14,0.35,0.77,0.55
57.530273,-0.005406313,-0.011329392,-0.01856016,0.35,0.77,0.56,29785,10107.10,0,0,3,-0.70,-2.24,-0.70,0.35,0.77,0.56
56.831055,-0.0074063125,-0.014329391,-0.026560158,0.36,0.77,0.56,29808,10106.40,0,0,3,-0.84,-2.45,-1.26,0.36,0.77,0.56
56.13086,-0.011406314,-0.020329388,-0.02756016,0.36,0.76,0.55,29830,10105.70,0,0,3,-1.12,-2.87,-1.33,0.36,0.76,0.55
55.530273,-0.014406314,-0.03032939,-0.024560161,0.36,0.77,0.55,29846,10105.10,0,0,3,-1.33,-3.57,-1.12,0.36,0.77,0.55
54.530273,-0.017406313,-0.035329394,-0.021560159,0.36,0.77,0.55,29868,10104.10,0,0,3,-1.54,-3.92,-0.91,0.36,0.77,0.55
55.831055,-0.018406313,-0.04132939,-0.030560158,0.35,0.77,0.56,29883,10105.40,0,0,3,-1.61,-4.34,-1.54,0.35,0.77,0.56
53.430664,-0.024406312,-0.044329397,-0.028560158,0.35,0.76,0.56,29898,10103.00,0,0,3,-2.03,-4.55,-1.40,0.35,0.76,0.56
54.530273,-0.030406313,-0.04032939,-0.020560158,0.35,0.76,0.56,29921,10104.10,0,0,3,-2.45,-4.27,-0.84,0.35,0.76,0.56
53.831055,-0.027406314,-0.034329392,-0.01656016,0.35,0.76,0.56,29944,10103.40,0,0,3,-2.24,-3.85,-0.56,0.35,0.76,0.56
53.831055,-0.032406315,-0.027329387,-0.014560159,0.35,0.76,0.56,29965,10103.40,0,0,3,-2.59,-3.36,-0.42,0.35,0.76,0.56
53.430664,-0.034406316,-0.02532939,-0.011560159,0.35,0.76,0.56,29989,10103.00,0,0,3,-2.73,-3.22,-0.21,0.35,0.76,0.56
54.13086,-0.031406313,-0.01932939,-0.007560159,0.35,0.76,0.56,30010,10103.70,0,0,3,-2.52,-2.80,0.07,0.35,0.76,0.56
53.831055,-0.031406313,-0.01632939,-0.0035601594,0.35,0.76,0.56,30033,10103.40,0,0,3,-2.52,-2.59,0.35,0.35,0.76,0.56
53.831055,-0.030406313,-0.01632939,-0.0025601597,0.36,0.76,0.57,30056,10103.40,0,0,3,-2.45,-2.59,0.42,0.36,0.76,0.57
53.13086,-0.031406313,-0.011329392,4.3984037E-4,0.35,0.77,0.56,30078,10102.70,0,0,3,-2.52,-2.24,0.63,0.35,0.77,0.56
52.13086,-0.027406314,-0.00932939,-0.001560159,0.35,0.76,0.57,30093,10101.70,0,0,3,-2.24,-2.10,0.49,0.35,0.76,0.57
53.831055,-0.026406314,-0.005329391,0.005439841,0.35,0.76,0.57,30116,10103.40,0,0,3,-2.17,-1.82,0.98,0.35,0.76,0.57
52.831055,-0.025406312,-0.004329391,0.0024398407,0.35,0.76,0.57,30131,10102.40,0,0,3,-2.10,-1.75,0.77,0.35,0.76,0.57
52.831055,-0.016406313,-0.005329391,0.010439842,0.36,0.76,0.56,30146,10102.40,0,0,3,-1.47,-1.82,1.33,0.36,0.76,0.56
53.13086,-0.013406312,-0.0013293903,0.010439842,0.35,0.76,0.57,30169,10102.70,0,0,3,-1.26,-1.54,1.33,0.35,0.76,0.57
52.13086,-0.022406314,-0.006329391,0.004439841,0.35,0.76,0.57,30190,10101.70,0,0,3,-1.89,-1.89,0.91,0.35,0.76,0.57
51.430664,-0.035406314,-0.006329391,0.0014398405,0.35,0.76,0.57,30205,10101.00,0,0,3,-2.80,-1.89,0.70,0.35,0.76,0.57
51.430664,-0.033406317,-0.006329391,0.00943984,0.36,0.76,0.57,30229,10101.00,0,0,3,-2.66,-1.89,1.26,0.36,0.76,0.57
53.13086,-0.029406315,-0.010329392,0.0124398405,0.36,0.75,0.57,30251,10102.70,0,0,3,-2.38,-2.17,1.47,0.36,0.75,0.57
52.13086,-0.032406315,-0.01232939,0.010439842,0.35,0.75,0.57,30273,10101.70,0,0,3,-2.59,-2.31,1.33,0.35,0.75,0.57
52.13086,-0.029406315,-0.013329392,0.0124398405,0.35,0.75,0.57,30295,10101.70,0,0,3,-2.38,-2.38,1.47,0.35,0.75,0.57
52.13086,-0.028406313,-0.01232939,0.010439842,0.36,0.76,0.57,30318,10101.70,0,0,3,-2.31,-2.31,1.33,0.36,0.76,0.57
57.13086,-0.026406314,-0.0073293913,0.00943984,0.36,0.76,0.58,30341,10106.70,0,0,3,-2.17,-1.96,1.26,0.36,0.76,0.58
52.430664,-0.023406314,-0.005329391,0.01143984,0.36,0.75,0.58,30355,10102.00,0,0,3,-1.96,-1.82,1.40,0.36,0.75,0.58
51.430664,-0.020406313,-0.0033293888,0.01143984,0.36,0.76,0.58,30371,10101.00,0,0,3,-1.75,-1.68,1.40,0.36,0.76,0.58
50.430664,-0.017406313,-0.005329391,0.013439841,0.37,0.76,0.58,30385,10100.00,0,0,3,-1.54,-1.82,1.54,0.37,0.76,0.58
50.831055,-0.012406314,-0.005329391,0.0064398404,0.36,0.76,0.58,30416,10100.40,0,0,3,-1.19,-1.82,1.05,0.36,0.76,0.58
47.430664,-0.010406313,-0.00832939,-0.004560159,0.36,0.75,0.58,30431,10097.00,0,0,3,-1.05,-2.03,0.28,0.36,0.75,0.58
48.831055,-0.009406313,-0.004329391,-0.006560159,0.36,0.75,0.58,30453,10098.40,0,0,3,-0.98,-1.75,0.14,0.36,0.75,0.58
48.430664,-0.009406313,-3.2939017E-4,-0.008560159,0.36,0.75,0.58,30468,10098.00,0,0,3,-0.98,-1.47,0.00,0.36,0.75,0.58
48.430664,-0.012406314,-0.0013293903,4.3984037E-4,0.36,0.75,0.58,30491,10098.00,0,0,3,-1.19,-1.54,0.63,0.36,0.75,0.58
46.73047,-0.008406313,-0.004329391,0.005439841,0.36,0.76,0.58,30521,10096.30,0,0,3,-0.91,-1.75,0.98,0.36,0.76,0.58
44.73047,-0.0024063135,-0.005329391,0.0064398404,0.35,0.75,0.58,30536,10094.30,0,0,3,-0.49,-1.82,1.05,0.35,0.75,0.58
43.73047,-4.0631322E-4,-0.0033293888,4.3984037E-4,0.35,0.75,0.57,30559,10093.30,0,0,3,-0.35,-1.68,0.63,0.35,0.75,0.57
39.030273,-4.0631322E-4,0.01467061,-0.01056016,0.35,0.75,0.57,30581,10088.60,0,0,3,-0.35,-0.42,-0.14,0.35,0.75,0.57
39.430664,-0.0064063133,0.013670609,-0.01056016,0.35,0.75,0.58,30611,10089.00,0,0,3,-0.77,-0.49,-0.14,0.35,0.75,0.58
39.73047,-0.005406313,-0.0023293905,-0.008560159,0.36,0.75,0.58,30618,10089.30,0,0,3,-0.70,-1.61,0.00,0.36,0.75,0.58
35.331055,-0.010406313,-3.2939017E-4,-0.0035601594,0.36,0.75,0.58,30632,10084.90,0,0,3,-1.05,-1.47,0.35,0.36,0.75,0.58
38.73047,-0.009406313,-0.0033293888,-5.6015886E-4,0.36,0.75,0.58,30656,10088.30,0,0,3,-0.98,-1.68,0.56,0.36,0.75,0.58
39.73047,-0.0064063133,-0.005329391,0.004439841,0.35,0.76,0.58,30670,10089.30,0,0,3,-0.77,-1.82,0.91,0.35,0.76,0.58
38.73047,-0.0024063135,-0.00832939,0.0024398407,0.35,0.76,0.58,30693,10088.30,0,0,3,-0.49,-2.03,0.77,0.35,0.76,0.58
38.73047,0.0035936865,-0.0023293905,0.0024398407,0.36,0.75,0.58,30716,10088.30,0,0,3,-0.07,-1.61,0.77,0.36,0.75,0.58
38.430664,0.0045936867,0.0026706103,0.0014398405,0.35,0.75,0.58,30738,10088.00,0,0,3,0.00,-1.26,0.70,0.35,0.75,0.58
40.73047,0.0035936865,0.01067061,-5.6015886E-4,0.36,0.75,0.57,30761,10090.30,0,0,3,-0.07,-0.70,0.56,0.36,0.75,0.57
40.73047,0.0035936865,0.01167061,-0.0035601594,0.36,0.76,0.57,30783,10090.30,0,0,3,-0.07,-0.63,0.35,0.36,0.76,0.57
42.030273,0.005593687,0.01167061,-0.0055601597,0.36,0.75,0.57,30806,10091.60,0,0,3,0.07,-0.63,0.21,0.36,0.75,0.57
42.030273,0.0035936865,0.01167061,-0.012560159,0.36,0.75,0.57,30820,10091.60,0,0,3,-0.07,-0.63,-0.28,0.36,0.75,0.57
42.030273,-0.0014063129,0.00567061,-0.01656016,0.36,0.75,0.57,30843,10091.60,0,0,3,-0.42,-1.05,-0.56,0.36,0.75,0.57
46.13086,-0.0064063133,-0.005329391,-0.019560158,0.36,0.75,0.57,30865,10095.70,0,0,3,-0.77,-1.82,-0.77,0.36,0.75,0.57
43.13086,-0.009406313,-0.017329393,-0.02256016,0.36,0.75,0.57,30880,10092.70,0,0,3,-0.98,-2.66,-0.98,0.36,0.75,0.57
43.430664,-0.008406313,-0.028329393,-0.020560158,0.36,0.76,0.57,30896,10093.00,0,0,3,-0.91,-3.43,-0.84,0.36,0.76,0.57
44.13086,-0.005406313,-0.03032939,-0.017560158,0.36,0.75,0.58,30918,10093.70,0,0,3,-0.70,-3.57,-0.63,0.36,0.75,0.58
46.13086,-0.008406313,-0.027329387,-0.019560158,0.35,0.76,0.58,30940,10095.70,0,0,3,-0.91,-3.36,-0.77,0.35,0.76,0.58
45.430664,-0.004406313,-0.027329387,-0.014560159,0.35,0.76,0.57,30955,10095.00,0,0,3,-0.63,-3.36,-0.42,0.35,0.76,0.57
45.13086,0.013593687,-0.02532939,-0.01056016,0.35,0.77,0.57,30978,10094.70,0,0,3,0.63,-3.22,-0.14,0.35,0.77,0.57
45.13086,0.014593687,-0.01632939,-0.017560158,0.35,0.76,0.58,31000,10094.70,0,0,3,0.70,-2.59,-0.63,0.35,0.76,0.58
45.430664,0.0065936865,-0.00832939,-0.028560158,0.36,0.75,0.58,31023,10095.00,0,0,3,0.14,-2.03,-1.40,0.36,0.75,0.58
45.430664,-0.0064063133,6.7061E-4,-0.023560159,0.36,0.75,0.58,31053,10095.00,0,0,3,-0.77,-1.40,-1.05,0.36,0.75,0.58
46.430664,-0.009406313,0.00567061,-0.015560159,0.36,0.76,0.57,31067,10096.00,0,0,3,-0.98,-1.05,-0.49,0.36,0.76,0.57
46.430664,-0.0024063135,0.00567061,-0.015560159,0.35,0.75,0.57,31091,10096.00,0,0,3,-0.49,-1.05,-0.49,0.35,0.75,0.57
46.430664,-0.005406313,0.006670609,-0.023560159,0.35,0.75,0.57,31105,10096.00,0,0,3,-0.70,-0.98,-1.05,0.35,0.75,0.57
46.430664,-0.011406314,0.00867061,-0.02756016,0.35,0.75,0.57,31120,10096.00,0,0,3,-1.12,-0.84,-1.33,0.35,0.75,0.57
47.430664,-0.019406311,0.0076706093,-0.03256016,0.36,0.75,0.57,31135,10097.00,0,0,3,-1.68,-0.91,-1.68,0.36,0.75,0.57
49.831055,-0.028406313,0.0026706103,-0.02756016,0.36,0.75,0.57,31158,10099.40,0,0,3,-2.31,-1.26,-1.33,0.36,0.75,0.57
49.430664,-0.041406315,-0.011329392,-0.026560158,0.37,0.75,0.57,31180,10099.00,0,0,3,-3.22,-2.24,-1.26,0.37,0.75,0.57
49.430664,-0.057406317,-0.03632939,-0.03156016,0.37,0.75,0.56,31203,10099.00,0,0,3,-4.34,-3.99,-1.61,0.37,0.75,0.56
49.831055,-0.06040632,-0.07332939,-0.03956016,0.38,0.77,0.55,31218,10099.40,0,0,3,-4.55,-6.58,-2.17,0.38,0.77,0.55
51.430664,-0.056406315,-0.123329386,-0.05756016,0.39,0.76,0.55,31241,10101.00,0,0,3,-4.27,-10.08,-3.43,0.39,0.76,0.55
50.831055,-0.062406316,-0.19332938,-0.07556016,0.4,0.75,0.54,31263,10100.40,0,0,3,-4.69,-14.98,-4.69,0.40,0.75,0.54
51.831055,-0.08140632,-0.28832936,-0.08356016,0.41,0.75,0.54,31285,10101.40,0,0,3,-6.02,-21.63,-5.25,0.41,0.75,0.54
53.831055,-0.09940632,-0.38032937,-0.10156016,0.4,0.75,0.54,31308,10103.40,0,0,3,-7.28,-28.07,-6.51,0.40,0.75,0.54
48.73047,-0.10840631,-0.45832935,-0.113560155,0.39,0.76,0.55,31330,10098.30,0,0,3,-7.91,-33.53,-7.35,0.39,0.76,0.55
53.430664,-0.11640632,-0.49832943,-0.12656017,0.39,0.75,0.56,31360,10103.00,0,0,3,-8.47,-36.33,-8.26,0.39,0.75,0.56
56.831055,-0.12440631,-0.5083294,-0.13256016,0.38,0.75,0.57,31367,10106.40,0,0,3,-9.03,-37.03,-8.68,0.38,0.75,0.57
57.831055,-0.12940632,-0.5013294,-0.13056016,0.37,0.75,0.57,31383,10107.40,0,0,3,-9.38,-36.54,-8.54,0.37,0.75,0.57
55.831055,-0.13540632,-0.49332938,-0.12756015,0.37,0.75,0.58,31405,10105.40,0,0,3,-9.80,-35.98,-8.33,0.37,0.75,0.58
56.831055,-0.13540632,-0.46532938,-0.12156016,0.37,0.75,0.58,31428,10106.40,0,0,3,-9.80,-34.02,-7.91,0.37,0.75,0.58
59.13086,-0.13540632,-0.4273294,-0.10856016,0.37,0.74,0.58,31443,10108.70,0,0,3,-9.80,-31.36,-7.00,0.37,0.74,0.58
61.23047,-0.1374063,-0.38232937,-0.09056015,0.37,0.74,0.58,31465,10110.80,0,0,3,-9.94,-28.21,-5.74,0.37,0.74,0.58
58.831055,-0.13840632,-0.34832937,-0.07356016,0.37,0.74,0.57,31488,10108.40,0,0,3,-10.01,-25.83,-4.55,0.37,0.74,0.57
60.13086,-0.13640632,-0.3203294,-0.06356016,0.38,0.74,0.57,31511,10109.70,0,0,3,-9.87,-23.87,-3.85,0.38,0.74,0.57
60.13086,-0.14240631,-0.29932937,-0.05856016,0.39,0.73,0.57,31533,10109.70,0,0,3,-10.29,-22.40,-3.50,0.39,0.73,0.57
61.23047,-0.13940631,-0.26832938,-0.05456016,0.39,0.74,0.56,31556,10110.80,0,0,3,-10.08,-20.23,-3.22,0.39,0.74,0.56
60.13086,-0.12940632,-0.2473294,-0.05856016,0.39,0.75,0.57,31577,10109.70,0,0,3,-9.38,-18.76,-3.50,0.39,0.75,0.57
58.13086,-0.11940632,-0.2313294,-0.07556016,0.39,0.75,0.57,31601,10107.70,0,0,3,-8.68,-17.64,-4.69,0.39,0.75,0.57
59.13086,-0.11540631,-0.21832938,-0.09056015,0.39,0.74,0.57,31615,10108.70,0,0,3,-8.40,-16.73,-5.74,0.39,0.74,0.57
59.530273,-0.120406315,-0.20632939,-0.091560155,0.39,0.73,0.57,31630,10109.10,0,0,3,-8.75,-15.89,-5.81,0.39,0.73,0.57
59.530273,-0.13240632,-0.2033294,-0.09256016,0.39,0.73,0.57,31653,10109.10,0,0,3,-9.59,-15.68,-5.88,0.39,0.73,0.57
60.13086,-0.13840632,-0.19332938,-0.09356016,0.4,0.74,0.57,31661,10109.70,0,0,3,-10.01,-14.98,-5.95,0.40,0.74,0.57
57.13086,-0.14140631,-0.1943294,-0.10656016,0.41,0.74,0.56,31683,10106.70,0,0,3,-10.22,-15.05,-6.86,0.41,0.74,0.56
57.530273,-0.15040632,-0.22932939,-0.14156017,0.43,0.74,0.55,31698,10107.10,0,0,3,-10.85,-17.50,-9.31,0.43,0.74,0.55
59.530273,-0.16840631,-0.27132937,-0.17056017,0.45,0.74,0.55,31713,10109.10,0,0,3,-12.11,-20.44,-11.34,0.45,0.74,0.55
58.530273,-0.17740631,-0.33532938,-0.19656016,0.46,0.74,0.53,31728,10108.10,0,0,3,-12.74,-24.92,-13.16,0.46,0.74,0.53
56.530273,-0.18640631,-0.42532936,-0.22256015,0.48,0.75,0.51,31743,10106.10,0,0,3,-13.37,-31.22,-14.98,0.48,0.75,0.51
57.831055,-0.19840631,-0.55032945,-0.26656014,0.5,0.75,0.5,31758,10107.40,0,0,3,-14.21,-39.97,-18.06,0.50,0.75,0.50
56.530273,-0.22140631,-0.71132946,-0.33156016,0.53,0.74,0.5,31773,10106.10,0,0,3,-15.82,-51.24,-22.61,0.53,0.74,0.50
57.831055,-0.2524063,-0.8993294,-0.40856016,0.55,0.74,0.48,31796,10107.40,0,0,3,-17.99,-64.40,-28.00,0.55,0.74,0.48
56.530273,-0.2864063,-1.0943294,-0.46556014,0.56,0.73,0.49,31811,10106.10,0,0,3,-20.37,-78.05,-31.99,0.56,0.73,0.49
56.831055,-0.3104063,-1.2653292,-0.5165602,0.56,0.73,0.49,31826,10106.40,0,0,3,-22.05,-90.02,-35.56,0.56,0.73,0.49
56.831055,-0.3324063,-1.3933294,-0.5425602,0.54,0.73,0.5,31840,10106.40,0,0,3,-23.59,-98.98,-37.38,0.54,0.73,0.50
56.530273,-0.34340632,-1.4673294,-0.5715602,0.51,0.73,0.51,31855,10106.10,0,0,3,-24.36,-104.16,-39.41,0.51,0.73,0.51
56.831055,-0.3594063,-1.5013293,-0.5935602,0.49,0.72,0.52,31879,10106.40,0,0,3,-25.48,-106.54,-40.95,0.49,0.72,0.52
56.831055,-0.3724063,-1.4913293,-0.6145601,0.47,0.73,0.54,31893,10106.40,0,0,3,-26.39,-105.84,-42.42,0.47,0.73,0.54
56.831055,-0.38740632,-1.4513294,-0.6375602,0.45,0.73,0.55,31908,10106.40,0,0,3,-27.44,-103.04,-44.03,0.45,0.73,0.55
60.530273,-0.39740628,-1.3743293,-0.6475602,0.43,0.73,0.55,31923,10110.10,0,0,3,-28.14,-97.65,-44.73,0.43,0.73,0.55
56.831055,-0.4034063,-1.2643293,-0.63956016,0.41,0.73,0.56,31938,10106.40,0,0,3,-28.56,-89.95,-44.17,0.41,0.73,0.56
56.13086,-0.3994063,-1.1373293,-0.6225602,0.4,0.74,0.57,31953,10105.70,0,0,3,-28.28,-81.06,-42.98,0.40,0.74,0.57
55.831055,-0.39040628,-0.9993294,-0.5925602,0.39,0.75,0.56,31968,10105.40,0,0,3,-27.65,-71.40,-40.88,0.39,0.75,0.56
56.831055,-0.3744063,-0.8643294,-0.5645602,0.39,0.74,0.55,31990,10106.40,0,0,3,-26.53,-61.95,-38.92,0.39,0.74,0.55
60.831055,-0.3634063,-0.76432943,-0.53856015,0.4,0.74,0.54,32006,10110.40,0,0,3,-25.76,-54.95,-37.10,0.40,0.74,0.54
57.831055,-0.3444063,-0.6423294,-0.5025602,0.4,0.75,0.54,32021,10107.40,0,0,3,-24.43,-46.41,-34.58,0.40,0.75,0.54
57.13086,-0.3244063,-0.5433294,-0.45656016,0.4,0.75,0.53,32035,10106.70,0,0,3,-23.03,-39.48,-31.36,0.40,0.75,0.53
54.831055,-0.2944063,-0.4483294,-0.40956014,0.4,0.76,0.53,32051,10104.40,0,0,3,-20.93,-32.83,-28.07,0.40,0.76,0.53
55.13086,-0.26540628,-0.3783294,-0.36956015,0.41,0.75,0.52,32065,10104.70,0,0,3,-18.90,-27.93,-25.27,0.41,0.75,0.52
54.430664,-0.24340633,-0.31132936,-0.33656013,0.41,0.76,0.51,32088,10104.00,0,0,3,-17.36,-23.24,-22.96,0.41,0.76,0.51
54.831055,-0.22640632,-0.26232937,-0.31956017,0.42,0.76,0.5,32102,10104.40,0,0,3,-16.17,-19.81,-21.77,0.42,0.76,0.50
55.13086,-0.20240632,-0.2223294,-0.28856015,0.43,0.75,0.5,32126,10104.70,0,0,3,-14.49,-17.01,-19.60,0.43,0.75,0.50
54.13086,-0.18540631,-0.19832939,-0.25856015,0.43,0.75,0.5,32148,10103.70,0,0,3,-13.30,-15.33,-17.50,0.43,0.75,0.50
53.831055,-0.17040631,-0.1873294,-0.23356016,0.44,0.75,0.49,32155,10103.40,0,0,3,-12.25,-14.56,-15.75,0.44,0.75,0.49
53.13086,-0.15840632,-0.17732939,-0.20556016,0.44,0.75,0.5,32163,10102.70,0,0,3,-11.41,-13.86,-13.79,0.44,0.75,0.50
51.13086,-0.14840631,-0.1663294,-0.17356017,0.44,0.75,0.5,32186,10100.70,0,0,3,-10.71,-13.09,-11.55,0.44,0.75,0.50
51.13086,-0.13240632,-0.1443294,-0.14856017,0.43,0.76,0.5,32208,10100.70,0,0,3,-9.59,-11.55,-9.80,0.43,0.76,0.50
49.13086,-0.11540631,-0.12432939,-0.13156016,0.43,0.77,0.5,32216,10098.70,0,0,3,-8.40,-10.15,-8.61,0.43,0.77,0.50
47.430664,-0.098406315,-0.1073294,-0.113560155,0.44,0.77,0.51,32238,10097.00,0,0,3,-7.21,-8.96,-7.35,0.44,0.77,0.51
44.13086,-0.09140631,-0.087329395,-0.09856016,0.44,0.77,0.5,32246,10093.70,0,0,3,-6.72,-7.56,-6.30,0.44,0.77,0.50
37.030273,-0.08840632,-0.07032939,-0.08356016,0.45,0.77,0.5,32261,10086.60,0,0,3,-6.51,-6.37,-5.25,0.45,0.77,0.50
40.030273,-0.08540632,-0.058329396,-0.06556016,0.44,0.77,0.5,32284,10089.60,0,0,3,-6.30,-5.53,-3.99,0.44,0.77,0.50
40.73047,-0.07840631,-0.053329393,-0.05456016,0.44,0.77,0.5,32298,10090.30,0,0,3,-5.81,-5.18,-3.22,0.44,0.77,0.50
36.331055,-0.065406315,-0.03732939,-0.04756016,0.43,0.77,0.5,32320,10085.90,0,0,3,-4.90,-4.06,-2.73,0.43,0.77,0.50
38.331055,-0.056406315,-0.014329391,-0.044560157,0.43,0.77,0.5,32335,10087.90,0,0,3,-4.27,-2.45,-2.52,0.43,0.77,0.50
39.430664,-0.051406316,0.012670609,-0.037560157,0.43,0.76,0.5,32343,10089.00,0,0,3,-3.92,-0.56,-2.03,0.43,0.76,0.50
38.331055,-0.051406316,0.03567061,-0.019560158,0.43,0.75,0.5,32357,10087.90,0,0,3,-3.92,1.05,-0.77,0.43,0.75,0.50
39.430664,-0.057406317,0.044670608,-0.0025601597,0.43,0.76,0.5,32388,10089.00,0,0,3,-4.34,1.68,0.42,0.43,0.76,0.50
39.430664,-0.055406313,0.05567061,0.004439841,0.43,0.76,0.5,32396,10089.00,0,0,3,-4.20,2.45,0.91,0.43,0.76,0.50
40.430664,-0.053406313,0.07067061,0.0064398404,0.43,0.76,0.49,32410,10090.00,0,0,3,-4.06,3.50,1.05,0.43,0.76,0.49
40.430664,-0.049406316,0.07467061,0.00943984,0.44,0.76,0.5,32425,10090.00,0,0,3,-3.78,3.78,1.26,0.44,0.76,0.50
42.430664,-0.050406314,0.08567061,0.022439841,0.43,0.76,0.5,32440,10092.00,0,0,3,-3.85,4.55,2.17,0.43,0.76,0.50
42.430664,-0.045406315,0.09467061,0.03543984,0.43,0.76,0.5,32463,10092.00,0,0,3,-3.50,5.18,3.08,0.43,0.76,0.50
42.030273,-0.049406316,0.10167061,0.043439843,0.44,0.76,0.5,32478,10091.60,0,0,3,-3.78,5.67,3.64,0.44,0.76,0.50
42.73047,-0.06440631,0.10967061,0.04843984,0.43,0.75,0.5,32501,10092.30,0,0,3,-4.83,6.23,3.99,0.43,0.75,0.50
41.430664,-0.07440632,0.11767061,0.070439845,0.42,0.76,0.51,32523,10091.00,0,0,3,-5.53,6.79,5.53,0.42,0.76,0.51
41.73047,-0.072406314,0.16167061,0.10243984,0.4,0.76,0.52,32545,10091.30,0,0,3,-5.39,9.87,7.77,0.40,0.76,0.52
41.73047,-0.065406315,0.2336706,0.12943983,0.38,0.75,0.53,32569,10091.30,0,0,3,-4.90,14.91,9.66,0.38,0.75,0.53
47.73047,-0.06440631,0.29567063,0.13543983,0.38,0.74,0.53,32583,10097.30,0,0,3,-4.83,19.25,10.08,0.38,0.74,0.53
42.73047,-0.07740631,0.34367064,0.14943984,0.39,0.73,0.53,32599,10092.30,0,0,3,-5.74,22.61,11.06,0.39,0.73,0.53
42.430664,-0.10340632,0.38667065,0.17043982,0.4,0.72,0.54,32613,10092.00,0,0,3,-7.56,25.62,12.53,0.40,0.72,0.54
43.73047,-0.11940632,0.44467062,0.22943982,0.39,0.72,0.55,32636,10093.30,0,0,3,-8.68,29.68,16.66,0.39,0.72,0.55
43.73047,-0.1304063,0.53867054,0.32743984,0.38,0.72,0.55,32658,10093.30,0,0,3,-9.45,36.26,23.52,0.38,0.72,0.55
45.73047,-0.12940632,0.6026706,0.35543984,0.38,0.74,0.54,32673,10095.30,0,0,3,-9.38,40.74,25.48,0.38,0.74,0.54
43.73047,-0.11540631,0.61467063,0.34943983,0.41,0.74,0.55,32697,10093.30,0,0,3,-8.40,41.58,25.06,0.41,0.74,0.55
43.73047,-0.106406316,0.6026706,0.37443984,0.43,0.72,0.56,32718,10093.30,0,0,3,-7.77,40.74,26.81,0.43,0.72,0.56
45.13086,-0.08640631,0.5806706,0.41243985,0.42,0.73,0.56,32741,10094.70,0,0,3,-6.37,39.20,29.47,0.42,0.73,0.56
44.73047,-0.07440632,0.5216706,0.38643983,0.44,0.74,0.56,32764,10094.30,0,0,3,-5.53,35.07,27.65,0.44,0.74,0.56
46.13086,-0.065406315,0.4046706,0.32343984,0.47,0.74,0.55,32786,10095.70,0,0,3,-4.90,26.88,23.24,0.47,0.74,0.55
46.73047,-0.06740631,0.26367062,0.23643982,0.49,0.74,0.54,32809,10096.30,0,0,3,-5.04,17.01,17.15,0.49,0.74,0.54
46.73047,-0.06640631,0.09667061,0.15443984,0.51,0.74,0.54,32831,10096.30,0,0,3,-4.97,5.32,11.41,0.51,0.74,0.54
48.13086,-0.06640631,-0.0663294,0.08543984,0.51,0.73,0.55,32846,10097.70,0,0,3,-4.97,-6.09,6.58,0.51,0.73,0.55
47.13086,-0.07340632,-0.1813294,0.03343984,0.5,0.72,0.56,32868,10096.70,0,0,3,-5.46,-14.14,2.94,0.50,0.72,0.56
47.13086,-0.07940631,-0.28132936,-0.023560159,0.5,0.72,0.56,32884,10096.70,0,0,3,-5.88,-21.14,-1.05,0.50,0.72,0.56
48.430664,-0.08240632,-0.37232938,-0.06556016,0.49,0.73,0.57,32899,10098.00,0,0,3,-6.09,-27.51,-3.99,0.49,0.73,0.57
47.13086,-0.08140632,-0.45832935,-0.13556017,0.47,0.72,0.58,32921,10096.70,0,0,3,-6.02,-33.53,-8.89,0.47,0.72,0.58
48.430664,-0.083406314,-0.5063294,-0.18656017,0.46,0.72,0.59,32943,10098.00,0,0,3,-6.16,-36.89,-12.46,0.46,0.72,0.59
51.13086,-0.08240632,-0.5203294,-0.22256015,0.44,0.71,0.59,32965,10100.70,0,0,3,-6.09,-37.87,-14.98,0.44,0.71,0.59
51.13086,-0.083406314,-0.50532943,-0.24856016,0.44,0.7,0.6,32981,10100.70,0,0,3,-6.16,-36.82,-16.80,0.44,0.70,0.60
53.430664,-0.08440632,-0.47232935,-0.25556016,0.43,0.7,0.6,33004,10103.00,0,0,3,-6.23,-34.51,-17.29,0.43,0.70,0.60
55.430664,-0.08440632,-0.41432938,-0.23756018,0.42,0.7,0.59,33026,10105.00,0,0,3,-6.23,-30.45,-16.03,0.42,0.70,0.59
51.430664,-0.07340632,-0.3763294,-0.23256017,0.43,0.7,0.59,33048,10101.00,0,0,3,-5.46,-27.79,-15.68,0.43,0.70,0.59
60.13086,-0.072406314,-0.34332937,-0.22856016,0.44,0.7,0.6,33071,10109.70,0,0,3,-5.39,-25.48,-15.40,0.44,0.70,0.60
65.23047,-0.065406315,-0.30632937,-0.21056017,0.44,0.7,0.59,33093,10114.80,0,0,3,-4.90,-22.89,-14.14,0.44,0.70,0.59
65.53027,-0.051406316,-0.2773294,-0.19256017,0.43,0.7,0.59,33116,10115.10,0,0,3,-3.92,-20.86,-12.88,0.43,0.70,0.59
67.930664,-0.04340631,-0.2403294,-0.17556016,0.43,0.69,0.6,33123,10117.50,0,0,3,-3.36,-18.27,-11.69,0.43,0.69,0.60
65.53027,-0.041406315,-0.19632939,-0.16556016,0.43,0.69,0.59,33138,10115.10,0,0,3,-3.22,-15.19,-10.99,0.43,0.69,0.59
66.53027,-0.054406315,-0.15232939,-0.15156017,0.43,0.68,0.59,33160,10116.10,0,0,3,-4.13,-12.11,-10.01,0.43,0.68,0.59
65.53027,-0.061406314,-0.1153294,-0.12356016,0.44,0.7,0.59,33184,10115.10,0,0,3,-4.62,-9.52,-8.05,0.44,0.70,0.59
65.831055,-0.049406316,-0.09232939,-0.10056016,0.45,0.72,0.58,33213,10115.40,0,0,3,-3.78,-7.91,-6.44,0.45,0.72,0.58
64.53027,-0.029406315,-0.076329395,-0.09356016,0.45,0.71,0.58,33228,10114.10,0,0,3,-2.38,-6.79,-5.95,0.45,0.71,0.58
61.831055,-0.012406314,-0.043329395,-0.08756016,0.44,0.71,0.58,33251,10111.40,0,0,3,-1.19,-4.48,-5.53,0.44,0.71,0.58
64.53027,-0.004406313,-0.020329388,-0.08256016,0.44,0.71,0.58,33273,10114.10,0,0,3,-0.63,-2.87,-5.18,0.44,0.71,0.58
63.831055,0.0035936865,-0.00832939,-0.08256016,0.44,0.72,0.57,33295,10113.40,0,0,3,-0.07,-2.03,-5.18,0.44,0.72,0.57
63.831055,0.008593687,-0.005329391,-0.09556016,0.45,0.72,0.57,33311,10113.40,0,0,3,0.28,-1.82,-6.09,0.45,0.72,0.57
61.831055,0.016593685,-0.00832939,-0.09556016,0.45,0.72,0.56,33333,10111.40,0,0,3,0.84,-2.03,-6.09,0.45,0.72,0.56
61.831055,0.018593688,-0.011329392,-0.08756016,0.45,0.72,0.56,33348,10111.40,0,0,3,0.98,-2.24,-5.53,0.45,0.72,0.56
61.831055,0.017593687,-0.02132939,-0.08356016,0.44,0.71,0.56,33378,10111.40,0,0,3,0.91,-2.94,-5.25,0.44,0.71,0.56
63.23047,0.014593687,-0.029329391,-0.07956015,0.44,0.72,0.56,33386,10112.80,0,0,3,0.70,-3.50,-4.97,0.44,0.72,0.56
61.831055,0.013593687,-0.034329392,-0.08456016,0.44,0.73,0.56,33407,10111.40,0,0,3,0.63,-3.85,-5.32,0.44,0.73,0.56
60.13086,0.024593687,-0.035329394,-0.08356016,0.43,0.73,0.55,33423,10109.70,0,0,3,1.40,-3.92,-5.25,0.43,0.73,0.55
59.831055,0.034593686,-0.018329391,-0.08156016,0.42,0.73,0.56,33445,10109.40,0,0,3,2.10,-2.73,-5.11,0.42,0.73,0.56
61.13086,0.038593687,6.7061E-4,-0.080560155,0.42,0.73,0.56,33468,10110.70,0,0,3,2.38,-1.40,-5.04,0.42,0.73,0.56
59.13086,0.038593687,0.0076706093,-0.08356016,0.42,0.73,0.56,33490,10108.70,0,0,3,2.38,-0.91,-5.25,0.42,0.73,0.56
60.13086,0.042593688,0.00867061,-0.07356016,0.42,0.73,0.55,33513,10109.70,0,0,3,2.66,-0.84,-4.55,0.42,0.73,0.55
59.13086,0.040593684,0.00967061,-0.06356016,0.42,0.74,0.55,33535,10108.70,0,0,3,2.52,-0.77,-3.85,0.42,0.74,0.55
59.13086,0.046593685,0.017670609,-0.06256016,0.41,0.75,0.55,33558,10108.70,0,0,3,2.94,-0.21,-3.78,0.41,0.75,0.55
59.13086,0.056593686,0.026670609,-0.070560165,0.41,0.75,0.54,33580,10108.70,0,0,3,3.64,0.42,-4.34,0.41,0.75,0.54
58.831055,0.059593685,0.02367061,-0.06456016,0.41,0.74,0.54,33596,10108.40,0,0,3,3.85,0.21,-3.92,0.41,0.74,0.54
59.530273,0.058593687,0.02367061,-0.05356016,0.41,0.74,0.55,33618,10109.10,0,0,3,3.78,0.21,-3.15,0.41,0.74,0.55
58.530273,0.051593684,0.028670609,-0.04356016,0.42,0.73,0.54,33633,10108.10,0,0,3,3.29,0.56,-2.45,0.42,0.73,0.54
57.530273,0.043593686,0.028670609,-0.03356016,0.41,0.74,0.54,33648,10107.10,0,0,3,2.73,0.56,-1.75,0.41,0.74,0.54
53.430664,0.040593684,0.031670608,-0.023560159,0.41,0.74,0.54,33670,10103.00,0,0,3,2.52,0.77,-1.05,0.41,0.74,0.54
62.530273,0.037593685,0.04067061,-0.015560159,0.41,0.73,0.54,33700,10112.10,0,0,3,2.31,1.40,-0.49,0.41,0.73,0.54
58.831055,0.022593686,0.044670608,-0.009560159,0.41,0.73,0.55,33715,10108.40,0,0,3,1.26,1.68,-0.07,0.41,0.73,0.55
57.530273,0.011593686,0.03567061,-5.6015886E-4,0.41,0.74,0.54,33738,10107.10,0,0,3,0.49,1.05,0.56,0.41,0.74,0.54
56.530273,0.011593686,0.03567061,0.00943984,0.41,0.74,0.55,33752,10106.10,0,0,3,0.49,1.05,1.26,0.41,0.74,0.55
56.530273,0.0035936865,0.04367061,0.014439841,0.4,0.74,0.55,33776,10106.10,0,0,3,-0.07,1.61,1.61,0.40,0.74,0.55
57.530273,-0.005406313,0.048670612,0.010439842,0.4,0.74,0.55,33798,10107.10,0,0,3,-0.70,1.96,1.33,0.40,0.74,0.55
52.430664,5.936865E-4,0.053670608,0.01843984,0.41,0.75,0.55,33821,10102.00,0,0,3,-0.28,2.31,1.89,0.41,0.75,0.55
53.430664,0.009593686,0.053670608,0.03143984,0.42,0.74,0.55,33843,10103.00,0,0,3,0.35,2.31,2.80,0.42,0.74,0.55
52.831055,0.016593685,0.044670608,0.04243984,0.42,0.73,0.55,33858,10102.40,0,0,3,0.84,1.68,3.57,0.42,0.73,0.55
49.73047,0.022593686,0.04167061,0.05143984,0.41,0.74,0.55,33873,10099.30,0,0,3,1.26,1.47,4.20,0.41,0.74,0.55
48.430664,0.025593687,0.042670608,0.050439842,0.41,0.75,0.55,33888,10098.00,0,0,3,1.47,1.54,4.13,0.41,0.75,0.55
40.430664,0.028593685,0.056670606,0.043439843,0.41,0.75,0.55,33910,10090.00,0,0,3,1.68,2.52,3.64,0.41,0.75,0.55
43.73047,0.028593685,0.06467061,0.04443984,0.42,0.73,0.55,33933,10093.30,0,0,3,1.68,3.08,3.71,0.42,0.73,0.55
42.430664,0.022593686,0.06367061,0.056439847,0.42,0.74,0.55,33956,10092.00,0,0,3,1.26,3.01,4.55,0.42,0.74,0.55
42.73047,0.019593686,0.05767061,0.06343984,0.42,0.75,0.55,33970,10092.30,0,0,3,1.05,2.59,5.04,0.42,0.75,0.55
41.73047,0.020593688,0.05767061,0.04843984,0.42,0.75,0.55,33993,10091.30,0,0,3,1.12,2.59,3.99,0.42,0.75,0.55
40.73047,0.019593686,0.05767061,0.041439842,0.43,0.74,0.55,34016,10090.30,0,0,3,1.05,2.59,3.50,0.43,0.74,0.55
42.73047,0.025593687,0.053670608,0.04443984,0.43,0.74,0.55,34039,10092.30,0,0,3,1.47,2.31,3.71,0.43,0.74,0.55
44.73047,0.027593687,0.05167061,0.04243984,0.43,0.75,0.55,34060,10094.30,0,0,3,1.61,2.17,3.57,0.43,0.75,0.55
41.73047,0.030593688,0.049670607,0.030439842,0.42,0.74,0.55,34083,10091.30,0,0,3,1.82,2.03,2.73,0.42,0.74,0.55
42.030273,0.033593684,0.05767061,0.025439844,0.42,0.75,0.55,34099,10091.60,0,0,3,2.03,2.59,2.38,0.42,0.75,0.55
40.73047,0.026593687,0.05467061,0.015439839,0.42,0.75,0.54,34121,10090.30,0,0,3,1.54,2.38,1.68,0.42,0.75,0.54
41.73047,0.022593686,0.052670613,4.3984037E-4,0.42,0.75,0.54,34129,10091.30,0,0,3,1.26,2.24,0.63,0.42,0.75,0.54
41.030273,0.018593688,0.044670608,-0.013560159,0.43,0.75,0.54,34144,10090.60,0,0,3,0.98,1.68,-0.35,0.43,0.75,0.54
41.73047,0.012593687,0.03667061,-0.020560158,0.42,0.75,0.54,34174,10091.30,0,0,3,0.56,1.12,-0.84,0.42,0.75,0.54
41.73047,0.009593686,0.02967061,-0.026560158,0.42,0.74,0.54,34188,10091.30,0,0,3,0.35,0.63,-1.26,0.42,0.74,0.54
44.030273,0.0075936867,0.016670609,-0.02956016,0.42,0.75,0.54,34210,10093.60,0,0,3,0.21,-0.28,-1.47,0.42,0.75,0.54
43.030273,0.0045936867,0.004670609,-0.03256016,0.42,0.75,0.54,34226,10092.60,0,0,3,0.00,-1.12,-1.68,0.42,0.75,0.54
44.030273,0.0025936866,-0.0073293913,-0.03356016,0.42,0.74,0.54,34249,10093.60,0,0,3,-0.14,-1.96,-1.75,0.42,0.74,0.54
44.73047,-0.0014063129,-0.014329391,-0.03656016,0.41,0.74,0.54,34271,10094.30,0,0,3,-0.42,-2.45,-1.96,0.41,0.74,0.54
43.73047,-0.004406313,-0.018329391,-0.03956016,0.41,0.74,0.55,34300,10093.30,0,0,3,-0.63,-2.73,-2.17,0.41,0.74,0.55
44.030273,-0.009406313,-0.026329389,-0.03556016,0.41,0.74,0.55,34316,10093.60,0,0,3,-0.98,-3.29,-1.89,0.41,0.74,0.55
45.030273,-0.011406314,-0.029329391,-0.03456016,0.41,0.75,0.55,34346,10094.60,0,0,3,-1.12,-3.50,-1.82,0.41,0.75,0.55
46.430664,-0.004406313,-0.031329393,-0.03556016,0.41,0.75,0.55,34353,10096.00,0,0,3,-0.63,-3.64,-1.89,0.41,0.75,0.55
45.030273,-0.008406313,-0.028329393,-0.03256016,0.4,0.75,0.55,34368,10094.60,0,0,3,-0.91,-3.43,-1.68,0.40,0.75,0.55
46.13086,-0.017406313,-0.031329393,-0.03856016,0.41,0.74,0.55,34383,10095.70,0,0,3,-1.54,-3.64,-2.10,0.41,0.74,0.55
45.73047,-0.022406314,-0.032329388,-0.044560157,0.41,0.75,0.56,34405,10095.30,0,0,3,-1.89,-3.71,-2.52,0.41,0.75,0.56
46.430664,-0.011406314,-0.027329387,-0.037560157,0.41,0.76,0.56,34428,10096.00,0,0,3,-1.12,-3.36,-2.03,0.41,0.76,0.56
47.430664,0.005593687,-0.022329392,-0.03656016,0.4,0.76,0.56,34450,10097.00,0,0,3,0.07,-3.01,-1.96,0.40,0.76,0.56
46.13086,0.014593687,-0.01632939,-0.04356016,0.4,0.75,0.55,34503,10095.70,0,0,3,0.70,-2.59,-2.45,0.40,0.75,0.55
46.73047,0.022593686,-0.00932939,-0.049560156,0.4,0.75,0.55,34504,10096.30,0,0,3,1.26,-2.10,-2.87,0.40,0.75,0.55
47.430664,0.026593687,-0.0033293888,-0.050560158,0.39,0.75,0.55,34511,10097.00,0,0,3,1.54,-1.68,-2.94,0.39,0.75,0.55
48.430664,0.032593686,0.00967061,-0.04556016,0.4,0.75,0.55,34548,10098.00,0,0,3,1.96,-0.77,-2.59,0.40,0.75,0.55
49.430664,0.029593688,0.02367061,-0.04356016,0.39,0.75,0.55,34555,10099.00,0,0,3,1.75,0.21,-2.45,0.39,0.75,0.55
51.430664,0.032593686,0.026670609,-0.03956016,0.39,0.76,0.55,34578,10101.00,0,0,3,1.96,0.42,-2.17,0.39,0.76,0.55
48.430664,0.032593686,0.03267061,-0.03556016,0.39,0.75,0.55,34600,10098.00,0,0,3,1.96,0.84,-1.89,0.39,0.75,0.55
52.430664,0.029593688,0.03467061,-0.03856016,0.39,0.75,0.55,34607,10102.00,0,0,3,1.75,0.98,-2.10,0.39,0.75,0.55
53.13086,0.024593687,0.03467061,-0.03556016,0.39,0.76,0.55,34630,10102.70,0,0,3,1.40,0.98,-1.89,0.39,0.76,0.55
55.430664,0.023593688,0.03967061,-0.03156016,0.39,0.76,0.55,34645,10105.00,0,0,3,1.33,1.33,-1.61,0.39,0.76,0.55
54.831055,0.023593688,0.049670607,-0.037560157,0.38,0.76,0.55,34668,10104.40,0,0,3,1.33,2.03,-2.03,0.38,0.76,0.55
58.530273,0.026593687,0.053670608,-0.03556016,0.38,0.76,0.55,34697,10108.10,0,0,3,1.54,2.31,-1.89,0.38,0.76,0.55
58.831055,0.040593684,0.06467061,-0.024560161,0.38,0.76,0.55,34720,10108.40,0,0,3,2.52,3.08,-1.12,0.38,0.76,0.55
61.831055,0.052593682,0.06967061,-0.015560159,0.38,0.76,0.55,34728,10111.40,0,0,3,3.36,3.43,-0.49,0.38,0.76,0.55
63.831055,0.055593684,0.07267061,-0.01056016,0.39,0.76,0.55,34758,10113.40,0,0,3,3.57,3.64,-0.14,0.39,0.76,0.55
64.831055,0.06459369,0.060670607,-0.001560159,0.39,0.76,0.54,34781,10114.40,0,0,3,4.20,2.80,0.49,0.39,0.76,0.54
64.831055,0.06259368,0.049670607,-5.6015886E-4,0.39,0.76,0.54,34796,10114.40,0,0,3,4.06,2.03,0.56,0.39,0.76,0.54
