Pressure_Rel,GyroX_Rel,GyroY_Rel,GyroZ_Rel,AccX_Rel,AccY_Rel,AccZ_Rel,Timestamp,Pressure_abs,HeartRate,Oxygen,Status,GyroX,GyroY,GyroZ,AccX,AccY,AccZ
0.0,0.0,0.0,0.0,0.0,0.0,0.0,4444,10076.00,0,0,2,0.49,-1.47,0.14,0.32,0.86,0.43
0.0,0.0,0.0,0.0,0.0,0.0,0.0,4460,10075.70,0,0,2,0.49,-1.40,0.00,0.32,0.86,0.43
0.0,0.0,0.0,0.0,0.0,0.0,0.0,4475,10076.00,0,0,2,0.28,-1.54,-0.14,0.32,0.86,0.43
0.0,0.0,0.0,0.0,0.0,0.0,0.0,4489,10077.10,0,0,2,0.28,-1.68,0.07,0.32,0.86,0.43
0.0,0.0,0.0,0.0,0.0,0.0,0.0,4503,10075.00,0,0,2,0.28,-1.75,0.21,0.32,0.86,0.43
0.0,0.0,0.0,0.0,0.0,0.0,0.0,4527,10077.40,0,0,2,0.42,-1.75,0.28,0.32,0.86,0.43
0.0,0.0,0.0,0.0,0.0,0.0,0.0,4540,10078.00,0,0,2,0.49,-1.75,0.42,0.32,0.86,0.43
0.0,0.0,0.0,0.0,0.0,0.0,0.0,4556,10074.40,0,0,2,0.42,-1.82,0.49,0.32,0.86,0.43
0.0,0.0,0.0,0.0,0.0,0.0,0.0,4572,10077.10,0,0,2,0.49,-2.03,0.63,0.32,0.86,0.42
0.0,0.0,0.0,0.0,0.0,0.0,0.0,4587,10077.40,0,0,2,0.35,-2.10,0.70,0.32,0.86,0.42
0.0,0.0,0.0,0.0,0.0,0.0,0.0,4609,10077.40,0,0,3,0.35,-1.96,1.05,0.32,0.86,0.42
0.0,0.0,0.0,0.0,0.0,0.0,0.0,4639,10077.40,0,0,3,0.00,-1.96,1.33,0.32,0.86,0.42
0.0,0.0,0.0,0.0,0.0,0.0,0.0,4654,10076.70,0,0,3,0.35,-1.75,1.47,0.32,0.86,0.43
0.0,0.0,0.0,0.0,0.0,0.0,0.0,4669,10076.40,0,0,3,0.14,-1.33,0.98,0.32,0.86,0.43
0.0,0.0,0.0,0.0,0.0,0.0,0.0,4699,10076.70,0,0,3,0.21,-1.19,0.84,0.32,0.86,0.43
0.0,0.0,0.0,0.0,0.0,0.0,0.0,4713,10076.70,0,0,3,-0.07,-1.12,0.98,0.32,0.85,0.42
0.0,0.0,0.0,0.0,0.0,0.0,0.0,4729,10077.70,0,0,3,0.07,-1.40,1.40,0.32,0.86,0.42
0.0,0.0,0.0,0.0,0.0,0.0,0.0,4751,10078.40,0,0,3,0.07,-1.54,1.47,0.32,0.86,0.42
0.0,0.0,0.0,0.0,0.0,0.0,0.0,4766,10076.70,0,0,3,0.00,-1.75,1.26,0.32,0.86,0.42
0.0,0.0,0.0,0.0,0.0,0.0,0.0,4782,10078.00,0,0,3,-0.14,-1.96,1.26,0.32,0.85,0.43
0.0,0.0,0.0,0.0,0.0,0.0,0.0,4796,10074.00,0,0,3,-0.49,-1.82,1.33,0.32,0.86,0.43
0.0,0.0,0.0,0.0,0.0,0.0,0.0,4811,10077.70,0,0,3,-0.70,-1.75,1.40,0.32,0.87,0.43
0.0,0.0,0.0,0.0,0.0,0.0,0.0,4827,10077.00,0,0,3,-0.42,-1.47,1.19,0.32,0.86,0.43
0.0,0.0,0.0,0.0,0.0,0.0,0.0,4849,10077.70,0,0,3,-0.14,-1.05,1.12,0.32,0.86,0.43
0.0,0.0,0.0,0.0,0.0,0.0,0.0,4872,10078.70,0,0,3,0.28,-1.05,0.84,0.32,0.86,0.43
0.0,0.0,0.0,0.0,0.0,0.0,0.0,4894,10077.70,0,0,3,0.42,-0.98,0.42,0.32,0.86,0.43
0.0,0.0,0.0,0.0,0.0,0.0,0.0,4909,10082.80,0,0,3,0.70,-0.56,0.21,0.32,0.86,0.42
0.0,0.0,0.0,0.0,0.0,0.0,0.0,4931,10078.40,0,0,3,0.56,-0.07,0.63,0.33,0.85,0.42
0.0,0.0,0.0,0.0,0.0,0.0,0.0,4955,10078.40,0,0,3,0.42,-0.28,1.05,0.32,0.86,0.42
0.0,0.0,0.0,0.0,0.0,0.0,0.0,4977,10077.70,0,0,3,0.21,-0.77,1.40,0.32,0.86,0.42
0.0,0.0,0.0,0.0,0.0,0.0,0.0,4992,10077.00,0,0,3,0.00,-1.26,1.33,0.32,0.85,0.42
0.0,0.0,0.0,0.0,0.0,0.0,0.0,5007,10077.70,0,0,3,-0.21,-1.19,1.19,0.32,0.86,0.42
0.0,0.0,0.0,0.0,0.0,0.0,0.0,5022,10077.70,0,0,3,-0.28,-1.26,1.40,0.33,0.86,0.43
0.0,0.0,0.0,0.0,0.0,0.0,0.0,5051,10077.70,0,0,3,-0.21,-1.19,1.75,0.32,0.86,0.42
0.0,0.0,0.0,0.0,0.0,0.0,0.0,5060,10079.10,0,0,3,-0.21,-1.61,1.47,0.32,0.86,0.42
0.0,0.0,0.0,0.0,0.0,0.0,0.0,5074,10078.00,0,0,3,-0.07,-1.54,1.19,0.33,0.86,0.42
0.0,0.0,0.0,0.0,0.0,0.0,0.0,5097,10076.70,0,0,3,-0.07,-1.68,0.98,0.33,0.86,0.42
5.5,-0.052641217,-0.030135505,0.11044658,0.09,0.97,0.35,15116,10098.50,0,0,2,-2.31,1.54,9.31,0.09,0.97,0.35
5.5,-0.04464122,-0.033135504,0.05244658,0.1,0.96,0.35,15138,10098.50,0,0,2,-1.75,1.33,5.25,0.10,0.96,0.35
6.5,-0.037641216,-0.060135506,0.015446583,0.12,0.95,0.35,15160,10099.50,0,0,2,-1.26,-0.56,2.66,0.12,0.95,0.35
5.5,-0.021641217,-0.082135506,0.0074465796,0.12,0.94,0.35,15183,10098.50,0,0,2,-0.14,-2.10,2.10,0.12,0.94,0.35
5.5,-0.023641217,-0.114135504,0.011446582,0.11,0.93,0.37,15207,10098.50,0,0,2,-0.28,-4.34,2.38,0.11,0.93,0.37
5.7998047,-0.039641216,-0.1341355,0.008446582,0.09,0.94,0.36,15222,10098.80,0,0,2,-1.40,-5.74,2.17,0.09,0.94,0.36
4.5,-0.032641217,-0.1511355,-0.0045534205,0.11,0.95,0.35,15244,10097.50,0,0,2,-0.91,-6.93,1.26,0.11,0.95,0.35
4.5,-0.019641217,-0.1651355,4.4658035E-4,0.11,0.95,0.36,15260,10097.50,0,0,2,0.00,-7.91,1.61,0.11,0.95,0.36
4.5,-0.008641217,-0.1651355,0.004446581,0.12,0.94,0.38,15282,10097.50,0,0,2,0.77,-7.91,1.89,0.12,0.94,0.38
4.5,-0.010641217,-0.15313551,0.005446581,0.11,0.94,0.39,15296,10097.50,0,0,2,0.63,-7.07,1.96,0.11,0.94,0.39
3.4003906,-0.013641218,-0.13913551,-0.005553419,0.09,0.94,0.37,15311,10096.40,0,0,2,0.42,-6.09,1.19,0.09,0.94,0.37
5.7998047,-0.0076412177,-0.1351355,-0.01255342,0.1,0.95,0.35,15326,10098.80,0,0,2,0.84,-5.81,0.70,0.10,0.95,0.35
6.7998047,0.02135878,-0.1431355,-0.02155342,0.12,0.94,0.34,15349,10099.80,0,0,2,2.87,-6.37,0.07,0.12,0.94,0.34
6.7998047,0.02135878,-0.1631355,-0.02655342,0.11,0.94,0.35,15370,10099.80,0,0,2,2.87,-7.77,-0.28,0.11,0.94,0.35
6.0996094,0.007358784,-0.17613551,-0.041553423,0.11,0.96,0.37,15386,10099.10,0,0,2,1.89,-8.68,-1.33,0.11,0.96,0.37
5.5,0.015358783,-0.1521355,-0.07655342,0.1,0.96,0.38,15408,10098.50,0,0,2,2.45,-7.00,-3.78,0.10,0.96,0.38
4.7998047,0.037358783,-0.11613551,-0.11755342,0.1,0.96,0.36,15431,10097.80,0,0,2,3.99,-4.48,-6.65,0.10,0.96,0.36
4.7998047,0.06535879,-0.1051355,-0.17655341,0.11,0.96,0.33,15453,10097.80,0,0,2,5.95,-3.71,-10.78,0.11,0.96,0.33
6.7998047,0.07535878,-0.15313551,-0.23055342,0.14,0.95,0.34,15477,10099.80,0,0,2,6.65,-7.07,-14.56,0.14,0.95,0.34
4.7998047,0.047358785,-0.21513551,-0.26055342,0.17,0.92,0.35,15491,10097.80,0,0,2,4.69,-11.41,-16.66,0.17,0.92,0.35
4.7998047,0.009358782,-0.2801355,-0.2455534,0.15,0.93,0.32,15506,10097.80,0,0,2,2.03,-15.96,-15.61,0.15,0.93,0.32
8.799805,-0.009641217,-0.3621355,-0.26455343,0.14,0.94,0.3,15521,10101.80,0,0,2,0.70,-21.70,-16.94,0.14,0.94,0.30
5.0996094,-0.045641217,-0.4831355,-0.3215534,0.17,0.96,0.29,15536,10098.10,0,0,2,-1.82,-30.17,-20.93,0.17,0.96,0.29
4.7998047,-0.09264122,-0.61613554,-0.4005534,0.18,0.94,0.28,15550,10097.80,0,0,2,-5.11,-39.48,-26.46,0.18,0.94,0.28
7.7998047,-0.14264122,-0.7931355,-0.4605534,0.19,0.94,0.27,15573,10100.80,0,0,2,-8.61,-51.87,-30.66,0.19,0.94,0.27
4.7998047,-0.17564122,-0.93613553,-0.4865534,0.18,0.92,0.26,15596,10097.80,0,0,2,-10.92,-61.88,-32.48,0.18,0.92,0.26
3.7998047,-0.20164122,-1.2021354,-0.5035534,0.19,0.91,0.26,15611,10096.80,0,0,2,-12.74,-80.50,-33.67,0.19,0.91,0.26
5.0996094,-0.27364123,-1.4741355,-0.54455346,0.21,0.9,0.28,15633,10098.10,0,0,2,-17.78,-99.54,-36.54,0.21,0.90,0.28
4.7998047,-0.31164122,-1.6711355,-0.5105534,0.18,0.87,0.32,15649,10097.80,0,0,2,-20.44,-113.33,-34.16,0.18,0.87,0.32
5.0996094,-0.3256412,-1.7691355,-0.4315534,0.12,0.88,0.36,15671,10098.10,0,0,2,-21.42,-120.19,-28.63,0.12,0.88,0.36
4.0996094,-0.32664123,-1.8261355,-0.33955342,0.09,0.88,0.38,15694,10097.10,0,0,2,-21.49,-124.18,-22.19,0.09,0.88,0.38
3.7998047,-0.33664122,-1.8131354,-0.29755342,0.09,0.9,0.41,15717,10096.80,0,0,2,-22.19,-123.27,-19.25,0.09,0.90,0.41
6.0996094,-0.37464124,-1.7211355,-0.28555343,0.11,0.9,0.42,15739,10099.10,0,0,2,-24.85,-116.83,-18.41,0.11,0.90,0.42
3.0996094,-0.43664122,-1.5741354,-0.28955343,0.11,0.91,0.4,15753,10096.10,0,0,2,-29.19,-106.54,-18.69,0.11,0.91,0.40
3.7998047,-0.41564122,-1.5151355,-0.26955342,0.1,0.93,0.42,15769,10096.80,0,0,2,-27.72,-102.41,-17.29,0.10,0.93,0.42
3.0996094,-0.2966412,-1.5381354,-0.2015534,0.08,0.94,0.45,15784,10096.10,0,0,2,-19.39,-104.02,-12.53,0.08,0.94,0.45
-0.9003906,-0.21764122,-1.4681355,-0.18855341,0.06,0.92,0.46,15806,10092.10,0,0,2,-13.86,-99.12,-11.62,0.06,0.92,0.46
0.099609375,-0.20164122,-1.3441355,-0.1735534,0.05,0.92,0.46,15821,10093.10,0,0,2,-12.74,-90.44,-10.57,0.05,0.92,0.46
-0.9003906,-0.17264122,-1.1611354,-0.13155343,0.06,0.92,0.46,15844,10092.10,0,0,2,-10.71,-77.63,-7.63,0.06,0.92,0.46
-2.9003906,-0.20264123,-0.9811355,-0.09655342,0.09,0.91,0.44,15858,10090.10,0,0,2,-12.81,-65.03,-5.18,0.09,0.91,0.44
-4.0,-0.23564123,-0.88913554,-0.10955343,0.12,0.93,0.42,15881,10089.00,0,0,2,-15.12,-58.59,-6.09,0.12,0.93,0.42
-4.0,-0.21664122,-0.81413555,-0.118553415,0.14,0.92,0.42,15903,10089.00,0,0,2,-13.79,-53.34,-6.72,0.14,0.92,0.42
-4.2998047,-0.22364122,-0.7441355,-0.11155342,0.13,0.91,0.42,15926,10088.70,0,0,2,-14.28,-48.44,-6.23,0.13,0.91,0.42
-2.9003906,-0.2536412,-0.6771355,-0.10955343,0.13,0.91,0.43,15949,10090.10,0,0,2,-16.38,-43.75,-6.09,0.13,0.91,0.43
-7.0,-0.2576412,-0.6121355,-0.101553425,0.14,0.9,0.44,15970,10086.00,0,0,2,-16.66,-39.20,-5.53,0.14,0.90,0.44
-4.5996094,-0.2586412,-0.56013554,-0.10755342,0.15,0.91,0.44,15986,10088.40,0,0,2,-16.73,-35.56,-5.95,0.15,0.91,0.44
-5.0,-0.25564122,-0.53713554,-0.108553424,0.15,0.9,0.44,16008,10088.00,0,0,2,-16.52,-33.95,-6.02,0.15,0.90,0.44
-4.0,-0.23464122,-0.5131355,-0.09655342,0.14,0.91,0.43,16023,10089.00,0,0,2,-15.05,-32.27,-5.18,0.14,0.91,0.43
-5.0,-0.20864122,-0.4751355,-0.08055342,0.15,0.91,0.43,16038,10088.00,0,0,2,-13.23,-29.61,-4.06,0.15,0.91,0.43
-5.5996094,-0.20064121,-0.45113552,-0.06655342,0.17,0.9,0.44,16054,10087.40,0,0,2,-12.67,-27.93,-3.08,0.17,0.90,0.44
-4.5996094,-0.20564122,-0.4411355,-0.059553422,0.19,0.89,0.43,16068,10088.40,0,0,2,-13.02,-27.23,-2.59,0.19,0.89,0.43
-5.2998047,-0.22564122,-0.4561355,-0.059553422,0.19,0.89,0.43,16090,10087.70,0,0,2,-14.42,-28.28,-2.59,0.19,0.89,0.43
-7.0,-0.23864122,-0.48013547,-0.06555342,0.19,0.9,0.43,16113,10086.00,0,0,2,-15.33,-29.96,-3.01,0.19,0.90,0.43
-5.5996094,-0.22464122,-0.4851355,-0.063553415,0.19,0.91,0.43,16137,10087.40,0,0,2,-14.35,-30.31,-2.87,0.19,0.91,0.43
-4.5996094,-0.20864122,-0.48013547,-0.07455342,0.19,0.9,0.44,16159,10088.40,0,0,2,-13.23,-29.96,-3.64,0.19,0.90,0.44
-9.700195,-0.19264121,-0.4951355,-0.086553425,0.2,0.91,0.44,16173,10083.30,0,0,2,-12.11,-31.01,-4.48,0.20,0.91,0.44
-2.5996094,-0.16564122,-0.5181355,-0.10655342,0.2,0.9,0.43,16195,10090.40,0,0,2,-10.22,-32.62,-5.88,0.20,0.90,0.43
-4.5996094,-0.14364122,-0.5301355,-0.10655342,0.2,0.89,0.44,16218,10088.40,0,0,2,-8.68,-33.46,-5.88,0.20,0.89,0.44
-6.2998047,-0.12764122,-0.52013546,-0.08255342,0.2,0.88,0.45,16240,10086.70,0,0,2,-7.56,-32.76,-4.20,0.20,0.88,0.45
-5.5996094,-0.10864122,-0.5091355,-0.05155342,0.19,0.88,0.45,16256,10087.40,0,0,2,-6.23,-31.99,-2.03,0.19,0.88,0.45
-6.7001953,-0.08864121,-0.49113548,-0.02255342,0.2,0.9,0.45,16271,10086.30,0,0,2,-4.83,-30.73,0.00,0.20,0.90,0.45
-5.5996094,-0.060641214,-0.4671355,0.0074465796,0.19,0.91,0.45,16286,10087.40,0,0,2,-2.87,-29.05,2.10,0.19,0.91,0.45
-5.0,-0.011641216,-0.4301355,0.024446579,0.18,0.91,0.44,16308,10088.00,0,0,2,0.56,-26.46,3.29,0.18,0.91,0.44
-5.5996094,0.019358784,-0.3971355,0.025446577,0.17,0.92,0.43,16323,10087.40,0,0,2,2.73,-24.15,3.36,0.17,0.92,0.43
-4.5996094,0.046358783,-0.3501355,0.022446582,0.17,0.9,0.43,16346,10088.40,0,0,2,4.62,-20.86,3.15,0.17,0.90,0.43
-5.5996094,0.050358783,-0.3131355,0.018446578,0.18,0.9,0.42,16361,10087.40,0,0,2,4.90,-18.27,2.87,0.18,0.90,0.42
-6.7001953,0.034358785,-0.2991355,0.013446579,0.19,0.89,0.42,16384,10086.30,0,0,2,3.78,-17.29,2.52,0.19,0.89,0.42
-6.7001953,0.018358786,-0.2771355,0.020446582,0.19,0.89,0.42,16406,10086.30,0,0,2,2.66,-15.75,3.01,0.19,0.89,0.42
-3.5996094,0.018358786,-0.24513552,0.057446577,0.19,0.9,0.41,16429,10089.40,0,0,2,2.66,-13.51,5.60,0.19,0.90,0.41
-6.2998047,0.039358784,-0.2191355,0.06744658,0.2,0.9,0.41,16451,10086.70,0,0,2,4.13,-11.69,6.30,0.20,0.90,0.41
-5.0,0.046358783,-0.2001355,0.07344657,0.21,0.89,0.41,16473,10088.00,0,0,2,4.62,-10.36,6.72,0.21,0.89,0.41
-4.2998047,0.044358786,-0.19013551,0.09144658,0.22,0.88,0.42,16489,10088.70,0,0,2,4.48,-9.66,7.98,0.22,0.88,0.42
-5.2998047,0.037358783,-0.1791355,0.10744659,0.24,0.89,0.41,16511,10087.70,0,0,2,3.99,-8.89,9.10,0.24,0.89,0.41
-5.2998047,0.04035878,-0.1751355,0.12444658,0.24,0.89,0.4,16526,10087.70,0,0,2,4.20,-8.61,10.29,0.24,0.89,0.40
-5.2998047,0.06035878,-0.4221355,0.19944659,0.25,0.87,0.41,16548,10087.70,0,0,2,5.60,-25.90,15.54,0.25,0.87,0.41
-5.5996094,0.013358783,-0.030135505,0.024446579,0.25,0.87,0.42,16556,10087.40,0,0,2,2.31,1.54,3.29,0.25,0.87,0.42
-5.2998047,0.035358783,-0.1881355,0.11644658,0.25,0.87,0.42,16570,10087.70,0,0,2,3.85,-9.52,9.73,0.25,0.87,0.42
-6.2998047,0.032358784,-0.1881355,0.16444659,0.26,0.87,0.42,16593,10086.70,0,0,2,3.64,-9.52,13.09,0.26,0.87,0.42
-5.2998047,0.009358782,-0.06813551,0.113446586,0.27,0.87,0.42,16623,10087.70,0,0,2,2.03,-1.12,9.52,0.27,0.87,0.42
-3.2998047,0.0043587815,-0.081135504,0.1384466,0.26,0.89,0.42,16638,10089.70,0,0,2,1.68,-2.03,11.27,0.26,0.89,0.42
-5.2998047,0.019358784,-0.08313551,0.17244658,0.26,0.88,0.43,16653,10087.70,0,0,2,2.73,-2.17,13.65,0.26,0.88,0.43
-3.0,0.030358784,-0.054135505,0.2064466,0.27,0.87,0.44,16676,10090.00,0,0,2,3.50,-0.14,16.03,0.27,0.87,0.44
-6.2998047,0.015358783,0.035864495,0.24344659,0.27,0.86,0.46,16698,10086.70,0,0,2,2.45,6.16,18.62,0.27,0.86,0.46
-5.5996094,0.042358786,0.15086448,0.3264466,0.25,0.88,0.47,16720,10087.40,0,0,2,4.34,14.21,24.43,0.25,0.88,0.47
-6.2998047,0.11435878,0.31386453,0.38344657,0.22,0.9,0.49,16743,10086.70,0,0,2,9.38,25.62,28.42,0.22,0.90,0.49
-5.2998047,0.16235878,0.48286453,0.41044658,0.2,0.89,0.5,16758,10087.70,0,0,2,12.74,37.45,30.31,0.20,0.89,0.50
-5.2998047,0.19535878,0.7098645,0.43844658,0.2,0.87,0.52,16773,10087.70,0,0,2,15.05,53.34,32.27,0.20,0.87,0.52
-5.2998047,0.21835877,0.8908645,0.4994466,0.19,0.86,0.53,16788,10087.70,0,0,2,16.66,66.01,36.54,0.19,0.86,0.53
-5.0,0.26535878,1.1418645,0.5994466,0.21,0.85,0.52,16803,10088.00,0,0,2,19.95,83.58,43.54,0.21,0.85,0.52
-9.299805,0.33435878,1.3238646,0.70544654,0.22,0.86,0.52,16826,10083.70,0,0,2,24.78,96.32,50.96,0.22,0.86,0.52
-6.2998047,0.40835875,1.5818645,0.7944465,0.23,0.85,0.52,16840,10086.70,0,0,2,29.96,114.38,57.19,0.23,0.85,0.52
-6.2998047,0.44535878,1.7368646,0.85244656,0.25,0.84,0.5,16863,10086.70,0,0,2,32.55,125.23,61.25,0.25,0.84,0.50
-5.0,0.46635878,1.8638644,0.88844657,0.29,0.83,0.48,16885,10088.00,0,0,2,34.02,134.12,63.77,0.29,0.83,0.48
-5.0,0.4843588,1.8998646,0.90744656,0.33,0.85,0.45,16908,10088.00,0,0,2,35.28,136.64,65.10,0.33,0.85,0.45
-4.5996094,0.5083588,1.8888645,0.9184466,0.34,0.84,0.45,16931,10088.40,0,0,2,36.96,135.87,65.87,0.34,0.84,0.45
-4.0,0.5213588,1.8618644,0.92844653,0.34,0.84,0.45,16946,10089.00,0,0,2,37.87,133.98,66.57,0.34,0.84,0.45
-4.5996094,0.5263588,1.8318646,0.9174466,0.35,0.85,0.44,16968,10088.40,0,0,2,38.22,131.88,65.80,0.35,0.85,0.44
-5.0,0.5063588,1.7588645,0.88144654,0.38,0.84,0.43,16990,10088.00,0,0,2,36.82,126.77,63.28,0.38,0.84,0.43
-5.0,0.4843588,1.6678646,0.8324465,0.39,0.86,0.39,17006,10088.00,0,0,2,35.28,120.40,59.85,0.39,0.86,0.39
-5.0,0.47035876,1.5408646,0.76944655,0.4,0.87,0.38,17020,10088.00,0,0,2,34.30,111.51,55.44,0.40,0.87,0.38
-4.0,0.45735878,1.3968645,0.71544653,0.43,0.85,0.37,17043,10089.00,0,0,2,33.39,101.43,51.66,0.43,0.85,0.37
-4.0,0.43135878,1.2518646,0.6844466,0.44,0.83,0.37,17058,10089.00,0,0,2,31.57,91.28,49.49,0.44,0.83,0.37
-2.0,0.3773588,1.1118646,0.67544657,0.45,0.81,0.38,17073,10091.00,0,0,2,27.79,81.48,48.86,0.45,0.81,0.38
-3.0,0.3243588,0.9358645,0.64944655,0.41,0.84,0.37,17096,10090.00,0,0,2,24.08,69.16,47.04,0.41,0.84,0.37
-4.0,0.28835878,0.78686446,0.5874466,0.41,0.85,0.37,17119,10089.00,0,0,2,21.56,58.73,42.70,0.41,0.85,0.37
-2.0,0.26535878,0.6598645,0.53244656,0.42,0.83,0.38,17141,10091.00,0,0,2,19.95,49.84,38.85,0.42,0.83,0.38
-4.0,0.22035877,0.54686445,0.5034466,0.42,0.81,0.4,17157,10089.00,0,0,2,16.80,41.93,36.82,0.42,0.81,0.40
0.099609375,0.16035879,0.4528645,0.4854466,0.41,0.82,0.4,17179,10093.10,0,0,2,12.60,35.35,35.56,0.41,0.82,0.40
-2.0,0.11735879,0.3608645,0.45544657,0.41,0.83,0.41,17201,10091.00,0,0,2,9.59,28.91,33.46,0.41,0.83,0.41
-3.0,0.07335879,0.28886452,0.39244658,0.4,0.83,0.42,17224,10090.00,0,0,2,6.51,23.87,29.05,0.40,0.83,0.42
-3.5996094,0.029358786,0.2258645,0.32944658,0.4,0.83,0.42,17245,10089.40,0,0,2,3.43,19.46,24.64,0.40,0.83,0.42
-1.5996094,0.007358784,0.17386448,0.29544657,0.4,0.84,0.42,17262,10091.40,0,0,2,1.89,15.82,22.26,0.40,0.84,0.42
-2.5996094,-0.009641217,0.12786451,0.2644466,0.4,0.84,0.43,17277,10090.40,0,0,2,0.70,12.60,20.09,0.40,0.84,0.43
-5.0,-0.021641217,0.0758645,0.2314466,0.39,0.85,0.44,17298,10088.00,0,0,2,-0.14,8.96,17.78,0.39,0.85,0.44
-2.0,-0.031641215,0.028864495,0.18644659,0.39,0.85,0.43,17313,10091.00,0,0,2,-0.84,5.67,14.63,0.39,0.85,0.43
-2.5996094,-0.050641216,-0.022135505,0.14044659,0.4,0.83,0.43,17331,10090.40,0,0,2,-2.17,2.10,11.41,0.40,0.83,0.43
-2.0,-0.075641215,-0.10113551,0.09944658,0.41,0.83,0.43,17352,10091.00,0,0,2,-3.92,-3.43,8.54,0.41,0.83,0.43
-3.0,-0.07664122,-0.16113551,0.08344658,0.41,0.84,0.42,17366,10090.00,0,0,2,-3.99,-7.63,7.42,0.41,0.84,0.42
-2.5996094,-0.058641218,-0.2121355,0.06544658,0.39,0.84,0.42,17389,10090.40,0,0,2,-2.73,-11.20,6.16,0.39,0.84,0.42
-2.5996094,-0.05764122,-0.24113551,0.039446585,0.39,0.83,0.44,17411,10090.40,0,0,2,-2.66,-13.23,4.34,0.39,0.83,0.44
-0.5996094,-0.06964122,-0.2491355,0.025446577,0.38,0.81,0.45,17435,10092.40,0,0,2,-3.50,-13.79,3.36,0.38,0.81,0.45
-0.5996094,-0.08864121,-0.2511355,0.01744658,0.38,0.81,0.44,17456,10092.40,0,0,2,-4.83,-13.93,2.80,0.38,0.81,0.44
-1.2998047,-0.090641215,-0.2591355,0.0064465795,0.39,0.83,0.43,17479,10091.70,0,0,2,-4.97,-14.49,2.03,0.39,0.83,0.43
-2.5996094,-0.08064122,-0.2561355,0.0034465808,0.4,0.81,0.44,17502,10090.40,0,0,2,-4.27,-14.28,1.82,0.40,0.81,0.44
-0.5996094,-0.08164122,-0.2461355,0.020446582,0.41,0.79,0.45,17515,10092.40,0,0,2,-4.34,-13.58,3.01,0.41,0.79,0.45
-1.5996094,-0.09964122,-0.23113549,0.03744658,0.41,0.79,0.46,17530,10091.40,0,0,2,-5.60,-12.53,4.20,0.41,0.79,0.46
0.40039062,-0.109641224,-0.2141355,0.048446573,0.4,0.79,0.46,17545,10093.40,0,0,2,-6.30,-11.34,4.97,0.40,0.79,0.46
1.4003906,-0.11364122,-0.1951355,0.050446577,0.4,0.8,0.46,17561,10094.40,0,0,2,-6.58,-10.01,5.11,0.40,0.80,0.46
-1.5996094,-0.11064121,-0.1741355,0.04144658,0.4,0.81,0.46,17575,10091.40,0,0,2,-6.37,-8.54,4.48,0.40,0.81,0.46
-1.5996094,-0.090641215,-0.1491355,0.029446581,0.42,0.81,0.46,17598,10091.40,0,0,2,-4.97,-6.79,3.64,0.42,0.81,0.46
-2.0,-0.08064122,-0.12513551,0.031446584,0.42,0.81,0.47,17620,10091.00,0,0,2,-4.27,-5.11,3.78,0.42,0.81,0.47
-1.5996094,-0.079641216,-0.058135506,0.01744658,0.42,0.8,0.47,17643,10091.40,0,0,2,-4.20,-0.42,2.80,0.42,0.80,0.47
-2.2998047,-0.04064122,-0.104135506,0.0024465807,0.43,0.82,0.46,17666,10090.70,0,0,2,-1.47,-3.64,1.75,0.43,0.82,0.46
-1.2998047,-0.04464122,-0.09713551,-0.014553419,0.43,0.82,0.46,17681,10091.70,0,0,2,-1.75,-3.15,0.56,0.43,0.82,0.46
-1.5996094,-0.029641217,-0.1491355,-0.02355342,0.42,0.83,0.46,17704,10091.40,0,0,2,-0.70,-6.79,-0.07,0.42,0.83,0.46
-2.2998047,-0.028641216,-0.16213551,-0.05055342,0.41,0.83,0.46,17725,10090.70,0,0,2,-0.63,-7.70,-1.96,0.41,0.83,0.46
-2.2998047,-0.030641217,-0.1101355,-0.11455342,0.39,0.83,0.46,17747,10090.70,0,0,2,-0.77,-4.06,-6.44,0.39,0.83,0.46
-7.2998047,-0.028641216,-0.107135504,-0.12655342,0.39,0.83,0.46,17764,10085.70,0,0,2,-0.63,-3.85,-7.28,0.39,0.83,0.46
-2.5996094,-0.023641217,-0.1291355,-0.11355342,0.38,0.81,0.46,17778,10090.40,0,0,2,-0.28,-5.39,-6.37,0.38,0.81,0.46
-2.0,-0.024641216,-0.13213551,-0.097553425,0.38,0.8,0.47,17793,10091.00,0,0,2,-0.35,-5.60,-5.25,0.38,0.80,0.47
-2.2998047,-0.026641216,-0.10913551,-0.101553425,0.37,0.81,0.47,17808,10090.70,0,0,2,-0.49,-3.99,-5.53,0.37,0.81,0.47
-2.2998047,-0.030641217,-0.09013551,-0.11055342,0.37,0.82,0.46,17830,10090.70,0,0,2,-0.77,-2.66,-6.16,0.37,0.82,0.46
-2.2998047,-0.026641216,-0.09413551,-0.12055343,0.36,0.82,0.46,17853,10090.70,0,0,2,-0.49,-2.94,-6.86,0.36,0.82,0.46
-2.5996094,-0.018641217,-0.09513551,-0.119553424,0.37,0.81,0.46,17868,10090.40,0,0,2,0.07,-3.01,-6.79,0.37,0.81,0.46
-2.2998047,-0.015641216,-0.104135506,-0.10255342,0.37,0.81,0.46,17891,10090.70,0,0,2,0.28,-3.64,-5.60,0.37,0.81,0.46
-3.2998047,-0.009641217,-0.1051355,-0.090553425,0.37,0.83,0.45,17913,10089.70,0,0,2,0.70,-3.71,-4.76,0.37,0.83,0.45
-2.2998047,0.0063587837,-0.10213551,-0.08855342,0.36,0.83,0.44,17936,10090.70,0,0,2,1.82,-3.50,-4.62,0.36,0.83,0.44
-3.2998047,0.019358784,-0.1051355,-0.09355342,0.37,0.82,0.43,17951,10089.70,0,0,2,2.73,-3.71,-4.97,0.37,0.82,0.43
-3.0,0.014358785,-0.10913551,-0.07555342,0.38,0.81,0.43,17974,10090.00,0,0,2,2.38,-3.99,-3.71,0.38,0.81,0.43
-2.0,0.0113587845,-0.12513551,-0.04555342,0.38,0.81,0.43,17996,10091.00,0,0,2,2.17,-5.11,-1.61,0.38,0.81,0.43
-2.0,0.007358784,-0.1341355,-0.02555342,0.38,0.82,0.43,18010,10091.00,0,0,2,1.89,-5.74,-0.21,0.38,0.82,0.43
-3.2998047,0.0053587835,-0.13813551,-0.018553419,0.38,0.81,0.43,18025,10089.70,0,0,2,1.75,-6.02,0.28,0.38,0.81,0.43
-2.2998047,-0.012641217,-0.13813551,-0.01655342,0.38,0.8,0.43,18048,10090.70,0,0,2,0.49,-6.02,0.42,0.38,0.80,0.43
-3.2998047,-0.043641217,-0.1511355,-0.03055342,0.4,0.81,0.42,18063,10089.70,0,0,2,-1.68,-6.93,-0.56,0.40,0.81,0.42
-2.2998047,-0.07164122,-0.18513551,-0.04755342,0.42,0.81,0.41,18078,10090.70,0,0,2,-3.64,-9.31,-1.75,0.42,0.81,0.41
-2.0,-0.10664122,-0.2491355,-0.06655342,0.43,0.81,0.4,18101,10091.00,0,0,2,-6.09,-13.79,-3.08,0.43,0.81,0.40
-2.2998047,-0.14964123,-0.37313548,-0.11055342,0.45,0.82,0.38,18123,10090.70,0,0,2,-9.10,-22.47,-6.16,0.45,0.82,0.38
-1.0,-0.20564122,-0.54613554,-0.19255342,0.49,0.82,0.36,18146,10092.00,0,0,2,-13.02,-34.58,-11.90,0.49,0.82,0.36
-1.0,-0.28064123,-0.79213554,-0.2935534,0.52,0.82,0.34,18161,10092.00,0,0,2,-18.27,-51.80,-18.97,0.52,0.82,0.34
-1.0,-0.34864122,-1.0901356,-0.38355342,0.55,0.81,0.33,18184,10092.00,0,0,2,-23.03,-72.66,-25.27,0.55,0.81,0.33
-2.0,-0.42264122,-1.4271355,-0.47155342,0.58,0.79,0.34,18205,10091.00,0,0,2,-28.21,-96.25,-31.43,0.58,0.79,0.34
-1.0,-0.4876412,-1.7331355,-0.53155345,0.57,0.79,0.35,18229,10092.00,0,0,2,-32.76,-117.67,-35.63,0.57,0.79,0.35
-5.0,-0.5176412,-1.9371355,-0.55955344,0.53,0.79,0.37,18250,10088.00,0,0,2,-34.86,-131.95,-37.59,0.53,0.79,0.37
-2.0,-0.5296412,-2.0261354,-0.57155347,0.49,0.78,0.41,18266,10091.00,0,0,2,-35.70,-138.18,-38.43,0.49,0.78,0.41
-2.2998047,-0.55364126,-2.0711355,-0.5895534,0.47,0.78,0.44,18281,10090.70,0,0,2,-37.38,-141.33,-39.69,0.47,0.78,0.44
-2.0,-0.56764126,-2.0541356,-0.58255345,0.44,0.79,0.46,18296,10091.00,0,0,2,-38.36,-140.14,-39.20,0.44,0.79,0.46
0.40039062,-0.5526412,-1.9871354,-0.55955344,0.43,0.8,0.47,18318,10093.40,0,0,2,-37.31,-135.45,-37.59,0.43,0.80,0.47
-1.0,-0.53264123,-1.8871354,-0.5415535,0.41,0.82,0.47,18325,10092.00,0,0,2,-35.91,-128.45,-36.33,0.41,0.82,0.47
-2.5996094,-0.4856412,-1.7191355,-0.5125534,0.39,0.83,0.47,18349,10090.40,0,0,2,-32.62,-116.69,-34.30,0.39,0.83,0.47
-2.0,-0.43364123,-1.5231355,-0.4795534,0.38,0.82,0.47,18371,10091.00,0,0,2,-28.98,-102.97,-31.99,0.38,0.82,0.47
-3.5996094,-0.40864122,-1.3431355,-0.4565534,0.4,0.82,0.45,18394,10089.40,0,0,2,-27.23,-90.37,-30.38,0.40,0.82,0.45
-1.5996094,-0.3956412,-1.1821355,-0.4235534,0.41,0.83,0.43,18416,10091.40,0,0,2,-26.32,-79.10,-28.07,0.41,0.83,0.43
-2.0,-0.36764124,-1.0421356,-0.3955534,0.4,0.83,0.39,18438,10091.00,0,0,2,-24.36,-69.30,-26.11,0.40,0.83,0.39
-2.0,-0.3476412,-0.93413556,-0.38355342,0.42,0.83,0.36,18460,10091.00,0,0,2,-22.96,-61.74,-25.27,0.42,0.83,0.36
-1.5996094,-0.34564123,-0.86113554,-0.3655534,0.44,0.82,0.34,18475,10091.40,0,0,2,-22.82,-56.63,-24.01,0.44,0.82,0.34
-2.5996094,-0.34264123,-0.8301355,-0.3405534,0.45,0.82,0.33,18498,10090.40,0,0,2,-22.61,-54.46,-22.26,0.45,0.82,0.33
-2.0,-0.3476412,-0.80113554,-0.3125534,0.45,0.81,0.33,18513,10091.00,0,0,2,-22.96,-52.43,-20.30,0.45,0.81,0.33
-2.2998047,-0.34264123,-0.77713555,-0.28555343,0.45,0.81,0.34,18528,10090.70,0,0,2,-22.61,-50.75,-18.41,0.45,0.81,0.34
-0.5996094,-0.33564124,-0.73513556,-0.2655534,0.45,0.83,0.33,18543,10092.40,0,0,2,-22.12,-47.81,-17.01,0.45,0.83,0.33
-1.0,-0.32764122,-0.70313555,-0.25255343,0.45,0.84,0.33,18558,10092.00,0,0,2,-21.56,-45.57,-16.10,0.45,0.84,0.33
-1.0,-0.31664124,-0.67613554,-0.2395534,0.46,0.84,0.33,18581,10092.00,0,0,2,-20.79,-43.68,-15.19,0.46,0.84,0.33
-0.5996094,-0.3036412,-0.63413554,-0.21655342,0.45,0.83,0.34,18597,10092.40,0,0,2,-19.88,-40.74,-13.58,0.45,0.83,0.34
-0.5996094,-0.29064122,-0.5891355,-0.19655342,0.45,0.85,0.34,18618,10092.40,0,0,2,-18.97,-37.59,-12.18,0.45,0.85,0.34
1.0996094,-0.27164122,-0.5281355,-0.19355342,0.44,0.85,0.35,18641,10094.10,0,0,2,-17.64,-33.32,-11.97,0.44,0.85,0.35
-1.0,-0.2536412,-0.4521355,-0.19055341,0.43,0.85,0.35,18664,10092.00,0,0,2,-16.38,-28.00,-11.76,0.43,0.85,0.35
-2.5996094,-0.22964121,-0.3751355,-0.17155342,0.42,0.85,0.36,18686,10090.40,0,0,2,-14.70,-22.61,-10.43,0.42,0.85,0.36
-2.5996094,-0.2116412,-0.3071355,-0.18155341,0.42,0.86,0.35,18701,10090.40,0,0,2,-13.44,-17.85,-11.13,0.42,0.86,0.35
-2.5996094,-0.19264121,-0.24013549,-0.20355341,0.41,0.86,0.35,18724,10090.40,0,0,2,-12.11,-13.16,-12.67,0.41,0.86,0.35
-2.5996094,-0.17064121,-0.18213552,-0.2015534,0.41,0.85,0.36,18747,10090.40,0,0,2,-10.57,-9.10,-12.53,0.41,0.85,0.36
-2.5996094,-0.15664123,-0.1511355,-0.19055341,0.42,0.85,0.35,18761,10090.40,0,0,2,-9.59,-6.93,-11.76,0.42,0.85,0.35
-3.5996094,-0.14164121,-0.1291355,-0.17655341,0.42,0.85,0.35,18775,10089.40,0,0,2,-8.54,-5.39,-10.78,0.42,0.85,0.35
-2.5996094,-0.12564121,-0.115135506,-0.1645534,0.42,0.85,0.34,18792,10090.40,0,0,2,-7.42,-4.41,-9.94,0.42,0.85,0.34
-1.2998047,-0.09864122,-0.093135506,-0.13555342,0.43,0.84,0.35,18813,10091.70,0,0,2,-5.53,-2.87,-7.91,0.43,0.84,0.35
-2.2998047,-0.08164122,-0.0841355,-0.10255342,0.42,0.84,0.35,18829,10090.70,0,0,2,-4.34,-2.24,-5.60,0.42,0.84,0.35
-3.5996094,-0.054641217,-0.07213551,-0.08355342,0.41,0.86,0.34,18850,10089.40,0,0,2,-2.45,-1.40,-4.27,0.41,0.86,0.34
-2.5996094,-0.027641218,-0.054135505,-0.08055342,0.41,0.85,0.35,18866,10090.40,0,0,2,-0.56,-0.14,-4.06,0.41,0.85,0.35
-2.5996094,-0.026641216,-0.037135504,-0.07255342,0.41,0.85,0.35,18888,10090.40,0,0,2,-0.49,1.05,-3.50,0.41,0.85,0.35
-2.5996094,-0.020641217,0.007864494,-0.04355342,0.39,0.85,0.37,18912,10090.40,0,0,2,-0.07,4.20,-1.47,0.39,0.85,0.37
-1.2998047,0.0063587837,0.116864495,0.0064465795,0.35,0.86,0.38,18934,10091.70,0,0,2,1.82,11.83,2.03,0.35,0.86,0.38
-3.2998047,0.050358783,0.28886452,0.05144658,0.33,0.87,0.42,18956,10089.70,0,0,2,4.90,23.87,5.18,0.33,0.87,0.42
-3.2998047,0.09735878,0.52786446,0.10644657,0.3,0.84,0.47,18979,10089.70,0,0,2,8.19,40.60,9.03,0.30,0.84,0.47
-2.2998047,0.14335878,0.82386446,0.18444659,0.29,0.84,0.48,18993,10090.70,0,0,2,11.41,61.32,14.49,0.29,0.84,0.48
-1.2998047,0.15235879,1.0428646,0.20744659,0.31,0.84,0.49,19008,10091.70,0,0,2,12.04,76.65,16.10,0.31,0.84,0.49
-2.2998047,0.15035878,1.2458645,0.2014466,0.32,0.84,0.47,19031,10090.70,0,0,2,11.90,90.86,15.68,0.32,0.84,0.47
-1.2998047,0.16135877,1.4428645,0.2244466,0.32,0.86,0.47,19047,10091.70,0,0,2,12.67,104.65,17.29,0.32,0.86,0.47
-4.2998047,0.19235878,1.5918646,0.2644466,0.32,0.89,0.46,19061,10088.70,0,0,2,14.84,115.08,20.09,0.32,0.89,0.46
-2.5996094,0.23735878,1.7278645,0.2994466,0.34,0.86,0.46,19075,10090.40,0,0,2,17.99,124.60,22.54,0.34,0.86,0.46
-2.2998047,0.28135878,1.8118645,0.33044657,0.37,0.84,0.46,19098,10090.70,0,0,2,21.07,130.48,24.71,0.37,0.84,0.46
2.7001953,0.2803588,1.8168646,0.3744466,0.39,0.81,0.46,19121,10095.70,0,0,2,21.00,130.83,27.79,0.39,0.81,0.46
0.0,0.26135877,1.7468646,0.41144657,0.4,0.81,0.43,19137,10093.00,0,0,2,19.67,125.93,30.38,0.40,0.81,0.43
-1.2998047,0.25735876,1.6028645,0.4064466,0.4,0.83,0.4,19158,10091.70,0,0,2,19.39,115.85,30.03,0.40,0.83,0.40
-0.2998047,0.26835877,1.4078645,0.3914466,0.4,0.85,0.4,19182,10092.70,0,0,2,20.16,102.20,28.98,0.40,0.85,0.40
-2.2998047,0.26935878,1.2118646,0.37844658,0.4,0.84,0.41,19203,10090.70,0,0,2,20.23,88.48,28.07,0.40,0.84,0.41
-1.2998047,0.2523588,1.0538645,0.3914466,0.39,0.84,0.41,19227,10091.70,0,0,2,19.04,77.42,28.98,0.39,0.84,0.41
-2.2998047,0.23135877,0.9138645,0.39744657,0.38,0.84,0.41,19241,10090.70,0,0,2,17.57,67.62,29.40,0.38,0.84,0.41
-2.2998047,0.21335877,0.7858645,0.3824466,0.38,0.84,0.41,19263,10090.70,0,0,2,16.31,58.66,28.35,0.38,0.84,0.41
-2.2998047,0.18635878,0.64886445,0.3564466,0.39,0.83,0.41,19279,10090.70,0,0,2,14.42,49.07,26.53,0.39,0.83,0.41
-4.0,0.15135878,0.51586443,0.32944658,0.39,0.84,0.42,19293,10089.00,0,0,2,11.97,39.76,24.64,0.39,0.84,0.42
-2.2998047,0.12635878,0.4088645,0.30444658,0.37,0.85,0.42,19308,10090.70,0,0,2,10.22,32.27,22.89,0.37,0.85,0.42
-4.0,0.12235877,0.3278645,0.2754466,0.34,0.86,0.43,19323,10089.00,0,0,2,9.94,26.60,20.86,0.34,0.86,0.43
-3.0,0.12935878,0.2748645,0.23544657,0.32,0.87,0.43,19337,10090.00,0,0,2,10.43,22.89,18.06,0.32,0.87,0.43
-3.2998047,0.14235878,0.22686452,0.18544659,0.32,0.86,0.44,19360,10089.70,0,0,2,11.34,19.53,14.56,0.32,0.86,0.44
-3.2998047,0.13735877,0.18586448,0.16244659,0.33,0.84,0.45,19384,10089.70,0,0,2,10.99,16.66,12.95,0.33,0.84,0.45
-4.2998047,0.123358786,0.14786449,0.15944658,0.33,0.84,0.45,19406,10088.70,0,0,2,10.01,14.00,12.74,0.33,0.84,0.45
-4.0,0.10635878,0.12286449,0.16244659,0.32,0.85,0.45,19429,10089.00,0,0,2,8.82,12.25,12.95,0.32,0.85,0.45
-4.0,0.09835878,0.11386449,0.1514466,0.32,0.85,0.45,19444,10089.00,0,0,2,8.26,11.62,12.18,0.32,0.85,0.45
-4.0,0.101358786,0.1058645,0.13244659,0.32,0.85,0.45,19466,10089.00,0,0,2,8.47,11.06,10.85,0.32,0.85,0.45
-5.0,0.09235878,0.08586449,0.11444659,0.34,0.84,0.46,19489,10088.00,0,0,2,7.84,9.66,9.59,0.34,0.84,0.46
-10.099609,0.08835879,0.07086449,0.10744659,0.34,0.83,0.46,19503,10082.90,0,0,2,7.56,8.61,9.10,0.34,0.83,0.46
-5.0,0.08935879,0.0698645,0.11444659,0.35,0.83,0.45,19518,10088.00,0,0,2,7.63,8.54,9.59,0.35,0.83,0.45
-6.2998047,0.103358775,0.0808645,0.12744659,0.36,0.82,0.45,19541,10086.70,0,0,2,8.61,9.31,10.50,0.36,0.82,0.45
-5.0,0.11035879,0.09386449,0.14444658,0.36,0.81,0.45,19555,10088.00,0,0,2,9.10,10.22,11.69,0.36,0.81,0.45
-9.0,0.11135878,0.109864496,0.16544658,0.37,0.8,0.46,19571,10084.00,0,0,2,9.17,11.34,13.16,0.37,0.80,0.46
-8.700195,0.093358785,0.116864495,0.17444658,0.37,0.8,0.47,19585,10084.30,0,0,2,7.91,11.83,13.79,0.37,0.80,0.47
-6.7001953,0.062358778,0.10686449,0.1604466,0.37,0.83,0.46,19609,10086.30,0,0,2,5.74,11.13,12.81,0.37,0.83,0.46
-7.0,0.05235878,0.10086449,0.11744658,0.36,0.85,0.45,19631,10086.00,0,0,2,5.04,10.71,9.80,0.36,0.85,0.45
-6.2998047,0.057358783,0.0968645,0.07444658,0.35,0.86,0.45,19646,10086.70,0,0,2,5.39,10.43,6.79,0.35,0.86,0.45
-7.0,0.059358787,0.09286449,0.038446583,0.33,0.86,0.44,19667,10086.00,0,0,2,5.53,10.15,4.27,0.33,0.86,0.44
-7.4003906,0.051358778,0.07686449,0.008446582,0.32,0.85,0.43,19690,10085.60,0,0,2,4.97,9.03,2.17,0.32,0.85,0.43
-7.7001953,0.043358784,0.044864498,-0.00755342,0.32,0.86,0.42,19713,10085.30,0,0,2,4.41,6.79,1.05,0.32,0.86,0.42
-7.7001953,0.048358787,0.020864494,-0.006553419,0.32,0.85,0.41,19735,10085.30,0,0,2,4.76,5.11,1.12,0.32,0.85,0.41
-6.7001953,0.054358784,0.014864497,0.0014465787,0.32,0.84,0.41,19750,10086.30,0,0,2,5.18,4.69,1.68,0.32,0.84,0.41
-7.4003906,0.051358778,0.0068644956,0.02144658,0.32,0.82,0.43,19766,10085.60,0,0,2,4.97,4.13,3.08,0.32,0.82,0.43
-6.7001953,0.02835878,-0.002135504,0.045446582,0.31,0.82,0.44,19781,10086.30,0,0,2,3.36,3.50,4.76,0.31,0.82,0.44
-7.0,0.007358784,-0.004135508,0.06644658,0.31,0.84,0.43,19803,10086.00,0,0,2,1.89,3.36,6.23,0.31,0.84,0.43
-6.7001953,-0.003641216,-0.0061355047,0.071446575,0.31,0.85,0.43,19818,10086.30,0,0,2,1.12,3.22,6.58,0.31,0.85,0.43
-6.7001953,-0.0066412166,-0.0051355064,0.06444658,0.32,0.86,0.44,19833,10086.30,0,0,2,0.91,3.29,6.09,0.32,0.86,0.44
-7.7001953,-0.015641216,-0.004135508,0.06644658,0.34,0.84,0.45,19857,10085.30,0,0,2,0.28,3.36,6.23,0.34,0.84,0.45
-6.7001953,-0.041641217,-0.016135506,0.07344657,0.34,0.83,0.46,19878,10086.30,0,0,2,-1.54,2.52,6.72,0.34,0.83,0.46
-6.7001953,-0.05364122,-0.027135504,0.082446575,0.34,0.85,0.45,19893,10086.30,0,0,2,-2.38,1.75,7.35,0.34,0.85,0.45
-6.7001953,-0.032641217,-0.034135506,0.08644658,0.34,0.86,0.44,19915,10086.30,0,0,2,-0.91,1.26,7.63,0.34,0.86,0.44
-4.7001953,-0.010641217,-0.037135504,0.06444658,0.34,0.85,0.45,19938,10088.30,0,0,2,0.63,1.05,6.09,0.34,0.85,0.45
-9.700195,-0.004641217,-0.037135504,0.039446585,0.35,0.85,0.45,19960,10083.30,0,0,2,1.05,1.05,4.34,0.35,0.85,0.45
-5.2998047,-0.008641217,-0.037135504,0.018446578,0.35,0.85,0.45,19983,10087.70,0,0,2,0.77,1.05,2.87,0.35,0.85,0.45
-5.7001953,-0.002641216,-0.037135504,0.016446581,0.35,0.85,0.44,19998,10087.30,0,0,2,1.19,1.05,2.73,0.35,0.85,0.44
-5.7001953,0.008358784,-0.039135505,0.01944658,0.35,0.84,0.45,20013,10087.30,0,0,2,1.96,0.91,2.94,0.35,0.84,0.45
-4.7001953,0.048358787,-0.052135505,0.043446578,0.35,0.84,0.44,20028,10088.30,0,0,2,4.76,0.00,4.62,0.35,0.84,0.44
-1.2998047,-0.012641217,-0.07213551,0.03244658,0.35,0.83,0.44,20043,10091.70,0,0,2,0.49,-1.40,3.85,0.35,0.83,0.44
-2.7001953,-0.002641216,-0.057135504,0.03244658,0.34,0.83,0.45,20058,10090.30,0,0,2,1.19,-0.35,3.85,0.34,0.83,0.45
-3.0,-0.0076412177,-0.054135505,0.035446577,0.34,0.83,0.44,20088,10090.00,0,0,2,0.84,-0.14,4.06,0.34,0.83,0.44
0.40039062,-0.021641217,-0.042135507,0.035446577,0.35,0.83,0.44,20096,10093.40,0,0,2,-0.14,0.70,4.06,0.35,0.83,0.44
3.4003906,-0.029641217,-0.039135505,0.031446584,0.35,0.84,0.44,20118,10096.40,0,0,2,-0.70,0.91,3.78,0.35,0.84,0.44
-2.7001953,-0.034641217,-0.044135503,0.025446577,0.36,0.83,0.45,20140,10090.30,0,0,2,-1.05,0.56,3.36,0.36,0.83,0.45
-2.0,-0.038641218,-0.046135504,0.026446583,0.37,0.82,0.45,20164,10091.00,0,0,2,-1.33,0.42,3.43,0.37,0.82,0.45
-1.5996094,-0.046641216,-0.054135505,0.031446584,0.36,0.83,0.45,20185,10091.40,0,0,2,-1.89,-0.14,3.78,0.36,0.83,0.45
-1.2998047,-0.049641214,-0.060135506,0.02144658,0.36,0.83,0.45,20200,10091.70,0,0,2,-2.10,-0.56,3.08,0.36,0.83,0.45
-1.5996094,-0.047641218,-0.059135504,0.01044658,0.36,0.83,0.46,20223,10091.40,0,0,2,-1.96,-0.49,2.31,0.36,0.83,0.46
-2.2998047,-0.049641214,-0.057135504,0.0024465807,0.37,0.83,0.46,20246,10090.70,0,0,2,-2.10,-0.35,1.75,0.37,0.83,0.46
-1.2998047,-0.054641217,-0.054135505,0.0034465808,0.36,0.82,0.46,20260,10091.70,0,0,2,-2.45,-0.14,1.82,0.36,0.82,0.46
-2.2998047,-0.059641216,-0.059135504,-5.534198E-4,0.36,0.83,0.46,20275,10090.70,0,0,2,-2.80,-0.49,1.54,0.36,0.83,0.46
-0.2998047,-0.052641217,-0.059135504,-0.00155342,0.35,0.83,0.45,20299,10092.70,0,0,2,-2.31,-0.49,1.47,0.35,0.83,0.45
-2.2998047,-0.046641216,-0.060135506,-0.009553419,0.35,0.84,0.46,20312,10090.70,0,0,2,-1.89,-0.56,0.91,0.35,0.84,0.46
-1.0,-0.038641218,-0.060135506,-0.0155534195,0.35,0.84,0.46,20329,10092.00,0,0,2,-1.33,-0.56,0.49,0.35,0.84,0.46
-1.2998047,-0.038641218,-0.058135506,-0.02455342,0.34,0.85,0.45,20350,10091.70,0,0,2,-1.33,-0.42,-0.14,0.34,0.85,0.45
-1.2998047,-0.036641218,-0.055135503,-0.03955342,0.33,0.85,0.45,20372,10091.70,0,0,2,-1.19,-0.21,-1.19,0.33,0.85,0.45
-2.7001953,-0.028641216,-0.059135504,-0.05055342,0.33,0.85,0.45,20389,10090.30,0,0,2,-0.63,-0.49,-1.96,0.33,0.85,0.45
-3.2998047,-0.024641216,-0.061135504,-0.048553422,0.33,0.85,0.45,20411,10089.70,0,0,2,-0.35,-0.63,-1.82,0.33,0.85,0.45
-3.2998047,-0.021641217,-0.061135504,-0.031553417,0.32,0.84,0.44,20434,10089.70,0,0,2,-0.14,-0.63,-0.63,0.32,0.84,0.44
-3.2998047,-0.014641217,-0.062135503,-0.02055342,0.31,0.84,0.45,20457,10089.70,0,0,2,0.35,-0.70,0.14,0.31,0.84,0.45
-4.2998047,-0.014641217,-0.058135506,-0.02155342,0.31,0.85,0.45,20478,10088.70,0,0,2,0.35,-0.42,0.07,0.31,0.85,0.45
-2.2998047,-0.020641217,-0.050135504,-0.018553419,0.3,0.85,0.45,20501,10090.70,0,0,2,-0.07,0.14,0.28,0.30,0.85,0.45
-5.2998047,-0.019641217,-0.042135507,-0.01155342,0.3,0.85,0.45,20516,10087.70,0,0,2,0.00,0.70,0.77,0.30,0.85,0.45
-4.2998047,-0.014641217,-0.026135504,0.0024465807,0.3,0.85,0.45,20531,10088.70,0,0,2,0.35,1.82,1.75,0.30,0.85,0.45
-4.2998047,-0.0056412164,-0.009135503,0.018446578,0.29,0.85,0.44,20546,10088.70,0,0,2,0.98,3.01,2.87,0.29,0.85,0.44
-5.2998047,0.008358784,0.011864498,0.029446581,0.29,0.85,0.44,20561,10087.70,0,0,2,1.96,4.48,3.64,0.29,0.85,0.44
-6.0,0.015358783,0.0238645,0.038446583,0.3,0.84,0.44,20576,10087.00,0,0,2,2.45,5.32,4.27,0.30,0.84,0.44
-5.0,0.023358785,0.035864495,0.050446577,0.31,0.83,0.45,20598,10088.00,0,0,2,3.01,6.16,5.11,0.31,0.83,0.45
-6.4003906,0.026358783,0.042864494,0.05544658,0.34,0.82,0.46,20622,10086.60,0,0,2,3.22,6.65,5.46,0.34,0.82,0.46
-6.0,0.017358784,0.035864495,0.06444658,0.36,0.81,0.46,20644,10087.00,0,0,2,2.59,6.16,6.09,0.36,0.81,0.46
-5.7001953,-0.002641216,0.01886449,0.08644658,0.37,0.8,0.47,20659,10087.30,0,0,2,1.19,4.97,7.63,0.37,0.80,0.47
-5.0,-0.0076412177,-0.008135505,0.113446586,0.38,0.82,0.47,20689,10088.00,0,0,2,0.84,3.08,9.52,0.38,0.82,0.47
-5.0,-6.412156E-4,-0.021135503,0.11044658,0.38,0.83,0.47,20704,10088.00,0,0,2,1.33,2.17,9.31,0.38,0.83,0.47
-5.0,-6.412156E-4,-0.029135505,0.08044658,0.37,0.84,0.47,20726,10088.00,0,0,2,1.33,1.61,7.21,0.37,0.84,0.47
-6.0,-6.412156E-4,-0.030135505,0.05844658,0.36,0.84,0.47,20749,10087.00,0,0,2,1.33,1.54,5.67,0.36,0.84,0.47
-6.0,0.0053587835,-0.024135504,0.05144658,0.36,0.84,0.47,20763,10087.00,0,0,2,1.75,1.96,5.18,0.36,0.84,0.47
-5.0,0.017358784,-0.014135502,0.050446577,0.35,0.83,0.46,20779,10088.00,0,0,2,2.59,2.66,5.11,0.35,0.83,0.46
-5.0,0.026358783,-0.002135504,0.05244658,0.34,0.83,0.46,20794,10088.00,0,0,2,3.22,3.50,5.25,0.34,0.83,0.46
-6.0,0.02835878,0.016864493,0.05544658,0.35,0.82,0.46,20808,10087.00,0,0,2,3.36,4.83,5.46,0.35,0.82,0.46
-5.7001953,0.02835878,0.030864492,0.06844658,0.35,0.81,0.46,20823,10087.30,0,0,2,3.36,5.81,6.37,0.35,0.81,0.46
-5.0,0.024358783,0.036864497,0.08344658,0.35,0.82,0.46,20846,10088.00,0,0,2,3.08,6.23,7.42,0.35,0.82,0.46
-5.7001953,0.015358783,0.030864492,0.08544658,0.36,0.82,0.45,20869,10087.30,0,0,2,2.45,5.81,7.56,0.36,0.82,0.45
-6.0,0.007358784,0.022864498,0.07844658,0.37,0.82,0.45,20898,10087.00,0,0,2,1.89,5.25,7.07,0.37,0.82,0.45
-5.7001953,-0.0076412177,0.010864496,0.07544658,0.37,0.82,0.45,20913,10087.30,0,0,2,0.84,4.41,6.86,0.37,0.82,0.45
-5.7001953,-0.012641217,-0.0051355064,0.06644658,0.36,0.83,0.45,20928,10087.30,0,0,2,0.49,3.29,6.23,0.36,0.83,0.45
-6.7001953,-0.014641217,-0.022135505,0.056446582,0.36,0.83,0.45,20951,10086.30,0,0,2,0.35,2.10,5.53,0.36,0.83,0.45
-6.7001953,-0.019641217,-0.028135506,0.048446573,0.37,0.82,0.46,20973,10086.30,0,0,2,0.00,1.68,4.97,0.37,0.82,0.46
-4.7001953,-0.016641216,-0.029135505,0.04444658,0.37,0.83,0.47,20996,10088.30,0,0,2,0.21,1.61,4.69,0.37,0.83,0.47
-5.7001953,-0.011641216,-0.029135505,0.042446584,0.37,0.83,0.46,21010,10087.30,0,0,2,0.56,1.61,4.55,0.37,0.83,0.46
-6.0,-0.004641217,-0.029135505,0.03744658,0.37,0.83,0.47,21025,10087.00,0,0,2,1.05,1.61,4.20,0.37,0.83,0.47
-5.7001953,-0.0016412176,-0.029135505,0.038446583,0.37,0.83,0.47,21040,10087.30,0,0,2,1.26,1.61,4.27,0.37,0.83,0.47
-5.7001953,3.587827E-4,-0.030135505,0.04044658,0.37,0.83,0.47,21063,10087.30,0,0,2,1.40,1.54,4.41,0.37,0.83,0.47
-7.7001953,-6.412156E-4,-0.032135505,0.038446583,0.37,0.82,0.47,21077,10085.30,0,0,2,1.33,1.40,4.27,0.37,0.82,0.47
-7.0,-0.003641216,-0.031135505,0.039446585,0.37,0.82,0.47,21094,10086.00,0,0,2,1.12,1.47,4.34,0.37,0.82,0.47
-6.7001953,-0.0066412166,-0.033135504,0.035446577,0.37,0.81,0.47,21124,10086.30,0,0,2,0.91,1.33,4.06,0.37,0.81,0.47
-5.7001953,-0.008641217,-0.032135505,0.026446583,0.36,0.81,0.47,21138,10087.30,0,0,2,0.77,1.40,3.43,0.36,0.81,0.47
-6.7001953,0.002358783,-0.032135505,0.02844658,0.36,0.82,0.47,21160,10086.30,0,0,2,1.54,1.40,3.57,0.36,0.82,0.47
-5.7001953,0.0033587832,-0.027135504,0.034446582,0.37,0.81,0.47,21183,10087.30,0,0,2,1.61,1.75,3.99,0.37,0.81,0.47
-5.7001953,-0.010641217,-0.023135506,0.03244658,0.36,0.81,0.47,21206,10087.30,0,0,2,0.63,2.03,3.85,0.36,0.81,0.47
-5.4003906,-0.023641217,-0.015135504,0.035446577,0.36,0.81,0.47,21221,10087.60,0,0,2,-0.28,2.59,4.06,0.36,0.81,0.47
-5.7001953,-0.021641217,-0.014135502,0.042446584,0.36,0.83,0.47,21243,10087.30,0,0,2,-0.14,2.66,4.55,0.36,0.83,0.47
-6.7001953,-0.019641217,-0.013135504,0.042446584,0.36,0.83,0.46,21258,10086.30,0,0,2,0.00,2.73,4.55,0.36,0.83,0.46
-6.7001953,-0.016641216,-0.011135507,0.042446584,0.36,0.83,0.46,21272,10086.30,0,0,2,0.21,2.87,4.55,0.36,0.83,0.46
-6.7001953,-0.013641218,-0.017135505,0.03244658,0.36,0.83,0.46,21302,10086.30,0,0,2,0.42,2.45,3.85,0.36,0.83,0.46
-6.7001953,-0.012641217,-0.018135503,0.031446584,0.36,0.83,0.46,21310,10086.30,0,0,2,0.49,2.38,3.78,0.36,0.83,0.46
-1.2998047,-0.009641217,-0.022135505,0.03644658,0.36,0.83,0.46,21332,10091.70,0,0,2,0.70,2.10,4.13,0.36,0.83,0.46
-5.7001953,-0.003641216,-0.026135504,0.026446583,0.36,0.83,0.46,21347,10087.30,0,0,2,1.12,1.82,3.43,0.36,0.83,0.46
-6.7001953,-0.009641217,-0.030135505,0.016446581,0.35,0.83,0.45,21371,10086.30,0,0,2,0.70,1.54,2.73,0.35,0.83,0.45
-6.7001953,-0.017641217,-0.032135505,0.004446581,0.35,0.83,0.45,21385,10086.30,0,0,2,0.14,1.40,1.89,0.35,0.83,0.45
-4.7001953,-0.018641217,-0.032135505,-0.00155342,0.34,0.83,0.44,21408,10088.30,0,0,2,0.07,1.40,1.47,0.34,0.83,0.44
-5.7001953,-0.016641216,-0.034135506,-5.534198E-4,0.35,0.82,0.45,21431,10087.30,0,0,2,0.21,1.26,1.54,0.35,0.82,0.45
-7.4003906,-0.027641218,-0.031135505,0.01244658,0.35,0.82,0.46,21452,10085.60,0,0,2,-0.56,1.47,2.45,0.35,0.82,0.46
-6.7001953,-0.031641215,-0.026135504,0.027446581,0.35,0.82,0.45,21475,10086.30,0,0,2,-0.84,1.82,3.50,0.35,0.82,0.45
-6.7001953,-0.035641216,-0.019135505,0.042446584,0.35,0.82,0.46,21490,10086.30,0,0,2,-1.12,2.31,4.55,0.35,0.82,0.46
-6.7001953,-0.034641217,-0.012135506,0.053446583,0.35,0.82,0.46,21513,10086.30,0,0,2,-1.05,2.80,5.32,0.35,0.82,0.46
-2.2998047,-0.032641217,-0.0051355064,0.060446575,0.35,0.83,0.45,21528,10090.70,0,0,2,-0.91,3.29,5.81,0.35,0.83,0.45
-6.7001953,-0.025641216,0.0018644966,0.057446577,0.35,0.83,0.46,21543,10086.30,0,0,2,-0.42,3.78,5.60,0.35,0.83,0.46
-7.4003906,-0.023641217,0.0068644956,0.046446577,0.36,0.82,0.46,21557,10085.60,0,0,2,-0.28,4.13,4.83,0.36,0.82,0.46
-5.4003906,-0.024641216,0.0068644956,0.049446575,0.36,0.82,0.46,21573,10087.60,0,0,2,-0.35,4.13,5.04,0.36,0.82,0.46
-6.7001953,-0.03364122,-0.004135508,0.053446583,0.36,0.83,0.45,21595,10086.30,0,0,2,-0.98,3.36,5.32,0.36,0.83,0.45
-6.4003906,-0.025641216,-0.015135504,0.045446582,0.36,0.84,0.45,21619,10086.60,0,0,2,-0.42,2.59,4.76,0.36,0.84,0.45
-6.4003906,-0.017641217,-0.023135506,0.031446584,0.36,0.83,0.46,21649,10086.60,0,0,2,0.14,2.03,3.78,0.36,0.83,0.46
-6.4003906,-0.021641217,-0.021135503,0.03644658,0.37,0.82,0.46,21656,10086.60,0,0,2,-0.14,2.17,4.13,0.37,0.82,0.46
-4.7001953,-0.030641217,-0.035135504,0.03344658,0.36,0.82,0.46,21678,10088.30,0,0,2,-0.77,1.19,3.92,0.36,0.82,0.46
-6.4003906,-0.030641217,-0.051135506,0.03044658,0.36,0.82,0.46,21701,10086.60,0,0,2,-0.77,0.07,3.71,0.36,0.82,0.46
-6.7001953,-0.026641216,-0.06413551,0.025446577,0.36,0.81,0.46,21722,10086.30,0,0,2,-0.49,-0.84,3.36,0.36,0.81,0.46
-7.7001953,-0.027641218,-0.071135506,0.01944658,0.37,0.8,0.47,21746,10085.30,0,0,2,-0.56,-1.33,2.94,0.37,0.80,0.47
-5.4003906,-0.031641215,-0.0771355,0.026446583,0.38,0.8,0.47,21761,10087.60,0,0,2,-0.84,-1.75,3.43,0.38,0.80,0.47
-6.4003906,-0.038641218,-0.0841355,0.039446585,0.38,0.8,0.47,21776,10086.60,0,0,2,-1.33,-2.24,4.34,0.38,0.80,0.47
-6.7001953,-0.05164122,-0.093135506,0.046446577,0.37,0.81,0.48,21790,10086.30,0,0,2,-2.24,-2.87,4.83,0.37,0.81,0.48
-4.7001953,-0.054641217,-0.09513551,0.045446582,0.38,0.81,0.48,21806,10088.30,0,0,2,-2.45,-3.01,4.76,0.38,0.81,0.48
-10.700195,-0.052641217,-0.096135505,0.04044658,0.38,0.82,0.48,21828,10082.30,0,0,2,-2.31,-3.08,4.41,0.38,0.82,0.48
-5.4003906,-0.037641216,-0.089135505,0.031446584,0.38,0.82,0.48,21842,10087.60,0,0,2,-1.26,-2.59,3.78,0.38,0.82,0.48
-5.4003906,-0.016641216,-0.0771355,0.02844658,0.38,0.81,0.48,21865,10087.60,0,0,2,0.21,-1.75,3.57,0.38,0.81,0.48
-6.4003906,-0.004641217,-0.07213551,0.02844658,0.38,0.81,0.48,21887,10086.60,0,0,2,1.05,-1.40,3.57,0.38,0.81,0.48
-6.4003906,0.0053587835,-0.067135505,0.034446582,0.38,0.81,0.48,21910,10086.60,0,0,2,1.75,-1.05,3.99,0.38,0.81,0.48
-3.2998047,0.017358784,-0.060135506,0.04144658,0.39,0.81,0.48,21933,10089.70,0,0,2,2.59,-0.56,4.48,0.39,0.81,0.48
-9.400391,0.022358783,-0.049135506,0.039446585,0.39,0.81,0.48,21948,10083.60,0,0,2,2.94,0.21,4.34,0.39,0.81,0.48
-5.7001953,0.015358783,-0.046135504,0.034446582,0.4,0.81,0.48,21971,10087.30,0,0,2,2.45,0.42,3.99,0.40,0.81,0.48
-4.7001953,0.0013587829,-0.048135504,0.027446581,0.4,0.8,0.48,21992,10088.30,0,0,2,1.47,0.28,3.50,0.40,0.80,0.48
-8.400391,-0.0056412164,-0.053135503,0.02344658,0.4,0.81,0.47,22008,10084.60,0,0,2,0.98,-0.07,3.22,0.40,0.81,0.47
-6.4003906,-0.0076412177,-0.060135506,0.0074465796,0.4,0.81,0.47,22030,10086.60,0,0,2,0.84,-0.56,2.10,0.40,0.81,0.47
-6.4003906,-0.009641217,-0.063135505,-0.006553419,0.4,0.8,0.47,22045,10086.60,0,0,2,0.70,-0.77,1.12,0.40,0.80,0.47
-6.4003906,-0.017641217,-0.06813551,-0.0155534195,0.4,0.8,0.48,22060,10086.60,0,0,2,0.14,-1.12,0.49,0.40,0.80,0.48
-3.7001953,-0.028641216,-0.0691355,-0.01955342,0.4,0.79,0.49,22075,10089.30,0,0,2,-0.63,-1.19,0.21,0.40,0.79,0.49
-6.4003906,-0.037641216,-0.07913551,-0.0155534195,0.4,0.8,0.49,22098,10086.60,0,0,2,-1.26,-1.89,0.49,0.40,0.80,0.49
-6.4003906,-0.04464122,-0.08613551,-0.009553419,0.4,0.8,0.49,22121,10086.60,0,0,2,-1.75,-2.38,0.91,0.40,0.80,0.49
-4.2998047,-0.04064122,-0.09413551,-0.01255342,0.38,0.8,0.49,22143,10088.70,0,0,2,-1.47,-2.94,0.70,0.38,0.80,0.49
-5.4003906,-0.04064122,-0.09513551,-0.02655342,0.37,0.82,0.49,22158,10087.60,0,0,2,-1.47,-3.01,-0.28,0.37,0.82,0.49
-6.7001953,-0.024641216,-0.08713551,-0.041553423,0.36,0.83,0.48,22182,10086.30,0,0,2,-0.35,-2.45,-1.33,0.36,0.83,0.48
-7.0,-0.003641216,-0.06513551,-0.05055342,0.36,0.82,0.48,22204,10086.00,0,0,2,1.12,-0.91,-1.96,0.36,0.82,0.48
-6.0,0.0103587825,-0.053135503,-0.05155342,0.36,0.81,0.48,22225,10087.00,0,0,2,2.10,-0.07,-2.03,0.36,0.81,0.48
-5.0,0.014358785,-0.048135504,-0.04755342,0.36,0.81,0.47,22248,10088.00,0,0,2,2.38,0.28,-1.75,0.36,0.81,0.47
-5.0,0.016358782,-0.039135505,-0.041553423,0.36,0.8,0.47,22263,10088.00,0,0,2,2.52,0.91,-1.33,0.36,0.80,0.47
-7.4003906,0.020358782,-0.035135504,0.23244658,0.38,0.79,0.47,22278,10085.60,0,0,2,2.80,1.19,17.85,0.38,0.79,0.47
-6.4003906,0.013358783,-0.034135506,-0.00155342,0.39,0.79,0.48,22293,10086.60,0,0,2,2.31,1.26,1.47,0.39,0.79,0.48
-6.0,3.587827E-4,-0.048135504,0.009446582,0.39,0.79,0.48,22308,10087.00,0,0,2,1.40,0.28,2.24,0.39,0.79,0.48
-4.0,-0.012641217,-0.070135504,0.01244658,0.38,0.8,0.48,22324,10089.00,0,0,2,0.49,-1.26,2.45,0.38,0.80,0.48
-5.0,-6.412156E-4,-0.08313551,0.005446581,0.36,0.83,0.47,22345,10088.00,0,0,2,1.33,-2.17,1.96,0.36,0.83,0.47
-5.4003906,0.033358783,-0.063135505,-0.0045534205,0.36,0.82,0.46,22368,10087.60,0,0,2,3.71,-0.77,1.26,0.36,0.82,0.46
-5.4003906,0.048358787,-0.044135503,-0.008553419,0.37,0.8,0.48,22391,10087.60,0,0,2,4.76,0.56,0.98,0.37,0.80,0.48
-6.4003906,0.027358782,-0.030135505,0.005446581,0.38,0.8,0.48,22412,10086.60,0,0,2,3.29,1.54,1.96,0.38,0.80,0.48
-4.7001953,0.002358783,-0.025135504,0.013446579,0.37,0.81,0.48,22435,10088.30,0,0,2,1.54,1.89,2.52,0.37,0.81,0.48
-6.7001953,-0.003641216,-0.025135504,0.005446581,0.36,0.83,0.46,22465,10086.30,0,0,2,1.12,1.89,1.96,0.36,0.83,0.46
-5.0,0.008358784,-0.019135505,-0.0155534195,0.36,0.84,0.46,22473,10088.00,0,0,2,1.96,2.31,0.49,0.36,0.84,0.46
-5.0,0.032358784,-0.009135503,-0.02055342,0.36,0.83,0.46,22496,10088.00,0,0,2,3.64,3.01,0.14,0.36,0.83,0.46
-5.0,0.035358783,-0.009135503,-0.01355342,0.37,0.82,0.46,22511,10088.00,0,0,2,3.85,3.01,0.63,0.37,0.82,0.46
-6.0,0.034358785,-0.011135507,-0.0045534205,0.36,0.81,0.46,22533,10087.00,0,0,2,3.78,2.87,1.26,0.36,0.81,0.46
0.0,0.032358784,-0.020135503,0.0024465807,0.36,0.81,0.45,22555,10093.00,0,0,2,3.64,2.24,1.75,0.36,0.81,0.45
-6.0,0.029358786,-0.033135504,0.005446581,0.35,0.83,0.45,22563,10087.00,0,0,2,3.43,1.33,1.96,0.35,0.83,0.45
-5.4003906,0.029358786,-0.038135506,0.0024465807,0.35,0.83,0.44,22579,10087.60,0,0,2,3.43,0.98,1.75,0.35,0.83,0.44
-6.0,0.03835878,-0.032135505,0.008446582,0.36,0.82,0.44,22601,10087.00,0,0,2,4.06,1.40,2.17,0.36,0.82,0.44
-4.0,0.05235878,-0.018135503,0.039446585,0.37,0.8,0.44,22623,10089.00,0,0,2,5.04,2.38,4.34,0.37,0.80,0.44
-11.099609,0.039358784,-0.010135505,0.07444658,0.38,0.79,0.45,22639,10081.90,0,0,3,4.13,2.94,6.79,0.38,0.79,0.45
-6.4003906,0.0113587845,-0.019135505,0.09444657,0.37,0.81,0.45,22662,10086.60,0,0,3,2.17,2.31,8.19,0.37,0.81,0.45
-4.7001953,-0.002641216,-0.026135504,0.07944658,0.37,0.84,0.44,22682,10088.30,0,0,3,1.19,1.82,7.14,0.37,0.84,0.44
-7.0,0.0063587837,-0.016135506,0.05844658,0.39,0.82,0.45,22707,10086.00,0,0,3,1.82,2.52,5.67,0.39,0.82,0.45
-6.0,-0.004641217,-0.011135507,0.05244658,0.4,0.81,0.46,22729,10087.00,0,0,3,1.05,2.87,5.25,0.40,0.81,0.46
-5.7001953,-0.022641217,-0.021135503,0.045446582,0.4,0.81,0.46,22752,10087.30,0,0,3,-0.21,2.17,4.76,0.40,0.81,0.46
-5.7001953,-0.025641216,-0.032135505,0.042446584,0.4,0.81,0.46,22766,10087.30,0,0,3,-0.42,1.40,4.55,0.40,0.81,0.46
-5.0,-0.038641218,-0.045135505,0.035446577,0.41,0.81,0.46,22781,10088.00,0,0,3,-1.33,0.49,4.06,0.41,0.81,0.46
-6.0,-0.04464122,-0.059135504,0.024446579,0.41,0.8,0.46,22797,10087.00,0,0,3,-1.75,-0.49,3.29,0.41,0.80,0.46
-6.0,-0.043641217,-0.067135505,0.01744658,0.41,0.8,0.46,22811,10087.00,0,0,3,-1.68,-1.05,2.80,0.41,0.80,0.46
-4.7001953,-0.034641217,-0.0731355,0.015446583,0.42,0.8,0.47,22833,10088.30,0,0,3,-1.05,-1.47,2.66,0.42,0.80,0.47
-8.099609,-0.030641217,-0.081135504,0.011446582,0.42,0.8,0.47,22849,10084.90,0,0,3,-0.77,-2.03,2.38,0.42,0.80,0.47
-4.7001953,-0.036641218,-0.0911355,0.0024465807,0.42,0.8,0.48,22871,10088.30,0,0,3,-1.19,-2.73,1.75,0.42,0.80,0.48
-6.4003906,-0.038641218,-0.09713551,4.4658035E-4,0.41,0.81,0.48,22894,10086.60,0,0,3,-1.33,-3.15,1.61,0.41,0.81,0.48
-5.0,-0.035641216,-0.093135506,-0.014553419,0.41,0.8,0.48,22916,10088.00,0,0,3,-1.12,-2.87,0.56,0.41,0.80,0.48
-4.7001953,-0.028641216,-0.078135505,-0.02355342,0.41,0.8,0.49,22939,10088.30,0,0,3,-0.63,-1.82,-0.07,0.41,0.80,0.49
-6.0,-0.035641216,-0.067135505,-0.031553417,0.41,0.79,0.49,22962,10087.00,0,0,3,-1.12,-1.05,-0.63,0.41,0.79,0.49
-4.7001953,-0.04064122,-0.0661355,-0.04355342,0.4,0.79,0.49,22976,10088.30,0,0,3,-1.47,-0.98,-1.47,0.40,0.79,0.49
-4.7001953,-0.036641218,-0.070135504,-0.057553418,0.39,0.81,0.48,22998,10088.30,0,0,3,-1.19,-1.26,-2.45,0.39,0.81,0.48
-5.7001953,-0.025641216,-0.07213551,-0.07455342,0.39,0.82,0.47,23012,10087.30,0,0,3,-0.42,-1.40,-3.64,0.39,0.82,0.47
-4.7001953,-6.412156E-4,-0.0731355,-0.08555342,0.38,0.83,0.46,23027,10088.30,0,0,3,1.33,-1.47,-4.41,0.38,0.83,0.46
-8.700195,0.015358783,-0.0761355,-0.090553425,0.38,0.82,0.47,23050,10084.30,0,0,3,2.45,-1.68,-4.76,0.38,0.82,0.47
-6.0,0.019358784,-0.08013551,-0.08755343,0.37,0.81,0.46,23065,10087.00,0,0,3,2.73,-1.96,-4.55,0.37,0.81,0.46
-5.0,0.018358786,-0.08613551,-0.08455342,0.35,0.82,0.45,23080,10088.00,0,0,3,2.66,-2.38,-4.34,0.35,0.82,0.45
-2.7001953,0.008358784,-0.08313551,-0.07455342,0.35,0.82,0.45,23103,10090.30,0,0,3,1.96,-2.17,-3.64,0.35,0.82,0.45
-6.7001953,-6.412156E-4,-0.06413551,-0.059553422,0.35,0.82,0.46,23126,10086.30,0,0,3,1.33,-0.84,-2.59,0.35,0.82,0.46
-5.4003906,-0.0016412176,-0.041135505,-0.03855342,0.34,0.84,0.45,23141,10087.60,0,0,3,1.26,0.77,-1.12,0.34,0.84,0.45
-4.7001953,-0.0066412166,-0.027135504,-0.03355342,0.34,0.84,0.46,23163,10088.30,0,0,3,0.91,1.75,-0.77,0.34,0.84,0.46
-4.7001953,-0.009641217,-0.018135503,-0.03355342,0.34,0.84,0.45,23185,10088.30,0,0,3,0.70,2.38,-0.77,0.34,0.84,0.45
-4.7001953,-0.004641217,-0.010135505,-0.02455342,0.34,0.83,0.44,23208,10088.30,0,0,3,1.05,2.94,-0.14,0.34,0.83,0.44
-5.7001953,-6.412156E-4,-0.007135503,-0.00755342,0.34,0.83,0.44,23230,10087.30,0,0,3,1.33,3.15,1.05,0.34,0.83,0.44
-4.7001953,0.0063587837,-0.010135505,0.01044658,0.34,0.83,0.44,23245,10088.30,0,0,3,1.82,2.94,2.31,0.34,0.83,0.44
-3.7001953,0.007358784,-0.011135507,0.024446579,0.34,0.82,0.44,23267,10089.30,0,0,3,1.89,2.87,3.29,0.34,0.82,0.44
-5.7001953,0.0063587837,-0.010135505,0.04044658,0.35,0.82,0.44,23282,10087.30,0,0,3,1.82,2.94,4.41,0.35,0.82,0.44
-4.7001953,0.0013587829,-0.010135505,0.06444658,0.36,0.81,0.45,23298,10088.30,0,0,3,1.47,2.94,6.09,0.36,0.81,0.45
-4.7001953,-0.008641217,-0.012135506,0.08144658,0.37,0.8,0.46,23313,10088.30,0,0,3,0.77,2.80,7.28,0.37,0.80,0.46
-4.4003906,-0.026641216,-0.017135505,0.08844658,0.37,0.81,0.46,23335,10088.60,0,0,3,-0.49,2.45,7.77,0.37,0.81,0.46
-2.7001953,-0.047641218,-0.027135504,0.08144658,0.37,0.83,0.45,23350,10090.30,0,0,3,-1.96,1.75,7.28,0.37,0.83,0.45
-8.700195,-0.047641218,-0.034135506,0.054446578,0.37,0.84,0.45,23373,10084.30,0,0,3,-1.96,1.26,5.39,0.37,0.84,0.45
-6.0,-0.039641216,-0.042135507,0.038446583,0.38,0.83,0.45,23395,10087.00,0,0,3,-1.40,0.70,4.27,0.38,0.83,0.45
-5.4003906,-0.034641217,-0.046135504,0.03744658,0.38,0.82,0.46,23418,10087.60,0,0,3,-1.05,0.42,4.20,0.38,0.82,0.46
-7.4003906,-0.035641216,-0.054135505,0.035446577,0.39,0.82,0.46,23433,10085.60,0,0,3,-1.12,-0.14,4.06,0.39,0.82,0.46
-4.7001953,-0.035641216,-0.06413551,0.024446579,0.39,0.82,0.46,23456,10088.30,0,0,3,-1.12,-0.84,3.29,0.39,0.82,0.46
-5.4003906,-0.031641215,-0.074135505,0.018446578,0.39,0.81,0.47,23478,10087.60,0,0,3,-0.84,-1.54,2.87,0.39,0.81,0.47
-5.7001953,-0.034641217,-0.07913551,0.022446582,0.39,0.81,0.47,23500,10087.30,0,0,3,-1.05,-1.89,3.15,0.39,0.81,0.47
-4.4003906,-0.03364122,-0.0771355,0.01744658,0.39,0.81,0.48,23516,10088.60,0,0,3,-0.98,-1.75,2.80,0.39,0.81,0.48
-4.7001953,-0.037641216,-0.0771355,0.0034465808,0.39,0.8,0.49,23531,10088.30,0,0,3,-1.26,-1.75,1.82,0.39,0.80,0.49
-4.0,-0.043641217,-0.07213551,-0.0025534201,0.39,0.8,0.49,23546,10089.00,0,0,3,-1.68,-1.40,1.40,0.39,0.80,0.49
-4.7001953,-0.047641218,-0.06813551,-0.01155342,0.38,0.8,0.48,23560,10088.30,0,0,3,-1.96,-1.12,0.77,0.38,0.80,0.48
-4.7001953,-0.039641216,-0.060135506,-0.01155342,0.38,0.81,0.48,23583,10088.30,0,0,3,-1.40,-0.56,0.77,0.38,0.81,0.48
-5.4003906,-0.029641217,-0.050135504,-0.018553419,0.37,0.8,0.48,23598,10087.60,0,0,3,-0.70,0.14,0.28,0.37,0.80,0.48
-9.700195,-0.023641217,-0.025135504,-0.0045534205,0.38,0.77,0.49,23620,10083.30,0,0,3,-0.28,1.89,1.26,0.38,0.77,0.49
-5.7001953,-0.030641217,-0.004135508,0.022446582,0.39,0.76,0.5,23642,10087.30,0,0,3,-0.77,3.36,3.15,0.39,0.76,0.50
-4.4003906,-0.047641218,0.007864494,0.046446577,0.4,0.78,0.51,23666,10088.60,0,0,3,-1.96,4.20,4.83,0.40,0.78,0.51
-5.7001953,-0.052641217,0.0068644956,0.04444658,0.39,0.8,0.5,23689,10087.30,0,0,3,-2.31,4.13,4.69,0.39,0.80,0.50
-4.4003906,-0.047641218,0.0058644935,0.015446583,0.38,0.82,0.5,23711,10088.60,0,0,3,-1.96,4.06,2.66,0.38,0.82,0.50
-5.4003906,-0.031641215,0.0068644956,-0.01655342,0.37,0.83,0.49,23733,10087.60,0,0,3,-0.84,4.13,0.42,0.37,0.83,0.49
-4.4003906,-0.0066412166,0.011864498,-0.031553417,0.36,0.83,0.49,23747,10088.60,0,0,3,0.91,4.48,-0.63,0.36,0.83,0.49
0.40039062,0.0033587832,0.013864495,-0.03455342,0.36,0.83,0.49,23763,10093.40,0,0,3,1.61,4.62,-0.84,0.36,0.83,0.49
-5.7001953,0.015358783,0.0128645,-0.02755342,0.35,0.83,0.48,23792,10087.30,0,0,3,2.45,4.55,-0.35,0.35,0.83,0.48
-4.7001953,0.026358783,0.016864493,-0.018553419,0.35,0.82,0.47,23800,10088.30,0,0,3,3.22,4.83,0.28,0.35,0.82,0.47
-4.4003906,0.029358786,0.016864493,0.0074465796,0.36,0.8,0.48,23815,10088.60,0,0,3,3.43,4.83,2.10,0.36,0.80,0.48
-4.7001953,0.019358784,0.007864494,0.029446581,0.37,0.79,0.49,23830,10088.30,0,0,3,2.73,4.20,3.64,0.37,0.79,0.49
-1.2998047,0.0103587825,-0.0011355057,0.061446577,0.38,0.79,0.49,23854,10091.70,0,0,3,2.10,3.57,5.88,0.38,0.79,0.49
-4.4003906,0.002358783,-0.010135505,0.07544658,0.38,0.8,0.48,23876,10088.60,0,0,3,1.54,2.94,6.86,0.38,0.80,0.48
-4.4003906,0.0033587832,-0.018135503,0.07644658,0.39,0.8,0.48,23891,10088.60,0,0,3,1.61,2.38,6.93,0.39,0.80,0.48
-5.4003906,0.0043587815,-0.030135505,0.06344658,0.37,0.81,0.48,23914,10087.60,0,0,3,1.68,1.54,6.02,0.37,0.81,0.48
-5.4003906,0.02135878,-0.032135505,0.03744658,0.37,0.82,0.47,23936,10087.60,0,0,3,2.87,1.40,4.20,0.37,0.82,0.47
-5.4003906,0.041358784,-0.021135503,0.024446579,0.37,0.81,0.48,23959,10087.60,0,0,3,4.27,2.17,3.29,0.37,0.81,0.48
-5.4003906,0.042358786,-0.013135504,0.016446581,0.37,0.8,0.48,23981,10087.60,0,0,3,4.34,2.73,2.73,0.37,0.80,0.48
-3.4003906,0.026358783,-0.011135507,0.013446579,0.38,0.8,0.48,24003,10089.60,0,0,3,3.22,2.87,2.52,0.38,0.80,0.48
-4.4003906,0.012358785,-0.014135502,0.02344658,0.38,0.8,0.48,24018,10088.60,0,0,3,2.24,2.66,3.22,0.38,0.80,0.48
-5.4003906,0.0043587815,-0.020135503,0.03044658,0.38,0.81,0.48,24034,10087.60,0,0,3,1.68,2.24,3.71,0.38,0.81,0.48
-4.4003906,0.0103587825,-0.024135504,0.035446577,0.38,0.82,0.47,24048,10088.60,0,0,3,2.10,1.96,4.06,0.38,0.82,0.47
-10.400391,0.015358783,-0.029135505,0.03344658,0.39,0.82,0.47,24063,10082.60,0,0,3,2.45,1.61,3.92,0.39,0.82,0.47
-4.4003906,0.02135878,-0.029135505,0.031446584,0.39,0.81,0.47,24085,10088.60,0,0,3,2.87,1.61,3.78,0.39,0.81,0.47
-4.4003906,0.029358786,-0.036135502,0.029446581,0.39,0.82,0.47,24101,10088.60,0,0,3,3.43,1.12,3.64,0.39,0.82,0.47
-5.4003906,0.032358784,-0.046135504,0.027446581,0.38,0.81,0.47,24131,10087.60,0,0,3,3.64,0.42,3.50,0.38,0.81,0.47
-4.4003906,0.033358783,-0.051135506,0.015446583,0.38,0.82,0.47,24146,10088.60,0,0,3,3.71,0.07,2.66,0.38,0.82,0.47
-4.0,0.034358785,-0.048135504,0.004446581,0.37,0.82,0.47,24168,10089.00,0,0,3,3.78,0.28,1.89,0.37,0.82,0.47
-5.0,0.039358784,-0.036135502,-0.0025534201,0.37,0.81,0.46,24190,10088.00,0,0,3,4.13,1.12,1.40,0.37,0.81,0.46
-4.0,0.034358785,-0.032135505,0.005446581,0.38,0.81,0.46,24206,10089.00,0,0,3,3.78,1.40,1.96,0.38,0.81,0.46
-5.0,0.02835878,-0.028135506,0.009446582,0.37,0.8,0.46,24228,10088.00,0,0,3,3.36,1.68,2.24,0.37,0.80,0.46
-1.0,0.020358782,-0.023135506,0.02344658,0.37,0.8,0.46,24251,10092.00,0,0,3,2.80,2.03,3.22,0.37,0.80,0.46
-9.099609,0.0063587837,-0.022135505,0.031446584,0.37,0.8,0.47,24266,10083.90,0,0,3,1.82,2.10,3.78,0.37,0.80,0.47
-4.0,-0.012641217,-0.021135503,0.046446577,0.37,0.79,0.47,24281,10089.00,0,0,3,0.49,2.17,4.83,0.37,0.79,0.47
-4.0,-0.038641218,-0.032135505,0.06744658,0.37,0.79,0.47,24303,10089.00,0,0,3,-1.33,1.40,6.30,0.37,0.79,0.47
-3.0,-0.05764122,-0.030135505,0.07544658,0.36,0.8,0.47,24317,10090.00,0,0,3,-2.66,1.54,6.86,0.36,0.80,0.47
-4.0,-0.07464121,-0.018135503,0.09144658,0.36,0.81,0.47,24333,10089.00,0,0,3,-3.85,2.38,7.98,0.36,0.81,0.47
-4.0,-0.083641216,-0.009135503,0.12144657,0.37,0.8,0.46,24356,10089.00,0,0,3,-4.48,3.01,10.08,0.37,0.80,0.46
-4.0,-0.06964122,-0.012135506,0.14144658,0.38,0.8,0.48,24379,10089.00,0,0,3,-3.50,2.80,11.48,0.38,0.80,0.48
-4.0,-0.06264122,-0.012135506,0.14444658,0.39,0.79,0.47,24393,10089.00,0,0,3,-3.01,2.80,11.69,0.39,0.79,0.47
-4.0,-0.047641218,-0.0051355064,0.15344658,0.41,0.79,0.46,24416,10089.00,0,0,3,-1.96,3.29,12.32,0.41,0.79,0.46
-5.0,-0.27464122,-0.032135505,0.16544658,0.42,0.79,0.45,24447,10088.00,0,0,3,-17.85,1.40,13.16,0.42,0.79,0.45
-4.0,-0.014641217,-0.011135507,0.15844658,0.43,0.79,0.46,24460,10089.00,0,0,3,0.35,2.87,12.67,0.43,0.79,0.46
-4.0,-0.024641216,-0.038135506,0.13044658,0.44,0.79,0.47,24490,10089.00,0,0,3,-0.35,0.98,10.71,0.44,0.79,0.47
-1.0,-0.05164122,-0.0691355,0.097446576,0.44,0.79,0.48,24505,10092.00,0,0,3,-2.24,-1.19,8.40,0.44,0.79,0.48
-4.0,-0.06464122,-0.081135504,0.07644658,0.43,0.79,0.49,24521,10089.00,0,0,3,-3.15,-2.03,6.93,0.43,0.79,0.49
-4.0,-0.08164122,-0.09513551,0.06944658,0.43,0.78,0.49,24550,10089.00,0,0,3,-4.34,-3.01,6.44,0.43,0.78,0.49
-4.0,-0.09264122,-0.10113551,0.053446583,0.42,0.78,0.5,24551,10089.00,0,0,3,-5.11,-3.43,5.32,0.42,0.78,0.50
-1.7001953,-0.11164121,-0.078135505,0.03344658,0.41,0.78,0.5,24565,10091.30,0,0,3,-6.44,-1.82,3.92,0.41,0.78,0.50
-4.0,-0.11564121,-0.06813551,0.008446582,0.41,0.78,0.5,24587,10089.00,0,0,3,-6.72,-1.12,2.17,0.41,0.78,0.50
-4.0,-0.12664121,-0.06813551,-5.534198E-4,0.4,0.78,0.5,24603,10089.00,0,0,3,-7.49,-1.12,1.54,0.40,0.78,0.50
-3.0,-0.12264122,-0.085135505,0.0024465807,0.39,0.8,0.49,24625,10090.00,0,0,3,-7.21,-2.31,1.75,0.39,0.80,0.49
-3.0,-0.09964122,-0.085135505,-0.00755342,0.4,0.79,0.49,24647,10090.00,0,0,3,-5.60,-2.31,1.05,0.40,0.79,0.49
-3.7001953,-0.09364122,-0.078135505,-0.01255342,0.42,0.78,0.49,24670,10089.30,0,0,3,-5.18,-1.82,0.70,0.42,0.78,0.49
-4.0,-0.09964122,-0.08713551,-0.01155342,0.43,0.76,0.5,24707,10089.00,0,0,3,-5.60,-2.45,0.77,0.43,0.76,0.50
-2.7001953,-0.109641224,-0.1241355,0.0064465795,0.43,0.77,0.5,24710,10090.30,0,0,3,-6.30,-5.04,2.03,0.43,0.77,0.50
-2.7001953,-0.11064121,-0.1481355,0.02144658,0.42,0.78,0.51,24730,10090.30,0,0,3,-6.37,-6.72,3.08,0.42,0.78,0.51
-5.0,-0.10364121,-0.1571355,0.024446579,0.42,0.78,0.51,24745,10088.00,0,0,3,-5.88,-7.35,3.29,0.42,0.78,0.51
-3.7001953,-0.08664122,-0.15313551,0.009446582,0.42,0.78,0.51,24768,10089.30,0,0,3,-4.69,-7.07,2.24,0.42,0.78,0.51
-3.7001953,-0.07364122,-0.13113551,-0.01355342,0.41,0.78,0.51,24783,10089.30,0,0,3,-3.78,-5.53,0.63,0.41,0.78,0.51
-7.7001953,-0.06464122,-0.13813551,-0.02355342,0.41,0.78,0.51,24805,10085.30,0,0,3,-3.15,-6.02,-0.07,0.41,0.78,0.51
-3.7001953,-0.055641215,-0.1521355,-0.02655342,0.41,0.78,0.51,24813,10089.30,0,0,3,-2.52,-7.00,-0.28,0.41,0.78,0.51
-4.7001953,-0.05364122,-0.1491355,-0.035553418,0.42,0.77,0.5,24827,10088.30,0,0,3,-2.38,-6.79,-0.91,0.42,0.77,0.50
-3.0,-0.061641216,-0.15013552,-0.035553418,0.42,0.78,0.5,24850,10090.00,0,0,3,-2.94,-6.86,-0.91,0.42,0.78,0.50
2.4003906,-0.047641218,-0.1511355,-0.028553419,0.42,0.77,0.49,24881,10095.40,0,0,3,-1.96,-6.93,-0.42,0.42,0.77,0.49
-1.7001953,-0.035641216,-0.1471355,-0.01355342,0.42,0.78,0.48,24895,10091.30,0,0,3,-1.12,-6.65,0.63,0.42,0.78,0.48
-4.7001953,-0.034641217,-0.1561355,-0.02655342,0.42,0.78,0.49,24919,10088.30,0,0,3,-1.05,-7.28,-0.28,0.42,0.78,0.49
-2.4003906,-0.046641216,-0.1711355,-0.03255342,0.43,0.77,0.49,24934,10090.60,0,0,3,-1.89,-8.33,-0.70,0.43,0.77,0.49
-3.7001953,-0.06464122,-0.16413552,-0.03755342,0.42,0.78,0.49,24955,10089.30,0,0,3,-3.15,-7.84,-1.05,0.42,0.78,0.49
-2.7001953,-0.056641217,-0.1631355,-0.05355342,0.42,0.79,0.48,24977,10090.30,0,0,3,-2.59,-7.77,-2.17,0.42,0.79,0.48
-3.4003906,-0.032641217,-0.1561355,-0.06955342,0.43,0.79,0.48,25000,10089.60,0,0,3,-0.91,-7.28,-3.29,0.43,0.79,0.48
-3.7001953,-0.024641216,-0.1711355,-0.06855342,0.43,0.77,0.49,25015,10089.30,0,0,3,-0.35,-8.33,-3.22,0.43,0.77,0.49
-2.4003906,-0.037641216,-0.17813551,-0.06555342,0.43,0.77,0.5,25030,10090.60,0,0,3,-1.26,-8.82,-3.01,0.43,0.77,0.50
-1.7001953,-0.05364122,-0.1791355,-0.06755342,0.43,0.78,0.49,25045,10091.30,0,0,3,-2.38,-8.89,-3.15,0.43,0.78,0.49
-2.4003906,-0.06364122,-0.1711355,-0.071553424,0.42,0.78,0.49,25060,10090.60,0,0,3,-3.08,-8.33,-3.43,0.42,0.78,0.49
-3.0,-0.061641216,-0.14613551,-0.070553415,0.42,0.79,0.49,25083,10090.00,0,0,3,-2.94,-6.58,-3.36,0.42,0.79,0.49
-1.7001953,-0.05164122,-0.18013552,-0.07755342,0.42,0.79,0.49,25106,10091.30,0,0,3,-2.24,-8.96,-3.85,0.42,0.79,0.49
-3.4003906,-0.06564122,-0.1211355,-0.09355342,0.41,0.79,0.5,25127,10089.60,0,0,3,-3.22,-4.83,-4.97,0.41,0.79,0.50
-3.4003906,-0.041641217,-0.122135505,-0.09155342,0.41,0.78,0.49,25143,10089.60,0,0,3,-1.54,-4.90,-4.83,0.41,0.78,0.49
-2.4003906,-0.046641216,-0.100135505,-0.090553425,0.41,0.77,0.49,25166,10090.60,0,0,3,-1.89,-3.36,-4.76,0.41,0.77,0.49
-3.0,-0.05364122,-0.0991355,-0.08155342,0.41,0.78,0.49,25188,10090.00,0,0,3,-2.38,-3.29,-4.13,0.41,0.78,0.49
-2.4003906,-0.054641217,-0.114135504,-0.06755342,0.41,0.78,0.49,25210,10090.60,0,0,3,-2.45,-4.34,-3.15,0.41,0.78,0.49
-2.4003906,-0.05164122,-0.1101355,-0.05855342,0.41,0.78,0.49,25225,10090.60,0,0,3,-2.24,-4.06,-2.52,0.41,0.78,0.49
-3.7001953,-0.055641215,-0.10113551,-0.05555342,0.4,0.78,0.5,25255,10089.30,0,0,3,-2.52,-3.43,-2.31,0.40,0.78,0.50
-3.7001953,-0.05364122,-0.10113551,-0.057553418,0.4,0.78,0.5,25262,10089.30,0,0,3,-2.38,-3.43,-2.45,0.40,0.78,0.50
-2.7001953,-0.05164122,-0.0911355,-0.048553422,0.4,0.78,0.5,25285,10090.30,0,0,3,-2.24,-2.73,-1.82,0.40,0.78,0.50
-3.7001953,-0.045641217,-0.08313551,-0.04555342,0.4,0.78,0.5,25300,10089.30,0,0,3,-1.82,-2.17,-1.61,0.40,0.78,0.50
-3.0,-0.042641215,-0.0761355,-0.04355342,0.4,0.78,0.5,25315,10090.00,0,0,3,-1.61,-1.68,-1.47,0.40,0.78,0.50
-3.0,-0.046641216,-0.0761355,-0.042553417,0.4,0.78,0.5,25331,10090.00,0,0,3,-1.89,-1.68,-1.40,0.40,0.78,0.50
-2.4003906,-0.043641217,-0.0771355,-0.035553418,0.4,0.78,0.5,25352,10090.60,0,0,3,-1.68,-1.75,-0.91,0.40,0.78,0.50
-1.7001953,-0.035641216,-0.08013551,-0.03455342,0.4,0.79,0.5,25375,10091.30,0,0,3,-1.12,-1.96,-0.84,0.40,0.79,0.50
0.7001953,-0.030641217,-0.0761355,-0.03255342,0.4,0.79,0.5,25398,10093.70,0,0,3,-0.77,-1.68,-0.70,0.40,0.79,0.50
-2.7001953,-0.020641217,-0.06813551,-0.03355342,0.4,0.79,0.5,25413,10090.30,0,0,3,-0.07,-1.12,-0.77,0.40,0.79,0.50
-2.7001953,-0.014641217,-0.06413551,-0.03255342,0.39,0.79,0.5,25437,10090.30,0,0,3,0.35,-0.84,-0.70,0.39,0.79,0.50
-2.4003906,-0.012641217,-0.062135503,-0.03355342,0.4,0.79,0.5,25458,10090.60,0,0,3,0.49,-0.70,-0.77,0.40,0.79,0.50
-5.0996094,-0.0076412177,-0.06413551,-0.03755342,0.4,0.79,0.5,25488,10087.90,0,0,3,0.84,-0.84,-1.05,0.40,0.79,0.50
-3.0,-0.002641216,-0.0691355,-0.042553417,0.4,0.79,0.49,25503,10090.00,0,0,3,1.19,-1.19,-1.40,0.40,0.79,0.49
-2.7001953,-0.004641217,-0.071135506,-0.03355342,0.4,0.78,0.5,25519,10090.30,0,0,3,1.05,-1.33,-0.77,0.40,0.78,0.50
-3.4003906,-0.003641216,-0.078135505,-0.03055342,0.4,0.78,0.49,25534,10089.60,0,0,3,1.12,-1.82,-0.56,0.40,0.78,0.49
-2.0,-0.002641216,-0.08013551,-0.02755342,0.4,0.79,0.49,25549,10091.00,0,0,3,1.19,-1.96,-0.35,0.40,0.79,0.49
-2.4003906,-0.0016412176,-0.078135505,-0.02555342,0.4,0.79,0.49,25563,10090.60,0,0,3,1.26,-1.82,-0.21,0.40,0.79,0.49
-2.7001953,-0.0016412176,-0.07513551,-0.02655342,0.4,0.78,0.49,25578,10090.30,0,0,3,1.26,-1.61,-0.28,0.40,0.78,0.49
0.0,-0.011641216,-0.0761355,-0.02555342,0.39,0.78,0.49,25601,10093.00,0,0,3,0.56,-1.68,-0.21,0.39,0.78,0.49
-2.4003906,-0.015641216,-0.0771355,-0.018553419,0.39,0.79,0.49,25623,10090.60,0,0,3,0.28,-1.75,0.28,0.39,0.79,0.49
2.0,-0.016641216,-0.07913551,-0.02255342,0.39,0.79,0.49,25654,10095.00,0,0,3,0.21,-1.89,0.00,0.39,0.79,0.49
-2.0,-0.021641217,-0.0761355,-0.0155534195,0.39,0.79,0.49,25660,10091.00,0,0,3,-0.14,-1.68,0.49,0.39,0.79,0.49
-3.7001953,-0.026641216,-0.07513551,-0.00755342,0.4,0.78,0.49,25682,10089.30,0,0,3,-0.49,-1.61,1.05,0.40,0.78,0.49
-2.4003906,-0.034641217,-0.082135506,4.4658035E-4,0.39,0.79,0.49,25706,10090.60,0,0,3,-1.05,-2.10,1.61,0.39,0.79,0.49
-2.4003906,-0.034641217,-0.08313551,0.0014465787,0.39,0.79,0.48,25728,10090.60,0,0,3,-1.05,-2.17,1.68,0.39,0.79,0.48
-3.4003906,-0.032641217,-0.078135505,0.005446581,0.39,0.78,0.49,25751,10089.60,0,0,3,-0.91,-1.82,1.96,0.39,0.78,0.49
-4.4003906,-0.030641217,-0.078135505,0.01244658,0.4,0.78,0.49,25766,10088.60,0,0,3,-0.77,-1.82,2.45,0.40,0.78,0.49
-2.0,-0.037641216,-0.078135505,0.013446579,0.4,0.78,0.49,25780,10091.00,0,0,3,-1.26,-1.82,2.52,0.40,0.78,0.49
-1.0,-0.047641218,-0.0761355,0.015446583,0.41,0.78,0.5,25796,10092.00,0,0,3,-1.96,-1.68,2.66,0.41,0.78,0.50
-3.0,-0.049641214,-0.07513551,0.022446582,0.41,0.79,0.49,25811,10090.00,0,0,3,-2.10,-1.61,3.15,0.41,0.79,0.49
-2.7001953,-0.04464122,-0.06813551,0.026446583,0.41,0.79,0.49,25832,10090.30,0,0,3,-1.75,-1.12,3.43,0.41,0.79,0.49
-3.0,-0.035641216,-0.06513551,0.026446583,0.4,0.79,0.49,25848,10090.00,0,0,3,-1.12,-0.91,3.43,0.40,0.79,0.49
-2.0,-0.025641216,-0.056135505,0.025446577,0.41,0.78,0.5,25870,10091.00,0,0,3,-0.42,-0.28,3.36,0.41,0.78,0.50
-3.0,-0.027641218,-0.047135506,0.024446579,0.42,0.77,0.5,25892,10090.00,0,0,3,-0.56,0.35,3.29,0.42,0.77,0.50
-3.0,-0.036641218,-0.059135504,0.027446581,0.42,0.77,0.5,25922,10090.00,0,0,3,-1.19,-0.49,3.50,0.42,0.77,0.50
-1.2998047,-0.038641218,-0.0731355,0.02144658,0.42,0.77,0.5,25938,10091.70,0,0,3,-1.33,-1.47,3.08,0.42,0.77,0.50
-2.4003906,-0.036641218,-0.08613551,0.009446582,0.43,0.77,0.51,25953,10090.60,0,0,3,-1.19,-2.38,2.24,0.43,0.77,0.51
-1.7001953,-0.03364122,-0.08613551,0.0064465795,0.43,0.77,0.51,25976,10091.30,0,0,3,-0.98,-2.38,2.03,0.43,0.77,0.51
-3.0,-0.031641215,-0.08613551,0.009446582,0.43,0.77,0.51,25998,10090.00,0,0,3,-0.84,-2.38,2.24,0.43,0.77,0.51
-2.0,-0.024641216,-0.0841355,0.0014465787,0.42,0.77,0.51,26013,10091.00,0,0,3,-0.35,-2.24,1.68,0.42,0.77,0.51
-2.7001953,-0.027641218,-0.07913551,-0.01155342,0.42,0.77,0.52,26027,10090.30,0,0,3,-0.56,-1.89,0.77,0.42,0.77,0.52
-2.0,-0.031641215,-0.0691355,-0.0155534195,0.42,0.76,0.51,26043,10091.00,0,0,3,-0.84,-1.19,0.49,0.42,0.76,0.51
-2.0,-0.034641217,-0.06413551,-0.01355342,0.43,0.76,0.51,26065,10091.00,0,0,3,-1.05,-0.84,0.63,0.43,0.76,0.51
1.0,-0.035641216,-0.06513551,-0.01155342,0.43,0.76,0.51,26080,10094.00,0,0,3,-1.12,-0.91,0.77,0.43,0.76,0.51
-3.0,-0.039641216,-0.07513551,-0.02055342,0.42,0.77,0.51,26111,10090.00,0,0,3,-1.40,-1.61,0.14,0.42,0.77,0.51
-2.7001953,-0.038641218,-0.085135505,-0.03755342,0.42,0.77,0.51,26117,10090.30,0,0,3,-1.33,-2.31,-1.05,0.42,0.77,0.51
-6.7001953,-0.032641217,-0.09713551,-0.04755342,0.42,0.78,0.51,26140,10086.30,0,0,3,-0.91,-3.15,-1.75,0.42,0.78,0.51
-2.7001953,-0.025641216,-0.111135505,-0.05255342,0.42,0.77,0.51,26164,10090.30,0,0,3,-0.42,-4.13,-2.10,0.42,0.77,0.51
-2.0,-0.022641217,-0.11913551,-0.04355342,0.42,0.76,0.51,26186,10091.00,0,0,3,-0.21,-4.69,-1.47,0.42,0.76,0.51
-2.0,-0.027641218,-0.1261355,-0.03455342,0.42,0.76,0.5,26208,10091.00,0,0,3,-0.56,-5.18,-0.84,0.42,0.76,0.50
-1.4003906,-0.030641217,-0.1361355,-0.02155342,0.42,0.77,0.5,26222,10091.60,0,0,3,-0.77,-5.88,0.07,0.42,0.77,0.50
-1.7001953,-0.031641215,-0.1441355,-0.02155342,0.42,0.77,0.5,26245,10091.30,0,0,3,-0.84,-6.44,0.07,0.42,0.77,0.50
-1.7001953,-0.031641215,-0.1511355,-0.02355342,0.42,0.78,0.5,26267,10091.30,0,0,3,-0.84,-6.93,-0.07,0.42,0.78,0.50
-1.7001953,-0.034641217,-0.1561355,-0.031553417,0.41,0.78,0.5,26282,10091.30,0,0,3,-1.05,-7.28,-0.63,0.41,0.78,0.50
-1.7001953,-0.034641217,-0.16213551,-0.03755342,0.41,0.79,0.5,26297,10091.30,0,0,3,-1.05,-7.70,-1.05,0.41,0.79,0.50
-2.7001953,-0.032641217,-0.1631355,-0.04755342,0.4,0.79,0.49,26312,10090.30,0,0,3,-0.91,-7.77,-1.75,0.40,0.79,0.49
-2.0,-0.028641216,-0.16213551,-0.05255342,0.4,0.79,0.49,26335,10091.00,0,0,3,-0.63,-7.70,-2.10,0.40,0.79,0.49
-0.7001953,-0.27364123,-0.1491355,-0.04555342,0.41,0.78,0.49,26350,10092.30,0,0,3,-17.78,-6.79,-1.61,0.41,0.78,0.49
-2.4003906,-0.020641217,-0.1351355,-0.03755342,0.41,0.78,0.49,26372,10090.60,0,0,3,-0.07,-5.81,-1.05,0.41,0.78,0.49
-1.7001953,-0.022641217,-0.1481355,-0.028553419,0.41,0.77,0.49,26395,10091.30,0,0,3,-0.21,-6.72,-0.42,0.41,0.77,0.49
-1.7001953,-0.035641216,-0.13213551,-0.02555342,0.42,0.78,0.49,26418,10091.30,0,0,3,-1.12,-5.60,-0.21,0.42,0.78,0.49
-1.7001953,-0.029641217,-0.13213551,-0.02055342,0.42,0.78,0.49,26440,10091.30,0,0,3,-0.70,-5.60,0.14,0.42,0.78,0.49
-1.7001953,-0.034641217,-0.1431355,-0.02055342,0.43,0.78,0.49,26463,10091.30,0,0,3,-1.05,-6.37,0.14,0.43,0.78,0.49
-1.7001953,-0.035641216,-0.1261355,-0.02955342,0.42,0.78,0.49,26477,10091.30,0,0,3,-1.12,-5.18,-0.49,0.42,0.78,0.49
-3.7001953,-0.034641217,-0.1231355,-0.04055342,0.42,0.78,0.49,26500,10089.30,0,0,3,-1.05,-4.97,-1.26,0.42,0.78,0.49
-0.7001953,-0.020641217,-0.122135505,-0.03855342,0.42,0.78,0.49,26515,10092.30,0,0,3,-0.07,-4.90,-1.12,0.42,0.78,0.49
-2.4003906,-0.014641217,-0.11913551,-0.03655342,0.42,0.78,0.49,26538,10090.60,0,0,3,0.35,-4.69,-0.98,0.42,0.78,0.49
-2.4003906,-0.013641218,-0.118135504,-0.042553417,0.42,0.78,0.49,26553,10090.60,0,0,3,0.42,-4.62,-1.40,0.42,0.78,0.49
-0.7001953,-0.017641217,-0.107135504,-0.056553423,0.42,0.78,0.49,26568,10092.30,0,0,3,0.14,-3.85,-2.38,0.42,0.78,0.49
-1.7001953,-0.024641216,-0.0981355,-0.06855342,0.42,0.78,0.49,26583,10091.30,0,0,3,-0.35,-3.22,-3.22,0.42,0.78,0.49
-1.7001953,-0.026641216,-0.089135505,-0.056553423,0.42,0.78,0.49,26605,10091.30,0,0,3,-0.49,-2.59,-2.38,0.42,0.78,0.49
-2.7001953,-0.025641216,-0.093135506,-0.04955342,0.42,0.78,0.49,26635,10090.30,0,0,3,-0.42,-2.87,-1.89,0.42,0.78,0.49
-1.4003906,-0.030641217,-0.103135504,-0.04755342,0.41,0.78,0.48,26657,10091.60,0,0,3,-0.77,-3.57,-1.75,0.41,0.78,0.48
-2.7001953,-0.029641217,-0.10213551,-0.04955342,0.41,0.78,0.48,26665,10090.30,0,0,3,-0.70,-3.50,-1.89,0.41,0.78,0.48
-2.7001953,-0.027641218,-0.10213551,-0.04755342,0.41,0.78,0.49,26688,10090.30,0,0,3,-0.56,-3.50,-1.75,0.41,0.78,0.49
-1.7001953,-0.032641217,-0.096135505,-0.04455342,0.41,0.78,0.49,26710,10091.30,0,0,3,-0.91,-3.08,-1.54,0.41,0.78,0.49
-0.2998047,-0.03364122,-0.0841355,-0.03655342,0.4,0.79,0.49,26733,10092.70,0,0,3,-0.98,-2.24,-0.98,0.40,0.79,0.49
-7.7001953,-0.028641216,-0.0731355,-0.03655342,0.4,0.79,0.49,26755,10085.30,0,0,3,-0.63,-1.47,-0.98,0.40,0.79,0.49
3.7001953,-0.024641216,-0.06813551,-0.03455342,0.41,0.79,0.49,26778,10096.70,0,0,3,-0.35,-1.12,-0.84,0.41,0.79,0.49
-4.4003906,-0.025641216,-0.060135506,-0.02755342,0.4,0.79,0.49,26793,10088.60,0,0,3,-0.42,-0.56,-0.35,0.40,0.79,0.49
-1.4003906,-0.022641217,-0.054135505,-0.02655342,0.4,0.78,0.5,26800,10091.60,0,0,3,-0.21,-0.14,-0.28,0.40,0.78,0.50
0.7001953,-0.021641217,-0.047135506,-0.02355342,0.4,0.78,0.49,26822,10093.70,0,0,3,-0.14,0.35,-0.07,0.40,0.78,0.49
-2.4003906,-0.019641217,-0.047135506,-0.02255342,0.4,0.79,0.49,26838,10090.60,0,0,3,0.00,0.35,0.00,0.40,0.79,0.49
-1.4003906,-0.009641217,-0.046135504,-0.01155342,0.41,0.79,0.49,26861,10091.60,0,0,3,0.70,0.42,0.77,0.41,0.79,0.49
-1.4003906,-0.003641216,-0.050135504,-0.0025534201,0.4,0.78,0.49,26876,10091.60,0,0,3,1.12,0.14,1.40,0.40,0.78,0.49
-2.4003906,-0.0056412164,-0.047135506,0.0024465807,0.4,0.78,0.49,26905,10090.60,0,0,3,0.98,0.35,1.75,0.40,0.78,0.49
-1.4003906,-0.004641217,-0.048135504,-0.00155342,0.4,0.79,0.49,26920,10091.60,0,0,3,1.05,0.28,1.47,0.40,0.79,0.49
-1.4003906,-6.412156E-4,0.20186451,-0.00155342,0.41,0.79,0.49,26942,10091.60,0,0,3,1.33,17.78,1.47,0.41,0.79,0.49
-1.4003906,-0.002641216,-0.047135506,-0.006553419,0.41,0.78,0.49,26966,10091.60,0,0,3,1.19,0.35,1.12,0.41,0.78,0.49
1.0,-0.004641217,-0.050135504,-0.005553419,0.41,0.79,0.49,26980,10094.00,0,0,3,1.05,0.14,1.19,0.41,0.79,0.49
-0.2998047,-0.002641216,-0.052135505,-0.0045534205,0.41,0.79,0.49,27003,10092.70,0,0,3,1.19,0.00,1.26,0.41,0.79,0.49
-0.7001953,0.0013587829,-0.050135504,-0.01255342,0.41,0.79,0.49,27025,10092.30,0,0,3,1.47,0.14,0.70,0.41,0.79,0.49
-2.4003906,0.0033587832,-0.058135506,-0.0105534205,0.41,0.79,0.49,27033,10090.60,0,0,3,1.61,-0.42,0.84,0.41,0.79,0.49
-1.0,0.0053587835,-0.063135505,-0.017553419,0.41,0.79,0.49,27049,10092.00,0,0,3,1.75,-0.77,0.35,0.41,0.79,0.49
-2.4003906,0.009358782,-0.0731355,-0.01655342,0.41,0.79,0.48,27063,10090.60,0,0,3,2.03,-1.47,0.42,0.41,0.79,0.48
-2.0,0.009358782,-0.071135506,-0.02155342,0.41,0.79,0.49,27078,10091.00,0,0,3,2.03,-1.33,0.07,0.41,0.79,0.49
-1.4003906,0.009358782,-0.082135506,-0.02455342,0.41,0.79,0.49,27100,10091.60,0,0,3,2.03,-2.10,-0.14,0.41,0.79,0.49
-0.2998047,0.012358785,-0.081135504,-0.02955342,0.41,0.79,0.48,27123,10092.70,0,0,3,2.24,-2.03,-0.49,0.41,0.79,0.48
-1.0,0.009358782,-0.07513551,-0.03055342,0.41,0.79,0.48,27146,10092.00,0,0,3,2.03,-1.61,-0.56,0.41,0.79,0.48
-2.7001953,0.0053587835,-0.0761355,-0.02955342,0.41,0.78,0.48,27168,10090.30,0,0,3,1.75,-1.68,-0.49,0.41,0.78,0.48
-1.4003906,-0.0076412177,-0.0771355,-0.02455342,0.41,0.79,0.48,27182,10091.60,0,0,3,0.84,-1.75,-0.14,0.41,0.79,0.48
-1.0,-0.0066412166,-0.08313551,-0.03255342,0.41,0.79,0.48,27205,10092.00,0,0,3,0.91,-2.17,-0.70,0.41,0.79,0.48
-1.0,-0.0076412177,-0.074135505,-0.04055342,0.41,0.79,0.48,27228,10092.00,0,0,3,0.84,-1.54,-1.26,0.41,0.79,0.48
-1.4003906,-0.011641216,-0.0731355,-0.041553423,0.4,0.79,0.48,27250,10091.60,0,0,3,0.56,-1.47,-1.33,0.40,0.79,0.48
-1.0,-0.009641217,-0.0761355,-0.03355342,0.41,0.79,0.48,27272,10092.00,0,0,3,0.70,-1.68,-0.77,0.41,0.79,0.48
-2.0,-0.012641217,-0.0731355,-0.02655342,0.4,0.79,0.48,27288,10091.00,0,0,3,0.49,-1.47,-0.28,0.40,0.79,0.48
-1.0,-0.016641216,-0.06813551,-0.02655342,0.4,0.79,0.48,27310,10092.00,0,0,3,0.21,-1.12,-0.28,0.40,0.79,0.48
-1.0,-0.017641217,-0.0661355,-0.03255342,0.4,0.79,0.48,27325,10092.00,0,0,3,0.14,-0.98,-0.70,0.40,0.79,0.48
2.0,-0.024641216,-0.063135505,-0.03355342,0.4,0.79,0.49,27340,10095.00,0,0,3,-0.35,-0.77,-0.77,0.40,0.79,0.49
-1.0,-0.023641217,-0.055135503,-0.02255342,0.4,0.79,0.48,27370,10092.00,0,0,3,-0.28,-0.21,0.00,0.40,0.79,0.48
-1.0,-0.022641217,-0.056135505,-0.018553419,0.4,0.79,0.48,27385,10092.00,0,0,3,-0.21,-0.28,0.28,0.40,0.79,0.48
-8.099609,-0.022641217,-0.062135503,-0.02455342,0.4,0.79,0.48,27401,10084.90,0,0,3,-0.21,-0.70,-0.14,0.40,0.79,0.48
4.0,-0.018641217,-0.06813551,-0.02355342,0.4,0.79,0.48,27424,10097.00,0,0,3,0.07,-1.12,-0.07,0.40,0.79,0.48
-2.7001953,-0.016641216,-0.071135506,-0.02455342,0.4,0.8,0.48,27445,10090.30,0,0,3,0.21,-1.33,-0.14,0.40,0.80,0.48
-2.0,-0.016641216,-0.07213551,-0.03255342,0.4,0.79,0.49,27468,10091.00,0,0,3,0.21,-1.40,-0.70,0.40,0.79,0.49
0.2998047,-0.017641217,-0.0691355,-0.03055342,0.4,0.79,0.48,27499,10093.30,0,0,3,0.14,-1.19,-0.56,0.40,0.79,0.48
-1.0,-0.022641217,-0.070135504,-0.02355342,0.4,0.79,0.48,27506,10092.00,0,0,3,-0.21,-1.26,-0.07,0.40,0.79,0.48
-0.7001953,-0.025641216,-0.07513551,-0.02055342,0.4,0.8,0.48,27528,10092.30,0,0,3,-0.42,-1.61,0.14,0.40,0.80,0.48
-0.7001953,-0.022641217,-0.0761355,-0.031553417,0.39,0.8,0.48,27550,10092.30,0,0,3,-0.21,-1.68,-0.63,0.39,0.80,0.48
-1.0,-0.026641216,-0.0761355,-0.03755342,0.4,0.79,0.48,27565,10092.00,0,0,3,-0.49,-1.68,-1.05,0.40,0.79,0.48
1.0,-0.030641217,-0.07913551,-0.04455342,0.4,0.8,0.48,27581,10094.00,0,0,3,-0.77,-1.89,-1.54,0.40,0.80,0.48
0.0,-0.028641216,-0.0841355,-0.04055342,0.4,0.8,0.48,27603,10093.00,0,0,3,-0.63,-2.24,-1.26,0.40,0.80,0.48
-0.7001953,-0.020641217,-0.092135504,-0.03855342,0.4,0.79,0.48,27625,10092.30,0,0,3,-0.07,-2.80,-1.12,0.40,0.79,0.48
-5.0996094,-0.025641216,-0.100135505,-0.03655342,0.4,0.79,0.48,27640,10087.90,0,0,3,-0.42,-3.36,-0.98,0.40,0.79,0.48
0.2998047,-0.027641218,-0.0991355,-0.03355342,0.39,0.79,0.48,27663,10093.30,0,0,3,-0.56,-3.29,-0.77,0.39,0.79,0.48
-1.4003906,-0.029641217,-0.09513551,-0.02955342,0.39,0.79,0.48,27686,10091.60,0,0,3,-0.70,-3.01,-0.49,0.39,0.79,0.48
-1.7001953,-0.030641217,-0.09013551,-0.02555342,0.39,0.79,0.48,27709,10091.30,0,0,3,-0.77,-2.66,-0.21,0.39,0.79,0.48
-1.7001953,-0.03364122,-0.081135504,-0.02455342,0.39,0.79,0.48,27731,10091.30,0,0,3,-0.98,-2.03,-0.14,0.39,0.79,0.48
-0.7001953,-0.031641215,-0.078135505,-0.02355342,0.39,0.79,0.48,27746,10092.30,0,0,3,-0.84,-1.82,-0.07,0.39,0.79,0.48
0.2998047,-0.031641215,-0.0761355,-0.02155342,0.4,0.79,0.48,27769,10093.30,0,0,3,-0.84,-1.68,0.07,0.40,0.79,0.48
-0.7001953,-0.031641215,-0.07513551,-0.018553419,0.4,0.79,0.48,27790,10092.30,0,0,3,-0.84,-1.61,0.28,0.40,0.79,0.48
-0.7001953,-0.029641217,-0.0761355,-0.017553419,0.39,0.79,0.48,27805,10092.30,0,0,3,-0.70,-1.68,0.35,0.39,0.79,0.48
-0.7001953,-0.028641216,-0.0771355,-0.0155534195,0.39,0.8,0.48,27820,10092.30,0,0,3,-0.63,-1.75,0.49,0.39,0.80,0.48
-2.7001953,-0.026641216,-0.08013551,-0.018553419,0.39,0.8,0.48,27835,10090.30,0,0,3,-0.49,-1.96,0.28,0.39,0.80,0.48
-0.7001953,-0.023641217,-0.07513551,-0.02655342,0.39,0.8,0.48,27857,10092.30,0,0,3,-0.28,-1.61,-0.28,0.39,0.80,0.48
-1.4003906,-0.026641216,-0.070135504,-0.03055342,0.39,0.8,0.48,27880,10091.60,0,0,3,-0.49,-1.26,-0.56,0.39,0.80,0.48
-0.7001953,-0.032641217,-0.070135504,-0.03055342,0.39,0.79,0.48,27902,10092.30,0,0,3,-0.91,-1.26,-0.56,0.39,0.79,0.48
-0.7001953,-0.041641217,-0.0731355,-0.02355342,0.39,0.8,0.48,27925,10092.30,0,0,3,-1.54,-1.47,-0.07,0.39,0.80,0.48
-0.2998047,-0.04464122,-0.070135504,-0.02055342,0.38,0.8,0.48,27947,10092.70,0,0,3,-1.75,-1.26,0.14,0.38,0.80,0.48
-4.4003906,-0.048641216,-0.0691355,-0.02055342,0.38,0.8,0.49,27962,10088.60,0,0,3,-2.03,-1.19,0.14,0.38,0.80,0.49
-1.0,-0.041641217,-0.062135503,-0.01255342,0.38,0.79,0.48,27985,10092.00,0,0,3,-1.54,-0.70,0.70,0.38,0.79,0.48
0.0,-0.028641216,-0.059135504,-0.00755342,0.38,0.78,0.48,28008,10093.00,0,0,3,-0.63,-0.49,1.05,0.38,0.78,0.48
-0.40039062,-0.015641216,-0.051135506,-0.009553419,0.37,0.78,0.47,28031,10092.60,0,0,3,0.28,0.07,0.91,0.37,0.78,0.47
-0.7001953,-0.013641218,-0.044135503,-0.0155534195,0.37,0.78,0.47,28045,10092.30,0,0,3,0.42,0.56,0.49,0.37,0.78,0.47
-0.7001953,-0.009641217,-0.036135502,-0.018553419,0.37,0.79,0.47,28060,10092.30,0,0,3,0.70,1.12,0.28,0.37,0.79,0.47
-0.40039062,-0.003641216,-0.029135505,-0.028553419,0.36,0.79,0.46,28083,10092.60,0,0,3,1.12,1.61,-0.42,0.36,0.79,0.46
-0.7001953,0.0113587845,-0.031135505,-0.048553422,0.34,0.81,0.44,28097,10092.30,0,0,3,2.17,1.47,-1.82,0.34,0.81,0.44
-0.7001953,0.008358784,-0.062135503,-0.07755342,0.35,0.85,0.47,28112,10092.30,0,0,3,1.96,-0.70,-3.85,0.35,0.85,0.47
0.2998047,-0.035641216,-0.096135505,-0.031553417,0.36,0.93,0.48,28135,10093.30,0,0,3,-1.12,-3.08,-0.63,0.36,0.93,0.48
-1.4003906,-0.068641216,-0.1281355,-0.04055342,0.36,0.99,0.49,28158,10091.60,0,0,3,-3.43,-5.32,-1.26,0.36,0.99,0.49
0.7001953,-0.054641217,-0.13813551,-0.17255342,0.37,0.87,0.49,28181,10093.70,0,0,3,-2.45,-6.02,-10.50,0.37,0.87,0.49
-0.40039062,-0.06364122,-0.1491355,-0.25855342,0.49,0.65,0.55,28202,10092.60,0,0,3,-3.08,-6.79,-16.52,0.49,0.65,0.55
-0.40039062,-0.10664122,-0.1131355,-0.02355342,0.61,0.72,0.55,28217,10092.60,0,0,3,-6.09,-4.27,-0.07,0.61,0.72,0.55
-1.7001953,0.023358785,-0.12713552,0.2844466,0.55,0.97,0.42,28241,10091.30,0,0,3,3.01,-5.25,21.49,0.55,0.97,0.42
0.0,0.08335878,-0.2211355,0.14844659,0.28,0.96,0.43,28264,10093.00,0,0,3,7.21,-11.83,11.97,0.28,0.96,0.43
-0.7001953,0.026358783,-0.2041355,-0.15955342,0.34,0.71,0.39,28286,10092.30,0,0,3,3.22,-10.64,-9.59,0.34,0.71,0.39
0.2998047,-0.037641216,-0.22613552,-0.14555341,0.42,0.58,0.36,28301,10093.30,0,0,3,-1.26,-12.18,-8.61,0.42,0.58,0.36
0.7001953,-0.10764122,-0.26313552,-0.09355342,0.44,0.47,0.35,28316,10093.70,0,0,3,-6.16,-14.77,-4.97,0.44,0.47,0.35
-0.40039062,-0.15364122,-0.3721355,-0.05855342,0.42,0.51,0.43,28338,10092.60,0,0,3,-9.38,-22.40,-2.52,0.42,0.51,0.43
0.2998047,-0.21764122,-0.48813552,-0.14955342,0.4,0.63,0.56,28352,10093.30,0,0,3,-13.86,-30.52,-8.89,0.40,0.63,0.56
0.2998047,-0.18664122,-0.43613547,-0.24455342,0.45,0.78,0.51,28375,10093.30,0,0,3,-11.69,-26.88,-15.54,0.45,0.78,0.51
-1.4003906,-6.412156E-4,-0.3161355,-0.15055342,0.51,0.84,0.45,28405,10091.60,0,0,3,1.33,-18.48,-8.96,0.51,0.84,0.45
-1.7001953,0.15235879,-0.2181355,-0.005553419,0.53,0.8,0.47,28419,10091.30,0,0,3,12.04,-11.62,1.19,0.53,0.80,0.47
0.0,0.1413588,-0.2441355,0.09144658,0.5,0.77,0.51,28442,10093.00,0,0,3,11.27,-13.44,7.98,0.50,0.77,0.51
-1.4003906,0.06335878,-0.1771355,0.071446575,0.45,0.81,0.5,28465,10091.60,0,0,3,5.81,-8.75,6.58,0.45,0.81,0.50
1.0,0.074358776,-0.0841355,0.009446582,0.41,0.89,0.48,28487,10094.00,0,0,3,6.58,-2.24,2.24,0.41,0.89,0.48
0.5996094,0.13935877,0.025864497,-0.12655342,0.38,0.86,0.45,28510,10093.60,0,0,3,11.13,5.46,-7.28,0.38,0.86,0.45
0.2998047,0.17835878,0.032864496,-0.18555342,0.37,0.78,0.43,28532,10093.30,0,0,3,13.86,5.95,-11.41,0.37,0.78,0.43
0.0,0.19035877,0.017864496,-0.1645534,0.39,0.7,0.45,28548,10093.00,0,0,3,14.70,4.90,-9.94,0.39,0.70,0.45
-1.4003906,0.18535878,0.021864496,-0.112553425,0.43,0.68,0.49,28563,10091.60,0,0,3,14.35,5.18,-6.30,0.43,0.68,0.49
1.0,0.1633588,0.06486449,-0.04455342,0.47,0.66,0.54,28586,10094.00,0,0,3,12.81,8.19,-1.54,0.47,0.66,0.54
0.7001953,0.11335878,0.07086449,0.09144658,0.47,0.7,0.55,28600,10093.70,0,0,3,9.31,8.61,7.98,0.47,0.70,0.55
0.0,0.06635879,0.0738645,0.14944659,0.45,0.73,0.55,28623,10093.00,0,0,3,6.02,8.82,12.04,0.45,0.73,0.55
1.0,0.024358783,0.061864495,0.14244659,0.43,0.75,0.53,28645,10094.00,0,0,3,3.08,7.98,11.55,0.43,0.75,0.53
2.0,0.0043587815,0.07086449,0.120446585,0.42,0.72,0.51,28667,10095.00,0,0,3,1.68,8.61,10.01,0.42,0.72,0.51
0.0,-0.27564123,0.0568645,0.14444658,0.43,0.69,0.5,28683,10093.00,0,0,3,-17.92,7.63,11.69,0.43,0.69,0.50
0.0,-0.06664121,0.01886449,0.22644658,0.42,0.7,0.49,28705,10093.00,0,0,3,-3.29,4.97,17.43,0.42,0.70,0.49
-1.0,-0.09364122,0.0018644966,0.2884466,0.38,0.72,0.49,28728,10092.00,0,0,3,-5.18,3.78,21.77,0.38,0.72,0.49
0.0,-0.07764122,0.027864493,0.3144466,0.36,0.76,0.48,28750,10093.00,0,0,3,-4.06,5.60,23.59,0.36,0.76,0.48
0.0,-0.019641217,0.0718645,0.3074466,0.35,0.82,0.47,28772,10093.00,0,0,3,0.00,8.68,23.10,0.35,0.82,0.47
0.0,-0.017641217,0.0968645,0.30244657,0.38,0.86,0.5,28794,10093.00,0,0,3,0.14,10.43,22.75,0.38,0.86,0.50
1.0,-0.08464122,0.099864505,0.3174466,0.4,0.87,0.53,28809,10094.00,0,0,3,-4.55,10.64,23.80,0.40,0.87,0.53
1.0,-0.16464122,0.0838645,0.3324466,0.42,0.87,0.56,28824,10094.00,0,0,3,-10.15,9.52,24.85,0.42,0.87,0.56
3.2998047,-0.22964121,0.0698645,0.3084466,0.41,0.89,0.58,28839,10096.30,0,0,3,-14.70,8.54,23.17,0.41,0.89,0.58
0.2998047,-0.2526412,0.041864492,0.21744658,0.4,0.93,0.56,28863,10093.30,0,0,3,-16.31,6.58,16.80,0.40,0.93,0.56
0.0,-0.21864122,-0.0011355057,0.09544658,0.39,0.9,0.53,28886,10093.00,0,0,3,-13.93,3.57,8.26,0.39,0.90,0.53
-4.0996094,-0.13964121,-0.067135505,0.03344658,0.41,0.87,0.47,28908,10088.90,0,0,3,-8.40,-1.05,3.92,0.41,0.87,0.47
2.2998047,-0.058641218,-0.1701355,0.022446582,0.43,0.84,0.45,28923,10095.30,0,0,3,-2.73,-8.26,3.15,0.43,0.84,0.45
1.2998047,-0.0076412177,-0.29313552,-0.0105534205,0.42,0.86,0.44,28945,10094.30,0,0,3,0.84,-16.87,0.84,0.42,0.86,0.44
0.2998047,0.0013587829,-0.4221355,-0.08855342,0.44,0.88,0.44,28968,10093.30,0,0,3,1.47,-25.90,-4.62,0.44,0.88,0.44
1.0,-0.061641216,-0.5941355,-0.22855341,0.5,0.84,0.42,28991,10094.00,0,0,3,-2.94,-37.94,-14.42,0.50,0.84,0.42
3.2998047,-0.16364121,-0.8701355,-0.33355343,0.57,0.82,0.38,29013,10096.30,0,0,3,-10.08,-57.26,-21.77,0.57,0.82,0.38
1.2998047,-0.2706412,-1.2531354,-0.45955342,0.62,0.81,0.33,29028,10094.30,0,0,3,-17.57,-84.07,-30.59,0.62,0.81,0.33
1.0,-0.31164122,-1.5661355,-0.5065535,0.64,0.81,0.31,29050,10094.00,0,0,3,-20.44,-105.98,-33.88,0.64,0.81,0.31
2.5996094,-0.33564124,-1.8561355,-0.58255345,0.66,0.83,0.3,29065,10095.60,0,0,3,-22.12,-126.28,-39.20,0.66,0.83,0.30
1.2998047,-0.34364122,-2.1071355,-0.6505534,0.65,0.81,0.32,29080,10094.30,0,0,3,-22.68,-143.85,-43.96,0.65,0.81,0.32
1.2998047,-0.3466412,-2.3131356,-0.69455343,0.61,0.8,0.36,29102,10094.30,0,0,3,-22.89,-158.27,-47.04,0.61,0.80,0.36
1.2998047,-0.3846412,-2.4061356,-0.74755347,0.57,0.77,0.41,29125,10094.30,0,0,3,-25.55,-164.78,-50.75,0.57,0.77,0.41
1.2998047,-0.4506412,-2.3921356,-0.76655346,0.52,0.76,0.43,29139,10094.30,0,0,3,-30.17,-163.80,-52.08,0.52,0.76,0.43
2.0,-0.5066412,-2.2911353,-0.74755347,0.48,0.78,0.43,29163,10095.00,0,0,3,-34.09,-156.73,-50.75,0.48,0.78,0.43
-2.7001953,-0.53964126,-1.8681355,-0.6915535,0.45,0.77,0.43,29185,10090.30,0,0,3,-36.40,-127.12,-46.83,0.45,0.77,0.43
-0.40039062,-0.53264123,-1.8721355,-0.5985534,0.41,0.81,0.42,29215,10092.60,0,0,3,-35.91,-127.40,-40.32,0.41,0.81,0.42
1.7001953,-0.4866412,-1.6161355,-0.55055344,0.38,0.82,0.42,29230,10094.70,0,0,3,-32.69,-109.48,-36.96,0.38,0.82,0.42
2.2998047,-0.4696412,-1.3551354,-0.5205534,0.38,0.8,0.41,29245,10095.30,0,0,3,-31.50,-91.21,-34.86,0.38,0.80,0.41
1.2998047,-0.4726412,-1.1241355,-0.48055345,0.39,0.8,0.37,29275,10094.30,0,0,3,-31.71,-75.04,-32.06,0.39,0.80,0.37
1.2998047,-0.45564124,-0.91213554,-0.4415534,0.4,0.81,0.33,29290,10094.30,0,0,3,-30.52,-60.20,-29.33,0.40,0.81,0.33
1.2998047,-0.41764122,-0.77313554,-0.4185534,0.41,0.81,0.31,29306,10094.30,0,0,3,-27.86,-50.47,-27.72,0.41,0.81,0.31
1.2998047,-0.37864122,-0.66213554,-0.4045534,0.43,0.82,0.28,29328,10094.30,0,0,3,-25.13,-42.70,-26.74,0.43,0.82,0.28
1.7001953,-0.34164125,-0.5691355,-0.38355342,0.43,0.81,0.28,29343,10094.70,0,0,3,-22.54,-36.19,-25.27,0.43,0.81,0.28
0.2998047,-0.29964122,-0.4591355,-0.3495534,0.43,0.82,0.28,29365,10093.30,0,0,3,-19.60,-28.49,-22.89,0.43,0.82,0.28
1.2998047,-0.26164123,-0.3581355,-0.29655343,0.44,0.84,0.28,29380,10094.30,0,0,3,-16.94,-21.42,-19.18,0.44,0.84,0.28
1.2998047,-0.23164122,-0.2731355,-0.26655343,0.44,0.88,0.28,29403,10094.30,0,0,3,-14.84,-15.47,-17.08,0.44,0.88,0.28
0.2998047,-0.21364123,-0.2141355,-0.22855341,0.47,0.87,0.27,29425,10093.30,0,0,3,-13.58,-11.34,-14.42,0.47,0.87,0.27
2.0,-0.18964122,-0.1791355,-0.16655341,0.48,0.88,0.26,29448,10095.00,0,0,3,-11.90,-8.89,-10.08,0.48,0.88,0.26
1.2998047,-0.14464122,-0.13813551,-0.07655342,0.47,0.87,0.25,29470,10094.30,0,0,3,-8.75,-6.02,-3.78,0.47,0.87,0.25
1.7001953,-0.104641214,-0.0981355,-0.042553417,0.44,0.88,0.26,29485,10094.70,0,0,3,-5.95,-3.22,-1.40,0.44,0.88,0.26
1.2998047,-0.10264121,-0.0691355,-0.08755343,0.42,0.88,0.25,29507,10094.30,0,0,3,-5.81,-1.19,-4.55,0.42,0.88,0.25
1.7001953,-0.12064122,-0.048135504,-0.15055342,0.41,0.87,0.24,29530,10094.70,0,0,3,-7.07,0.28,-8.96,0.41,0.87,0.24
1.2998047,-0.12564121,-0.040135507,-0.17655341,0.4,0.88,0.24,29545,10094.30,0,0,3,-7.42,0.84,-10.78,0.40,0.88,0.24
2.0,-0.12464121,-0.032135505,-0.19255342,0.39,0.88,0.24,29560,10095.00,0,0,3,-7.35,1.40,-11.90,0.39,0.88,0.24
1.7001953,-0.12264122,-0.030135505,-0.21355341,0.39,0.86,0.25,29582,10094.70,0,0,3,-7.21,1.54,-13.37,0.39,0.86,0.25
1.2998047,-0.14264122,-0.038135506,-0.21355341,0.4,0.83,0.26,29597,10094.30,0,0,3,-8.61,0.98,-13.37,0.40,0.83,0.26
1.7001953,-0.14864121,-0.053135503,-0.14655343,0.4,0.85,0.27,29627,10094.70,0,0,3,-9.03,-0.07,-8.68,0.40,0.85,0.27
1.7001953,-0.10864122,-0.032135505,-0.06855342,0.39,0.87,0.28,29642,10094.70,0,0,3,-6.23,1.40,-3.22,0.39,0.87,0.28
1.7001953,-0.083641216,-0.013135504,-0.03055342,0.4,0.87,0.29,29665,10094.70,0,0,3,-4.48,2.73,-0.56,0.40,0.87,0.29
2.7001953,-0.090641215,-0.008135505,-0.02455342,0.41,0.86,0.29,29688,10095.70,0,0,3,-4.97,3.08,-0.14,0.41,0.86,0.29
1.7001953,-0.09264122,-0.002135504,0.005446581,0.41,0.85,0.29,29703,10094.70,0,0,3,-5.11,3.50,1.96,0.41,0.85,0.29
1.2998047,-0.095641226,0.010864496,0.018446578,0.4,0.86,0.3,29725,10094.30,0,0,3,-5.32,4.41,2.87,0.40,0.86,0.30
0.5996094,-0.09864122,0.032864496,0.01044658,0.4,0.86,0.3,29748,10093.60,0,0,3,-5.53,5.95,2.31,0.40,0.86,0.30
1.7001953,-0.09964122,0.065864496,0.009446582,0.4,0.85,0.31,29770,10094.70,0,0,3,-5.60,8.26,2.24,0.40,0.85,0.31
0.5996094,-0.09664121,0.09886449,0.027446581,0.4,0.85,0.32,29793,10093.60,0,0,3,-5.39,10.57,3.50,0.40,0.85,0.32
1.7001953,-0.095641226,0.1258645,0.042446584,0.39,0.85,0.32,29807,10094.70,0,0,3,-5.32,12.46,4.55,0.39,0.85,0.32
2.0,-0.08064122,0.1708645,0.04744658,0.38,0.86,0.33,29823,10095.00,0,0,3,-4.27,15.61,4.90,0.38,0.86,0.33
1.7001953,-0.060641214,0.2258645,0.042446584,0.38,0.87,0.34,29845,10094.70,0,0,3,-2.87,19.46,4.55,0.38,0.87,0.34
1.0,-0.032641217,0.3258645,0.04144658,0.37,0.87,0.35,29860,10094.00,0,0,3,-0.91,26.46,4.48,0.37,0.87,0.35
2.7001953,-0.008641217,0.4348645,0.05544658,0.36,0.87,0.37,29882,10095.70,0,0,3,0.77,34.09,5.46,0.36,0.87,0.37
2.0,0.026358783,0.5618645,0.07844658,0.35,0.87,0.39,29906,10095.00,0,0,3,3.22,42.98,7.07,0.35,0.87,0.39
2.0,0.061358783,0.7318645,0.12544659,0.33,0.87,0.42,29920,10095.00,0,0,3,5.67,54.88,10.36,0.33,0.87,0.42
2.0,0.13735877,0.96286446,0.1954466,0.31,0.86,0.45,29943,10095.00,0,0,3,10.99,71.05,15.26,0.31,0.86,0.45
4.7001953,0.21335877,1.2448646,0.2944466,0.28,0.88,0.48,29964,10097.70,0,0,3,16.31,90.79,22.19,0.28,0.88,0.48
0.2998047,0.28935876,1.5448645,0.3774466,0.27,0.93,0.53,29988,10093.30,0,0,3,21.63,111.79,28.00,0.27,0.93,0.53
0.2998047,0.3173588,1.8228645,0.4464466,0.31,0.94,0.53,30011,10093.30,0,0,3,23.59,131.25,32.83,0.31,0.94,0.53
2.0,0.34335878,2.0358646,0.50044656,0.36,0.94,0.51,30033,10095.00,0,0,3,25.41,146.16,36.61,0.36,0.94,0.51
2.0,0.35035878,2.1258647,0.53344655,0.41,0.89,0.5,30047,10095.00,0,0,3,25.90,152.46,38.92,0.41,0.89,0.50
2.2998047,0.34535876,2.1618645,0.56444657,0.43,0.83,0.49,30062,10095.30,0,0,3,25.55,154.98,41.09,0.43,0.83,0.49
4.0,0.33735877,2.1628647,0.59044653,0.43,0.81,0.49,30078,10097.00,0,0,3,24.99,155.05,42.91,0.43,0.81,0.49
1.7001953,0.3173588,2.1388645,0.59744656,0.42,0.79,0.47,30093,10094.70,0,0,3,23.59,153.37,43.40,0.42,0.79,0.47
2.2998047,0.3023588,2.0218644,0.51444656,0.41,0.77,0.43,30115,10095.30,0,0,3,22.54,145.18,37.59,0.41,0.77,0.43
1.2998047,0.30535877,1.8058645,0.4264466,0.41,0.75,0.43,30138,10094.30,0,0,3,22.75,130.06,31.43,0.41,0.75,0.43
2.0,0.30935878,1.6288645,0.40144658,0.4,0.73,0.44,30160,10095.00,0,0,3,23.03,117.67,29.68,0.40,0.73,0.44
3.0,0.3103588,1.4298645,0.39444658,0.38,0.72,0.45,30183,10096.00,0,0,3,23.10,103.74,29.19,0.38,0.72,0.45
2.0,0.30835876,1.2618645,0.39244658,0.36,0.71,0.47,30197,10095.00,0,0,3,22.96,91.98,29.05,0.36,0.71,0.47
2.0,0.22935878,1.0488645,0.37944657,0.36,0.73,0.54,30220,10095.00,0,0,3,17.43,77.07,28.14,0.36,0.73,0.54
2.0,0.10735878,0.86086446,0.36044657,0.35,0.75,0.59,30242,10095.00,0,0,3,8.89,63.91,26.81,0.35,0.75,0.59
2.0,-0.004641217,0.6978645,0.3214466,0.33,0.8,0.6,30264,10095.00,0,0,3,1.05,52.50,24.08,0.33,0.80,0.60
-3.0996094,-0.05164122,0.52786446,0.2664466,0.33,0.84,0.61,30287,10089.90,0,0,3,-2.24,40.60,20.23,0.33,0.84,0.61
1.7001953,-0.06564122,0.39586452,0.23544657,0.32,0.85,0.62,30303,10094.70,0,0,3,-3.22,31.36,18.06,0.32,0.85,0.62
2.2998047,-0.027641218,0.2918645,0.2444466,0.31,0.86,0.61,30317,10095.30,0,0,3,-0.56,24.08,18.69,0.31,0.86,0.61
4.0,0.022358783,0.20586449,0.2314466,0.29,0.85,0.6,30333,10097.00,0,0,3,2.94,18.06,17.78,0.29,0.85,0.60
7.0,0.12235877,0.1428645,0.22244658,0.24,0.84,0.57,30355,10100.00,0,0,3,9.94,13.65,17.15,0.24,0.84,0.57
4.2998047,0.21735878,0.084864505,0.20044658,0.21,0.84,0.54,30378,10097.30,0,0,3,16.59,9.59,15.61,0.21,0.84,0.54
2.2998047,0.30035877,0.06486449,0.1574466,0.19,0.84,0.53,30399,10095.30,0,0,3,22.40,8.19,12.60,0.19,0.84,0.53
3.0,0.34835878,0.025864497,0.13644658,0.18,0.84,0.51,30415,10096.00,0,0,3,25.76,5.46,11.13,0.18,0.84,0.51
3.2998047,0.3653588,0.0018644966,0.13144659,0.19,0.83,0.49,30444,10096.30,0,0,3,26.95,3.78,10.78,0.19,0.83,0.49
3.0,0.36335877,-0.021135503,0.1384466,0.19,0.81,0.49,30460,10096.00,0,0,3,26.81,2.17,11.27,0.19,0.81,0.49
1.2998047,0.3543588,-0.021135503,0.16744658,0.2,0.81,0.49,30482,10094.30,0,0,3,26.18,2.17,13.30,0.20,0.81,0.49
1.2998047,0.3243588,-0.011135507,0.20344658,0.21,0.85,0.48,30512,10094.30,0,0,3,24.08,2.87,15.82,0.21,0.85,0.48
3.2998047,0.3023588,-0.0061355047,0.21344659,0.23,0.86,0.45,30528,10096.30,0,0,3,22.54,3.22,16.52,0.23,0.86,0.45
3.2998047,0.2773588,-0.031135505,0.20244658,0.24,0.86,0.44,30542,10096.30,0,0,3,20.79,1.47,15.75,0.24,0.86,0.44
1.2998047,0.2553588,-0.049135506,0.18244658,0.25,0.86,0.43,30557,10094.30,0,0,3,19.25,0.21,14.35,0.25,0.86,0.43
2.2998047,0.23735878,-0.0771355,0.15944658,0.25,0.85,0.43,30579,10095.30,0,0,3,17.99,-1.75,12.74,0.25,0.85,0.43
1.5996094,0.25335878,-0.1051355,0.17544658,0.26,0.83,0.42,30595,10094.60,0,0,3,19.11,-3.71,13.86,0.26,0.83,0.42
-3.7001953,0.31635877,-0.0841355,0.22144659,0.27,0.81,0.41,30618,10089.30,0,0,3,23.52,-2.24,17.08,0.27,0.81,0.41
2.2998047,0.19935878,-0.13913551,0.14344658,0.27,0.83,0.4,30633,10095.30,0,0,3,15.33,-6.09,11.62,0.27,0.83,0.40
2.2998047,0.13435878,-0.1571355,0.11444659,0.27,0.83,0.4,30662,10095.30,0,0,3,10.78,-7.35,9.59,0.27,0.83,0.40
3.0,0.09435879,-0.1511355,0.08144658,0.28,0.83,0.4,30677,10096.00,0,0,3,7.98,-6.93,7.28,0.28,0.83,0.40
3.2998047,0.07035878,-0.1341355,0.06844658,0.29,0.79,0.43,30715,10096.30,0,0,3,6.30,-5.74,6.37,0.29,0.79,0.43
3.7001953,0.02835878,-0.11713551,0.09544658,0.32,0.77,0.46,30730,10096.70,0,0,3,3.36,-4.55,8.26,0.32,0.77,0.46
3.7001953,-0.026641216,-0.107135504,0.10744659,0.33,0.79,0.47,30737,10096.70,0,0,3,-0.49,-3.85,9.10,0.33,0.79,0.47
2.2998047,-0.072641216,-0.0981355,0.100446574,0.34,0.79,0.48,30760,10095.30,0,0,3,-3.71,-3.22,8.61,0.34,0.79,0.48
2.5996094,-0.09364122,-0.082135506,0.08744658,0.37,0.8,0.49,30782,10095.60,0,0,3,-5.18,-2.10,7.70,0.37,0.80,0.49
5.7001953,-0.11464122,-0.07213551,0.082446575,0.38,0.89,0.51,30797,10098.70,0,0,3,-6.65,-1.40,7.35,0.38,0.89,0.51
2.2998047,-0.12864122,-0.081135504,0.054446578,0.38,0.99,0.5,30820,10095.30,0,0,3,-7.63,-2.03,5.39,0.38,0.99,0.50
2.5996094,-0.11564121,-0.10213551,-0.26955342,0.38,0.99,0.48,30835,10095.60,0,0,3,-6.72,-3.50,-17.29,0.38,0.99,0.48
-1.7001953,-0.047641218,-0.1131355,-0.101553425,0.39,0.92,0.47,30857,10091.30,0,0,3,-1.96,-4.27,-5.53,0.39,0.92,0.47
4.7001953,0.0013587829,-0.1301355,-0.13055342,0.41,0.83,0.46,30880,10097.70,0,0,3,1.47,-5.46,-7.56,0.41,0.83,0.46
3.7001953,-0.0056412164,-0.1651355,-0.10355342,0.42,0.83,0.47,30895,10096.70,0,0,3,0.98,-7.91,-5.67,0.42,0.83,0.47
3.7001953,-0.056641217,-0.20813552,-0.057553418,0.44,0.83,0.48,30918,10096.70,0,0,3,-2.59,-10.92,-2.45,0.44,0.83,0.48
4.7001953,-0.072641216,-0.2211355,-0.014553419,0.43,0.87,0.47,30940,10097.70,0,0,3,-3.71,-11.83,0.56,0.43,0.87,0.47
4.7001953,-0.06664121,-0.2251355,-5.534198E-4,0.43,0.9,0.44,30964,10097.70,0,0,3,-3.29,-12.11,1.54,0.43,0.90,0.44
3.7001953,-0.04064122,-0.22413552,-0.005553419,0.42,0.88,0.41,30985,10096.70,0,0,3,-1.47,-12.04,1.19,0.42,0.88,0.41
8.700195,-0.020641217,-0.2281355,-0.028553419,0.39,0.85,0.39,31008,10101.70,0,0,3,-0.07,-12.32,-0.42,0.39,0.85,0.39
8.0,-0.028641216,-0.24713549,-0.08155342,0.38,0.82,0.38,31030,10101.00,0,0,3,-0.63,-13.65,-4.13,0.38,0.82,0.38
9.700195,-0.059641216,-0.26613548,-0.12555341,0.37,0.79,0.37,31045,10102.70,0,0,3,-2.80,-14.98,-7.21,0.37,0.79,0.37
9.700195,-0.08864121,-0.2841355,-0.14655343,0.37,0.77,0.35,31060,10102.70,0,0,3,-4.83,-16.24,-8.68,0.37,0.77,0.35
11.700195,-0.12564121,-0.31913552,-0.15655342,0.37,0.75,0.35,31075,10104.70,0,0,3,-7.42,-18.69,-9.38,0.37,0.75,0.35
11.700195,-0.14964123,-0.3411355,-0.14655343,0.37,0.74,0.35,31090,10104.70,0,0,3,-9.10,-20.23,-8.68,0.37,0.74,0.35
12.799805,-0.18164122,-0.3651355,-0.13055342,0.37,0.74,0.37,31112,10105.80,0,0,3,-11.34,-21.91,-7.56,0.37,0.74,0.37
12.099609,-0.20564122,-0.3761355,-0.09455342,0.38,0.77,0.38,31135,10105.10,0,0,3,-13.02,-22.68,-5.04,0.38,0.77,0.38
13.799805,-0.21064122,-0.3771355,-0.07355342,0.39,0.81,0.37,31157,10106.80,0,0,3,-13.37,-22.75,-3.57,0.39,0.81,0.37
12.099609,-0.20864122,-0.39313552,-0.07755342,0.41,0.84,0.37,31179,10105.10,0,0,3,-13.23,-23.87,-3.85,0.41,0.84,0.37
10.700195,-0.21564123,-0.4161355,-0.063553415,0.43,0.85,0.39,31195,10103.70,0,0,3,-13.72,-25.48,-2.87,0.43,0.85,0.39
11.099609,-0.23964122,-0.44213548,-0.02455342,0.45,0.86,0.39,31217,10104.10,0,0,3,-15.40,-27.30,-0.14,0.45,0.86,0.39
11.099609,-0.28164122,-0.47913548,0.0024465807,0.49,0.86,0.4,31239,10104.10,0,0,3,-18.34,-29.89,1.75,0.49,0.86,0.40
10.099609,-0.3286412,-0.81413555,-0.01255342,0.5,0.9,0.36,31262,10103.10,0,0,3,-21.63,-53.34,0.70,0.50,0.90,0.36
10.099609,-0.35764122,-0.6581355,-0.063553415,0.53,0.9,0.34,31278,10103.10,0,0,3,-23.66,-42.42,-2.87,0.53,0.90,0.34
8.700195,-0.40164122,-0.82913554,-0.15655342,0.56,0.9,0.31,31293,10101.70,0,0,3,-26.74,-54.39,-9.38,0.56,0.90,0.31
9.0,-0.45664123,-1.0521355,-0.27055344,0.58,0.89,0.27,31307,10102.00,0,0,3,-30.59,-70.00,-17.36,0.58,0.89,0.27
7.7001953,-0.5056412,-1.3001355,-0.3915534,0.59,0.85,0.24,31322,10100.70,0,0,3,-34.02,-87.36,-25.83,0.59,0.85,0.24
8.700195,-0.5486412,-1.5721354,-0.49255344,0.59,0.83,0.24,31345,10101.70,0,0,3,-37.03,-106.40,-32.90,0.59,0.83,0.24
7.0,-0.6236412,-1.9101354,-0.62455344,0.57,0.83,0.25,31360,10100.00,0,0,3,-42.28,-130.06,-42.14,0.57,0.83,0.25
7.0,-0.6826412,-2.1811354,-0.7325535,0.54,0.8,0.28,31383,10100.00,0,0,3,-46.41,-149.03,-49.70,0.54,0.80,0.28
5.2998047,-0.75464123,-2.3511353,-0.7905534,0.49,0.78,0.33,31405,10098.30,0,0,3,-51.45,-160.93,-53.76,0.49,0.78,0.33
3.0,-0.8206412,-2.4101355,-0.79455346,0.43,0.78,0.39,31434,10096.00,0,0,3,-56.07,-165.06,-54.04,0.43,0.78,0.39
1.5996094,-0.8616412,-2.3501356,-0.76755345,0.4,0.8,0.42,31450,10094.60,0,0,3,-58.94,-160.86,-52.15,0.40,0.80,0.42
-2.0996094,-0.86364126,-2.2141354,-0.71055347,0.36,0.82,0.44,31472,10090.90,0,0,3,-59.08,-151.34,-48.16,0.36,0.82,0.44
-6.0996094,-0.8216412,-1.9881356,-0.6125534,0.32,0.82,0.47,31488,10086.90,0,0,3,-56.14,-135.52,-41.30,0.32,0.82,0.47
-8.099609,-0.7756412,-1.8031355,-0.54555345,0.3,0.84,0.47,31510,10084.90,0,0,3,-52.92,-122.57,-36.61,0.30,0.84,0.47
-11.5,-0.7186412,-1.3391354,-0.5035534,0.29,0.85,0.45,31526,10081.50,0,0,3,-48.93,-90.09,-33.67,0.29,0.85,0.45
-10.200195,-0.66464126,-1.3701355,-0.46955344,0.29,0.83,0.45,31541,10082.80,0,0,3,-45.15,-92.26,-31.29,0.29,0.83,0.45
-11.200195,-0.6236412,-1.1931355,-0.4185534,0.31,0.81,0.44,31555,10081.80,0,0,3,-42.28,-79.87,-27.72,0.31,0.81,0.44
-11.200195,-0.5886412,-1.0301355,-0.35955343,0.31,0.81,0.43,31570,10081.80,0,0,3,-39.83,-68.46,-23.59,0.31,0.81,0.43
-10.799805,-0.5476412,-0.89713556,-0.3095534,0.32,0.81,0.43,31585,10082.20,0,0,3,-36.96,-59.15,-20.09,0.32,0.81,0.43
-10.5,-0.4836412,-0.7001355,-0.25755343,0.35,0.81,0.42,31607,10082.50,0,0,3,-32.48,-45.36,-16.45,0.35,0.81,0.42
-12.200195,-0.44564122,-0.5401355,-0.2175534,0.36,0.81,0.42,31631,10080.80,0,0,3,-29.82,-34.16,-13.65,0.36,0.81,0.42
-10.200195,-0.41264123,-0.41013548,-0.1955534,0.35,0.82,0.43,31653,10082.80,0,0,3,-27.51,-25.06,-12.11,0.35,0.82,0.43
-10.799805,-0.37964123,-0.23613551,-0.17855342,0.37,0.84,0.44,31675,10082.20,0,0,3,-25.20,-12.88,-10.92,0.37,0.84,0.44
-10.799805,-0.33064124,-0.1061355,-0.14655343,0.38,0.84,0.45,31690,10082.20,0,0,3,-21.77,-3.78,-8.68,0.38,0.84,0.45
-9.799805,-0.29264122,0.01886449,-0.11155342,0.39,0.85,0.44,31720,10083.20,0,0,3,-19.11,4.97,-6.23,0.39,0.85,0.44
-10.799805,-0.22564122,0.1248645,-0.07655342,0.42,0.85,0.43,31735,10082.20,0,0,3,-14.42,12.39,-3.78,0.42,0.85,0.43
-7.7998047,-0.17064121,0.18786448,-0.03655342,0.44,0.86,0.42,31750,10085.20,0,0,3,-10.57,16.80,-0.98,0.44,0.86,0.42
-8.799805,-0.11464122,0.2258645,4.4658035E-4,0.44,0.86,0.43,31765,10084.20,0,0,3,-6.65,19.46,1.61,0.44,0.86,0.43
-9.099609,-0.072641216,0.25886452,0.031446584,0.43,0.89,0.46,31787,10083.90,0,0,3,-3.71,21.77,3.78,0.43,0.89,0.46
-6.7998047,-0.038641218,0.2838645,0.04144658,0.41,0.94,0.47,31802,10086.20,0,0,3,-1.33,23.52,4.48,0.41,0.94,0.47
-9.799805,3.587827E-4,0.34486452,0.056446582,0.4,0.94,0.47,31817,10083.20,0,0,3,1.40,27.79,5.53,0.40,0.94,0.47
-9.5,0.055358786,0.4348645,0.08444657,0.37,0.92,0.5,31832,10083.50,0,0,3,5.25,34.09,7.49,0.37,0.92,0.50
-7.7998047,0.100358784,0.5938645,0.14744659,0.35,0.87,0.56,31854,10085.20,0,0,3,8.40,45.22,11.90,0.35,0.87,0.56
-8.799805,0.15035878,0.8428645,0.2494466,0.29,0.83,0.61,31877,10084.20,0,0,3,11.90,62.65,19.04,0.29,0.83,0.61
-7.5,0.21435876,1.1708646,0.3964466,0.25,0.8,0.65,31892,10085.50,0,0,3,16.38,85.61,29.33,0.25,0.80,0.65
-7.7998047,0.29335877,1.5338645,0.51344657,0.25,0.77,0.66,31922,10085.20,0,0,3,21.91,111.02,37.52,0.25,0.77,0.66
-6.7998047,0.39235878,1.8578645,0.6334465,0.26,0.76,0.65,31952,10086.20,0,0,3,28.84,133.70,45.92,0.26,0.76,0.65
-6.0996094,0.49535877,2.1018646,0.71744657,0.28,0.75,0.64,31959,10086.90,0,0,3,36.05,150.78,51.80,0.28,0.75,0.64
-4.7998047,0.5913588,2.2648647,0.7764466,0.33,0.76,0.63,31983,10088.20,0,0,3,42.77,162.19,55.93,0.33,0.76,0.63
-4.7998047,0.65935874,2.3328645,0.8334465,0.37,0.72,0.61,32005,10088.20,0,0,3,47.53,166.95,59.92,0.37,0.72,0.61
-4.7998047,0.68635875,2.3288646,0.8834465,0.4,0.69,0.6,32020,10088.20,0,0,3,49.42,166.67,63.42,0.40,0.69,0.60
-4.4003906,0.7063588,2.3038645,0.9394465,0.41,0.67,0.6,32035,10088.60,0,0,3,50.82,164.92,67.34,0.41,0.67,0.60
-3.4003906,0.70835876,2.2448645,0.9714466,0.42,0.67,0.59,32050,10089.60,0,0,3,50.96,160.79,69.58,0.42,0.67,0.59
-2.7001953,0.68135875,2.1278646,0.95444655,0.44,0.67,0.58,32065,10090.30,0,0,3,49.07,152.60,68.39,0.44,0.67,0.58
-4.7998047,0.62235874,1.9678645,0.9194466,0.46,0.66,0.58,32080,10088.20,0,0,3,44.94,141.40,65.94,0.46,0.66,0.58
-3.4003906,0.54135877,1.7938646,0.87644655,0.45,0.66,0.58,32095,10089.60,0,0,3,39.27,129.22,62.93,0.45,0.66,0.58
-1.0996094,0.4383588,1.5768645,0.81744653,0.43,0.68,0.57,32118,10091.90,0,0,3,32.06,114.03,58.80,0.43,0.68,0.57
-3.7998047,0.34435877,1.3328645,0.72244656,0.43,0.72,0.53,32140,10089.20,0,0,3,25.48,96.95,52.15,0.43,0.72,0.53
-2.4003906,0.25835878,1.0678645,0.64144653,0.44,0.72,0.54,32169,10090.60,0,0,3,19.46,78.40,46.48,0.44,0.72,0.54
-1.4003906,0.16135877,0.8118645,0.61244655,0.43,0.75,0.56,32185,10091.60,0,0,3,12.67,60.48,44.45,0.43,0.75,0.56
-0.40039062,0.08835879,0.58386445,0.5854466,0.41,0.8,0.56,32207,10092.60,0,0,3,7.56,44.52,42.56,0.41,0.80,0.56
3.5996094,0.050358783,0.3778645,0.5254466,0.39,0.83,0.56,32222,10096.60,0,0,3,4.90,30.10,38.36,0.39,0.83,0.56
1.5996094,0.064358786,0.22186452,0.4464466,0.37,0.82,0.54,32245,10094.60,0,0,3,5.88,19.18,32.83,0.37,0.82,0.54
2.0,0.09735878,0.1178645,0.3764466,0.34,0.83,0.52,32267,10095.00,0,0,3,8.19,11.90,27.93,0.34,0.83,0.52
2.5996094,0.14635877,0.027864493,0.3124466,0.32,0.85,0.5,32282,10095.60,0,0,3,11.62,5.60,23.45,0.32,0.85,0.50
2.5996094,0.20835878,-0.042135507,0.26244658,0.31,0.85,0.48,32298,10095.60,0,0,3,15.96,0.70,19.95,0.31,0.85,0.48
3.0,0.25635877,-0.1101355,0.21044658,0.3,0.82,0.48,32312,10096.00,0,0,3,19.32,-4.06,16.31,0.30,0.82,0.48
3.5996094,0.2773588,-0.16213551,0.16944657,0.29,0.8,0.49,32327,10096.60,0,0,3,20.79,-7.70,13.44,0.29,0.80,0.49
3.5996094,0.26935878,-0.21313551,0.13744658,0.3,0.79,0.48,32350,10096.60,0,0,3,20.23,-11.27,11.20,0.30,0.79,0.48
6.0,0.2403588,-0.2441355,0.1384466,0.3,0.79,0.47,32372,10099.00,0,0,3,18.20,-13.44,11.27,0.30,0.79,0.47
4.7001953,0.20435879,-0.2641355,0.14344658,0.28,0.8,0.47,32395,10097.70,0,0,3,15.68,-14.84,11.62,0.28,0.80,0.47
6.7001953,0.15935877,-0.2731355,0.13344659,0.29,0.79,0.48,32417,10099.70,0,0,3,12.53,-15.47,10.92,0.29,0.79,0.48
2.5996094,0.10735878,-0.2751355,0.13744658,0.3,0.8,0.48,32440,10095.60,0,0,3,8.89,-15.61,11.20,0.30,0.80,0.48
6.2998047,0.08135879,-0.2601355,0.1604466,0.32,0.82,0.47,32455,10099.30,0,0,3,7.07,-14.56,12.81,0.32,0.82,0.47
8.400391,0.06935878,-0.2531355,0.1604466,0.33,0.82,0.47,32478,10101.40,0,0,3,6.23,-14.07,12.81,0.33,0.82,0.47
6.7001953,0.06035878,-0.2421355,0.13944659,0.34,0.82,0.47,32500,10099.70,0,0,3,5.60,-13.30,11.34,0.34,0.82,0.47
9.0,0.05235878,-0.22913551,0.12144657,0.34,0.8,0.48,32514,10102.00,0,0,3,5.04,-12.39,10.08,0.34,0.80,0.48
8.700195,0.04035878,-0.2041355,0.115446575,0.35,0.78,0.49,32537,10101.70,0,0,3,4.20,-10.64,9.66,0.35,0.78,0.49
8.0,0.026358783,-0.1841355,0.115446575,0.35,0.78,0.49,32552,10101.00,0,0,3,3.22,-9.24,9.66,0.35,0.78,0.49
10.0,0.007358784,-0.1701355,0.108446576,0.36,0.78,0.5,32567,10103.00,0,0,3,1.89,-8.26,9.17,0.36,0.78,0.50
10.400391,-0.023641217,-0.17613551,0.097446576,0.37,0.78,0.49,32582,10103.40,0,0,3,-0.28,-8.68,8.40,0.37,0.78,0.49
10.0,-0.04464122,-0.19213551,0.08844658,0.39,0.77,0.5,32604,10103.00,0,0,3,-1.75,-9.80,7.77,0.39,0.77,0.50
12.099609,-0.06464122,-0.2091355,0.07044658,0.39,0.78,0.51,32627,10105.10,0,0,3,-3.15,-10.99,6.51,0.39,0.78,0.51
11.700195,-0.08564122,-0.23313549,0.034446582,0.39,0.79,0.51,32649,10104.70,0,0,3,-4.62,-12.67,3.99,0.39,0.79,0.51
13.799805,-0.10164121,-0.2651355,0.0064465795,0.39,0.79,0.51,32672,10106.80,0,0,3,-5.74,-14.91,2.03,0.39,0.79,0.51
15.099609,-0.095641226,-0.2871355,-0.009553419,0.39,0.79,0.52,32687,10108.10,0,0,3,-5.32,-16.45,0.91,0.39,0.79,0.52
17.09961,-0.083641216,-0.2991355,-0.02455342,0.4,0.78,0.54,32710,10110.10,0,0,3,-4.48,-17.29,-0.14,0.40,0.78,0.54
17.09961,-0.082641214,-0.3011355,-0.03855342,0.41,0.79,0.55,32732,10110.10,0,0,3,-4.41,-17.43,-1.12,0.41,0.79,0.55
19.09961,-0.07164122,-0.2901355,-0.05155342,0.41,0.81,0.55,32747,10112.10,0,0,3,-3.64,-16.66,-2.03,0.41,0.81,0.55
20.09961,-0.05364122,-0.2771355,-0.070553415,0.4,0.84,0.55,32762,10113.10,0,0,3,-2.38,-15.75,-3.36,0.40,0.84,0.55
18.799805,-0.024641216,-0.2601355,-0.11155342,0.4,0.89,0.55,32785,10111.80,0,0,3,-0.35,-14.56,-6.23,0.40,0.89,0.55
21.5,-0.0056412164,-0.2561355,-0.16055341,0.4,0.92,0.55,32800,10114.50,0,0,3,0.98,-14.28,-9.66,0.40,0.92,0.55
20.5,-0.0066412166,-0.2531355,-0.22155342,0.39,0.91,0.55,32814,10113.50,0,0,3,0.91,-14.07,-13.93,0.39,0.91,0.55
20.09961,-0.0066412166,-0.2461355,-0.2615534,0.39,0.88,0.54,32829,10113.10,0,0,3,0.91,-13.58,-16.73,0.39,0.88,0.54
19.09961,-0.021641217,-0.24113551,-0.26755342,0.41,0.83,0.53,32852,10112.10,0,0,3,-0.14,-13.23,-17.15,0.41,0.83,0.53
19.09961,-0.04064122,-0.23413551,-0.2235534,0.43,0.78,0.53,32875,10112.10,0,0,3,-1.47,-12.74,-14.07,0.43,0.78,0.53
19.5,-0.061641216,-0.2371355,-0.14755341,0.44,0.8,0.53,32898,10112.50,0,0,3,-2.94,-12.95,-8.75,0.44,0.80,0.53
19.5,-0.041641217,-0.22613552,-0.10255342,0.43,0.83,0.51,32912,10112.50,0,0,3,-1.54,-12.18,-5.60,0.43,0.83,0.51
22.5,0.009358782,-0.2141355,-0.10655342,0.41,0.86,0.49,32934,10115.50,0,0,3,2.03,-11.34,-5.88,0.41,0.86,0.49
20.5,0.07535878,-0.19913551,-0.15355341,0.4,0.86,0.46,32957,10113.50,0,0,3,6.65,-10.29,-9.17,0.40,0.86,0.46
19.799805,0.13135877,-0.19013551,-0.22455342,0.38,0.84,0.44,32981,10112.80,0,0,3,10.57,-9.66,-14.14,0.38,0.84,0.44
20.5,0.16435878,-0.19913551,-0.29555342,0.37,0.81,0.41,33002,10113.50,0,0,3,12.88,-10.29,-19.11,0.37,0.81,0.41
18.5,0.17935878,-0.2111355,-0.33355343,0.38,0.78,0.38,33017,10111.50,0,0,3,13.93,-11.13,-21.77,0.38,0.78,0.38
22.5,0.18035878,-0.23313549,-0.34655342,0.38,0.76,0.36,33033,10115.50,0,0,3,14.00,-12.67,-22.68,0.38,0.76,0.36
19.5,0.17335878,-0.2641355,-0.34655342,0.38,0.74,0.34,33048,10112.50,0,0,3,13.51,-14.84,-22.68,0.38,0.74,0.34
18.5,0.16635878,-0.2911355,-0.33455342,0.39,0.74,0.34,33063,10111.50,0,0,3,13.02,-16.73,-21.84,0.39,0.74,0.34
18.5,0.14535879,-0.3201355,-0.3145534,0.4,0.75,0.35,33077,10111.50,0,0,3,11.55,-18.76,-20.44,0.40,0.75,0.35
18.5,0.12035878,-0.3381355,-0.2865534,0.41,0.75,0.36,33093,10111.50,0,0,3,9.80,-20.02,-18.48,0.41,0.75,0.36
16.40039,0.08535878,-0.36113548,-0.24755341,0.42,0.8,0.37,33115,10109.40,0,0,3,7.35,-21.63,-15.75,0.42,0.80,0.37
17.799805,0.06835878,-0.36313552,-0.2175534,0.45,0.83,0.38,33137,10110.80,0,0,3,6.16,-21.77,-13.65,0.45,0.83,0.38
17.5,0.07235879,-0.36113548,-0.17555341,0.45,0.88,0.36,33160,10110.50,0,0,3,6.44,-21.63,-10.71,0.45,0.88,0.36
17.5,0.101358786,-0.3481355,-0.13355342,0.45,0.91,0.35,33182,10110.50,0,0,3,8.47,-20.72,-7.77,0.45,0.91,0.35
17.5,0.12435877,-0.31913552,-0.09655342,0.45,0.91,0.36,33205,10110.50,0,0,3,10.08,-18.69,-5.18,0.45,0.91,0.36
17.5,0.12835878,-0.2831355,-0.06955342,0.45,0.89,0.35,33227,10110.50,0,0,3,10.36,-16.17,-3.29,0.45,0.89,0.35
16.40039,0.12435877,-0.24013549,-0.06855342,0.43,0.87,0.34,33242,10109.40,0,0,3,10.08,-13.16,-3.22,0.43,0.87,0.34
19.799805,0.11135878,-0.21513551,-0.09255342,0.41,0.87,0.34,33264,10112.80,0,0,3,9.17,-11.41,-4.90,0.41,0.87,0.34
17.5,0.09535879,-0.19413549,-0.14955342,0.38,0.86,0.34,33279,10110.50,0,0,3,8.05,-9.94,-8.89,0.38,0.86,0.34
17.799805,0.07235879,-0.1811355,-0.2235534,0.36,0.85,0.32,33295,10110.80,0,0,3,6.44,-9.03,-14.07,0.36,0.85,0.32
16.799805,0.041358784,-0.17313552,-0.28555343,0.35,0.83,0.32,33309,10109.80,0,0,3,4.27,-8.47,-18.41,0.35,0.83,0.32
17.799805,0.007358784,-0.1681355,-0.31355342,0.36,0.82,0.31,33324,10110.80,0,0,3,1.89,-8.12,-20.37,0.36,0.82,0.31
18.5,-0.03364122,-0.1791355,-0.3175534,0.36,0.8,0.31,33347,10111.50,0,0,3,-0.98,-8.89,-20.65,0.36,0.80,0.31
16.799805,-0.10664122,-0.2091355,-0.3005534,0.37,0.79,0.31,33363,10109.80,0,0,3,-6.09,-10.99,-19.46,0.37,0.79,0.31
18.799805,-0.19764122,-0.2621355,-0.26455343,0.37,0.8,0.32,33385,10111.80,0,0,3,-12.46,-14.70,-16.94,0.37,0.80,0.32
16.799805,-0.2846412,-0.3391355,-0.21155341,0.37,0.81,0.32,33408,10109.80,0,0,3,-18.55,-20.09,-13.23,0.37,0.81,0.32
16.40039,-0.33664122,-0.39813548,-0.15655342,0.37,0.84,0.32,33430,10109.40,0,0,3,-22.19,-24.22,-9.38,0.37,0.84,0.32
17.09961,-0.33564124,-0.4291355,-0.09855343,0.37,0.86,0.34,33460,10110.10,0,0,3,-22.12,-26.39,-5.32,0.37,0.86,0.34
16.799805,-0.3026412,-0.4301355,-0.03455342,0.36,0.88,0.37,33474,10109.80,0,0,3,-19.81,-26.46,-0.84,0.36,0.88,0.37
16.799805,-0.2526412,-0.3941355,0.014446581,0.34,0.89,0.38,33489,10109.80,0,0,3,-16.31,-23.94,2.59,0.34,0.89,0.38
16.799805,-0.20764121,-0.3531355,0.02844658,0.33,0.89,0.39,33512,10109.80,0,0,3,-13.16,-21.07,3.57,0.33,0.89,0.39
16.799805,-0.16964123,-0.3071355,0.03044658,0.33,0.88,0.38,33527,10109.80,0,0,3,-10.50,-17.85,3.71,0.33,0.88,0.38
17.09961,-0.117641225,-0.2551355,0.034446582,0.33,0.88,0.38,33543,10110.10,0,0,3,-6.86,-14.21,3.99,0.33,0.88,0.38
16.799805,-0.08664122,-0.21013552,0.03744658,0.34,0.88,0.37,33557,10109.80,0,0,3,-4.69,-11.06,4.20,0.34,0.88,0.37
16.799805,-0.054641217,-0.1701355,0.04144658,0.35,0.87,0.36,33572,10109.80,0,0,3,-2.45,-8.26,4.48,0.35,0.87,0.36
17.799805,-0.036641218,-0.1431355,0.043446578,0.36,0.86,0.36,33587,10110.80,0,0,3,-1.19,-6.37,4.62,0.36,0.86,0.36
16.799805,-0.027641218,-0.103135504,0.054446578,0.35,0.86,0.36,33610,10109.80,0,0,3,-0.56,-3.57,5.39,0.35,0.86,0.36
16.09961,-0.025641216,-0.0731355,0.06544658,0.35,0.87,0.35,33632,10109.10,0,0,3,-0.42,-1.47,6.16,0.35,0.87,0.35
15.799805,-0.010641217,-0.043135505,0.060446575,0.35,0.88,0.34,33655,10108.80,0,0,3,0.63,0.63,5.81,0.35,0.88,0.34
15.799805,0.0043587815,-0.020135503,0.06344658,0.35,0.87,0.34,33677,10108.80,0,0,3,1.68,2.24,6.02,0.35,0.87,0.34
15.099609,0.0053587835,0.016864493,0.07844658,0.36,0.86,0.35,33692,10108.10,0,0,3,1.75,4.83,7.07,0.36,0.86,0.35
13.099609,0.0063587837,0.053864494,0.082446575,0.36,0.88,0.34,33714,10106.10,0,0,3,1.82,7.42,7.35,0.36,0.88,0.34
13.099609,0.026358783,0.09286449,0.07544658,0.36,0.88,0.33,33737,10106.10,0,0,3,3.22,10.15,6.86,0.36,0.88,0.33
11.0,0.039358784,0.11386449,0.06744658,0.37,0.87,0.34,33752,10104.00,0,0,3,4.13,11.62,6.30,0.37,0.87,0.34
10.0,0.033358783,0.13686448,0.07344657,0.38,0.86,0.35,33775,10103.00,0,0,3,3.71,13.23,6.72,0.38,0.86,0.35
9.0,0.014358785,0.15786448,0.08544658,0.39,0.86,0.36,33789,10102.00,0,0,3,2.38,14.70,7.56,0.39,0.86,0.36
9.0,3.587827E-4,0.18586448,0.09544658,0.39,0.88,0.35,33805,10102.00,0,0,3,1.40,16.66,8.26,0.39,0.88,0.35
8.0,0.007358784,0.21586451,0.08944658,0.39,0.9,0.34,33820,10101.00,0,0,3,1.89,18.76,7.84,0.39,0.90,0.34
6.0,0.029358786,0.24586451,0.07344657,0.39,0.91,0.34,33834,10099.00,0,0,3,3.43,20.86,6.72,0.39,0.91,0.34
3.2998047,0.048358787,0.2798645,0.046446577,0.39,0.89,0.35,33857,10096.30,0,0,3,4.76,23.24,4.83,0.39,0.89,0.35
3.0,0.047358785,0.3068645,0.029446581,0.39,0.96,0.37,33879,10096.00,0,0,3,4.69,25.13,3.64,0.39,0.96,0.37
1.2998047,0.020358782,0.3258645,0.02844658,0.41,0.98,0.38,33910,10094.30,0,0,3,2.80,26.46,3.57,0.41,0.98,0.38
-1.0996094,-0.014641217,0.3558645,0.04044658,0.41,0.93,0.39,33918,10091.90,0,0,3,0.35,28.56,4.41,0.41,0.93,0.39
-2.0996094,-0.058641218,0.3678645,0.04144658,0.4,0.88,0.41,33940,10090.90,0,0,3,-2.73,29.40,4.48,0.40,0.88,0.41
-2.7998047,-0.097641215,0.3538645,0.026446583,0.38,0.88,0.41,33962,10090.20,0,0,3,-5.46,28.42,3.43,0.38,0.88,0.41
-2.0996094,-0.09464122,0.3298645,-0.014553419,0.37,0.87,0.41,33985,10090.90,0,0,3,-5.25,26.74,0.56,0.37,0.87,0.41
-1.0996094,-0.043641217,0.31386453,-0.04755342,0.36,0.85,0.4,34007,10091.90,0,0,3,-1.68,25.62,-1.75,0.36,0.85,0.40
-6.5,-0.0066412166,0.30586448,-0.057553418,0.35,0.84,0.41,34022,10086.50,0,0,3,0.91,25.06,-2.45,0.35,0.84,0.41
-0.7998047,0.022358783,0.2938645,-0.05455342,0.34,0.82,0.42,34037,10092.20,0,0,3,2.94,24.22,-2.24,0.34,0.82,0.42
-2.0996094,0.041358784,0.2828645,-0.03855342,0.32,0.82,0.42,34067,10090.90,0,0,3,4.27,23.45,-1.12,0.32,0.82,0.42
-1.7998047,0.05635879,0.2678645,-0.02355342,0.31,0.82,0.43,34069,10091.20,0,0,3,5.32,22.40,-0.07,0.31,0.82,0.43
-1.7998047,0.062358778,0.2568645,0.004446581,0.31,0.8,0.45,34089,10091.20,0,0,3,5.74,21.63,1.89,0.31,0.80,0.45
-0.7998047,0.053358782,0.2468645,0.059446573,0.31,0.77,0.47,34105,10092.20,0,0,3,5.11,20.93,5.74,0.31,0.77,0.47
-0.40039062,0.042358786,0.24786451,0.10244658,0.3,0.77,0.48,34127,10092.60,0,0,3,4.34,21.00,8.75,0.30,0.77,0.48
-0.7998047,0.029358786,0.4018645,0.113446586,0.28,0.8,0.49,34149,10092.20,0,0,3,3.43,31.78,9.52,0.28,0.80,0.49
-1.7998047,0.08535878,0.22686452,0.115446575,0.29,0.78,0.49,34172,10091.20,0,0,3,7.35,19.53,9.66,0.29,0.78,0.49
-1.7998047,0.06535879,0.21486452,0.15544659,0.3,0.77,0.51,34195,10091.20,0,0,3,5.95,18.69,12.46,0.30,0.77,0.51
-1.7998047,0.053358782,0.19486451,0.1604466,0.31,0.76,0.53,34210,10091.20,0,0,3,5.11,17.29,12.81,0.31,0.76,0.53
-1.7998047,0.0043587815,0.18486449,0.16144659,0.3,0.81,0.55,34233,10091.20,0,0,3,1.68,16.59,12.88,0.30,0.81,0.55
-1.4003906,-0.045641217,0.19186449,0.14944659,0.32,0.88,0.56,34255,10091.60,0,0,3,-1.82,17.08,12.04,0.32,0.88,0.56
-0.7998047,-0.056641217,0.19886449,0.14544658,0.33,0.92,0.55,34270,10092.20,0,0,3,-2.59,17.57,11.76,0.33,0.92,0.55
0.2998047,-0.059641216,0.18486449,0.14744659,0.32,0.93,0.55,34292,10093.30,0,0,3,-2.80,16.59,11.90,0.32,0.93,0.55
0.5996094,-0.038641218,0.1708645,0.12344658,0.31,0.94,0.53,34307,10093.60,0,0,3,-1.33,15.61,10.22,0.31,0.94,0.53
0.5996094,0.0063587837,0.15786448,0.09244658,0.29,0.93,0.51,34322,10093.60,0,0,3,1.82,14.70,8.05,0.29,0.93,0.51
0.5996094,0.07235879,0.13486451,0.020446582,0.28,0.91,0.48,34337,10093.60,0,0,3,6.44,13.09,3.01,0.28,0.91,0.48
0.9003906,0.12635878,0.09186449,-0.01155342,0.27,0.87,0.47,34360,10093.90,0,0,3,10.22,10.08,0.77,0.27,0.87,0.47
1.5996094,0.18635878,0.09186449,-0.06455342,0.26,0.83,0.45,34382,10094.60,0,0,3,14.42,10.08,-2.94,0.26,0.83,0.45
2.2998047,0.18435878,0.06786449,-0.06255342,0.23,0.8,0.44,34397,10095.30,0,0,3,14.28,8.40,-2.80,0.23,0.80,0.44
2.5996094,0.18135877,0.06486449,-0.05055342,0.21,0.81,0.43,34420,10095.60,0,0,3,14.07,8.19,-1.96,0.21,0.81,0.43
1.5996094,0.18535878,0.082864486,-0.03855342,0.22,0.81,0.41,34443,10094.60,0,0,3,14.35,9.45,-1.12,0.22,0.81,0.41
0.5996094,0.17735878,0.084864505,-0.0045534205,0.24,0.81,0.41,34465,10093.60,0,0,3,13.79,9.59,1.26,0.24,0.81,0.41
1.5996094,0.12835878,0.0758645,0.039446585,0.26,0.8,0.43,34488,10094.60,0,0,3,10.36,8.96,4.34,0.26,0.80,0.43
-0.40039062,0.06035878,0.05486449,0.061446577,0.26,0.81,0.44,34502,10092.60,0,0,3,5.60,7.49,5.88,0.26,0.81,0.44
2.5996094,-0.011641216,0.027864493,0.07044658,0.26,0.83,0.45,34517,10095.60,0,0,3,0.56,5.60,6.51,0.26,0.83,0.45
2.9003906,-0.06464122,0.0048644952,0.082446575,0.27,0.86,0.44,34532,10095.90,0,0,3,-3.15,3.99,7.35,0.27,0.86,0.44
2.5996094,-0.09264122,-0.016135506,0.08144658,0.28,0.88,0.43,34555,10095.60,0,0,3,-5.11,2.52,7.28,0.28,0.88,0.43
3.5996094,-0.09164122,-0.045135505,0.09244658,0.3,0.88,0.43,34570,10096.60,0,0,3,-5.04,0.49,8.05,0.30,0.88,0.43
-0.40039062,-0.09164122,-0.082135506,0.09244658,0.3,0.87,0.44,34584,10092.60,0,0,3,-5.04,-2.10,8.05,0.30,0.87,0.44
5.0,-0.08964121,-0.1291355,0.08744658,0.31,0.87,0.44,34608,10098.00,0,0,3,-4.90,-5.39,7.70,0.31,0.87,0.44
6.0,-0.07664122,-0.1711355,0.08044658,0.31,0.86,0.44,34623,10099.00,0,0,3,-3.99,-8.33,7.21,0.31,0.86,0.44
7.7001953,-0.06364122,-0.20113552,0.07044658,0.32,0.85,0.44,34653,10100.70,0,0,3,-3.08,-10.43,6.51,0.32,0.85,0.44
8.0,-0.058641218,-0.24313551,0.071446575,0.32,0.85,0.44,34668,10101.00,0,0,3,-2.73,-13.37,6.58,0.32,0.85,0.44
7.0,-0.049641214,-0.25213552,0.04744658,0.31,0.85,0.44,34690,10100.00,0,0,3,-2.10,-14.00,4.90,0.31,0.85,0.44
8.299805,-0.05364122,-0.2741355,0.026446583,0.3,0.85,0.45,34712,10101.30,0,0,3,-2.38,-15.54,3.43,0.30,0.85,0.45
8.0,-0.06664121,-0.2841355,-0.0035534184,0.29,0.85,0.45,34727,10101.00,0,0,3,-3.29,-16.24,1.33,0.29,0.85,0.45
10.0,-0.08664122,-0.2951355,-0.04355342,0.28,0.85,0.46,34750,10103.00,0,0,3,-4.69,-17.01,-1.47,0.28,0.85,0.46
10.700195,-0.104641214,-0.3061355,-0.07655342,0.27,0.87,0.46,34764,10103.70,0,0,3,-5.95,-17.78,-3.78,0.27,0.87,0.46
11.0,-0.11464122,-0.3161355,-0.101553425,0.27,0.87,0.46,34787,10104.00,0,0,3,-6.65,-18.48,-5.53,0.27,0.87,0.46
12.0,-0.112641215,-0.32613552,-0.123553425,0.26,0.88,0.46,34802,10105.00,0,0,3,-6.51,-19.18,-7.07,0.26,0.88,0.46
13.400391,-0.105641216,-0.34013548,-0.14755341,0.25,0.87,0.46,34818,10106.40,0,0,3,-6.02,-20.16,-8.75,0.25,0.87,0.46
14.099609,-0.09364122,-0.3481355,-0.16055341,0.25,0.87,0.46,34832,10107.10,0,0,3,-5.18,-20.72,-9.66,0.25,0.87,0.46
15.400391,-0.07864122,-0.36613548,-0.16355342,0.25,0.85,0.47,34855,10108.40,0,0,3,-4.13,-21.98,-9.87,0.25,0.85,0.47
17.09961,-0.060641214,-0.3721355,-0.14855342,0.26,0.84,0.48,34877,10110.10,0,0,3,-2.87,-22.40,-8.82,0.26,0.84,0.48
19.09961,-0.037641216,-0.3671355,-0.11655342,0.28,0.84,0.48,34900,10112.10,0,0,3,-1.26,-22.05,-6.58,0.28,0.84,0.48
21.09961,-0.031641215,-0.3671355,-0.09255342,0.29,0.84,0.49,34915,10114.10,0,0,3,-0.84,-22.05,-4.90,0.29,0.84,0.49
25.200195,-0.029641217,-0.3721355,-0.08555342,0.29,0.89,0.49,34937,10118.20,0,0,3,-0.70,-22.40,-4.41,0.29,0.89,0.49
23.799805,-0.032641217,-0.3651355,-0.086553425,0.31,0.93,0.49,34960,10116.80,0,0,3,-0.91,-21.91,-4.48,0.31,0.93,0.49
24.200195,-0.039641216,-0.3501355,-0.11055342,0.32,0.93,0.49,34982,10117.20,0,0,3,-1.40,-20.86,-6.16,0.32,0.93,0.49
24.5,-0.05164122,-0.3461355,-0.13455342,0.34,0.88,0.48,35005,10117.50,0,0,3,-2.24,-20.58,-7.84,0.34,0.88,0.48
23.200195,-0.05164122,-0.3501355,-0.13555342,0.36,0.86,0.47,35020,10116.20,0,0,3,-2.24,-20.86,-7.91,0.36,0.86,0.47
22.5,-0.043641217,-0.3601355,-0.12455342,0.37,0.86,0.46,35035,10115.50,0,0,3,-1.68,-21.56,-7.14,0.37,0.86,0.46
24.5,-0.036641218,-0.3581355,-0.101553425,0.38,0.87,0.45,35050,10117.50,0,0,3,-1.19,-21.42,-5.53,0.38,0.87,0.45
24.5,-0.020641217,-0.3411355,-0.06955342,0.38,0.88,0.43,35065,10117.50,0,0,3,-0.07,-20.23,-3.29,0.38,0.88,0.43
25.5,0.007358784,-0.31013548,-0.042553417,0.38,0.89,0.42,35080,10118.50,0,0,3,1.89,-18.06,-1.40,0.38,0.89,0.42
25.5,0.037358783,-0.2711355,-0.01155342,0.37,0.9,0.41,35103,10118.50,0,0,3,3.99,-15.33,0.77,0.37,0.90,0.41
