Pressure_Rel,GyroX_Rel,GyroY_Rel,GyroZ_Rel,AccX_Rel,AccY_Rel,AccZ_Rel,Timestamp,Pressure_abs,HeartRate,Oxygen,Status,GyroX,GyroY,GyroZ,AccX,AccY,AccZ
-0.68847656,0.024940893,0.029785726,0.0029605897,0.27,0.95,0.23,13101,10029.40,0,0,165,1.05,-1.05,0.49,0.27,0.95,0.23
-0.38867188,0.012940893,0.026785728,9.605894E-4,0.26,0.95,0.23,13109,10029.70,0,0,0,0.21,-1.26,0.35,0.26,0.95,0.23
-0.38867188,0.006940894,0.028785726,-0.0020394104,0.26,0.95,0.24,13123,10029.70,0,0,165,-0.21,-1.12,0.14,0.26,0.95,0.24
-0.38867188,0.003940894,0.027785726,-0.0040394105,0.26,0.95,0.24,13139,10029.70,0,0,0,-0.42,-1.19,0.00,0.26,0.95,0.24
0.6113281,0.0029408932,0.024785727,-0.0020394104,0.26,0.95,0.24,13146,10030.70,0,0,165,-0.49,-1.40,0.14,0.26,0.95,0.24
-0.38867188,0.007940893,0.021785727,-0.0010394107,0.26,0.96,0.24,13161,10029.70,0,0,0,-0.14,-1.61,0.21,0.26,0.96,0.24
-0.38867188,0.014940893,0.013785725,0.001960589,0.26,0.95,0.24,13176,10029.70,0,0,165,0.35,-2.17,0.42,0.26,0.95,0.24
0.6113281,0.017940894,0.017785726,-3.941031E-5,0.26,0.96,0.24,13183,10030.70,0,0,0,0.56,-1.89,0.28,0.26,0.96,0.24
0.6113281,0.016940894,0.019785726,-0.0020394104,0.26,0.96,0.24,13198,10030.70,0,0,165,0.49,-1.75,0.14,0.26,0.96,0.24
0.9111328,0.021940893,0.019785726,-0.0030394103,0.26,0.95,0.24,13213,10031.00,0,0,0,0.84,-1.75,0.07,0.26,0.95,0.24
-0.68847656,0.026940893,0.021785727,0.004960589,0.26,0.95,0.24,13221,10029.40,0,0,165,1.19,-1.61,0.63,0.26,0.95,0.24
-0.38867188,0.030940894,0.025785726,0.00896059,0.26,0.95,0.25,13235,10029.70,0,0,0,1.47,-1.33,0.91,0.26,0.95,0.25
-0.38867188,0.029940892,0.035785727,0.00996059,0.26,0.95,0.24,13251,10029.70,0,0,165,1.40,-0.63,0.98,0.26,0.95,0.24
-0.38867188,0.026940893,0.044785727,0.007960589,0.26,0.95,0.24,13258,10029.70,0,0,0,1.19,0.00,0.84,0.26,0.95,0.24
-0.38867188,0.026940893,0.046785727,0.0059605893,0.26,0.95,0.24,13273,10029.70,0,0,165,1.19,0.14,0.70,0.26,0.95,0.24
0.6113281,0.025940895,0.047785725,0.0069605894,0.26,0.95,0.24,13289,10030.70,0,0,0,1.12,0.21,0.77,0.26,0.95,0.24
-1.3886719,0.026940893,0.045785725,0.004960589,0.26,0.95,0.23,13296,10028.70,0,0,165,1.19,0.07,0.63,0.26,0.95,0.23
-0.38867188,0.030940894,0.04178573,0.0059605893,0.27,0.95,0.23,13319,10029.70,0,0,0,1.47,-0.21,0.70,0.27,0.95,0.23
-0.38867188,0.029940892,0.031785727,0.004960589,0.27,0.95,0.23,13327,10029.70,0,0,165,1.40,-0.91,0.63,0.27,0.95,0.23
-0.38867188,0.029940892,0.025785726,0.007960589,0.27,0.95,0.23,13333,10029.70,0,0,0,1.40,-1.33,0.84,0.27,0.95,0.23
-0.38867188,0.027940892,0.022785727,0.004960589,0.26,0.96,0.23,13351,10029.70,0,0,165,1.26,-1.54,0.63,0.26,0.96,0.23
-0.08886719,0.037940893,0.018785726,0.001960589,0.26,0.95,0.23,13367,10030.00,0,0,0,1.96,-1.82,0.42,0.26,0.95,0.23
-1.3886719,0.044940893,0.015785728,-0.0020394104,0.26,0.95,0.23,13370,10028.70,0,0,165,2.45,-2.03,0.14,0.26,0.95,0.23
-0.38867188,0.044940893,0.013785725,-0.0030394103,0.26,0.95,0.23,13386,10029.70,0,0,0,2.45,-2.17,0.07,0.26,0.95,0.23
-1.3886719,0.042940892,0.010785725,-0.006039411,0.27,0.95,0.23,13403,10028.70,0,0,165,2.31,-2.38,-0.14,0.27,0.95,0.23
0.6113281,0.054940894,-0.0042142756,-0.0010394107,0.27,0.95,0.23,13417,10030.70,0,0,0,3.15,-3.43,0.21,0.27,0.95,0.23
-0.38867188,0.055940893,-0.0132142715,0.00396059,0.27,0.95,0.24,13427,10029.70,0,0,165,3.22,-4.06,0.56,0.27,0.95,0.24
-1.3886719,0.04994089,-0.016214274,0.0069605894,0.27,0.95,0.23,13438,10028.70,0,0,0,2.80,-4.27,0.77,0.27,0.95,0.23
-0.38867188,0.053940892,-0.023214277,0.014960591,0.27,0.95,0.23,13454,10029.70,0,0,165,3.08,-4.76,1.33,0.27,0.95,0.23
0.6113281,0.066940896,-0.029214274,0.02396059,0.27,0.95,0.23,13461,10030.70,0,0,0,3.99,-5.18,1.96,0.27,0.95,0.23
1.2109375,0.088940896,-0.045214277,0.03296059,0.27,0.95,0.23,13476,10031.30,0,0,165,5.53,-6.30,2.59,0.27,0.95,0.23
1.9111328,0.1189409,-0.06321427,0.036960587,0.26,0.96,0.23,13485,10032.00,0,0,0,7.63,-7.56,2.87,0.26,0.96,0.23
3.5107422,0.1679409,-0.06921427,0.03796059,0.26,0.97,0.22,13506,10033.60,0,0,165,11.06,-7.98,2.94,0.26,0.97,0.22
1.6113281,0.2099409,-0.056214277,0.02096059,0.25,0.97,0.21,13513,10031.70,0,0,0,14.00,-7.07,1.75,0.25,0.97,0.21
0.6113281,0.1839409,-0.025214273,-0.00903941,0.26,0.97,0.21,13521,10030.70,0,0,165,12.18,-4.90,-0.35,0.26,0.97,0.21
0.6113281,0.1439409,-0.016214274,-0.02203941,0.28,0.96,0.22,13536,10030.70,0,0,0,9.38,-4.27,-1.26,0.28,0.96,0.22
-0.68847656,0.1359409,-0.041214276,-0.01503941,0.28,0.95,0.22,13551,10029.40,0,0,165,8.82,-6.02,-0.77,0.28,0.95,0.22
-1.3886719,0.109940894,-0.043214273,-0.0010394107,0.28,0.94,0.22,13558,10028.70,0,0,0,7.00,-6.16,0.21,0.28,0.94,0.22
-2.2890625,0.1299409,-0.07321428,0.014960591,0.28,0.95,0.22,13574,10027.80,0,0,165,8.40,-8.26,1.33,0.28,0.95,0.22
-2.2890625,0.12694089,-0.09621428,0.02196059,0.27,0.94,0.21,13588,10027.80,0,0,0,8.19,-9.87,1.82,0.27,0.94,0.21
-3.2890625,0.08094089,-0.10221428,0.02296059,0.28,0.94,0.21,13596,10026.80,0,0,165,4.97,-10.29,1.89,0.28,0.94,0.21
-5.1884766,0.024940893,-0.11521427,0.031960588,0.27,0.95,0.21,13610,10024.90,0,0,0,1.05,-11.20,2.52,0.27,0.95,0.21
-5.1884766,0.012940893,-0.09521428,0.02296059,0.27,0.96,0.21,13627,10024.90,0,0,165,0.21,-9.80,1.89,0.27,0.96,0.21
-5.1884766,0.005940893,-0.08821428,0.02096059,0.27,0.95,0.21,13633,10024.90,0,0,0,-0.28,-9.31,1.75,0.27,0.95,0.21
-7.1884766,-0.009059108,-0.08421427,0.024960589,0.27,0.95,0.21,13648,10022.90,0,0,165,-1.33,-9.03,2.03,0.27,0.95,0.21
-6.1884766,-0.0030591069,-0.053214278,0.01796059,0.27,0.95,0.21,13665,10023.90,0,0,0,-0.91,-6.86,1.54,0.27,0.95,0.21
-8.088867,0.0029408932,-0.022214275,0.010960589,0.27,0.95,0.21,13671,10022.00,0,0,165,-0.49,-4.69,1.05,0.27,0.95,0.21
-8.088867,0.001940893,0.008785728,0.001960589,0.27,0.95,0.21,13688,10022.00,0,0,0,-0.56,-2.52,0.42,0.27,0.95,0.21
-9.088867,-0.0020591058,-0.014214274,0.01196059,0.28,0.95,0.21,13701,10021.00,0,0,165,-0.84,-4.13,1.12,0.28,0.95,0.21
-9.088867,0.0049408935,-0.024214271,0.01296059,0.28,0.96,0.2,13708,10021.00,0,0,0,-0.35,-4.83,1.19,0.28,0.96,0.20
-10.388672,0.003940894,-0.032214273,0.01696059,0.28,0.95,0.2,13728,10019.70,0,0,165,-0.42,-5.39,1.47,0.28,0.95,0.20
-9.088867,0.005940893,-0.032214273,0.02896059,0.28,0.95,0.2,13747,10021.00,0,0,0,-0.28,-5.39,2.31,0.28,0.95,0.20
-10.088867,9.408938E-4,-0.026214268,0.036960587,0.28,0.95,0.21,13756,10020.00,0,0,165,-0.63,-4.97,2.87,0.28,0.95,0.21
-10.088867,0.011940894,-0.03821427,0.02196059,0.28,0.95,0.2,13763,10020.00,0,0,0,0.14,-5.81,1.82,0.28,0.95,0.20
-10.088867,-0.24605912,-0.016214274,0.036960587,0.27,0.96,0.21,13776,10020.00,0,0,165,-17.92,-4.27,2.87,0.27,0.96,0.21
-9.7890625,0.011940894,-0.023214277,0.029960591,0.27,0.96,0.21,13783,10020.30,0,0,0,0.14,-4.76,2.38,0.27,0.96,0.21
-11.088867,0.008940893,-0.033214275,0.01796059,0.27,0.96,0.21,13798,10019.00,0,0,165,-0.07,-5.46,1.54,0.27,0.96,0.21
-11.088867,0.0049408935,-0.011214275,0.00896059,0.28,0.96,0.22,13815,10019.00,0,0,0,-0.35,-3.92,0.91,0.28,0.96,0.22
-10.388672,0.017940894,-0.025214273,-3.941031E-5,0.28,0.95,0.22,13822,10019.70,0,0,165,0.56,-4.90,0.28,0.28,0.95,0.22
-11.989258,0.008940893,-0.0042142756,-0.0020394104,0.28,0.95,0.22,13837,10018.10,0,0,0,-0.07,-3.43,0.14,0.28,0.95,0.22
-11.088867,0.010940894,0.0017857254,0.007960589,0.29,0.95,0.22,13852,10019.00,0,0,165,0.07,-3.01,0.84,0.29,0.95,0.22
-10.688477,0.006940894,0.0017857254,0.01796059,0.29,0.95,0.22,13859,10019.40,0,0,0,-0.21,-3.01,1.54,0.29,0.95,0.22
-10.088867,0.008940893,7.8572705E-4,0.02096059,0.28,0.96,0.21,13875,10020.00,0,0,165,-0.07,-3.08,1.75,0.28,0.96,0.21
-11.989258,0.013940893,0.0037857294,0.02096059,0.27,0.96,0.21,13888,10018.10,0,0,0,0.28,-2.87,1.75,0.27,0.96,0.21
-11.989258,0.008940893,0.008785728,0.015960589,0.28,0.96,0.21,13896,10018.10,0,0,165,-0.07,-2.52,1.40,0.28,0.96,0.21
-11.688477,0.019940894,-0.005214274,0.010960589,0.28,0.96,0.21,13910,10018.40,0,0,0,0.70,-3.50,1.05,0.28,0.96,0.21
-11.989258,0.021940893,-0.0012142733,0.010960589,0.28,0.95,0.21,13925,10018.10,0,0,165,0.84,-3.22,1.05,0.28,0.95,0.21
-11.088867,0.021940893,0.0067857243,0.0069605894,0.28,0.95,0.21,13933,10019.00,0,0,0,0.84,-2.66,0.77,0.28,0.95,0.21
-11.088867,0.016940894,0.0017857254,0.00896059,0.29,0.95,0.21,13948,10019.00,0,0,165,0.49,-3.01,0.91,0.29,0.95,0.21
-11.989258,0.008940893,-2.1427497E-4,0.0069605894,0.29,0.95,0.21,13963,10018.10,0,0,0,-0.07,-3.15,0.77,0.29,0.95,0.21
-10.688477,9.408938E-4,0.008785728,0.010960589,0.29,0.95,0.21,13970,10019.40,0,0,165,-0.63,-2.52,1.05,0.29,0.95,0.21
-11.088867,-0.0030591069,0.009785727,0.015960589,0.28,0.95,0.21,13985,10019.00,0,0,0,-0.91,-2.45,1.40,0.28,0.95,0.21
-11.088867,9.408938E-4,-0.0042142756,0.02296059,0.29,0.95,0.21,14009,10019.00,0,0,165,-0.63,-3.43,1.89,0.29,0.95,0.21
-11.989258,-0.0020591058,-2.1427497E-4,0.02396059,0.28,0.95,0.21,14010,10018.10,0,0,0,-0.84,-3.15,1.96,0.28,0.95,0.21
-11.989258,-5.9106387E-5,-0.0012142733,0.02696059,0.28,0.95,0.21,14023,10018.10,0,0,165,-0.70,-3.22,2.17,0.28,0.95,0.21
-11.688477,0.0049408935,-0.009214275,0.02296059,0.28,0.95,0.21,14038,10018.40,0,0,0,-0.35,-3.78,1.89,0.28,0.95,0.21
-11.989258,0.26294088,-0.015214272,0.015960589,0.28,0.95,0.22,14045,10018.10,0,0,165,17.71,-4.20,1.40,0.28,0.95,0.22
-11.989258,0.006940894,-0.014214274,0.014960591,0.28,0.95,0.22,14061,10018.10,0,0,0,-0.21,-4.13,1.33,0.28,0.95,0.22
-11.989258,0.007940893,-0.014214274,0.015960589,0.29,0.95,0.21,14075,10018.10,0,0,165,-0.14,-4.13,1.40,0.29,0.95,0.21
-11.989258,0.012940893,-0.012214273,0.01896059,0.29,0.95,0.21,14083,10018.10,0,0,0,0.21,-3.99,1.61,0.29,0.95,0.21
-12.688477,0.011940894,-2.1427497E-4,0.01696059,0.29,0.95,0.22,14100,10017.40,0,0,165,0.14,-3.15,1.47,0.29,0.95,0.22
-11.989258,0.0029408932,0.005785726,0.01896059,0.29,0.95,0.22,14121,10018.10,0,0,0,-0.49,-2.73,1.61,0.29,0.95,0.22
-11.989258,0.001940893,-0.0012142733,0.02396059,0.29,0.95,0.21,14123,10018.10,0,0,165,-0.56,-3.22,1.96,0.29,0.95,0.21
-11.688477,9.408938E-4,-0.0042142756,0.02196059,0.28,0.95,0.21,14136,10018.40,0,0,0,-0.63,-3.43,1.82,0.28,0.95,0.21
-11.688477,-0.0030591069,0.0027857274,0.013960589,0.28,0.95,0.21,14151,10018.40,0,0,165,-0.91,-2.94,1.26,0.28,0.95,0.21
-11.989258,0.001940893,0.0037857294,0.004960589,0.28,0.95,0.22,14158,10018.10,0,0,0,-0.56,-2.87,0.63,0.28,0.95,0.22
-12.989258,0.0029408932,0.0037857294,-3.941031E-5,0.29,0.95,0.22,14173,10017.10,0,0,165,-0.49,-2.87,0.28,0.29,0.95,0.22
-11.989258,-0.0020591058,0.0037857294,0.0059605893,0.29,0.95,0.22,14188,10018.10,0,0,0,-0.84,-2.87,0.70,0.29,0.95,0.22
-11.989258,0.001940893,0.0047857277,0.007960589,0.29,0.95,0.22,14196,10018.10,0,0,165,-0.56,-2.80,0.84,0.29,0.95,0.22
-12.989258,0.009940893,-0.0012142733,0.014960591,0.29,0.94,0.21,14211,10017.10,0,0,0,0.00,-3.22,1.33,0.29,0.94,0.21
-11.989258,0.012940893,0.0077857263,0.01696059,0.28,0.95,0.22,14225,10018.10,0,0,165,0.21,-2.59,1.47,0.28,0.95,0.22
-11.989258,0.009940893,0.0037857294,0.01796059,0.28,0.95,0.22,14233,10018.10,0,0,0,0.00,-2.87,1.54,0.28,0.95,0.22
-11.088867,0.006940894,-2.1427497E-4,0.01196059,0.28,0.96,0.22,14248,10019.00,0,0,165,-0.21,-3.15,1.12,0.28,0.96,0.22
-11.088867,0.007940893,-0.006214272,0.00396059,0.28,0.96,0.22,14263,10019.00,0,0,0,-0.14,-3.57,0.56,0.28,0.96,0.22
-11.088867,0.008940893,-0.0072142743,-3.941031E-5,0.29,0.96,0.22,14270,10019.00,0,0,165,-0.07,-3.64,0.28,0.29,0.96,0.22
-10.088867,0.008940893,0.008785728,-0.0010394107,0.29,0.95,0.22,14286,10020.00,0,0,0,-0.07,-2.52,0.21,0.29,0.95,0.22
-9.088867,0.005940893,0.015785728,0.0069605894,0.29,0.95,0.22,14301,10021.00,0,0,165,-0.28,-2.03,0.77,0.29,0.95,0.22
-10.088867,0.006940894,0.017785726,0.0059605893,0.29,0.95,0.22,14308,10020.00,0,0,0,-0.21,-1.89,0.70,0.29,0.95,0.22
-9.088867,0.001940893,0.012785725,0.0069605894,0.29,0.95,0.22,14323,10021.00,0,0,165,-0.56,-2.24,0.77,0.29,0.95,0.22
-8.7890625,0.0049408935,0.0037857294,0.0059605893,0.29,0.95,0.22,14338,10021.30,0,0,0,-0.35,-2.87,0.70,0.29,0.95,0.22
-7.1884766,0.007940893,0.0027857274,0.004960589,0.29,0.95,0.22,14346,10022.90,0,0,165,-0.14,-2.94,0.63,0.29,0.95,0.22
-7.7890625,0.0029408932,0.005785726,-0.0030394103,0.29,0.95,0.21,14361,10022.30,0,0,0,-0.49,-2.73,0.07,0.29,0.95,0.21
-9.088867,0.012940893,0.0147857275,-0.01003941,0.29,0.95,0.22,14386,10021.00,0,0,165,0.21,-2.10,-0.42,0.29,0.95,0.22
-5.888672,0.019940894,0.008785728,-0.012039411,0.29,0.95,0.22,14387,10024.20,0,0,0,0.70,-2.52,-0.56,0.29,0.95,0.22
-5.1884766,0.020940892,0.0147857275,-0.012039411,0.29,0.95,0.22,14399,10024.90,0,0,165,0.77,-2.10,-0.56,0.29,0.95,0.22
-4.888672,0.021940893,0.013785725,-0.0030394103,0.29,0.95,0.22,14415,10025.20,0,0,0,0.84,-2.17,0.07,0.29,0.95,0.22
-3.8886719,0.021940893,0.0067857243,-0.0040394105,0.29,0.95,0.22,14421,10026.20,0,0,165,0.84,-2.66,0.00,0.29,0.95,0.22
-2.9892578,0.014940893,0.0037857294,-0.0050394107,0.29,0.95,0.22,14436,10027.10,0,0,0,0.35,-2.87,-0.07,0.29,0.95,0.22
-2.2890625,0.017940894,-0.011214275,-0.006039411,0.29,0.95,0.22,14459,10027.80,0,0,165,0.56,-3.92,-0.14,0.29,0.95,0.22
-0.08886719,0.020940892,-0.009214275,-0.008039411,0.29,0.95,0.22,14459,10030.00,0,0,0,0.77,-3.78,-0.28,0.29,0.95,0.22
1.9111328,0.018940892,-0.0042142756,-0.012039411,0.29,0.95,0.22,14473,10032.00,0,0,165,0.63,-3.43,-0.56,0.29,0.95,0.22
3.8115234,0.020940892,0.0017857254,-0.01703941,0.28,0.95,0.22,14488,10033.90,0,0,0,0.77,-3.01,-0.91,0.28,0.95,0.22
5.8115234,0.021940893,0.0047857277,-0.019039411,0.28,0.95,0.21,14496,10035.90,0,0,165,0.84,-2.80,-1.05,0.28,0.95,0.21
7.411133,0.028940894,0.0017857254,-0.023039412,0.28,0.95,0.22,14510,10037.50,0,0,0,1.33,-3.01,-1.33,0.28,0.95,0.22
9.7109375,0.026940893,0.0077857263,-0.02603941,0.28,0.95,0.22,14525,10039.80,0,0,165,1.19,-2.59,-1.54,0.28,0.95,0.22
11.311523,0.027940892,0.0017857254,-0.02703941,0.28,0.94,0.22,14533,10041.40,0,0,0,1.26,-3.01,-1.61,0.28,0.94,0.22
12.2109375,0.016940894,0.0037857294,-0.02703941,0.28,0.94,0.22,14548,10042.30,0,0,165,0.49,-2.87,-1.61,0.28,0.94,0.22
14.510742,0.008940893,-0.0042142756,-0.02703941,0.28,0.94,0.22,14565,10044.60,0,0,0,-0.07,-3.43,-1.61,0.28,0.94,0.22
15.510742,0.016940894,-0.024214271,-0.023039412,0.28,0.95,0.22,14570,10045.60,0,0,165,0.49,-4.83,-1.33,0.28,0.95,0.22
15.510742,0.022940893,-0.023214277,-0.02203941,0.28,0.95,0.22,14585,10045.60,0,0,0,0.91,-4.76,-1.26,0.28,0.95,0.22
16.510742,0.021940893,-0.018214274,-0.018039411,0.29,0.95,0.22,14600,10046.60,0,0,165,0.84,-4.41,-0.98,0.29,0.95,0.22
15.510742,0.022940893,-0.010214273,-0.012039411,0.29,0.95,0.22,14608,10045.60,0,0,0,0.91,-3.85,-0.56,0.29,0.95,0.22
15.510742,0.015940893,0.008785728,-0.008039411,0.29,0.95,0.22,14623,10045.60,0,0,165,0.42,-2.52,-0.28,0.29,0.95,0.22
16.111328,0.020940892,0.0027857274,-0.006039411,0.29,0.95,0.22,14639,10046.20,0,0,0,0.77,-2.94,-0.14,0.29,0.95,0.22
15.2109375,0.021940893,0.0017857254,-0.01003941,0.29,0.95,0.22,14648,10045.30,0,0,165,0.84,-3.01,-0.42,0.29,0.95,0.22
15.2109375,0.016940894,0.015785728,-0.01303941,0.29,0.95,0.22,14661,10045.30,0,0,0,0.49,-2.03,-0.63,0.29,0.95,0.22
14.510742,0.010940894,0.018785726,-0.011039411,0.28,0.95,0.23,14676,10044.60,0,0,165,0.07,-1.82,-0.49,0.28,0.95,0.23
15.510742,0.012940893,0.015785728,-0.01503941,0.29,0.95,0.22,14683,10045.60,0,0,0,0.21,-2.03,-0.77,0.29,0.95,0.22
15.2109375,0.021940893,7.8572705E-4,-0.01303941,0.29,0.95,0.22,14698,10045.30,0,0,165,0.84,-3.08,-0.63,0.29,0.95,0.22
14.510742,0.022940893,0.0017857254,-0.01303941,0.29,0.95,0.22,14714,10044.60,0,0,0,0.91,-3.01,-0.63,0.29,0.95,0.22
14.510742,0.023940895,0.0047857277,-0.00903941,0.29,0.95,0.22,14721,10044.60,0,0,165,0.98,-2.80,-0.35,0.29,0.95,0.22
14.2109375,0.022940893,-2.1427497E-4,-0.0050394107,0.29,0.95,0.22,14736,10044.30,0,0,0,0.91,-3.15,-0.07,0.29,0.95,0.22
14.510742,0.020940892,0.0037857294,-0.0010394107,0.29,0.95,0.22,14751,10044.60,0,0,165,0.77,-2.87,0.21,0.29,0.95,0.22
13.510742,0.018940892,0.009785727,0.001960589,0.29,0.95,0.22,14759,10043.60,0,0,0,0.63,-2.45,0.42,0.29,0.95,0.22
12.611328,0.016940894,0.0147857275,0.00396059,0.28,0.95,0.22,14774,10042.70,0,0,165,0.49,-2.10,0.56,0.28,0.95,0.22
12.611328,0.026940893,0.015785728,-0.0050394107,0.29,0.96,0.22,14789,10042.70,0,0,0,1.19,-2.03,-0.07,0.29,0.96,0.22
12.611328,0.028940894,0.011785727,-0.0050394107,0.29,0.95,0.22,14796,10042.70,0,0,165,1.33,-2.31,-0.07,0.29,0.95,0.22
12.611328,0.030940894,0.0047857277,-0.0050394107,0.29,0.95,0.22,14818,10042.70,0,0,0,1.47,-2.80,-0.07,0.29,0.95,0.22
11.611328,0.034940895,0.0077857263,-0.0050394107,0.29,0.95,0.22,14826,10041.70,0,0,165,1.75,-2.59,-0.07,0.29,0.95,0.22
11.611328,0.036940895,0.011785727,-0.0020394104,0.29,0.95,0.22,14834,10041.70,0,0,0,1.89,-2.31,0.14,0.29,0.95,0.22
11.611328,0.035940893,0.013785725,-3.941031E-5,0.29,0.95,0.22,14848,10041.70,0,0,165,1.82,-2.17,0.28,0.29,0.95,0.22
10.611328,0.031940892,0.015785728,9.605894E-4,0.29,0.95,0.22,14862,10040.70,0,0,0,1.54,-2.03,0.35,0.29,0.95,0.22
10.611328,0.024940893,0.0017857254,0.0029605897,0.29,0.95,0.22,14871,10040.70,0,0,165,1.05,-3.01,0.49,0.29,0.95,0.22
10.611328,0.023940895,-0.0132142715,-0.0020394104,0.28,0.95,0.22,14886,10040.70,0,0,0,0.98,-4.06,0.14,0.28,0.95,0.22
10.611328,0.016940894,-0.010214273,-0.0050394107,0.28,0.96,0.22,14909,10040.70,0,0,165,0.49,-3.85,-0.07,0.28,0.96,0.22
10.611328,0.020940892,-0.014214274,-0.00903941,0.29,0.95,0.21,14910,10040.70,0,0,0,0.77,-4.13,-0.35,0.29,0.95,0.21
10.611328,0.023940895,7.8572705E-4,-0.01503941,0.28,0.95,0.21,14924,10040.70,0,0,165,0.98,-3.08,-0.77,0.28,0.95,0.21
9.7109375,0.026940893,0.008785728,-0.021039411,0.29,0.95,0.21,14938,10039.80,0,0,0,1.19,-2.52,-1.19,0.29,0.95,0.21
9.7109375,0.030940894,0.015785728,-0.02403941,0.29,0.95,0.21,14946,10039.80,0,0,165,1.47,-2.03,-1.40,0.29,0.95,0.21
8.7109375,0.033940893,0.008785728,-0.023039412,0.29,0.95,0.22,14961,10038.80,0,0,0,1.68,-2.52,-1.33,0.29,0.95,0.22
10.010742,0.032940894,-0.014214274,-0.01703941,0.29,0.94,0.22,14976,10040.10,0,0,165,1.61,-4.13,-0.91,0.29,0.94,0.22
7.7109375,0.024940893,-0.017214276,-0.006039411,0.29,0.94,0.22,14983,10037.80,0,0,0,1.05,-4.34,-0.14,0.29,0.94,0.22
8.7109375,0.020940892,-0.015214272,-3.941031E-5,0.29,0.95,0.22,14998,10038.80,0,0,165,0.77,-4.20,0.28,0.29,0.95,0.22
9.010742,0.021940893,-0.010214273,0.0059605893,0.28,0.95,0.22,15013,10039.10,0,0,0,0.84,-3.85,0.70,0.28,0.95,0.22
8.7109375,0.019940894,-0.0032142699,0.001960589,0.29,0.95,0.22,15020,10038.80,0,0,165,0.70,-3.36,0.42,0.29,0.95,0.22
7.7109375,0.022940893,-2.1427497E-4,-0.0020394104,0.28,0.95,0.22,15036,10037.80,0,0,0,0.91,-3.15,0.14,0.28,0.95,0.22
8.7109375,0.021940893,0.009785727,-0.00903941,0.29,0.95,0.22,15050,10038.80,0,0,165,0.84,-2.45,-0.35,0.29,0.95,0.22
7.7109375,0.023940895,0.008785728,-0.00703941,0.29,0.95,0.22,15058,10037.80,0,0,0,0.98,-2.52,-0.21,0.29,0.95,0.22
7.7109375,0.022940893,0.010785725,-0.011039411,0.29,0.95,0.22,15073,10037.80,0,0,165,0.91,-2.38,-0.49,0.29,0.95,0.22
7.411133,0.020940892,0.0147857275,-0.008039411,0.29,0.94,0.22,15088,10037.50,0,0,0,0.77,-2.10,-0.28,0.29,0.94,0.22
7.7109375,0.016940894,0.022785727,-0.006039411,0.29,0.95,0.22,15096,10037.80,0,0,165,0.49,-1.54,-0.14,0.29,0.95,0.22
6.7109375,0.016940894,0.019785726,-0.0020394104,0.29,0.95,0.22,15110,10036.80,0,0,0,0.49,-1.75,0.14,0.29,0.95,0.22
7.7109375,0.022940893,0.005785726,-0.0040394105,0.28,0.95,0.22,15125,10037.80,0,0,165,0.91,-2.73,0.00,0.28,0.95,0.22
7.7109375,0.021940893,0.0027857274,-0.008039411,0.28,0.95,0.22,15133,10037.80,0,0,0,0.84,-2.94,-0.28,0.28,0.95,0.22
6.7109375,0.020940892,0.010785725,-0.00903941,0.29,0.95,0.22,15148,10036.80,0,0,165,0.77,-2.38,-0.35,0.29,0.95,0.22
6.7109375,0.017940894,0.010785725,-0.0050394107,0.29,0.95,0.21,15163,10036.80,0,0,0,0.56,-2.38,-0.07,0.29,0.95,0.21
6.7109375,0.024940893,0.0067857243,-0.0010394107,0.29,0.95,0.22,15172,10036.80,0,0,165,1.05,-2.66,0.21,0.29,0.95,0.22
6.7109375,0.024940893,-0.0012142733,0.00396059,0.29,0.95,0.22,15186,10036.80,0,0,0,1.05,-3.22,0.56,0.29,0.95,0.22
5.8115234,0.022940893,7.8572705E-4,0.00896059,0.29,0.95,0.22,15200,10035.90,0,0,165,0.91,-3.08,0.91,0.29,0.95,0.22
5.8115234,0.024940893,0.005785726,0.014960591,0.29,0.95,0.22,15208,10035.90,0,0,0,1.05,-2.73,1.33,0.29,0.95,0.22
6.411133,0.030940894,0.0047857277,0.015960589,0.29,0.96,0.22,15223,10036.50,0,0,165,1.47,-2.80,1.40,0.29,0.96,0.22
6.7109375,0.032940894,0.0037857294,0.00896059,0.28,0.95,0.22,15238,10036.80,0,0,0,1.61,-2.87,0.91,0.28,0.95,0.22
6.7109375,0.026940893,0.0067857243,0.0029605897,0.28,0.95,0.22,15246,10036.80,0,0,165,1.19,-2.66,0.49,0.28,0.95,0.22
5.8115234,0.016940894,0.0047857277,-0.0010394107,0.29,0.95,0.22,15261,10035.90,0,0,0,0.49,-2.80,0.21,0.29,0.95,0.22
5.8115234,0.012940893,0.0037857294,0.001960589,0.29,0.95,0.21,15276,10035.90,0,0,165,0.21,-2.87,0.42,0.29,0.95,0.21
5.8115234,0.013940893,-0.0022142716,0.0059605893,0.29,0.95,0.21,15283,10035.90,0,0,0,0.28,-3.29,0.70,0.29,0.95,0.21
4.8115234,0.017940894,-0.005214274,0.010960589,0.29,0.95,0.21,15299,10034.90,0,0,165,0.56,-3.50,1.05,0.29,0.95,0.21
4.8115234,0.020940892,-0.009214275,0.00896059,0.29,0.95,0.21,15313,10034.90,0,0,0,0.77,-3.78,0.91,0.29,0.95,0.21
4.8115234,0.030940894,-0.025214273,0.00996059,0.29,0.95,0.22,15321,10034.90,0,0,165,1.47,-4.90,0.98,0.29,0.95,0.22
4.510742,0.034940895,-0.025214273,0.00996059,0.29,0.95,0.22,15336,10034.60,0,0,0,1.75,-4.90,0.98,0.29,0.95,0.22
3.8115234,0.031940892,-0.018214274,0.0059605893,0.29,0.94,0.22,15351,10033.90,0,0,165,1.54,-4.41,0.70,0.29,0.94,0.22
3.8115234,0.022940893,-0.012214273,0.0069605894,0.28,0.94,0.22,15358,10033.90,0,0,0,0.91,-3.99,0.77,0.28,0.94,0.22
3.8115234,0.010940894,-0.009214275,0.0059605893,0.29,0.95,0.22,15381,10033.90,0,0,165,0.07,-3.78,0.70,0.29,0.95,0.22
2.5107422,0.016940894,-0.014214274,0.00896059,0.29,0.95,0.22,15388,10032.60,0,0,0,0.49,-4.13,0.91,0.29,0.95,0.22
1.9111328,0.016940894,-0.015214272,0.00896059,0.29,0.95,0.22,15396,10032.00,0,0,165,0.49,-4.20,0.91,0.29,0.95,0.22
1.9111328,0.013940893,-0.019214276,0.010960589,0.29,0.95,0.22,15414,10032.00,0,0,0,0.28,-4.48,1.05,0.29,0.95,0.22
0.9111328,0.019940894,-0.026214268,0.015960589,0.29,0.94,0.22,15426,10031.00,0,0,165,0.70,-4.97,1.40,0.29,0.94,0.22
-0.9892578,0.014940893,-0.020214278,0.01796059,0.29,0.94,0.22,15434,10029.10,0,0,0,0.35,-4.55,1.54,0.29,0.94,0.22
-2.9892578,0.008940893,-0.010214273,0.01896059,0.29,0.94,0.22,15449,10027.10,0,0,165,-0.07,-3.85,1.61,0.29,0.94,0.22
-4.2890625,0.003940894,-0.011214275,0.024960589,0.3,0.95,0.22,15463,10025.80,0,0,0,-0.42,-3.92,2.03,0.30,0.95,0.22
-6.888672,0.001940893,-0.019214276,0.031960588,0.29,0.95,0.22,15470,10023.20,0,0,165,-0.56,-4.48,2.52,0.29,0.95,0.22
-7.7890625,-0.0030591069,-0.015214272,0.03796059,0.3,0.94,0.22,15486,10022.30,0,0,0,-0.91,-4.20,2.94,0.30,0.94,0.22
-9.7890625,-0.013059107,-0.021214273,0.044960592,0.3,0.95,0.21,15501,10020.30,0,0,165,-1.61,-4.62,3.43,0.30,0.95,0.21
-11.688477,-0.010059106,-0.03521427,0.04696059,0.29,0.95,0.22,15524,10018.40,0,0,0,-1.40,-5.60,3.57,0.29,0.95,0.22
-11.688477,-0.014059105,-0.06021427,0.043960586,0.3,0.95,0.22,15525,10018.40,0,0,165,-1.68,-7.35,3.36,0.30,0.95,0.22
-12.688477,-0.017059106,-0.048214275,0.03996059,0.3,0.95,0.21,15538,10017.40,0,0,0,-1.89,-6.51,3.08,0.30,0.95,0.21
-13.688477,-0.021059107,-0.040214274,0.044960592,0.3,0.95,0.22,15549,10016.40,0,0,165,-2.17,-5.95,3.43,0.30,0.95,0.22
-14.888672,-0.022059109,-0.044214275,0.044960592,0.3,0.95,0.22,15560,10015.20,0,0,0,-2.24,-6.23,3.43,0.30,0.95,0.22
-14.588867,-0.0120591065,-0.043214273,0.04696059,0.3,0.95,0.21,15583,10015.50,0,0,165,-1.54,-6.16,3.57,0.30,0.95,0.21
-13.688477,-0.0030591069,-0.036214273,0.04596059,0.3,0.95,0.21,15584,10016.40,0,0,0,-0.91,-5.67,3.50,0.30,0.95,0.21
-14.2890625,0.006940894,-0.010214273,0.03596059,0.3,0.95,0.21,15599,10015.80,0,0,165,-0.21,-3.85,2.80,0.30,0.95,0.21
-14.2890625,0.0029408932,-0.0072142743,0.062960595,0.3,0.95,0.22,15613,10015.80,0,0,0,-0.49,-3.64,4.69,0.30,0.95,0.22
-13.2890625,-5.9106387E-5,-0.03821427,0.03596059,0.3,0.95,0.22,15620,10016.80,0,0,165,-0.70,-5.81,2.80,0.30,0.95,0.22
-14.2890625,-0.013059107,-0.04621427,0.01796059,0.3,0.94,0.22,15635,10015.80,0,0,0,-1.61,-6.37,1.54,0.30,0.94,0.22
-13.688477,-0.017059106,-0.034214277,0.03896059,0.3,0.93,0.21,15650,10016.40,0,0,165,-1.89,-5.53,3.01,0.30,0.93,0.21
-13.688477,-0.0050591063,-0.040214274,0.05296059,0.3,0.93,0.22,15658,10016.40,0,0,0,-1.05,-5.95,3.99,0.30,0.93,0.22
-13.688477,-0.008059106,-0.047214273,0.04696059,0.29,0.94,0.21,15673,10016.40,0,0,165,-1.26,-6.44,3.57,0.29,0.94,0.21
-13.688477,0.0049408935,-0.026214268,0.03296059,0.29,0.95,0.21,15689,10016.40,0,0,0,-0.35,-4.97,2.59,0.29,0.95,0.21
-13.989258,-0.0050591063,0.0037857294,0.01296059,0.3,0.95,0.23,15697,10016.10,0,0,165,-1.05,-2.87,1.19,0.30,0.95,0.23
-13.688477,-0.013059107,0.0017857254,0.010960589,0.31,0.95,0.23,15710,10016.40,0,0,0,-1.61,-3.01,1.05,0.31,0.95,0.23
-12.388672,-0.004059107,-0.0042142756,0.01696059,0.31,0.95,0.23,15726,10017.70,0,0,165,-0.98,-3.43,1.47,0.31,0.95,0.23
-13.688477,-0.0070591075,-2.1427497E-4,0.05096059,0.31,0.95,0.23,15733,10016.40,0,0,0,-1.19,-3.15,3.85,0.31,0.95,0.23
-13.688477,-0.010059106,-0.012214273,0.03896059,0.31,0.94,0.22,15748,10016.40,0,0,165,-1.40,-3.99,3.01,0.31,0.94,0.22
-11.388672,-0.015059107,-0.031214278,0.031960588,0.31,0.95,0.22,15763,10018.70,0,0,0,-1.75,-5.32,2.52,0.31,0.95,0.22
-12.688477,-0.018059108,-0.020214278,0.03896059,0.31,0.95,0.22,15770,10017.40,0,0,165,-1.96,-4.55,3.01,0.31,0.95,0.22
-11.688477,-0.0030591069,-0.008214273,0.02696059,0.31,0.95,0.22,15785,10018.40,0,0,0,-0.91,-3.71,2.17,0.31,0.95,0.22
-10.688477,0.001940893,-0.025214273,0.01796059,0.31,0.94,0.23,15801,10019.40,0,0,165,-0.56,-4.90,1.54,0.31,0.94,0.23
-12.688477,-0.008059106,-0.0132142715,0.01196059,0.32,0.94,0.22,15816,10017.40,0,0,0,-1.26,-4.06,1.12,0.32,0.94,0.22
-12.688477,-0.0070591075,0.0027857274,0.00996059,0.32,0.94,0.23,15824,10017.40,0,0,165,-1.19,-2.94,0.98,0.32,0.94,0.23
-12.688477,-0.0030591069,0.0027857274,0.014960591,0.32,0.94,0.23,15838,10017.40,0,0,0,-0.91,-2.94,1.33,0.32,0.94,0.23
-12.688477,0.0029408932,0.012785725,0.02296059,0.31,0.94,0.23,15846,10017.40,0,0,165,-0.49,-2.24,1.89,0.31,0.94,0.23
-12.688477,0.007940893,-0.016214274,0.02896059,0.31,0.94,0.23,15860,10017.40,0,0,0,-0.14,-4.27,2.31,0.31,0.94,0.23
-11.688477,0.012940893,-0.017214276,0.02296059,0.31,0.95,0.22,15875,10018.40,0,0,165,0.21,-4.34,1.89,0.31,0.95,0.22
-11.688477,0.008940893,-0.021214273,0.02296059,0.32,0.94,0.23,15883,10018.40,0,0,0,-0.07,-4.62,1.89,0.32,0.94,0.23
-11.388672,0.008940893,-0.0042142756,0.01196059,0.32,0.94,0.23,15899,10018.70,0,0,165,-0.07,-3.43,1.12,0.32,0.94,0.23
-11.688477,0.014940893,0.0147857275,0.01296059,0.32,0.94,0.23,15920,10018.40,0,0,0,0.35,-2.10,1.19,0.32,0.94,0.23
-11.688477,0.021940893,0.031785727,0.014960591,0.32,0.94,0.23,15922,10018.40,0,0,165,0.84,-0.91,1.33,0.32,0.94,0.23
-12.388672,0.017940894,0.040785726,0.02096059,0.32,0.94,0.22,15936,10017.70,0,0,0,0.56,-0.28,1.75,0.32,0.94,0.22
-11.688477,0.013940893,0.049785726,0.01796059,0.31,0.95,0.22,15950,10018.40,0,0,165,0.28,0.35,1.54,0.31,0.95,0.22
-10.388672,0.022940893,0.015785728,0.015960589,0.31,0.95,0.22,15958,10019.70,0,0,0,0.91,-2.03,1.40,0.31,0.95,0.22
-9.7890625,0.028940894,0.009785727,0.00996059,0.31,0.94,0.22,15973,10020.30,0,0,165,1.33,-2.45,0.98,0.31,0.94,0.22
-9.7890625,0.022940893,-0.0032142699,0.00996059,0.32,0.94,0.23,15988,10020.30,0,0,0,0.91,-3.36,0.98,0.32,0.94,0.23
-9.7890625,0.017940894,-0.012214273,0.014960591,0.32,0.94,0.22,15995,10020.30,0,0,165,0.56,-3.99,1.33,0.32,0.94,0.22
-9.7890625,0.015940893,-2.1427497E-4,0.01796059,0.31,0.94,0.22,16010,10020.30,0,0,0,0.42,-3.15,1.54,0.31,0.94,0.22
-9.7890625,0.013940893,0.017785726,0.013960589,0.31,0.94,0.22,16026,10020.30,0,0,165,0.28,-1.89,1.26,0.31,0.94,0.22
-9.7890625,0.014940893,0.033785727,0.01296059,0.31,0.94,0.22,16034,10020.30,0,0,0,0.35,-0.77,1.19,0.31,0.94,0.22
-8.7890625,0.008940893,0.031785727,0.0059605893,0.31,0.94,0.22,16049,10021.30,0,0,165,-0.07,-0.91,0.70,0.31,0.94,0.22
-9.7890625,0.015940893,0.010785725,0.00396059,0.32,0.94,0.22,16063,10020.30,0,0,0,0.42,-2.38,0.56,0.32,0.94,0.22
-8.7890625,0.016940894,0.0147857275,0.00996059,0.32,0.94,0.22,16071,10021.30,0,0,165,0.49,-2.10,0.98,0.32,0.94,0.22
-9.7890625,0.017940894,0.009785727,0.013960589,0.32,0.94,0.22,16085,10020.30,0,0,0,0.56,-2.45,1.26,0.32,0.94,0.22
-8.489258,0.014940893,0.0027857274,0.01696059,0.31,0.94,0.22,16109,10021.60,0,0,165,0.35,-2.94,1.47,0.31,0.94,0.22
-8.489258,0.008940893,0.0077857263,0.01296059,0.31,0.94,0.23,16116,10021.60,0,0,0,-0.07,-2.59,1.19,0.31,0.94,0.23
-10.388672,0.014940893,-0.005214274,0.00996059,0.31,0.94,0.23,16124,10019.70,0,0,165,0.35,-3.50,0.98,0.31,0.94,0.23
-8.7890625,0.018940892,-0.0022142716,0.0029605897,0.31,0.94,0.22,16138,10021.30,0,0,0,0.63,-3.29,0.49,0.31,0.94,0.22
-7.7890625,0.021940893,0.012785725,9.605894E-4,0.32,0.94,0.23,16146,10022.30,0,0,165,0.84,-2.24,0.35,0.32,0.94,0.23
-7.7890625,0.024940893,0.018785726,-0.0010394107,0.32,0.94,0.23,16161,10022.30,0,0,0,1.05,-1.82,0.21,0.32,0.94,0.23
-6.888672,0.015940893,0.010785725,9.605894E-4,0.32,0.94,0.23,16176,10023.20,0,0,165,0.42,-2.38,0.35,0.32,0.94,0.23
-8.489258,0.021940893,0.0047857277,0.0029605897,0.32,0.94,0.23,16184,10021.60,0,0,0,0.84,-2.80,0.49,0.32,0.94,0.23
-6.888672,0.020940892,0.0037857294,0.007960589,0.32,0.94,0.23,16203,10023.20,0,0,165,0.77,-2.87,0.84,0.32,0.94,0.23
-6.888672,0.025940895,0.0027857274,0.0069605894,0.32,0.94,0.23,16216,10023.20,0,0,0,1.12,-2.94,0.77,0.32,0.94,0.23
-5.888672,0.026940893,-0.009214275,0.0069605894,0.32,0.94,0.23,16221,10024.20,0,0,165,1.19,-3.78,0.77,0.32,0.94,0.23
-5.888672,0.027940892,-0.010214273,-0.0010394107,0.32,0.94,0.22,16235,10024.20,0,0,0,1.26,-3.85,0.21,0.32,0.94,0.22
-5.888672,0.031940892,0.011785727,-0.00703941,0.32,0.94,0.23,16250,10024.20,0,0,165,1.54,-2.31,-0.21,0.32,0.94,0.23
-3.8886719,0.035940893,0.030785726,-0.00903941,0.32,0.94,0.23,16258,10026.20,0,0,0,1.82,-0.98,-0.35,0.32,0.94,0.23
-3.8886719,0.040940896,0.039785728,-0.012039411,0.32,0.94,0.23,16273,10026.20,0,0,165,2.17,-0.35,-0.56,0.32,0.94,0.23
-2.5888672,0.039940894,0.036785726,-0.00703941,0.32,0.94,0.23,16288,10027.50,0,0,0,2.10,-0.56,-0.21,0.32,0.94,0.23
-2.9892578,0.033940893,0.039785728,-0.006039411,0.32,0.94,0.23,16296,10027.10,0,0,165,1.68,-0.35,-0.14,0.32,0.94,0.23
-1.2890625,0.027940892,0.034785725,-0.008039411,0.31,0.94,0.23,16310,10028.80,0,0,0,1.26,-0.70,-0.28,0.31,0.94,0.23
0.31152344,0.027940892,0.016785726,-0.01003941,0.31,0.94,0.23,16326,10030.40,0,0,165,1.26,-1.96,-0.42,0.31,0.94,0.23
1.2109375,0.030940894,0.012785725,-0.011039411,0.31,0.94,0.22,16333,10031.30,0,0,0,1.47,-2.24,-0.49,0.31,0.94,0.22
2.9111328,0.031940892,0.015785728,-0.011039411,0.31,0.94,0.22,16349,10033.00,0,0,165,1.54,-2.03,-0.49,0.31,0.94,0.22
3.5107422,0.035940893,0.016785726,-0.01703941,0.31,0.93,0.22,16366,10033.60,0,0,0,1.82,-1.96,-0.91,0.31,0.93,0.22
4.8115234,0.036940895,0.015785728,-0.019039411,0.31,0.94,0.22,16371,10034.90,0,0,165,1.89,-2.03,-1.05,0.31,0.94,0.22
4.8115234,0.036940895,0.0077857263,-0.018039411,0.31,0.94,0.22,16386,10034.90,0,0,0,1.89,-2.59,-0.98,0.31,0.94,0.22
7.111328,0.040940896,0.0027857274,-0.01703941,0.31,0.94,0.22,16401,10037.20,0,0,165,2.17,-2.94,-0.91,0.31,0.94,0.22
8.010742,0.037940893,0.010785725,-0.02203941,0.31,0.95,0.22,16408,10038.10,0,0,0,1.96,-2.38,-1.26,0.31,0.95,0.22
9.010742,0.026940893,0.015785728,-0.02603941,0.31,0.94,0.22,16425,10039.10,0,0,165,1.19,-2.03,-1.54,0.31,0.94,0.22
11.010742,0.024940893,0.012785725,-0.02703941,0.31,0.94,0.22,16438,10041.10,0,0,0,1.05,-2.24,-1.61,0.31,0.94,0.22
10.611328,0.026940893,0.0027857274,-0.02903941,0.31,0.94,0.23,16446,10040.70,0,0,165,1.19,-2.94,-1.75,0.31,0.94,0.23
11.611328,0.018940892,-0.0012142733,-0.030039411,0.31,0.94,0.23,16460,10041.70,0,0,0,0.63,-3.22,-1.82,0.31,0.94,0.23
11.611328,0.023940895,-0.0032142699,-0.02503941,0.31,0.93,0.23,16475,10041.70,0,0,165,0.98,-3.36,-1.47,0.31,0.93,0.23
11.911133,0.018940892,0.0077857263,-0.021039411,0.32,0.93,0.22,16483,10042.00,0,0,0,0.63,-2.59,-1.19,0.32,0.93,0.22
13.510742,0.016940894,0.013785725,-0.011039411,0.32,0.93,0.22,16498,10043.60,0,0,165,0.49,-2.17,-0.49,0.32,0.93,0.22
12.611328,0.018940892,0.0067857243,-0.00903941,0.31,0.94,0.22,16514,10042.70,0,0,0,0.63,-2.66,-0.35,0.31,0.94,0.22
13.911133,0.018940892,0.012785725,-0.01003941,0.31,0.95,0.22,16530,10044.00,0,0,165,0.63,-2.24,-0.42,0.31,0.95,0.22
13.510742,0.018940892,0.011785727,-0.01703941,0.31,0.95,0.23,16536,10043.60,0,0,0,0.63,-2.31,-0.91,0.31,0.95,0.23
13.911133,0.022940893,0.005785726,-0.01703941,0.31,0.95,0.23,16551,10044.00,0,0,165,0.91,-2.73,-0.91,0.31,0.95,0.23
13.911133,0.023940895,0.0047857277,-0.02203941,0.31,0.94,0.23,16558,10044.00,0,0,0,0.98,-2.80,-1.26,0.31,0.94,0.23
13.911133,0.030940894,-0.0022142716,-0.018039411,0.32,0.94,0.23,16573,10044.00,0,0,165,1.47,-3.29,-0.98,0.32,0.94,0.23
12.911133,0.029940892,0.005785726,-0.01303941,0.32,0.94,0.23,16589,10043.00,0,0,0,1.40,-2.73,-0.63,0.32,0.94,0.23
13.510742,0.029940892,0.0047857277,-0.012039411,0.32,0.94,0.23,16600,10043.60,0,0,165,1.40,-2.80,-0.56,0.32,0.94,0.23
13.911133,0.029940892,0.0047857277,-0.0040394105,0.32,0.94,0.23,16616,10044.00,0,0,0,1.40,-2.80,0.00,0.32,0.94,0.23
14.811523,0.028940894,0.005785726,-0.0030394103,0.31,0.94,0.22,16635,10044.90,0,0,165,1.33,-2.73,0.07,0.31,0.94,0.22
13.911133,0.029940892,0.0047857277,-0.0020394104,0.31,0.94,0.22,16635,10044.00,0,0,0,1.40,-2.80,0.14,0.31,0.94,0.22
12.911133,0.027940892,0.005785726,-0.00903941,0.31,0.94,0.23,16650,10043.00,0,0,165,1.26,-2.73,-0.35,0.31,0.94,0.23
13.911133,0.023940895,0.0067857243,-0.012039411,0.31,0.94,0.23,16666,10044.00,0,0,0,0.98,-2.66,-0.56,0.31,0.94,0.23
12.911133,0.021940893,0.0047857277,-0.01303941,0.31,0.94,0.22,16671,10043.00,0,0,165,0.84,-2.80,-0.63,0.31,0.94,0.22
11.911133,0.021940893,0.005785726,-0.01303941,0.31,0.95,0.22,16686,10042.00,0,0,0,0.84,-2.73,-0.63,0.31,0.95,0.22
11.611328,0.031940892,-0.008214273,-0.00903941,0.31,0.95,0.22,16702,10041.70,0,0,165,1.54,-3.71,-0.35,0.31,0.95,0.22
12.911133,0.036940895,-0.006214272,-0.01003941,0.31,0.95,0.22,16708,10043.00,0,0,0,1.89,-3.57,-0.42,0.31,0.95,0.22
11.911133,0.036940895,-0.0012142733,-0.011039411,0.31,0.94,0.22,16724,10042.00,0,0,165,1.89,-3.22,-0.49,0.31,0.94,0.22
11.010742,0.028940894,0.0067857243,-0.01403941,0.31,0.93,0.22,16746,10041.10,0,0,0,1.33,-2.66,-0.70,0.31,0.93,0.22
10.611328,0.018940892,0.0037857294,-0.012039411,0.31,0.93,0.22,16747,10040.70,0,0,165,0.63,-2.87,-0.56,0.31,0.93,0.22
11.010742,0.019940894,-0.006214272,-0.0030394103,0.32,0.94,0.22,16761,10041.10,0,0,0,0.70,-3.57,0.07,0.32,0.94,0.22
11.010742,0.016940894,-0.0042142756,9.605894E-4,0.31,0.94,0.22,16776,10041.10,0,0,165,0.49,-3.43,0.35,0.31,0.94,0.22
11.010742,0.018940892,-0.0072142743,0.00396059,0.31,0.94,0.22,16784,10041.10,0,0,0,0.63,-3.64,0.56,0.31,0.94,0.22
10.010742,0.019940894,-0.0072142743,0.0029605897,0.31,0.94,0.22,16800,10040.10,0,0,165,0.70,-3.64,0.49,0.31,0.94,0.22
9.7109375,0.018940892,-0.0042142756,-0.0020394104,0.31,0.95,0.22,16813,10039.80,0,0,0,0.63,-3.43,0.14,0.31,0.95,0.22
10.611328,0.021940893,-0.009214275,-0.00703941,0.31,0.95,0.22,16820,10040.70,0,0,165,0.84,-3.78,-0.21,0.31,0.95,0.22
10.010742,0.018940892,-0.0032142699,-0.01303941,0.31,0.95,0.22,16835,10040.10,0,0,0,0.63,-3.36,-0.63,0.31,0.95,0.22
10.010742,0.021940893,-0.0022142716,-0.01403941,0.31,0.94,0.22,16850,10040.10,0,0,165,0.84,-3.29,-0.70,0.31,0.94,0.22
8.7109375,0.022940893,-0.006214272,-0.012039411,0.32,0.94,0.22,16858,10038.80,0,0,0,0.91,-3.57,-0.56,0.32,0.94,0.22
8.7109375,0.021940893,-0.0042142756,-0.012039411,0.31,0.94,0.22,16873,10038.80,0,0,165,0.84,-3.43,-0.56,0.31,0.94,0.22
9.010742,0.026940893,-0.008214273,-0.01003941,0.31,0.94,0.22,16888,10039.10,0,0,0,1.19,-3.71,-0.42,0.31,0.94,0.22
9.010742,0.022940893,-2.1427497E-4,-0.012039411,0.31,0.94,0.22,16896,10039.10,0,0,165,0.91,-3.15,-0.56,0.31,0.94,0.22
8.7109375,0.017940894,7.8572705E-4,-0.012039411,0.31,0.94,0.22,16910,10038.80,0,0,0,0.56,-3.08,-0.56,0.31,0.94,0.22
8.010742,0.020940892,-0.0032142699,-0.006039411,0.31,0.93,0.22,16925,10038.10,0,0,165,0.77,-3.36,-0.14,0.31,0.93,0.22
8.010742,0.023940895,-0.006214272,-3.941031E-5,0.31,0.94,0.23,16933,10038.10,0,0,0,0.98,-3.57,0.28,0.31,0.94,0.23
7.7109375,0.025940895,-0.009214275,0.001960589,0.31,0.94,0.22,16948,10037.80,0,0,165,1.12,-3.78,0.42,0.31,0.94,0.22
7.7109375,0.027940892,-0.005214274,-3.941031E-5,0.32,0.95,0.22,16963,10037.80,0,0,0,1.26,-3.50,0.28,0.32,0.95,0.22
8.010742,0.032940894,-0.012214273,-0.0030394103,0.32,0.95,0.22,16970,10038.10,0,0,165,1.61,-3.99,0.07,0.32,0.95,0.22
8.010742,0.041940894,-0.0132142715,-0.006039411,0.32,0.95,0.22,16985,10038.10,0,0,0,2.24,-4.06,-0.14,0.32,0.95,0.22
8.010742,0.046940893,-0.016214274,-0.012039411,0.32,0.96,0.22,17001,10038.10,0,0,165,2.59,-4.27,-0.56,0.32,0.96,0.22
8.010742,0.05694089,-0.026214268,-0.01703941,0.32,0.96,0.22,17008,10038.10,0,0,0,3.29,-4.97,-0.91,0.32,0.96,0.22
7.111328,0.06794089,-0.041214276,-0.030039411,0.33,0.97,0.22,17023,10037.20,0,0,165,4.06,-6.02,-1.82,0.33,0.97,0.22
6.7109375,0.08394089,-0.05721427,-0.036039412,0.34,0.98,0.22,17045,10036.80,0,0,0,5.18,-7.14,-2.24,0.34,0.98,0.22
8.010742,0.110940896,-0.07621428,-0.04003941,0.35,0.98,0.22,17046,10038.10,0,0,165,7.07,-8.47,-2.52,0.35,0.98,0.22
7.111328,0.1439409,-0.10321428,-0.045039408,0.37,0.98,0.23,17061,10037.20,0,0,0,9.38,-10.36,-2.87,0.37,0.98,0.23
6.111328,0.1729409,-0.12521428,-0.04403941,0.37,0.99,0.22,17075,10036.20,0,0,165,11.41,-11.90,-2.80,0.37,0.99,0.22
6.111328,0.21494089,-0.15721428,-0.04803941,0.36,1.01,0.23,17083,10036.20,0,0,0,14.35,-14.14,-3.08,0.36,1.01,0.23
6.7109375,0.26294088,-0.19921428,-0.06303941,0.37,1.01,0.24,17098,10036.80,0,0,165,17.71,-17.08,-4.13,0.37,1.01,0.24
7.111328,0.30494088,-0.22621427,-0.08303942,0.38,1.01,0.24,17115,10037.20,0,0,0,20.65,-18.97,-5.53,0.38,1.01,0.24
5.111328,0.3339409,-0.24321426,-0.099039406,0.38,1.01,0.23,17121,10035.20,0,0,165,22.68,-20.16,-6.65,0.38,1.01,0.23
5.8115234,0.36794087,-0.27421427,-0.11603941,0.38,1.0,0.22,17136,10035.90,0,0,0,25.06,-22.33,-7.84,0.38,1.00,0.22
6.111328,0.39994088,-0.30721426,-0.19703941,0.37,0.99,0.22,17151,10036.20,0,0,165,27.30,-24.64,-13.51,0.37,0.99,0.22
5.111328,0.42994088,-0.29621428,-0.26003942,0.38,0.98,0.2,17158,10035.20,0,0,0,29.40,-23.87,-17.92,0.38,0.98,0.20
5.111328,0.4419409,-0.30021426,-0.23503941,0.38,0.97,0.2,17176,10035.20,0,0,165,30.24,-24.15,-16.17,0.38,0.97,0.20
5.111328,0.4729409,-0.32021424,-0.2240394,0.37,0.96,0.21,17188,10035.20,0,0,0,32.41,-25.55,-15.40,0.37,0.96,0.21
4.2109375,0.4719409,-0.32821426,-0.2620394,0.37,0.95,0.21,17195,10034.30,0,0,165,32.34,-26.11,-18.06,0.37,0.95,0.21
3.2109375,0.46294087,-0.33321425,-0.2750394,0.36,0.95,0.2,17211,10033.30,0,0,0,31.71,-26.46,-18.97,0.36,0.95,0.20
2.2109375,0.45294088,-0.33121425,-0.2770394,0.34,0.96,0.19,17226,10032.30,0,0,165,31.01,-26.32,-19.11,0.34,0.96,0.19
2.2109375,0.44394088,-0.30621424,-0.2840394,0.33,0.96,0.19,17233,10032.30,0,0,0,30.38,-24.57,-19.60,0.33,0.96,0.19
2.2109375,0.4419409,-0.28721425,-0.31503943,0.32,0.96,0.19,17249,10032.30,0,0,165,30.24,-23.24,-21.77,0.32,0.96,0.19
0.31152344,0.4419409,-0.29021427,-0.2910394,0.31,0.95,0.18,17263,10030.40,0,0,0,30.24,-23.45,-20.09,0.31,0.95,0.18
-1.6884766,0.41594088,-0.21921428,-0.3060394,0.32,0.94,0.17,17271,10028.40,0,0,165,28.42,-18.48,-21.14,0.32,0.94,0.17
-3.5888672,0.4109409,-0.20821427,-0.30403942,0.32,0.94,0.16,17285,10026.50,0,0,0,28.07,-17.71,-21.00,0.32,0.94,0.16
-5.588867,0.3919409,-0.18221428,-0.29003942,0.32,0.95,0.14,17301,10024.50,0,0,165,26.74,-15.89,-20.02,0.32,0.95,0.14
-6.489258,0.3479409,-0.14821428,-0.2700394,0.32,0.94,0.14,17308,10023.60,0,0,0,23.66,-13.51,-18.62,0.32,0.94,0.14
-8.489258,0.32394087,-0.15621427,-0.2590394,0.32,0.93,0.13,17331,10021.60,0,0,165,21.98,-14.07,-17.85,0.32,0.93,0.13
-11.388672,0.2879409,-0.14021428,-0.2360394,0.3,0.94,0.12,17338,10018.70,0,0,0,19.46,-12.95,-16.24,0.30,0.94,0.12
-12.388672,0.2589409,-0.14721426,-0.2090394,0.28,0.95,0.1,17346,10017.70,0,0,165,17.43,-13.44,-14.35,0.28,0.95,0.10
-13.688477,0.24294089,-0.13621427,-0.21103941,0.27,0.96,0.08,17360,10016.40,0,0,0,16.31,-12.67,-14.49,0.27,0.96,0.08
-14.2890625,0.2179409,-0.12021428,-0.2160394,0.26,0.97,0.07,17384,10015.80,0,0,165,14.56,-11.55,-14.84,0.26,0.97,0.07
-14.2890625,0.21094088,-0.08821428,-0.21103941,0.27,0.97,0.07,17385,10015.80,0,0,0,14.07,-9.31,-14.49,0.27,0.97,0.07
-15.2890625,0.1959409,-0.08221428,-0.2090394,0.27,0.97,0.07,17399,10014.80,0,0,165,13.02,-8.89,-14.35,0.27,0.97,0.07
-14.2890625,0.1869409,-0.06921427,-0.1960394,0.28,0.97,0.06,17413,10015.80,0,0,0,12.39,-7.98,-13.44,0.28,0.97,0.06
-15.2890625,0.1659409,-0.054214273,-0.19003941,0.27,0.97,0.06,17420,10014.80,0,0,165,10.92,-6.93,-13.02,0.27,0.97,0.06
-15.2890625,0.14194089,-0.056214277,-0.1860394,0.26,0.96,0.06,17436,10014.80,0,0,0,9.24,-7.07,-12.74,0.26,0.96,0.06
-15.2890625,0.1309409,-0.037214268,-0.1920394,0.25,0.97,0.05,17450,10014.80,0,0,165,8.47,-5.74,-13.16,0.25,0.97,0.05
-15.2890625,0.121940896,-0.009214275,-0.1940394,0.25,0.98,0.05,17458,10014.80,0,0,0,7.84,-3.78,-13.30,0.25,0.98,0.05
-14.2890625,0.113940895,-0.031214278,-0.19003941,0.24,0.98,0.04,17473,10015.80,0,0,165,7.28,-5.32,-13.02,0.24,0.98,0.04
-13.989258,0.10394089,-0.054214273,-0.1940394,0.23,0.96,0.04,17488,10016.10,0,0,0,6.58,-6.93,-13.30,0.23,0.96,0.04
-14.2890625,0.10394089,-0.033214275,-0.1610394,0.23,0.95,0.04,17495,10015.80,0,0,165,6.58,-5.46,-10.99,0.23,0.95,0.04
-15.2890625,0.095940895,-0.036214273,-0.1430394,0.22,0.95,0.03,17511,10014.80,0,0,0,6.02,-5.67,-9.73,0.22,0.95,0.03
-15.2890625,0.08994089,-0.028214272,-0.11203942,0.22,0.94,0.03,17525,10014.80,0,0,165,5.60,-5.11,-7.56,0.22,0.94,0.03
-13.989258,0.09194089,-0.06321427,-0.06303941,0.22,0.94,0.02,17533,10016.10,0,0,0,5.74,-7.56,-4.13,0.22,0.94,0.02
-13.2890625,0.08994089,-0.07321428,-0.04003941,0.21,0.95,0.02,17549,10016.80,0,0,165,5.60,-8.26,-2.52,0.21,0.95,0.02
-13.2890625,0.087940894,-0.09821428,-0.02503941,0.2,0.95,0.02,17570,10016.80,0,0,0,5.46,-10.01,-1.47,0.20,0.95,0.02
-13.2890625,0.088940896,-0.09621428,-0.04003941,0.18,0.96,0.03,17572,10016.80,0,0,165,5.53,-9.87,-2.52,0.18,0.96,0.03
-13.2890625,0.076940894,-0.08221428,-0.04803941,0.18,0.96,0.04,17585,10016.80,0,0,0,4.69,-8.89,-3.08,0.18,0.96,0.04
-13.2890625,0.069940895,-0.11221427,-0.03703941,0.18,0.96,0.03,17600,10016.80,0,0,165,4.20,-10.99,-2.31,0.18,0.96,0.03
-11.388672,0.065940894,-0.113214284,-0.036039412,0.18,0.96,0.03,17608,10018.70,0,0,0,3.92,-11.06,-2.24,0.18,0.96,0.03
-13.2890625,0.069940895,-0.11421427,-0.00703941,0.19,0.96,0.03,17623,10016.80,0,0,165,4.20,-11.13,-0.21,0.19,0.96,0.03
-12.388672,0.08294089,-0.10621427,0.0059605893,0.18,0.98,0.03,17638,10017.70,0,0,0,5.11,-10.57,0.70,0.18,0.98,0.03
-13.2890625,0.08694089,-0.087214276,-0.0020394104,0.17,0.99,0.03,17647,10016.80,0,0,165,5.39,-9.24,0.14,0.17,0.99,0.03
-11.989258,0.087940894,-0.050214272,-0.019039411,0.16,1.01,0.04,17661,10018.10,0,0,0,5.46,-6.65,-1.05,0.16,1.01,0.04
-13.2890625,0.084940895,-0.021214273,-0.05003941,0.16,1.01,0.04,17675,10016.80,0,0,165,5.25,-4.62,-3.22,0.16,1.01,0.04
-13.2890625,0.09194089,7.8572705E-4,-0.074039415,0.17,1.0,0.04,17683,10016.80,0,0,0,5.74,-3.08,-4.90,0.17,1.00,0.04
-11.088867,0.09094089,0.040785726,-0.10003941,0.17,1.01,0.04,17699,10019.00,0,0,165,5.67,-0.28,-6.72,0.17,1.01,0.04
-13.2890625,0.09194089,0.040785726,-0.11003941,0.18,0.99,0.04,17713,10016.80,0,0,0,5.74,-0.28,-7.42,0.18,0.99,0.04
-12.388672,0.08194089,0.06478573,-0.11603941,0.18,1.0,0.02,17721,10017.70,0,0,165,5.04,1.40,-7.84,0.18,1.00,0.02
-11.388672,0.098940894,0.08878572,-0.12803942,0.18,1.0,0.0,17735,10018.70,0,0,0,6.23,3.08,-8.68,0.18,1.00,0.00
-12.388672,0.1189409,0.08778573,-0.1420394,0.18,1.0,-0.0,17750,10017.70,0,0,165,7.63,3.01,-9.66,0.18,1.00,-0.00
-12.388672,0.1309409,0.09178573,-0.1640394,0.18,1.0,-0.01,17758,10017.70,0,0,0,8.47,3.29,-11.20,0.18,1.00,-0.01
-10.388672,0.1339409,0.060785726,-0.18203941,0.17,1.0,-0.01,17773,10019.70,0,0,165,8.68,1.12,-12.46,0.17,1.00,-0.01
-10.388672,0.1339409,0.04178573,-0.20003942,0.18,0.99,-0.0,17788,10019.70,0,0,0,8.68,-0.21,-13.72,0.18,0.99,-0.00
-10.388672,0.11994089,0.034785725,-0.1990394,0.19,0.97,-0.01,17795,10019.70,0,0,165,7.70,-0.70,-13.65,0.19,0.97,-0.01
-10.388672,0.113940895,0.022785727,-0.1800394,0.2,0.96,-0.01,17810,10019.70,0,0,0,7.28,-1.54,-12.32,0.20,0.96,-0.01
-10.088867,0.1079409,0.0067857243,-0.1500394,0.21,0.95,-0.02,17825,10020.00,0,0,165,6.86,-2.66,-10.22,0.21,0.95,-0.02
-10.388672,0.120940894,0.0027857274,-0.1200394,0.2,0.94,-0.03,17833,10019.70,0,0,0,7.77,-2.94,-8.12,0.20,0.94,-0.03
-10.388672,0.117940895,-0.0042142756,-0.10003941,0.18,0.96,-0.02,17847,10019.70,0,0,165,7.56,-3.43,-6.72,0.18,0.96,-0.02
-9.088867,0.106940895,-0.024214271,-0.104039416,0.17,0.97,-0.01,17886,10021.00,0,0,0,6.79,-4.83,-7.00,0.17,0.97,-0.01
-8.088867,0.08094089,-0.030214276,-0.11303942,0.17,0.98,-0.01,17887,10022.00,0,0,165,4.97,-5.25,-7.63,0.17,0.98,-0.01
-10.388672,0.054940894,-0.033214275,-0.11703941,0.16,0.98,-0.01,17888,10019.70,0,0,0,3.15,-5.46,-7.91,0.16,0.98,-0.01
-8.489258,0.033940893,-0.061214272,-0.10903941,0.18,0.97,0.0,17893,10021.60,0,0,165,1.68,-7.42,-7.35,0.18,0.97,0.00
-8.088867,0.014940893,-0.07321428,-0.09003942,0.18,0.96,0.0,17908,10022.00,0,0,0,0.35,-8.26,-6.02,0.18,0.96,0.00
-8.489258,0.0029408932,-0.07621428,-0.07303941,0.18,0.96,0.0,17922,10021.60,0,0,165,-0.49,-8.47,-4.83,0.18,0.96,0.00
-9.388672,-0.0060591074,-0.09821428,-0.06403941,0.16,0.97,-0.0,17931,10020.70,0,0,0,-1.12,-10.01,-4.20,0.16,0.97,-0.00
-8.489258,-0.0060591074,-0.09621428,-0.06303941,0.15,0.99,-0.01,17946,10021.60,0,0,165,-1.12,-9.87,-4.13,0.15,0.99,-0.01
-7.489258,0.006940894,-0.08321428,-0.07303941,0.15,1.0,-0.02,17968,10022.60,0,0,0,-0.21,-8.96,-4.83,0.15,1.00,-0.02
-7.489258,0.023940895,-0.058214273,-0.082039416,0.15,1.01,-0.02,17969,10022.60,0,0,165,0.98,-7.21,-5.46,0.15,1.01,-0.02
-6.489258,0.047940895,-0.048214275,-0.07903941,0.16,0.99,-0.02,17990,10023.60,0,0,0,2.66,-6.51,-5.25,0.16,0.99,-0.02
-6.1884766,0.06094089,-0.042214278,-0.07303941,0.16,0.99,-0.02,17998,10023.90,0,0,165,3.57,-6.09,-4.83,0.16,0.99,-0.02
-7.489258,0.0709409,-0.030214276,-0.07103941,0.15,0.99,-0.01,18005,10022.60,0,0,0,4.27,-5.25,-4.69,0.15,0.99,-0.01
-4.2890625,0.07894089,-0.015214272,-0.08503941,0.14,0.99,-0.01,18020,10025.80,0,0,165,4.83,-4.20,-5.67,0.14,0.99,-0.01
-4.588867,0.07594089,-0.019214276,-0.104039416,0.13,1.0,-0.01,18035,10025.50,0,0,0,4.62,-4.48,-7.00,0.13,1.00,-0.01
-3.2890625,0.066940896,-0.022214275,-0.12403941,0.13,0.99,-0.02,18043,10026.80,0,0,165,3.99,-4.69,-8.40,0.13,0.99,-0.02
-2.5888672,0.059940893,-0.008214273,-0.14103942,0.13,0.99,-0.02,18058,10027.50,0,0,0,3.50,-3.71,-9.59,0.13,0.99,-0.02
-1.6884766,0.040940896,0.012785725,-0.1440394,0.15,0.98,-0.02,18073,10028.40,0,0,165,2.17,-2.24,-9.80,0.15,0.98,-0.02
0.31152344,0.029940892,0.029785726,-0.13203941,0.16,0.97,-0.02,18088,10030.40,0,0,0,1.40,-1.05,-8.96,0.16,0.97,-0.02
1.6113281,0.015940893,0.023785727,-0.114039406,0.15,0.98,-0.02,18095,10031.70,0,0,165,0.42,-1.47,-7.70,0.15,0.98,-0.02
4.2109375,0.009940893,0.016785726,-0.104039416,0.14,1.0,-0.03,18111,10034.30,0,0,0,0.00,-1.96,-7.00,0.14,1.00,-0.03
6.111328,0.0049408935,0.011785727,-0.11203942,0.13,1.01,-0.03,18118,10036.20,0,0,165,-0.35,-2.31,-7.56,0.13,1.01,-0.03
7.411133,0.008940893,0.0077857263,-0.12603942,0.12,1.02,-0.03,18133,10037.50,0,0,0,-0.07,-2.59,-8.54,0.12,1.02,-0.03
8.7109375,0.010940894,0.010785725,-0.14003941,0.12,1.02,-0.03,18148,10038.80,0,0,165,0.07,-2.38,-9.52,0.12,1.02,-0.03
9.010742,0.014940893,0.012785725,-0.1490394,0.13,1.02,-0.05,18155,10039.10,0,0,0,0.35,-2.24,-10.15,0.13,1.02,-0.05
11.010742,0.040940896,0.017785726,-0.1480394,0.14,1.02,-0.05,18170,10041.10,0,0,165,2.17,-1.89,-10.08,0.14,1.02,-0.05
11.911133,0.053940892,0.015785728,-0.1440394,0.13,1.02,-0.05,18185,10042.00,0,0,0,3.08,-2.03,-9.80,0.13,1.02,-0.05
15.2109375,0.06494089,0.0077857263,-0.14503941,0.12,1.02,-0.04,18192,10045.30,0,0,165,3.85,-2.59,-9.87,0.12,1.02,-0.04
15.2109375,0.05094089,0.0037857294,-0.1580394,0.11,1.0,-0.02,18208,10045.30,0,0,0,2.87,-2.87,-10.78,0.11,1.00,-0.02
16.111328,0.027940892,-0.0042142756,-0.1680394,0.11,1.0,-0.01,18223,10046.20,0,0,165,1.26,-3.43,-11.48,0.11,1.00,-0.01
15.811523,-5.9106387E-5,-0.018214274,-0.1790394,0.1,1.01,-0.01,18231,10045.90,0,0,0,-0.70,-4.41,-12.25,0.10,1.01,-0.01
17.111328,-0.018059108,-0.036214273,-0.18203941,0.1,1.0,-0.01,18246,10047.20,0,0,165,-1.96,-5.67,-12.46,0.10,1.00,-0.01
18.111328,-0.036059108,-0.032214273,-0.1710394,0.1,1.0,-0.01,18260,10048.20,0,0,0,-3.22,-5.39,-11.69,0.10,1.00,-0.01
17.811523,-0.04605911,-0.018214274,-0.15203941,0.11,1.01,-0.02,18269,10047.90,0,0,165,-3.92,-4.41,-10.36,0.11,1.01,-0.02
18.710938,-0.037059106,0.0027857274,-0.12503941,0.1,1.01,-0.02,18283,10048.80,0,0,0,-3.29,-2.94,-8.47,0.10,1.01,-0.02
19.010742,-0.019059107,0.010785725,-0.10903941,0.09,1.01,-0.01,18298,10049.10,0,0,165,-2.03,-2.38,-7.35,0.09,1.01,-0.01
18.710938,-0.009059108,0.011785727,-0.0980394,0.07,1.02,-0.01,18305,10048.80,0,0,0,-1.33,-2.31,-6.58,0.07,1.02,-0.01
19.010742,0.0029408932,0.026785728,-0.10303941,0.05,1.03,-0.01,18320,10049.10,0,0,165,-0.49,-1.26,-6.93,0.05,1.03,-0.01
18.111328,0.009940893,0.035785727,-0.11603941,0.04,1.04,-0.0,18336,10048.20,0,0,0,0.00,-0.63,-7.84,0.04,1.04,-0.00
16.811523,0.010940894,0.05478573,-0.13703941,0.03,1.04,-0.0,18343,10046.90,0,0,165,0.07,0.70,-9.31,0.03,1.04,-0.00
16.111328,0.009940893,0.07278573,-0.1610394,0.04,1.04,0.0,18358,10046.20,0,0,0,0.00,1.96,-10.99,0.04,1.04,0.00
16.111328,0.003940894,0.06978573,-0.1710394,0.04,1.03,0.0,18366,10046.20,0,0,165,-0.42,1.75,-11.69,0.04,1.03,0.00
14.811523,-0.011059106,0.06578573,-0.1700394,0.05,1.02,0.01,18381,10044.90,0,0,0,-1.47,1.47,-11.62,0.05,1.02,0.01
14.2109375,-0.020059105,0.06378573,-0.16703941,0.05,1.01,0.0,18404,10044.30,0,0,165,-2.10,1.33,-11.41,0.05,1.01,0.00
15.811523,-0.02805911,0.06478573,-0.1570394,0.06,1.0,0.01,18405,10045.90,0,0,0,-2.66,1.40,-10.71,0.06,1.00,0.01
13.911133,-0.029059108,0.05478573,-0.1430394,0.05,1.0,0.01,18418,10044.00,0,0,165,-2.73,0.70,-9.73,0.05,1.00,0.01
13.2109375,-0.026059106,0.052785728,-0.13103941,0.04,1.0,0.0,18434,10043.30,0,0,0,-2.52,0.56,-8.89,0.04,1.00,0.00
13.911133,-0.020059105,0.04378573,-0.11903942,0.05,1.0,-0.0,18441,10044.00,0,0,165,-2.10,-0.07,-8.05,0.05,1.00,-0.00
12.311523,0.006940894,0.039785728,-0.11203942,0.04,1.0,-0.02,18464,10042.40,0,0,0,-0.21,-0.35,-7.56,0.04,1.00,-0.02
11.311523,0.030940894,0.044785727,-0.10803941,0.04,1.01,-0.02,18471,10041.40,0,0,165,1.47,0.00,-7.28,0.04,1.01,-0.02
12.311523,0.055940893,0.037785728,-0.10303941,0.04,1.01,-0.01,18479,10042.40,0,0,0,3.22,-0.49,-6.93,0.04,1.01,-0.01
12.311523,0.066940896,0.040785726,-0.10703941,0.05,0.99,-0.01,18501,10042.40,0,0,165,3.99,-0.28,-7.21,0.05,0.99,-0.01
11.311523,0.061940894,0.031785727,-0.099039406,0.06,0.99,-0.0,18518,10041.40,0,0,0,3.64,-0.91,-6.65,0.06,0.99,-0.00
11.611328,0.048940893,0.024785727,-0.084039405,0.06,0.97,-0.0,18519,10041.70,0,0,165,2.73,-1.40,-5.60,0.06,0.97,-0.00
11.311523,0.033940893,0.025785726,-0.05603941,0.08,0.96,0.0,18532,10041.40,0,0,0,1.68,-1.33,-3.64,0.08,0.96,0.00
10.311523,0.020940892,0.023785727,-0.02403941,0.08,0.97,0.0,18546,10040.40,0,0,165,0.77,-1.47,-1.40,0.08,0.97,0.00
9.7109375,0.003940894,0.010785725,-0.0010394107,0.08,0.98,0.01,18553,10039.80,0,0,0,-0.42,-2.38,0.21,0.08,0.98,0.01
10.311523,-0.010059106,0.0067857243,0.013960589,0.08,0.98,0.01,18568,10040.40,0,0,165,-1.40,-2.66,1.26,0.08,0.98,0.01
9.311523,-0.03305911,7.8572705E-4,0.02196059,0.08,0.98,0.02,18583,10039.40,0,0,0,-3.01,-3.08,1.82,0.08,0.98,0.02
9.311523,-0.061059102,-0.008214273,0.02196059,0.07,0.99,0.02,18590,10039.40,0,0,165,-4.97,-3.71,1.82,0.07,0.99,0.02
9.311523,-0.084059104,-0.025214273,0.02396059,0.08,0.99,0.03,18606,10039.40,0,0,0,-6.58,-4.90,1.96,0.08,0.99,0.03
8.411133,-0.09805911,-0.03521427,0.03296059,0.08,1.0,0.02,18620,10038.50,0,0,165,-7.56,-5.60,2.59,0.08,1.00,0.02
9.7109375,-0.12005912,-0.04921427,0.04196059,0.08,1.0,0.03,18628,10039.80,0,0,0,-9.10,-6.58,3.22,0.08,1.00,0.03
9.311523,-0.1320591,-0.04921427,0.03996059,0.08,1.0,0.04,18643,10039.40,0,0,165,-9.94,-6.58,3.08,0.08,1.00,0.04
8.411133,-0.14505911,-0.051214267,0.042960588,0.08,1.01,0.04,18658,10038.50,0,0,0,-10.85,-6.72,3.29,0.08,1.01,0.04
8.411133,-0.1470591,-0.07521427,0.04596059,0.08,1.01,0.05,18666,10038.50,0,0,165,-10.99,-8.40,3.50,0.08,1.01,0.05
7.411133,-0.15205911,-0.07821427,0.042960588,0.08,1.02,0.05,18681,10037.50,0,0,0,-11.34,-8.61,3.29,0.08,1.02,0.05
8.411133,-0.15505911,-0.07321428,0.033960592,0.07,1.02,0.05,18695,10038.50,0,0,165,-11.55,-8.26,2.66,0.07,1.02,0.05
6.411133,-0.15105912,-0.07821427,0.01896059,0.07,1.02,0.05,18703,10036.50,0,0,0,-11.27,-8.61,1.61,0.07,1.02,0.05
7.411133,-0.1440591,-0.08021428,0.00996059,0.07,1.02,0.06,18718,10037.50,0,0,165,-10.78,-8.75,0.98,0.07,1.02,0.06
6.411133,-0.1360591,-0.08521429,-0.0020394104,0.07,1.02,0.05,18733,10036.50,0,0,0,-10.22,-9.10,0.14,0.07,1.02,0.05
7.111328,-0.12205911,-0.08221428,-0.01303941,0.07,1.02,0.05,18740,10037.20,0,0,165,-9.24,-8.89,-0.63,0.07,1.02,0.05
7.411133,-0.10405911,-0.07621428,-0.01503941,0.08,1.02,0.05,18756,10037.50,0,0,0,-7.98,-8.47,-0.77,0.08,1.02,0.05
7.411133,-0.08705911,-0.06621428,-0.01503941,0.08,1.01,0.06,18771,10037.50,0,0,165,-6.79,-7.77,-0.77,0.08,1.01,0.06
8.411133,-0.07505911,-0.062214267,-0.016039409,0.08,1.01,0.06,18779,10038.50,0,0,0,-5.95,-7.49,-0.84,0.08,1.01,0.06
6.411133,-0.062059104,-0.048214275,-0.016039409,0.08,1.01,0.06,18794,10036.50,0,0,165,-5.04,-6.51,-0.84,0.08,1.01,0.06
6.111328,-0.04205911,-0.044214275,-0.00903941,0.08,1.02,0.05,18808,10036.20,0,0,0,-3.64,-6.23,-0.35,0.08,1.02,0.05
6.411133,-0.031059105,-0.044214275,0.004960589,0.09,1.01,0.05,18815,10036.50,0,0,165,-2.87,-6.23,0.63,0.09,1.01,0.05
6.411133,-0.017059106,-0.034214277,0.015960589,0.09,1.01,0.06,18838,10036.50,0,0,0,-1.89,-5.53,1.40,0.09,1.01,0.06
5.111328,-0.014059105,-0.029214274,0.02196059,0.09,1.0,0.06,18845,10035.20,0,0,165,-1.68,-5.18,1.82,0.09,1.00,0.06
5.510742,-0.023059107,-0.023214277,0.02896059,0.09,1.0,0.06,18853,10035.60,0,0,0,-2.31,-4.76,2.31,0.09,1.00,0.06
5.510742,-0.04205911,-0.019214276,0.03496059,0.1,0.99,0.06,18868,10035.60,0,0,165,-3.64,-4.48,2.73,0.10,0.99,0.06
5.510742,-0.05405911,-0.030214276,0.03896059,0.1,0.99,0.06,18883,10035.60,0,0,0,-4.48,-5.25,3.01,0.10,0.99,0.06
5.510742,-0.05205911,-0.028214272,0.04596059,0.1,0.99,0.05,18891,10035.60,0,0,165,-4.34,-5.11,3.50,0.10,0.99,0.05
4.510742,-0.05205911,-0.011214275,0.05196059,0.1,1.0,0.04,18906,10034.60,0,0,0,-4.34,-3.92,3.92,0.10,1.00,0.04
4.510742,-0.047059108,-0.005214274,0.04696059,0.09,1.01,0.05,18920,10034.60,0,0,165,-3.99,-3.50,3.57,0.09,1.01,0.05
5.510742,-0.045059107,0.0037857294,0.027960591,0.08,1.01,0.05,18927,10035.60,0,0,0,-3.85,-2.87,2.24,0.08,1.01,0.05
4.8115234,-0.047059108,7.8572705E-4,0.01296059,0.08,1.01,0.06,18943,10034.90,0,0,165,-3.99,-3.08,1.19,0.08,1.01,0.06
4.510742,-0.05405911,0.0067857243,-3.941031E-5,0.09,1.01,0.05,18958,10034.60,0,0,0,-4.48,-2.66,0.28,0.09,1.01,0.05
3.5107422,-0.05205911,0.009785727,-0.0020394104,0.1,1.01,0.06,18965,10033.60,0,0,165,-4.34,-2.45,0.14,0.10,1.01,0.06
2.5107422,-0.05105911,0.012785725,0.004960589,0.1,1.01,0.05,18980,10032.60,0,0,0,-4.27,-2.24,0.63,0.10,1.01,0.05
3.5107422,-0.049059108,0.015785728,0.0059605893,0.11,1.01,0.05,18995,10033.60,0,0,165,-4.13,-2.03,0.70,0.11,1.01,0.05
2.5107422,-0.047059108,0.0147857275,0.010960589,0.1,1.01,0.06,19003,10032.60,0,0,0,-3.99,-2.10,1.05,0.10,1.01,0.06
2.2109375,-0.05105911,0.0067857243,0.010960589,0.1,1.01,0.06,19018,10032.30,0,0,165,-4.27,-2.66,1.05,0.10,1.01,0.06
1.6113281,-0.05105911,0.005785726,0.01296059,0.1,1.01,0.06,19032,10031.70,0,0,0,-4.27,-2.73,1.19,0.10,1.01,0.06
2.5107422,-0.048059106,-0.0012142733,0.01196059,0.1,1.01,0.06,19040,10032.60,0,0,165,-4.06,-3.22,1.12,0.10,1.01,0.06
1.6113281,-0.043059107,-2.1427497E-4,0.015960589,0.1,1.0,0.06,19055,10031.70,0,0,0,-3.71,-3.15,1.40,0.10,1.00,0.06
-0.38867188,-0.04005911,-0.005214274,0.02196059,0.11,1.0,0.05,19077,10029.70,0,0,165,-3.50,-3.50,1.82,0.11,1.00,0.05
-1.2890625,-0.038059104,0.0047857277,0.03096059,0.11,1.0,0.05,19080,10028.80,0,0,0,-3.36,-2.80,2.45,0.11,1.00,0.05
-3.2890625,-0.031059105,0.008785728,0.031960588,0.11,1.0,0.05,19093,10026.80,0,0,165,-2.87,-2.52,2.52,0.11,1.00,0.05
-4.888672,-0.025059108,0.0147857275,0.029960591,0.11,1.0,0.05,19108,10025.20,0,0,0,-2.45,-2.10,2.38,0.11,1.00,0.05
-7.1884766,-0.031059105,0.018785726,0.02696059,0.1,1.0,0.05,19116,10022.90,0,0,165,-2.87,-1.82,2.17,0.10,1.00,0.05
-10.088867,-0.031059105,0.022785727,0.027960591,0.11,1.0,0.06,19130,10020.00,0,0,0,-2.87,-1.54,2.24,0.11,1.00,0.06
-10.688477,-0.030059107,0.019785726,0.029960591,0.11,1.0,0.06,19145,10019.40,0,0,165,-2.80,-1.75,2.38,0.11,1.00,0.06
-11.989258,-0.03505911,0.025785726,0.03596059,0.11,1.0,0.05,19153,10018.10,0,0,0,-3.15,-1.33,2.80,0.11,1.00,0.05
-13.989258,-0.034059107,0.042785726,0.04096059,0.11,1.01,0.06,19168,10016.10,0,0,165,-3.08,-0.14,3.15,0.11,1.01,0.06
-13.989258,-0.03905911,0.04178573,0.04096059,0.11,1.01,0.06,19183,10016.10,0,0,0,-3.43,-0.21,3.15,0.11,1.01,0.06
-13.989258,-0.04205911,0.04178573,0.036960587,0.11,1.01,0.06,19190,10016.10,0,0,165,-3.64,-0.21,2.87,0.11,1.01,0.06
-14.888672,-0.05105911,0.049785726,0.025960589,0.11,1.02,0.06,19205,10015.20,0,0,0,-4.27,0.35,2.10,0.11,1.02,0.06
-14.888672,-0.06305911,0.056785725,0.015960589,0.11,1.01,0.06,19220,10015.20,0,0,165,-5.11,0.84,1.40,0.11,1.01,0.06
-13.989258,-0.07405911,0.053785726,0.00996059,0.11,1.01,0.07,19227,10016.10,0,0,0,-5.88,0.63,0.98,0.11,1.01,0.07
-13.989258,-0.09405911,-0.21021427,0.007960589,0.11,1.01,0.08,19251,10016.10,0,0,165,-7.28,-17.85,0.84,0.11,1.01,0.08
-13.989258,-0.09905911,0.024785727,0.0029605897,0.11,1.01,0.08,19258,10016.10,0,0,0,-7.63,-1.40,0.49,0.11,1.01,0.08
-12.989258,-0.0970591,0.0147857275,-0.0050394107,0.11,1.0,0.08,19266,10017.10,0,0,165,-7.49,-2.10,-0.07,0.11,1.00,0.08
-12.989258,-0.1070591,-0.0072142743,-0.008039411,0.1,1.0,0.09,19283,10017.10,0,0,0,-8.19,-3.64,-0.28,0.10,1.00,0.09
-12.989258,-0.11605911,-0.011214275,-0.016039409,0.1,0.88,0.08,19295,10017.10,0,0,165,-8.82,-3.92,-0.84,0.10,0.88,0.08
-11.989258,-0.1130591,-0.032214273,-0.01403941,0.1,1.0,0.08,19303,10018.10,0,0,0,-8.61,-5.39,-0.70,0.10,1.00,0.08
-12.989258,-0.0970591,-0.043214273,-0.012039411,0.1,1.0,0.08,19319,10017.10,0,0,165,-7.49,-6.16,-0.56,0.10,1.00,0.08
-12.989258,-0.08005911,-0.039214272,-0.01403941,0.09,1.0,0.09,19333,10017.10,0,0,0,-6.30,-5.88,-0.70,0.09,1.00,0.09
-11.989258,-0.07105911,-0.054214273,-0.018039411,0.1,1.0,0.1,19340,10018.10,0,0,165,-5.67,-6.93,-0.98,0.10,1.00,0.10
-12.989258,-0.07605911,-0.064214274,-0.01503941,0.1,1.0,0.1,19355,10017.10,0,0,0,-6.02,-7.63,-0.77,0.10,1.00,0.10
-10.688477,-0.0720591,-0.06721428,-0.0040394105,0.1,1.0,0.11,19370,10019.40,0,0,165,-5.74,-7.84,0.00,0.10,1.00,0.11
-11.989258,-0.073059104,-0.079214275,0.007960589,0.1,1.0,0.11,19378,10018.10,0,0,0,-5.81,-8.68,0.84,0.10,1.00,0.11
-11.989258,-0.073059104,-0.07821427,0.014960591,0.1,1.0,0.1,19393,10018.10,0,0,165,-5.81,-8.61,1.33,0.10,1.00,0.10
-10.688477,-0.05705911,-0.06621428,0.02696059,0.1,1.0,0.1,19408,10019.40,0,0,0,-4.69,-7.77,2.17,0.10,1.00,0.10
-11.088867,-0.048059106,-0.061214272,0.02896059,0.1,1.0,0.11,19417,10019.00,0,0,165,-4.06,-7.42,2.31,0.10,1.00,0.11
-11.088867,-0.038059104,-0.06021427,0.027960591,0.09,1.0,0.11,19432,10019.00,0,0,0,-3.36,-7.35,2.24,0.09,1.00,0.11
-10.088867,-0.04405911,-0.053214278,0.02296059,0.09,1.0,0.12,19449,10020.00,0,0,165,-3.78,-6.86,1.89,0.09,1.00,0.12
-10.088867,-0.05305911,-0.044214275,0.01296059,0.1,1.0,0.12,19461,10020.00,0,0,0,-4.41,-6.23,1.19,0.10,1.00,0.12
-10.688477,-0.06605911,-0.03521427,0.01296059,0.1,1.0,0.12,19476,10019.40,0,0,165,-5.32,-5.60,1.19,0.10,1.00,0.12
-10.088867,-0.05805911,-0.050214272,0.015960589,0.1,1.0,0.12,19483,10020.00,0,0,0,-4.76,-6.65,1.40,0.10,1.00,0.12
-9.088867,-0.05105911,-0.045214277,0.01796059,0.1,1.0,0.12,19491,10021.00,0,0,165,-4.27,-6.30,1.54,0.10,1.00,0.12
-9.088867,-0.05305911,-0.051214267,0.02096059,0.1,1.0,0.12,19505,10021.00,0,0,0,-4.41,-6.72,1.75,0.10,1.00,0.12
-8.088867,-0.04605911,-0.055214275,0.019960588,0.1,1.0,0.12,19520,10022.00,0,0,165,-3.92,-7.00,1.68,0.10,1.00,0.12
-7.7890625,-0.045059107,-0.044214275,0.01796059,0.1,1.01,0.12,19529,10022.30,0,0,0,-3.85,-6.23,1.54,0.10,1.01,0.12
-8.088867,-0.043059107,-0.031214278,0.00896059,0.1,1.0,0.12,19543,10022.00,0,0,165,-3.71,-5.32,0.91,0.10,1.00,0.12
-8.7890625,-0.032059107,-0.019214276,0.0059605893,0.1,1.01,0.12,19558,10021.30,0,0,0,-2.94,-4.48,0.70,0.10,1.01,0.12
-8.7890625,-0.026059106,-0.012214273,0.0059605893,0.1,1.0,0.12,19567,10021.30,0,0,165,-2.52,-3.99,0.70,0.10,1.00,0.12
-8.088867,-0.018059108,-0.020214278,0.00996059,0.11,1.0,0.12,19582,10022.00,0,0,0,-1.96,-4.55,0.98,0.11,1.00,0.12
-7.7890625,-0.009059108,-0.0132142715,0.013960589,0.1,1.01,0.12,19596,10022.30,0,0,165,-1.33,-4.06,1.26,0.10,1.01,0.12
-7.1884766,0.003940894,-0.009214275,0.01296059,0.1,1.01,0.12,19603,10022.90,0,0,0,-0.42,-3.78,1.19,0.10,1.01,0.12
-7.489258,0.023940895,-0.006214272,0.007960589,0.1,1.01,0.12,19618,10022.60,0,0,165,0.98,-3.57,0.84,0.10,1.01,0.12
-6.1884766,0.028940894,0.0067857243,0.001960589,0.09,1.01,0.12,19633,10023.90,0,0,0,1.33,-2.66,0.42,0.09,1.01,0.12
-6.7890625,0.035940893,0.018785726,-0.0050394107,0.1,1.01,0.12,19641,10023.30,0,0,165,1.82,-1.82,-0.07,0.10,1.01,0.12
-5.888672,0.036940895,0.034785725,-0.01403941,0.1,1.01,0.12,19655,10024.20,0,0,0,1.89,-0.70,-0.70,0.10,1.01,0.12
-5.888672,0.034940895,0.04178573,-0.00903941,0.11,1.01,0.12,19670,10024.20,0,0,165,1.75,-0.21,-0.35,0.11,1.01,0.12
-3.8886719,0.039940894,0.023785727,-0.006039411,0.11,1.01,0.11,19678,10026.20,0,0,0,2.10,-1.47,-0.14,0.11,1.01,0.11
-3.8886719,0.04594089,0.023785727,-0.0030394103,0.11,1.0,0.11,19693,10026.20,0,0,165,2.52,-1.47,0.07,0.11,1.00,0.11
-5.1884766,0.048940893,0.038785726,-0.00703941,0.1,1.0,0.1,19708,10024.90,0,0,0,2.73,-0.42,-0.21,0.10,1.00,0.10
-4.2890625,0.048940893,0.052785728,-0.01303941,0.11,1.0,0.1,19716,10025.80,0,0,165,2.73,0.56,-0.63,0.11,1.00,0.10
-4.2890625,0.047940895,0.05478573,-0.01003941,0.11,1.0,0.1,19733,10025.80,0,0,0,2.66,0.70,-0.42,0.11,1.00,0.10
-3.2890625,0.053940892,0.045785725,-0.01003941,0.1,1.0,0.1,19748,10026.80,0,0,165,3.08,0.07,-0.42,0.10,1.00,0.10
-2.2890625,0.058940895,0.050785728,-0.008039411,0.11,1.0,0.1,19753,10027.80,0,0,0,3.43,0.42,-0.28,0.11,1.00,0.10
-2.2890625,0.053940892,0.047785725,-0.0050394107,0.11,1.0,0.1,19768,10027.80,0,0,165,3.08,0.21,-0.07,0.11,1.00,0.10
-0.9892578,0.04994089,0.046785727,-0.0050394107,0.11,1.0,0.1,19783,10029.10,0,0,0,2.80,0.14,-0.07,0.11,1.00,0.10
-1.2890625,0.04994089,0.044785727,-0.0030394103,0.11,1.0,0.1,19791,10028.80,0,0,165,2.80,0.00,0.07,0.11,1.00,0.10
0.0107421875,0.05094089,0.028785726,-0.006039411,0.11,1.0,0.1,19806,10030.10,0,0,0,2.87,-1.12,-0.14,0.11,1.00,0.10
-0.38867188,0.043940894,0.027785726,-0.012039411,0.11,1.0,0.1,19820,10029.70,0,0,165,2.38,-1.19,-0.56,0.11,1.00,0.10
0.6113281,0.039940894,0.036785726,-0.01403941,0.11,1.0,0.1,19828,10030.70,0,0,0,2.10,-0.56,-0.70,0.11,1.00,0.10
0.0107421875,0.042940892,0.04178573,-0.016039409,0.11,1.0,0.1,19851,10030.10,0,0,165,2.31,-0.21,-0.84,0.11,1.00,0.10
1.9111328,0.040940896,0.03278573,-0.01703941,0.11,1.0,0.1,19858,10032.00,0,0,0,2.17,-0.84,-0.91,0.11,1.00,0.10
1.9111328,0.043940894,0.034785725,-0.01503941,0.11,1.0,0.1,19867,10032.00,0,0,165,2.38,-0.70,-0.77,0.11,1.00,0.10
2.5107422,0.039940894,0.034785725,-0.016039409,0.11,1.0,0.1,19883,10032.60,0,0,0,2.10,-0.70,-0.84,0.11,1.00,0.10
2.9111328,0.034940895,0.027785726,-0.01303941,0.11,1.0,0.1,19897,10033.00,0,0,165,1.75,-1.19,-0.63,0.11,1.00,0.10
3.5107422,0.026940893,0.019785726,-0.01403941,0.1,1.0,0.1,19905,10033.60,0,0,0,1.19,-1.75,-0.70,0.10,1.00,0.10
4.8115234,0.020940892,0.017785726,-0.020039411,0.1,1.0,0.1,19918,10034.90,0,0,165,0.77,-1.89,-1.12,0.10,1.00,0.10
5.8115234,0.017940894,0.011785727,-0.02403941,0.1,1.0,0.1,19933,10035.90,0,0,0,0.56,-2.31,-1.40,0.10,1.00,0.10
6.411133,0.018940892,0.010785725,-0.02903941,0.1,1.0,0.1,19941,10036.50,0,0,165,0.63,-2.38,-1.75,0.10,1.00,0.10
7.7109375,0.016940894,0.011785727,-0.030039411,0.1,1.0,0.1,19955,10037.80,0,0,0,0.49,-2.31,-1.82,0.10,1.00,0.10
8.411133,0.022940893,0.013785725,-0.030039411,0.1,1.0,0.1,19970,10038.50,0,0,165,0.91,-2.17,-1.82,0.10,1.00,0.10
9.311523,0.023940895,0.012785725,-0.031039411,0.1,1.0,0.1,19978,10039.40,0,0,0,0.98,-2.24,-1.89,0.10,1.00,0.10
9.7109375,0.015940893,0.009785727,-0.03303941,0.1,1.0,0.11,19993,10039.80,0,0,165,0.42,-2.45,-2.03,0.10,1.00,0.11
10.311523,0.011940894,0.008785728,-0.03303941,0.1,0.99,0.11,20008,10040.40,0,0,0,0.14,-2.52,-2.03,0.10,0.99,0.11
10.311523,0.009940893,0.0037857294,-0.02603941,0.1,1.0,0.1,20015,10040.40,0,0,165,0.00,-2.87,-1.54,0.10,1.00,0.10
11.611328,0.011940894,-0.0012142733,-0.02503941,0.1,1.0,0.1,20030,10041.70,0,0,0,0.14,-3.22,-1.47,0.10,1.00,0.10
11.611328,0.012940893,7.8572705E-4,-0.02603941,0.09,0.99,0.11,20045,10041.70,0,0,165,0.21,-3.08,-1.54,0.09,0.99,0.11
11.311523,0.017940894,-0.0012142733,-0.021039411,0.09,1.0,0.11,20053,10041.40,0,0,0,0.56,-3.22,-1.19,0.09,1.00,0.11
12.311523,0.012940893,-0.0012142733,-0.023039412,0.09,1.0,0.11,20068,10042.40,0,0,165,0.21,-3.22,-1.33,0.09,1.00,0.11
12.611328,0.016940894,-2.1427497E-4,-0.023039412,0.09,1.0,0.11,20083,10042.70,0,0,0,0.49,-3.15,-1.33,0.09,1.00,0.11
11.311523,0.010940894,0.005785726,-0.016039409,0.09,1.0,0.11,20091,10041.40,0,0,165,0.07,-2.73,-0.84,0.09,1.00,0.11
12.311523,0.009940893,0.0047857277,-0.008039411,0.1,1.0,0.11,20105,10042.40,0,0,0,0.00,-2.80,-0.28,0.10,1.00,0.11
13.2109375,0.008940893,0.0027857274,-0.0030394103,0.1,1.0,0.11,20120,10043.30,0,0,165,-0.07,-2.94,0.07,0.10,1.00,0.11
11.611328,0.003940894,0.008785728,0.0029605897,0.1,1.0,0.11,20128,10041.70,0,0,0,-0.42,-2.52,0.49,0.10,1.00,0.11
12.311523,0.0029408932,0.010785725,0.0069605894,0.1,0.99,0.11,20143,10042.40,0,0,165,-0.49,-2.38,0.77,0.10,0.99,0.11
10.611328,0.010940894,0.0077857263,0.010960589,0.1,1.0,0.11,20166,10040.70,0,0,0,0.07,-2.59,1.05,0.10,1.00,0.11
10.611328,0.011940894,0.0037857294,0.01296059,0.1,1.0,0.11,20167,10040.70,0,0,165,0.14,-2.87,1.19,0.10,1.00,0.11
11.611328,0.007940893,0.010785725,0.0069605894,0.1,1.0,0.11,20180,10041.70,0,0,0,-0.14,-2.38,0.77,0.10,1.00,0.11
10.611328,0.006940894,0.015785728,0.00896059,0.1,1.0,0.11,20188,10040.70,0,0,165,-0.21,-2.03,0.91,0.10,1.00,0.11
11.010742,0.0029408932,0.017785726,0.00896059,0.1,1.0,0.11,20203,10041.10,0,0,0,-0.49,-1.89,0.91,0.10,1.00,0.11
10.611328,0.003940894,0.013785725,0.01296059,0.1,1.0,0.11,20218,10040.70,0,0,165,-0.42,-2.17,1.19,0.10,1.00,0.11
9.7109375,9.408938E-4,0.015785728,0.010960589,0.1,1.0,0.11,20226,10039.80,0,0,0,-0.63,-2.03,1.05,0.10,1.00,0.11
8.010742,0.003940894,0.016785726,0.01296059,0.1,1.0,0.11,20241,10038.10,0,0,165,-0.42,-1.96,1.19,0.10,1.00,0.11
7.7109375,0.008940893,0.013785725,0.01296059,0.1,1.0,0.11,20255,10037.80,0,0,0,-0.07,-2.17,1.19,0.10,1.00,0.11
8.7109375,0.003940894,0.012785725,0.00896059,0.1,1.0,0.11,20263,10038.80,0,0,165,-0.42,-2.24,0.91,0.10,1.00,0.11
8.7109375,0.001940893,0.0047857277,0.0069605894,0.1,1.0,0.11,20278,10038.80,0,0,0,-0.56,-2.80,0.77,0.10,1.00,0.11
7.7109375,0.0029408932,0.005785726,0.001960589,0.11,1.0,0.11,20294,10037.80,0,0,165,-0.49,-2.73,0.42,0.11,1.00,0.11
8.7109375,0.0029408932,0.008785728,0.001960589,0.11,0.99,0.11,20301,10038.80,0,0,0,-0.49,-2.52,0.42,0.11,0.99,0.11
8.411133,0.008940893,-0.0032142699,0.007960589,0.11,1.0,0.11,20316,10038.50,0,0,165,-0.07,-3.36,0.84,0.11,1.00,0.11
8.411133,0.014940893,-0.0032142699,0.010960589,0.1,1.01,0.1,20330,10038.50,0,0,0,0.35,-3.36,1.05,0.10,1.01,0.10
7.7109375,0.019940894,0.0027857274,0.007960589,0.1,1.0,0.11,20338,10037.80,0,0,165,0.70,-2.94,0.84,0.10,1.00,0.11
7.7109375,0.021940893,-0.0032142699,0.0029605897,0.1,1.01,0.11,20353,10037.80,0,0,0,0.84,-3.36,0.49,0.10,1.01,0.11
6.111328,0.011940894,0.005785726,-0.006039411,0.1,1.01,0.11,20368,10036.20,0,0,165,0.14,-2.73,-0.14,0.10,1.01,0.11
7.7109375,0.007940893,7.8572705E-4,-0.01303941,0.1,1.01,0.11,20375,10037.80,0,0,0,-0.14,-3.08,-0.63,0.10,1.01,0.11
6.7109375,0.009940893,-0.0012142733,-0.01303941,0.1,1.0,0.11,20391,10036.80,0,0,165,0.00,-3.22,-0.63,0.10,1.00,0.11
6.7109375,0.013940893,0.0017857254,-0.01003941,0.1,1.0,0.11,20405,10036.80,0,0,0,0.28,-3.01,-0.42,0.10,1.00,0.11
6.7109375,0.012940893,0.009785727,-0.008039411,0.11,1.0,0.11,20413,10036.80,0,0,165,0.21,-2.45,-0.28,0.11,1.00,0.11
5.8115234,0.010940894,0.0077857263,-0.0020394104,0.11,1.0,0.11,20428,10035.90,0,0,0,0.07,-2.59,0.14,0.11,1.00,0.11
6.7109375,0.013940893,0.0017857254,0.0029605897,0.1,1.0,0.11,20443,10036.80,0,0,165,0.28,-3.01,0.49,0.10,1.00,0.11
7.411133,0.009940893,0.0047857277,0.001960589,0.1,1.0,0.11,20450,10037.50,0,0,0,0.00,-2.80,0.42,0.10,1.00,0.11
4.8115234,0.008940893,0.0047857277,9.605894E-4,0.1,1.0,0.11,20466,10034.90,0,0,165,-0.07,-2.80,0.35,0.10,1.00,0.11
5.8115234,0.007940893,0.0037857294,-0.0010394107,0.1,1.0,0.11,20480,10035.90,0,0,0,-0.14,-2.87,0.21,0.10,1.00,0.11
4.8115234,0.005940893,0.010785725,-3.941031E-5,0.1,1.0,0.11,20488,10034.90,0,0,165,-0.28,-2.38,0.28,0.10,1.00,0.11
4.8115234,0.010940894,0.0067857243,0.004960589,0.1,1.0,0.11,20503,10034.90,0,0,0,0.07,-2.66,0.63,0.10,1.00,0.11
5.8115234,0.010940894,0.0037857294,0.0059605893,0.1,1.0,0.11,20518,10035.90,0,0,165,0.07,-2.87,0.70,0.10,1.00,0.11
4.8115234,0.008940893,0.0077857263,0.0069605894,0.1,1.0,0.12,20526,10034.90,0,0,0,-0.07,-2.59,0.77,0.10,1.00,0.12
5.8115234,0.0049408935,0.005785726,0.00896059,0.1,1.0,0.12,20541,10035.90,0,0,165,-0.35,-2.73,0.91,0.10,1.00,0.12
5.8115234,0.005940893,0.0077857263,0.00996059,0.1,1.0,0.11,20556,10035.90,0,0,0,-0.28,-2.59,0.98,0.10,1.00,0.11
4.8115234,0.005940893,0.0077857263,0.010960589,0.11,1.0,0.12,20571,10034.90,0,0,165,-0.28,-2.59,1.05,0.11,1.00,0.12
4.8115234,0.007940893,0.0067857243,0.013960589,0.11,1.0,0.12,20579,10034.90,0,0,0,-0.14,-2.66,1.26,0.11,1.00,0.12
4.8115234,0.009940893,0.011785727,0.015960589,0.11,1.0,0.12,20585,10034.90,0,0,165,0.00,-2.31,1.40,0.11,1.00,0.12
3.8115234,0.008940893,0.011785727,0.01696059,0.11,1.0,0.12,20600,10033.90,0,0,0,-0.07,-2.31,1.47,0.11,1.00,0.12
3.8115234,0.007940893,0.013785725,0.01896059,0.11,1.0,0.12,20624,10033.90,0,0,165,-0.14,-2.17,1.61,0.11,1.00,0.12
2.9111328,0.003940894,-0.0012142733,0.01796059,0.1,1.0,0.12,20625,10033.00,0,0,0,-0.42,-3.22,1.54,0.10,1.00,0.12
2.9111328,0.005940893,-0.0022142716,0.015960589,0.11,1.0,0.12,20645,10033.00,0,0,165,-0.28,-3.29,1.40,0.11,1.00,0.12
2.9111328,0.006940894,0.0037857294,0.00996059,0.11,1.0,0.12,20653,10033.00,0,0,0,-0.21,-2.87,0.98,0.11,1.00,0.12
2.9111328,0.001940893,0.0037857294,0.0029605897,0.11,1.0,0.12,20660,10033.00,0,0,165,-0.56,-2.87,0.49,0.11,1.00,0.12
3.2109375,-0.0020591058,0.0077857263,0.001960589,0.11,1.0,0.12,20675,10033.30,0,0,0,-0.84,-2.59,0.42,0.11,1.00,0.12
2.2109375,-5.9106387E-5,0.016785726,-3.941031E-5,0.11,1.0,0.12,20690,10032.30,0,0,165,-0.70,-1.96,0.28,0.11,1.00,0.12
1.2109375,9.408938E-4,0.009785727,-0.0010394107,0.11,1.0,0.12,20698,10031.30,0,0,0,-0.63,-2.45,0.21,0.11,1.00,0.12
0.9111328,-0.0050591063,0.009785727,0.001960589,0.11,1.0,0.12,20713,10031.00,0,0,165,-1.05,-2.45,0.42,0.11,1.00,0.12
-1.6884766,-0.0050591063,0.0047857277,0.004960589,0.11,1.0,0.12,20728,10028.40,0,0,0,-1.05,-2.80,0.63,0.11,1.00,0.12
-1.9892578,9.408938E-4,-0.011214275,0.01196059,0.11,1.0,0.12,20736,10028.10,0,0,165,-0.63,-3.92,1.12,0.11,1.00,0.12
-2.5888672,-0.004059107,-0.008214273,0.01896059,0.12,1.0,0.12,20756,10027.50,0,0,0,-0.98,-3.71,1.61,0.12,1.00,0.12
-6.7890625,-0.0050591063,-0.0072142743,0.02296059,0.12,1.0,0.12,20768,10023.30,0,0,165,-1.05,-3.64,1.89,0.12,1.00,0.12
-6.7890625,-5.9106387E-5,-0.012214273,0.027960591,0.12,1.0,0.12,20780,10023.30,0,0,0,-0.70,-3.99,2.24,0.12,1.00,0.12
-7.7890625,9.408938E-4,-0.019214276,0.033960592,0.11,1.0,0.12,20787,10022.30,0,0,165,-0.63,-4.48,2.66,0.11,1.00,0.12
-7.7890625,9.408938E-4,-0.0022142716,0.033960592,0.11,1.0,0.12,20803,10022.30,0,0,0,-0.63,-3.29,2.66,0.11,1.00,0.12
-9.7890625,-0.0020591058,0.009785727,0.02696059,0.11,1.0,0.12,20810,10020.30,0,0,165,-0.84,-2.45,2.17,0.11,1.00,0.12
-9.7890625,-0.0050591063,0.017785726,0.01796059,0.11,1.0,0.12,20825,10020.30,0,0,0,-1.05,-1.89,1.54,0.11,1.00,0.12
-10.688477,0.0049408935,0.0147857275,0.013960589,0.1,1.01,0.12,20840,10019.40,0,0,165,-0.35,-2.10,1.26,0.10,1.01,0.12
-10.688477,0.013940893,0.0147857275,0.0029605897,0.11,1.01,0.12,20856,10019.40,0,0,0,0.28,-2.10,0.49,0.11,1.01,0.12
-10.688477,0.013940893,0.021785727,-0.0040394105,0.11,1.0,0.13,20863,10019.40,0,0,165,0.28,-1.61,0.00,0.11,1.00,0.13
-12.688477,0.003940894,0.017785726,-0.0050394107,0.11,1.0,0.13,20878,10017.40,0,0,0,-0.42,-1.89,-0.07,0.11,1.00,0.13
-10.688477,0.008940893,0.008785728,0.0029605897,0.12,1.0,0.12,20886,10019.40,0,0,165,-0.07,-2.52,0.49,0.12,1.00,0.12
-10.688477,0.008940893,0.0077857263,0.0059605893,0.11,1.0,0.12,20900,10019.40,0,0,0,-0.07,-2.59,0.70,0.11,1.00,0.12
-10.688477,0.012940893,0.011785727,0.0069605894,0.11,1.0,0.12,20923,10019.40,0,0,165,0.21,-2.31,0.77,0.11,1.00,0.12
-9.7890625,0.011940894,0.0037857294,0.010960589,0.11,1.0,0.12,20924,10020.30,0,0,0,0.14,-2.87,1.05,0.11,1.00,0.12
-10.688477,0.010940894,0.008785728,0.00996059,0.11,0.99,0.12,20938,10019.40,0,0,165,0.07,-2.52,0.98,0.11,0.99,0.12
-10.688477,0.016940894,0.009785727,0.00896059,0.11,0.99,0.12,20953,10019.40,0,0,0,0.49,-2.45,0.91,0.11,0.99,0.12
-9.7890625,0.026940893,0.0037857294,0.00996059,0.11,0.99,0.12,20960,10020.30,0,0,165,1.19,-2.87,0.98,0.11,0.99,0.12
-10.688477,0.021940893,0.023785727,0.01196059,0.11,0.99,0.12,20975,10019.40,0,0,0,0.84,-1.47,1.12,0.11,0.99,0.12
-10.688477,0.018940892,0.025785726,0.01296059,0.11,0.99,0.12,20990,10019.40,0,0,165,0.63,-1.33,1.19,0.11,0.99,0.12
-10.388672,0.027940892,0.008785728,0.013960589,0.11,1.0,0.12,20998,10019.70,0,0,0,1.26,-2.52,1.26,0.11,1.00,0.12
-9.7890625,0.027940892,0.005785726,0.015960589,0.11,1.0,0.12,21013,10020.30,0,0,165,1.26,-2.73,1.40,0.11,1.00,0.12
-9.7890625,0.014940893,0.015785728,0.00996059,0.11,1.0,0.12,21027,10020.30,0,0,0,0.35,-2.03,0.98,0.11,1.00,0.12
-10.688477,0.006940894,0.009785727,0.00396059,0.11,1.0,0.12,21043,10019.40,0,0,165,-0.21,-2.45,0.56,0.11,1.00,0.12
-9.7890625,0.007940893,0.008785728,0.010960589,0.11,1.0,0.12,21050,10020.30,0,0,0,-0.14,-2.52,1.05,0.11,1.00,0.12
-9.7890625,0.011940894,0.011785727,0.014960591,0.11,1.0,0.12,21065,10020.30,0,0,165,0.14,-2.31,1.33,0.11,1.00,0.12
-9.7890625,0.015940893,0.009785727,0.014960591,0.11,1.0,0.12,21073,10020.30,0,0,0,0.42,-2.45,1.33,0.11,1.00,0.12
-9.7890625,0.018940892,0.010785725,0.01696059,0.12,1.0,0.12,21088,10020.30,0,0,165,0.63,-2.38,1.47,0.12,1.00,0.12
-9.7890625,0.018940892,0.005785726,0.01696059,0.11,1.0,0.12,21103,10020.30,0,0,0,0.63,-2.73,1.47,0.11,1.00,0.12
-7.7890625,0.017940894,0.0047857277,0.01196059,0.11,1.01,0.12,21110,10022.30,0,0,165,0.56,-2.80,1.12,0.11,1.01,0.12
-9.7890625,0.030940894,0.005785726,0.0059605893,0.1,1.0,0.12,21125,10020.30,0,0,0,1.47,-2.73,0.70,0.10,1.00,0.12
-8.7890625,0.026940893,0.010785725,-0.0030394103,0.11,1.0,0.12,21141,10021.30,0,0,165,1.19,-2.38,0.07,0.11,1.00,0.12
-7.7890625,0.029940892,0.009785727,-0.008039411,0.11,0.99,0.13,21148,10022.30,0,0,0,1.40,-2.45,-0.28,0.11,0.99,0.13
-7.7890625,0.029940892,0.005785726,-0.0040394105,0.11,1.0,0.12,21164,10022.30,0,0,165,1.40,-2.73,0.00,0.11,1.00,0.12
-6.7890625,0.029940892,0.0067857243,0.0029605897,0.12,1.0,0.13,21178,10023.30,0,0,0,1.40,-2.66,0.49,0.12,1.00,0.13
-6.7890625,0.027940892,0.005785726,0.00396059,0.11,1.0,0.12,21186,10023.30,0,0,165,1.26,-2.73,0.56,0.11,1.00,0.12
-6.7890625,0.030940894,0.019785726,9.605894E-4,0.11,1.0,0.12,21201,10023.30,0,0,0,1.47,-1.75,0.35,0.11,1.00,0.12
-6.7890625,0.03894089,0.03278573,0.00396059,0.11,1.0,0.12,21215,10023.30,0,0,165,2.03,-0.84,0.56,0.11,1.00,0.12
-7.7890625,0.039940894,0.035785727,0.004960589,0.11,1.0,0.13,21231,10022.30,0,0,0,2.10,-0.63,0.63,0.11,1.00,0.13
-6.7890625,0.030940894,0.011785727,0.004960589,0.11,0.99,0.12,21238,10023.30,0,0,165,1.47,-2.31,0.63,0.11,0.99,0.12
-6.489258,0.022940893,-0.0012142733,0.00996059,0.12,0.99,0.12,21253,10023.60,0,0,0,0.91,-3.22,0.98,0.12,0.99,0.12
-6.7890625,0.021940893,-0.0042142756,0.01296059,0.12,0.99,0.12,21260,10023.30,0,0,165,0.84,-3.43,1.19,0.12,0.99,0.12
-6.7890625,0.025940895,-0.0072142743,0.014960591,0.11,1.0,0.12,21275,10023.30,0,0,0,1.12,-3.64,1.33,0.11,1.00,0.12
-6.7890625,0.027940892,0.0047857277,0.013960589,0.12,1.0,0.12,21291,10023.30,0,0,165,1.26,-2.80,1.26,0.12,1.00,0.12
-6.489258,0.027940892,0.010785725,0.00996059,0.12,1.0,0.12,21298,10023.60,0,0,0,1.26,-2.38,0.98,0.12,1.00,0.12
-6.7890625,0.030940894,-0.012214273,0.013960589,0.12,1.0,0.12,21314,10023.30,0,0,165,1.47,-3.99,1.26,0.12,1.00,0.12
-6.489258,0.022940893,-0.018214274,0.015960589,0.12,1.0,0.12,21328,10023.60,0,0,0,0.91,-4.41,1.40,0.12,1.00,0.12
-5.888672,0.022940893,0.0037857294,0.01896059,0.12,1.0,0.12,21336,10024.20,0,0,165,0.91,-2.87,1.61,0.12,1.00,0.12
-5.588867,0.020940892,0.012785725,0.014960591,0.12,1.0,0.13,21351,10024.50,0,0,0,0.77,-2.24,1.33,0.12,1.00,0.13
-5.888672,0.015940893,0.0017857254,0.02096059,0.12,1.0,0.12,21374,10024.20,0,0,165,0.42,-3.01,1.75,0.12,1.00,0.12
-4.888672,0.019940894,0.0077857263,0.019960588,0.12,1.0,0.12,21375,10025.20,0,0,0,0.70,-2.59,1.68,0.12,1.00,0.12
-4.2890625,0.022940893,0.012785725,0.015960589,0.12,1.0,0.12,21388,10025.80,0,0,165,0.91,-2.24,1.40,0.12,1.00,0.12
-4.888672,0.019940894,0.0147857275,0.013960589,0.12,1.0,0.12,21425,10025.20,0,0,0,0.70,-2.10,1.26,0.12,1.00,0.12
-3.5888672,0.019940894,0.028785726,0.014960591,0.12,1.0,0.12,21428,10026.50,0,0,165,0.70,-1.12,1.33,0.12,1.00,0.12
-3.5888672,0.025940895,0.034785725,0.013960589,0.12,1.0,0.12,21429,10026.50,0,0,0,1.12,-0.70,1.26,0.12,1.00,0.12
-4.588867,0.030940894,0.031785727,0.01696059,0.12,0.99,0.12,21432,10025.50,0,0,165,1.47,-0.91,1.47,0.12,0.99,0.12
-3.5888672,0.025940895,0.019785726,0.024960589,0.12,1.0,0.12,21448,10026.50,0,0,0,1.12,-1.75,2.03,0.12,1.00,0.12
-3.8886719,0.023940895,0.011785727,0.02896059,0.12,1.0,0.12,21463,10026.20,0,0,165,0.98,-2.31,2.31,0.12,1.00,0.12
-2.5888672,0.021940893,0.015785728,0.027960591,0.12,1.0,0.12,21470,10027.50,0,0,0,0.84,-2.03,2.24,0.12,1.00,0.12
-2.9892578,0.022940893,0.022785727,0.024960589,0.12,1.0,0.12,21485,10027.10,0,0,165,0.91,-1.54,2.03,0.12,1.00,0.12
-2.9892578,0.020940892,0.016785726,0.01796059,0.12,1.0,0.12,21500,10027.10,0,0,0,0.77,-1.96,1.54,0.12,1.00,0.12
-1.2890625,0.018940892,0.019785726,0.010960589,0.12,1.0,0.12,21508,10028.80,0,0,165,0.63,-1.75,1.05,0.12,1.00,0.12
-0.68847656,0.016940894,0.021785727,0.0059605893,0.12,1.0,0.12,21523,10029.40,0,0,0,0.49,-1.61,0.70,0.12,1.00,0.12
0.0107421875,0.016940894,0.017785726,0.004960589,0.12,1.0,0.12,21538,10030.10,0,0,165,0.49,-1.89,0.63,0.12,1.00,0.12
0.0107421875,0.024940893,0.015785728,0.007960589,0.12,1.0,0.12,21546,10030.10,0,0,0,1.05,-2.03,0.84,0.12,1.00,0.12
1.2109375,0.029940892,0.012785725,0.010960589,0.12,1.0,0.12,21563,10031.30,0,0,165,1.40,-2.24,1.05,0.12,1.00,0.12
2.9111328,0.03894089,0.008785728,0.007960589,0.12,0.99,0.12,21575,10033.00,0,0,0,2.03,-2.52,0.84,0.12,0.99,0.12
4.8115234,0.037940893,0.010785725,0.00896059,0.11,1.0,0.12,21583,10034.90,0,0,165,1.96,-2.38,0.91,0.11,1.00,0.12
5.8115234,0.034940895,7.8572705E-4,9.605894E-4,0.11,1.0,0.12,21598,10035.90,0,0,0,1.75,-3.08,0.35,0.11,1.00,0.12
5.111328,0.025940895,0.0047857277,-0.0010394107,0.12,1.0,0.12,21613,10035.20,0,0,165,1.12,-2.80,0.21,0.12,1.00,0.12
5.8115234,0.025940895,0.012785725,0.00396059,0.12,0.99,0.12,21621,10035.90,0,0,0,1.12,-2.24,0.56,0.12,0.99,0.12
7.111328,0.029940892,0.0077857263,0.015960589,0.12,0.99,0.12,21635,10037.20,0,0,165,1.40,-2.59,1.40,0.12,0.99,0.12
8.010742,0.024940893,0.008785728,0.02396059,0.12,0.99,0.12,21651,10038.10,0,0,0,1.05,-2.52,1.96,0.12,0.99,0.12
7.7109375,0.022940893,0.015785728,0.02696059,0.12,0.99,0.12,21658,10037.80,0,0,165,0.91,-2.03,2.17,0.12,0.99,0.12
8.7109375,0.023940895,0.009785727,0.031960588,0.11,0.99,0.12,21673,10038.80,0,0,0,0.98,-2.45,2.52,0.11,0.99,0.12
9.311523,0.027940892,0.009785727,0.031960588,0.12,1.0,0.12,21688,10039.40,0,0,165,1.26,-2.45,2.52,0.12,1.00,0.12
10.010742,0.021940893,0.016785726,0.02696059,0.12,0.99,0.12,21704,10040.10,0,0,0,0.84,-1.96,2.17,0.12,0.99,0.12
11.010742,0.018940892,0.0147857275,0.025960589,0.12,1.0,0.12,21711,10041.10,0,0,165,0.63,-2.10,2.10,0.12,1.00,0.12
11.311523,0.019940894,0.021785727,0.024960589,0.13,1.0,0.12,21732,10041.40,0,0,0,0.70,-1.61,2.03,0.13,1.00,0.12
11.311523,0.016940894,0.024785727,0.02696059,0.12,0.99,0.12,21735,10041.40,0,0,165,0.49,-1.40,2.17,0.12,0.99,0.12
11.911133,0.012940893,0.023785727,0.02896059,0.12,1.0,0.12,21748,10042.00,0,0,0,0.21,-1.47,2.31,0.12,1.00,0.12
11.911133,0.010940894,0.013785725,0.029960591,0.12,1.0,0.12,21756,10042.00,0,0,165,0.07,-2.17,2.38,0.12,1.00,0.12
11.611328,0.008940893,0.008785728,0.03296059,0.13,1.0,0.12,21771,10041.70,0,0,0,-0.07,-2.52,2.59,0.13,1.00,0.12
11.911133,0.006940894,0.0067857243,0.03496059,0.13,0.99,0.12,21786,10042.00,0,0,165,-0.21,-2.66,2.73,0.13,0.99,0.12
11.611328,0.005940893,0.010785725,0.033960592,0.13,0.99,0.12,21793,10041.70,0,0,0,-0.28,-2.38,2.66,0.13,0.99,0.12
12.911133,0.015940893,0.0037857294,0.03896059,0.13,0.99,0.12,21808,10043.00,0,0,165,0.42,-2.87,3.01,0.13,0.99,0.12
11.911133,0.017940894,-2.1427497E-4,0.04096059,0.13,0.99,0.12,21823,10042.00,0,0,0,0.56,-3.15,3.15,0.13,0.99,0.12
11.911133,0.018940892,0.0047857277,0.043960586,0.13,1.0,0.12,21830,10042.00,0,0,165,0.63,-2.80,3.36,0.13,1.00,0.12
11.911133,0.021940893,0.0037857294,0.042960588,0.13,1.0,0.12,21846,10042.00,0,0,0,0.84,-2.87,3.29,0.13,1.00,0.12
10.611328,0.024940893,0.008785728,0.03996059,0.13,1.0,0.12,21861,10040.70,0,0,165,1.05,-2.52,3.08,0.13,1.00,0.12
11.911133,0.018940892,0.013785725,0.031960588,0.13,1.0,0.13,21868,10042.00,0,0,0,0.63,-2.17,2.52,0.13,1.00,0.13
9.7109375,0.009940893,0.015785728,0.025960589,0.13,1.0,0.12,21883,10039.80,0,0,165,0.00,-2.03,2.10,0.13,1.00,0.12
9.7109375,0.009940893,0.0147857275,0.024960589,0.14,1.0,0.12,21905,10039.80,0,0,0,0.00,-2.10,2.03,0.14,1.00,0.12
10.611328,0.009940893,0.010785725,0.02396059,0.14,1.0,0.12,21906,10040.70,0,0,165,0.00,-2.38,1.96,0.14,1.00,0.12
10.010742,0.016940894,0.0147857275,0.02896059,0.14,1.0,0.12,21920,10040.10,0,0,0,0.49,-2.10,2.31,0.14,1.00,0.12
10.010742,0.020940892,0.010785725,0.03296059,0.14,1.0,0.12,21942,10040.10,0,0,165,0.77,-2.38,2.59,0.14,1.00,0.12
9.010742,0.021940893,0.0077857263,0.03296059,0.14,0.99,0.12,21944,10039.10,0,0,0,0.84,-2.59,2.59,0.14,0.99,0.12
9.010742,0.012940893,0.009785727,0.03296059,0.14,0.99,0.12,21957,10039.10,0,0,165,0.21,-2.45,2.59,0.14,0.99,0.12
9.010742,0.012940893,0.009785727,0.03496059,0.14,0.99,0.12,21980,10039.10,0,0,0,0.21,-2.45,2.73,0.14,0.99,0.12
8.010742,0.016940894,0.009785727,0.03496059,0.14,1.0,0.12,21981,10038.10,0,0,165,0.49,-2.45,2.73,0.14,1.00,0.12
7.7109375,0.018940892,0.017785726,0.03496059,0.14,1.0,0.12,22003,10037.80,0,0,0,0.63,-1.89,2.73,0.14,1.00,0.12
9.7109375,0.015940893,0.016785726,0.031960588,0.14,1.0,0.12,22017,10039.80,0,0,165,0.42,-1.96,2.52,0.14,1.00,0.12
8.7109375,0.016940894,0.012785725,0.029960591,0.14,1.0,0.12,22019,10038.80,0,0,0,0.49,-2.24,2.38,0.14,1.00,0.12
8.010742,0.010940894,0.009785727,0.029960591,0.15,1.0,0.13,22033,10038.10,0,0,165,0.07,-2.45,2.38,0.15,1.00,0.13
9.010742,0.009940893,0.005785726,0.033960592,0.14,1.0,0.12,22048,10039.10,0,0,0,0.00,-2.73,2.66,0.14,1.00,0.12
9.010742,0.008940893,0.0067857243,0.027960591,0.14,0.99,0.12,22056,10039.10,0,0,165,-0.07,-2.66,2.24,0.14,0.99,0.12
8.010742,0.005940893,0.005785726,0.02396059,0.15,0.99,0.12,22071,10038.10,0,0,0,-0.28,-2.73,1.96,0.15,0.99,0.12
8.010742,0.005940893,0.013785725,0.02196059,0.15,0.99,0.12,22086,10038.10,0,0,165,-0.28,-2.17,1.82,0.15,0.99,0.12
7.111328,0.003940894,0.010785725,0.02296059,0.15,0.99,0.12,22093,10037.20,0,0,0,-0.42,-2.38,1.89,0.15,0.99,0.12
7.111328,0.005940893,0.012785725,0.02296059,0.15,1.0,0.12,22108,10037.20,0,0,165,-0.28,-2.24,1.89,0.15,1.00,0.12
8.010742,0.009940893,0.013785725,0.02296059,0.15,1.0,0.12,22123,10038.10,0,0,0,0.00,-2.17,1.89,0.15,1.00,0.12
7.111328,0.010940894,0.015785728,0.01896059,0.15,1.0,0.12,22130,10037.20,0,0,165,0.07,-2.03,1.61,0.15,1.00,0.12
6.111328,0.009940893,0.008785728,0.015960589,0.15,1.0,0.12,22145,10036.20,0,0,0,0.00,-2.52,1.40,0.15,1.00,0.12
7.111328,0.011940894,0.005785726,0.013960589,0.15,1.0,0.13,22160,10037.20,0,0,165,0.14,-2.73,1.26,0.15,1.00,0.13
6.111328,0.009940893,0.009785727,0.015960589,0.15,1.0,0.13,22175,10036.20,0,0,0,0.00,-2.45,1.40,0.15,1.00,0.13
5.111328,0.0049408935,0.008785728,0.01296059,0.15,0.99,0.13,22183,10035.20,0,0,165,-0.35,-2.52,1.19,0.15,0.99,0.13
6.111328,0.0049408935,0.010785725,0.00996059,0.15,0.99,0.13,22198,10036.20,0,0,0,-0.35,-2.38,0.98,0.15,0.99,0.13
7.111328,0.007940893,0.0067857243,0.013960589,0.15,0.99,0.13,22206,10037.20,0,0,165,-0.14,-2.66,1.26,0.15,0.99,0.13
7.111328,0.009940893,0.005785726,0.01796059,0.15,0.99,0.13,22221,10037.20,0,0,0,0.00,-2.73,1.54,0.15,0.99,0.13
7.111328,0.007940893,0.013785725,0.01196059,0.15,1.0,0.13,22235,10037.20,0,0,165,-0.14,-2.17,1.12,0.15,1.00,0.13
6.111328,0.0029408932,0.0147857275,0.010960589,0.15,0.99,0.13,22251,10036.20,0,0,0,-0.49,-2.10,1.05,0.15,0.99,0.13
6.111328,0.006940894,0.011785727,0.007960589,0.15,1.0,0.12,22258,10036.20,0,0,165,-0.21,-2.31,0.84,0.15,1.00,0.12
5.111328,0.005940893,0.0037857294,0.007960589,0.15,1.0,0.13,22281,10035.20,0,0,0,-0.28,-2.87,0.84,0.15,1.00,0.13
6.111328,0.005940893,-0.006214272,0.0059605893,0.15,1.0,0.13,22282,10036.20,0,0,165,-0.28,-3.57,0.70,0.15,1.00,0.13
5.111328,0.007940893,-0.0042142756,0.00396059,0.15,1.0,0.12,22296,10035.20,0,0,0,-0.14,-3.43,0.56,0.15,1.00,0.12
6.111328,0.011940894,0.005785726,0.001960589,0.15,0.99,0.12,22302,10036.20,0,0,165,0.14,-2.73,0.42,0.15,0.99,0.12
5.111328,0.014940893,0.0047857277,-3.941031E-5,0.15,1.0,0.13,22317,10035.20,0,0,0,0.35,-2.80,0.28,0.15,1.00,0.13
5.111328,0.014940893,-0.0032142699,-0.0030394103,0.14,0.99,0.13,22332,10035.20,0,0,165,0.35,-3.36,0.07,0.14,0.99,0.13
5.111328,0.012940893,0.0017857254,-0.006039411,0.14,0.99,0.13,22341,10035.20,0,0,0,0.21,-3.01,-0.14,0.14,0.99,0.13
4.2109375,0.003940894,7.8572705E-4,-0.008039411,0.15,0.98,0.13,22356,10034.30,0,0,165,-0.42,-3.08,-0.28,0.15,0.98,0.13
4.2109375,-0.0020591058,-2.1427497E-4,-0.00703941,0.15,0.98,0.13,22371,10034.30,0,0,0,-0.84,-3.15,-0.21,0.15,0.98,0.13
4.2109375,-0.008059106,-0.0032142699,-3.941031E-5,0.15,0.99,0.13,22382,10034.30,0,0,165,-1.26,-3.36,0.28,0.15,0.99,0.13
3.2109375,-0.010059106,-0.0042142756,9.605894E-4,0.15,1.0,0.13,22407,10033.30,0,0,0,-1.40,-3.43,0.35,0.15,1.00,0.13
3.2109375,-0.0070591075,-0.006214272,0.00396059,0.15,1.0,0.13,22408,10033.30,0,0,165,-1.19,-3.57,0.56,0.15,1.00,0.13
2.2109375,-0.0020591058,-0.0042142756,9.605894E-4,0.15,0.99,0.13,22425,10032.30,0,0,0,-0.84,-3.43,0.35,0.15,0.99,0.13
2.2109375,-0.0010591066,7.8572705E-4,-0.0020394104,0.15,0.99,0.13,22441,10032.30,0,0,165,-0.77,-3.08,0.14,0.15,0.99,0.13
1.2109375,-0.008059106,-0.006214272,-3.941031E-5,0.15,0.99,0.14,22454,10031.30,0,0,0,-1.26,-3.57,0.28,0.15,0.99,0.14
-0.38867188,-0.0030591069,-0.012214273,0.0059605893,0.15,0.99,0.14,22455,10029.70,0,0,165,-0.91,-3.99,0.70,0.15,0.99,0.14
-2.5888672,-0.0010591066,-0.0032142699,0.00896059,0.15,0.99,0.14,22468,10027.50,0,0,0,-0.77,-3.36,0.91,0.15,0.99,0.14
-3.5888672,-0.010059106,0.0067857243,0.014960591,0.16,0.99,0.14,22492,10026.50,0,0,165,-1.40,-2.66,1.33,0.16,0.99,0.14
-4.588867,-0.015059107,-0.0022142716,0.01796059,0.15,0.99,0.14,22493,10025.50,0,0,0,-1.75,-3.29,1.54,0.15,0.99,0.14
-7.489258,-0.025059108,7.8572705E-4,0.019960588,0.15,1.0,0.14,22505,10022.60,0,0,165,-2.45,-3.08,1.68,0.15,1.00,0.14
-8.489258,-0.011059106,0.0067857243,0.01796059,0.15,1.0,0.14,22520,10021.60,0,0,0,-1.47,-2.66,1.54,0.15,1.00,0.14
-9.088867,-0.0070591075,0.0037857294,0.015960589,0.15,1.0,0.14,22527,10021.00,0,0,165,-1.19,-2.87,1.40,0.15,1.00,0.14
-10.088867,-0.0060591074,0.0067857243,0.01196059,0.15,1.0,0.14,22543,10020.00,0,0,0,-1.12,-2.66,1.12,0.15,1.00,0.14
-11.388672,-0.010059106,0.010785725,0.0069605894,0.15,1.0,0.14,22567,10018.70,0,0,165,-1.40,-2.38,0.77,0.15,1.00,0.14
-10.388672,-0.008059106,0.0027857274,0.004960589,0.15,1.0,0.14,22573,10019.70,0,0,0,-1.26,-2.94,0.63,0.15,1.00,0.14
-12.388672,-0.0010591066,0.005785726,0.001960589,0.16,1.0,0.14,22580,10017.70,0,0,165,-0.77,-2.73,0.42,0.16,1.00,0.14
-9.088867,0.009940893,0.005785726,-0.0030394103,0.15,1.0,0.13,22595,10021.00,0,0,0,0.00,-2.73,0.07,0.15,1.00,0.13
-11.388672,0.022940893,0.0047857277,-0.006039411,0.15,1.0,0.13,22603,10018.70,0,0,165,0.91,-2.80,-0.14,0.15,1.00,0.13
-11.688477,0.029940892,0.0037857294,-0.01403941,0.14,1.0,0.13,22618,10018.40,0,0,0,1.40,-2.87,-0.70,0.14,1.00,0.13
-11.388672,0.032940894,0.005785726,-0.02203941,0.15,0.99,0.13,22633,10018.70,0,0,165,1.61,-2.73,-1.26,0.15,0.99,0.13
-11.388672,0.028940894,-0.0042142756,-0.02703941,0.15,0.99,0.13,22641,10018.70,0,0,0,1.33,-3.43,-1.61,0.15,0.99,0.13
-11.388672,0.026940893,0.0017857254,-0.023039412,0.15,0.99,0.13,22656,10018.70,0,0,165,1.19,-3.01,-1.33,0.15,0.99,0.13
-11.388672,0.033940893,-0.0042142756,-0.021039411,0.15,0.99,0.13,22671,10018.70,0,0,0,1.68,-3.43,-1.19,0.15,0.99,0.13
-10.388672,0.035940893,0.008785728,-0.01303941,0.15,0.99,0.13,22678,10019.70,0,0,165,1.82,-2.52,-0.63,0.15,0.99,0.13
-11.688477,0.028940894,0.0077857263,-0.00703941,0.15,0.99,0.13,22693,10018.40,0,0,0,1.33,-2.59,-0.21,0.15,0.99,0.13
-10.388672,0.028940894,-0.0072142743,-0.006039411,0.15,0.99,0.13,22708,10019.70,0,0,165,1.33,-3.64,-0.14,0.15,0.99,0.13
-11.388672,0.018940892,-0.0022142716,-0.006039411,0.15,0.98,0.13,22731,10018.70,0,0,0,0.63,-3.29,-0.14,0.15,0.98,0.13
-11.088867,0.013940893,-0.0072142743,-0.0030394103,0.15,0.99,0.13,22732,10019.00,0,0,165,0.28,-3.64,0.07,0.15,0.99,0.13
-10.088867,0.013940893,-0.012214273,-0.0030394103,0.15,0.99,0.13,22745,10020.00,0,0,0,0.28,-3.99,0.07,0.15,0.99,0.13
-10.088867,0.007940893,-0.0072142743,-3.941031E-5,0.15,0.99,0.13,22753,10020.00,0,0,165,-0.14,-3.64,0.28,0.15,0.99,0.13
-10.388672,0.009940893,0.010785725,-0.00703941,0.15,0.99,0.13,22769,10019.70,0,0,0,0.00,-2.38,-0.21,0.15,0.99,0.13
-9.388672,0.012940893,0.021785727,-0.0010394107,0.15,0.99,0.13,22783,10020.70,0,0,165,0.21,-1.61,0.21,0.15,0.99,0.13
-9.388672,0.011940894,0.0077857263,0.0029605897,0.15,1.0,0.14,22790,10020.70,0,0,0,0.14,-2.59,0.49,0.15,1.00,0.14
-9.088867,0.015940893,0.0017857254,0.0029605897,0.15,1.0,0.14,22806,10021.00,0,0,165,0.42,-3.01,0.49,0.15,1.00,0.14
-9.088867,0.005940893,0.008785728,-3.941031E-5,0.15,0.99,0.14,22820,10021.00,0,0,0,-0.28,-2.52,0.28,0.15,0.99,0.14
-9.088867,0.009940893,0.011785727,-0.0050394107,0.15,1.0,0.14,22828,10021.00,0,0,165,0.00,-2.31,-0.07,0.15,1.00,0.14
-9.388672,0.015940893,0.010785725,-0.0050394107,0.15,0.99,0.14,22843,10020.70,0,0,0,0.42,-2.38,-0.07,0.15,0.99,0.14
-9.088867,0.021940893,0.0017857254,-0.006039411,0.15,0.99,0.14,22858,10021.00,0,0,165,0.84,-3.01,-0.14,0.15,0.99,0.14
-8.489258,0.025940895,-0.014214274,-0.0040394105,0.15,0.99,0.13,22866,10021.60,0,0,0,1.12,-4.13,0.00,0.15,0.99,0.13
-9.388672,0.022940893,0.008785728,-0.00703941,0.15,0.99,0.14,22882,10020.70,0,0,165,0.91,-2.52,-0.21,0.15,0.99,0.14
-9.088867,0.016940894,0.005785726,-0.012039411,0.15,0.99,0.14,22899,10021.00,0,0,0,0.49,-2.73,-0.56,0.15,0.99,0.14
-7.1884766,0.014940893,0.012785725,-0.01303941,0.15,0.99,0.14,22910,10022.90,0,0,165,0.35,-2.24,-0.63,0.15,0.99,0.14
-7.489258,0.019940894,0.009785727,-0.01003941,0.15,0.99,0.14,22917,10022.60,0,0,0,0.70,-2.45,-0.42,0.15,0.99,0.14
-7.489258,0.025940895,-0.0012142733,-0.00703941,0.15,0.99,0.14,22932,10022.60,0,0,165,1.12,-3.22,-0.21,0.15,0.99,0.14
-7.489258,0.017940894,0.0067857243,-0.00703941,0.15,0.99,0.14,22940,10022.60,0,0,0,0.56,-2.66,-0.21,0.15,0.99,0.14
-7.489258,0.022940893,0.015785728,-0.0020394104,0.15,0.99,0.14,22955,10022.60,0,0,165,0.91,-2.03,0.14,0.15,0.99,0.14
-7.1884766,0.028940894,0.010785725,0.001960589,0.15,1.0,0.14,22971,10022.90,0,0,0,1.33,-2.38,0.42,0.15,1.00,0.14
-7.489258,0.028940894,0.008785728,-3.941031E-5,0.15,1.0,0.13,22981,10022.60,0,0,165,1.33,-2.52,0.28,0.15,1.00,0.13
-6.489258,0.031940892,0.018785726,-0.006039411,0.15,1.0,0.13,22993,10023.60,0,0,0,1.54,-1.82,-0.14,0.15,1.00,0.13
-6.1884766,0.030940894,0.0147857275,-0.01003941,0.15,1.0,0.14,23009,10023.90,0,0,165,1.47,-2.10,-0.42,0.15,1.00,0.14
-4.588867,0.031940892,0.009785727,-0.01403941,0.15,0.99,0.14,23016,10025.50,0,0,0,1.54,-2.45,-0.70,0.15,0.99,0.14
-4.2890625,0.028940894,-2.1427497E-4,-0.01303941,0.15,0.99,0.13,23032,10025.80,0,0,165,1.33,-3.15,-0.63,0.15,0.99,0.13
-6.489258,0.034940895,0.005785726,-0.01003941,0.15,0.99,0.13,23038,10023.60,0,0,0,1.75,-2.73,-0.42,0.15,0.99,0.13
-6.1884766,0.042940892,0.020785728,-0.01403941,0.14,0.99,0.13,23053,10023.90,0,0,165,2.31,-1.68,-0.70,0.14,0.99,0.13
-6.489258,0.03894089,0.010785725,-0.01503941,0.14,0.99,0.14,23067,10023.60,0,0,0,2.03,-2.38,-0.77,0.14,0.99,0.14
-5.588867,0.033940893,0.012785725,-0.020039411,0.14,0.99,0.13,23076,10024.50,0,0,165,1.68,-2.24,-1.12,0.14,0.99,0.13
-5.1884766,0.029940892,0.0047857277,-0.02203941,0.15,0.99,0.13,23091,10024.90,0,0,0,1.40,-2.80,-1.26,0.15,0.99,0.13
-4.588867,0.020940892,0.0047857277,-0.016039409,0.15,0.99,0.13,23106,10025.50,0,0,165,0.77,-2.80,-0.84,0.15,0.99,0.13
-5.588867,0.018940892,0.005785726,0.2499606,0.15,0.99,0.13,23114,10024.50,0,0,0,0.63,-2.73,17.78,0.15,0.99,0.13
-4.588867,0.024940893,0.0047857277,0.001960589,0.15,0.99,0.13,23128,10025.50,0,0,165,1.05,-2.80,0.42,0.15,0.99,0.13
-4.2890625,0.022940893,0.0037857294,0.0069605894,0.15,0.99,0.14,23143,10025.80,0,0,0,0.91,-2.87,0.77,0.15,0.99,0.14
-3.5888672,0.026940893,0.005785726,0.010960589,0.14,0.99,0.14,23151,10026.50,0,0,165,1.19,-2.73,1.05,0.14,0.99,0.14
-3.5888672,0.026940893,0.018785726,0.00396059,0.14,1.0,0.13,23165,10026.50,0,0,0,1.19,-1.82,0.56,0.14,1.00,0.13
-2.9892578,0.023940895,0.020785728,-0.0040394105,0.14,0.99,0.14,23181,10027.10,0,0,165,0.98,-1.68,0.00,0.14,0.99,0.14
-2.5888672,0.022940893,0.025785726,-0.01003941,0.15,0.99,0.13,23188,10027.50,0,0,0,0.91,-1.33,-0.42,0.15,0.99,0.13
-2.5888672,0.025940895,0.022785727,-0.01003941,0.15,0.99,0.14,23202,10027.50,0,0,165,1.12,-1.54,-0.42,0.15,0.99,0.14
-1.6884766,0.023940895,0.020785728,-0.01403941,0.15,0.99,0.13,23218,10028.40,0,0,0,0.98,-1.68,-0.70,0.15,0.99,0.13
-0.68847656,0.025940895,0.022785727,-0.01703941,0.15,0.99,0.13,23226,10029.40,0,0,165,1.12,-1.54,-0.91,0.15,0.99,0.13
0.31152344,0.029940892,0.021785727,-0.018039411,0.15,0.99,0.13,23240,10030.40,0,0,0,1.40,-1.61,-0.98,0.15,0.99,0.13
1.2109375,0.029940892,0.011785727,-0.019039411,0.14,0.99,0.13,23256,10031.30,0,0,165,1.40,-2.31,-1.05,0.14,0.99,0.13
3.5107422,0.032940894,0.008785728,-0.01703941,0.14,0.99,0.13,23265,10033.60,0,0,0,1.61,-2.52,-0.91,0.14,0.99,0.13
2.2109375,0.036940895,7.8572705E-4,-0.016039409,0.14,0.99,0.13,23278,10032.30,0,0,165,1.89,-3.08,-0.84,0.14,0.99,0.13
3.2109375,0.035940893,7.8572705E-4,-0.01403941,0.14,0.99,0.13,23292,10033.30,0,0,0,1.82,-3.08,-0.70,0.14,0.99,0.13
4.510742,0.035940893,0.0027857274,-0.01403941,0.14,0.99,0.13,23300,10034.60,0,0,165,1.82,-2.94,-0.70,0.14,0.99,0.13
5.510742,0.037940893,0.005785726,-0.00903941,0.14,0.99,0.13,23316,10035.60,0,0,0,1.96,-2.73,-0.35,0.14,0.99,0.13
5.111328,0.040940896,-2.1427497E-4,-0.00703941,0.14,0.99,0.13,23330,10035.20,0,0,165,2.17,-3.15,-0.21,0.14,0.99,0.13
6.111328,0.044940893,0.0037857294,-0.00903941,0.14,0.99,0.13,23338,10036.20,0,0,0,2.45,-2.87,-0.35,0.14,0.99,0.13
6.111328,0.044940893,0.011785727,-0.019039411,0.13,0.99,0.14,23353,10036.20,0,0,165,2.45,-2.31,-1.05,0.13,0.99,0.14
7.111328,0.028940894,0.021785727,-0.02203941,0.14,0.99,0.14,23367,10037.20,0,0,0,1.33,-1.61,-1.26,0.14,0.99,0.14
8.411133,0.019940894,0.027785726,-0.02403941,0.14,0.99,0.13,23383,10038.50,0,0,165,0.70,-1.19,-1.40,0.14,0.99,0.13
8.010742,0.021940893,0.015785728,-0.01703941,0.14,0.99,0.13,23400,10038.10,0,0,0,0.84,-2.03,-0.91,0.14,0.99,0.13
9.010742,0.024940893,0.016785726,-0.008039411,0.14,0.99,0.13,23409,10039.10,0,0,165,1.05,-1.96,-0.28,0.14,0.99,0.13
8.411133,0.021940893,0.013785725,-0.0030394103,0.14,1.0,0.13,23415,10038.50,0,0,0,0.84,-2.17,0.07,0.14,1.00,0.13
8.411133,0.025940895,0.0077857263,-0.0020394104,0.14,0.99,0.13,23428,10038.50,0,0,165,1.12,-2.59,0.14,0.14,0.99,0.13
8.411133,0.025940895,0.0077857263,9.605894E-4,0.14,0.99,0.13,23444,10038.50,0,0,0,1.12,-2.59,0.35,0.14,0.99,0.13
8.010742,0.026940893,0.0037857294,0.004960589,0.14,0.99,0.13,23458,10038.10,0,0,165,1.19,-2.87,0.63,0.14,0.99,0.13
9.311523,0.023940895,0.0037857294,-0.0030394103,0.14,0.99,0.13,23466,10039.40,0,0,0,0.98,-2.87,0.07,0.14,0.99,0.13
8.411133,0.019940894,0.0047857277,-3.941031E-5,0.14,0.99,0.13,23481,10038.50,0,0,165,0.70,-2.80,0.28,0.14,0.99,0.13
8.411133,0.019940894,0.0027857274,0.0029605897,0.14,0.99,0.13,23495,10038.50,0,0,0,0.70,-2.94,0.49,0.14,0.99,0.13
8.411133,0.015940893,0.0037857294,0.0069605894,0.14,0.99,0.14,23503,10038.50,0,0,165,0.42,-2.87,0.77,0.14,0.99,0.14
8.411133,0.014940893,-0.0022142716,0.00896059,0.14,0.99,0.14,23517,10038.50,0,0,0,0.35,-3.29,0.91,0.14,0.99,0.14
7.411133,0.018940892,-0.006214272,0.013960589,0.14,0.99,0.13,23525,10037.50,0,0,165,0.63,-3.57,1.26,0.14,0.99,0.13
7.411133,0.019940894,0.005785726,0.013960589,0.14,0.99,0.13,23540,10037.50,0,0,0,0.70,-2.73,1.26,0.14,0.99,0.13
9.311523,0.014940893,0.005785726,0.015960589,0.14,0.99,0.13,23555,10039.40,0,0,165,0.35,-2.73,1.40,0.14,0.99,0.13
9.311523,0.011940894,0.0067857243,0.013960589,0.14,0.99,0.13,23563,10039.40,0,0,0,0.14,-2.66,1.26,0.14,0.99,0.13
8.411133,0.014940893,0.011785727,0.01296059,0.14,0.99,0.13,23585,10038.50,0,0,165,0.35,-2.31,1.19,0.14,0.99,0.13
8.411133,0.018940892,0.0077857263,0.00996059,0.15,0.99,0.13,23600,10038.50,0,0,0,0.63,-2.59,0.98,0.15,0.99,0.13
7.111328,0.022940893,0.0067857243,0.01296059,0.15,0.99,0.13,23601,10037.20,0,0,165,0.91,-2.66,1.19,0.15,0.99,0.13
8.411133,0.026940893,0.011785727,0.01896059,0.15,0.99,0.13,23615,10038.50,0,0,0,1.19,-2.31,1.61,0.15,0.99,0.13
9.311523,0.024940893,0.013785725,0.02296059,0.15,0.99,0.13,23631,10039.40,0,0,165,1.05,-2.17,1.89,0.15,0.99,0.13
8.411133,0.021940893,0.005785726,0.033960592,0.15,0.99,0.13,23638,10038.50,0,0,0,0.84,-2.73,2.66,0.15,0.99,0.13
9.311523,0.023940895,0.008785728,0.036960587,0.15,1.0,0.13,23653,10039.40,0,0,165,0.98,-2.52,2.87,0.15,1.00,0.13
9.010742,0.015940893,0.015785728,0.03096059,0.15,1.0,0.14,23660,10039.10,0,0,0,0.42,-2.03,2.45,0.15,1.00,0.14
7.7109375,0.012940893,0.010785725,0.02896059,0.15,1.0,0.14,23675,10037.80,0,0,165,0.21,-2.38,2.31,0.15,1.00,0.14
7.411133,0.014940893,0.016785726,0.02396059,0.15,0.99,0.14,23691,10037.50,0,0,0,0.35,-1.96,1.96,0.15,0.99,0.14
8.411133,0.008940893,0.026785728,0.02296059,0.16,1.0,0.13,23698,10038.50,0,0,165,-0.07,-1.26,1.89,0.16,1.00,0.13
7.411133,0.009940893,0.028785726,0.02096059,0.16,1.0,0.13,23713,10037.50,0,0,0,0.00,-1.12,1.75,0.16,1.00,0.13
7.411133,0.016940894,0.025785726,0.02096059,0.15,0.99,0.13,23728,10037.50,0,0,165,0.49,-1.33,1.75,0.15,0.99,0.13
7.411133,0.024940893,0.025785726,0.01696059,0.15,0.99,0.13,23743,10037.50,0,0,0,1.05,-1.33,1.47,0.15,0.99,0.13
7.411133,0.026940893,0.023785727,0.01696059,0.15,1.0,0.13,23750,10037.50,0,0,165,1.19,-1.47,1.47,0.15,1.00,0.13
6.111328,0.023940895,0.016785726,0.01196059,0.15,0.99,0.13,23765,10036.20,0,0,0,0.98,-1.96,1.12,0.15,0.99,0.13
6.111328,0.010940894,0.0147857275,0.00896059,0.16,0.99,0.13,23773,10036.20,0,0,165,0.07,-2.10,0.91,0.16,0.99,0.13
6.411133,0.008940893,0.013785725,0.00996059,0.16,0.99,0.13,23788,10036.50,0,0,0,-0.07,-2.17,0.98,0.16,0.99,0.13
6.411133,0.007940893,0.005785726,0.013960589,0.16,0.99,0.13,23802,10036.50,0,0,165,-0.14,-2.73,1.26,0.16,0.99,0.13
6.411133,0.007940893,0.0017857254,0.01696059,0.16,0.99,0.13,23810,10036.50,0,0,0,-0.14,-3.01,1.47,0.16,0.99,0.13
5.8115234,0.0029408932,0.0067857243,0.01896059,0.16,0.99,0.13,23826,10035.90,0,0,165,-0.49,-2.66,1.61,0.16,0.99,0.13
5.510742,0.001940893,0.0067857243,0.01896059,0.16,0.99,0.13,23840,10035.60,0,0,0,-0.56,-2.66,1.61,0.16,0.99,0.13
5.510742,0.0049408935,0.0017857254,0.02196059,0.16,0.99,0.14,23848,10035.60,0,0,165,-0.35,-3.01,1.82,0.16,0.99,0.14
5.111328,0.0049408935,0.0037857294,0.015960589,0.16,0.99,0.13,23863,10035.20,0,0,0,-0.35,-2.87,1.40,0.16,0.99,0.13
5.111328,0.006940894,0.0037857294,0.015960589,0.16,0.99,0.14,23877,10035.20,0,0,165,-0.21,-2.87,1.40,0.16,0.99,0.14
5.510742,0.008940893,0.0017857254,0.00996059,0.15,0.99,0.13,23885,10035.60,0,0,0,-0.07,-3.01,0.98,0.15,0.99,0.13
5.510742,0.008940893,0.008785728,0.004960589,0.16,1.0,0.14,23900,10035.60,0,0,165,-0.07,-2.52,0.63,0.16,1.00,0.14
5.510742,0.0049408935,0.009785727,9.605894E-4,0.16,0.99,0.14,23915,10035.60,0,0,0,-0.35,-2.45,0.35,0.16,0.99,0.14
5.8115234,0.007940893,0.0037857294,0.001960589,0.16,0.99,0.14,23953,10035.90,0,0,165,-0.14,-2.87,0.42,0.16,0.99,0.14
4.510742,0.007940893,0.0077857263,0.001960589,0.16,0.99,0.14,23956,10034.60,0,0,0,-0.14,-2.59,0.42,0.16,0.99,0.14
4.510742,0.003940894,0.013785725,-0.0020394104,0.16,0.99,0.14,23961,10034.60,0,0,165,-0.42,-2.17,0.14,0.16,0.99,0.14
4.510742,0.006940894,0.008785728,-0.0010394107,0.16,0.99,0.14,23962,10034.60,0,0,0,-0.21,-2.52,0.21,0.16,0.99,0.14
3.5107422,0.008940893,0.0077857263,9.605894E-4,0.16,0.99,0.14,23976,10033.60,0,0,165,-0.07,-2.59,0.35,0.16,0.99,0.14
3.5107422,0.010940894,0.0067857243,0.001960589,0.16,0.99,0.14,23991,10033.60,0,0,0,0.07,-2.66,0.42,0.16,0.99,0.14
3.5107422,0.010940894,0.0047857277,0.00396059,0.16,0.99,0.14,23998,10033.60,0,0,165,0.07,-2.80,0.56,0.16,0.99,0.14
3.2109375,0.022940893,0.005785726,0.004960589,0.16,1.0,0.14,24012,10033.30,0,0,0,0.91,-2.73,0.63,0.16,1.00,0.14
0.6113281,0.018940892,0.0077857263,-3.941031E-5,0.15,0.99,0.14,24028,10030.70,0,0,165,0.63,-2.59,0.28,0.15,0.99,0.14
2.2109375,0.016940894,7.8572705E-4,-0.006039411,0.15,0.99,0.15,24035,10032.30,0,0,0,0.49,-3.08,-0.14,0.15,0.99,0.15
2.5107422,0.0049408935,-0.0012142733,-0.008039411,0.15,0.99,0.14,24058,10032.60,0,0,165,-0.35,-3.22,-0.28,0.15,0.99,0.14
-0.38867188,0.001940893,-0.008214273,-0.00703941,0.16,0.99,0.14,24065,10029.70,0,0,0,-0.56,-3.71,-0.21,0.16,0.99,0.14
-1.2890625,0.0049408935,-0.006214272,-0.0030394103,0.16,0.99,0.14,24073,10028.80,0,0,165,-0.35,-3.57,0.07,0.16,0.99,0.14
-4.2890625,0.009940893,7.8572705E-4,0.00996059,0.17,0.99,0.14,24088,10025.80,0,0,0,0.00,-3.08,0.98,0.17,0.99,0.14
-5.1884766,0.009940893,-0.005214274,0.01796059,0.17,0.99,0.14,24103,10024.90,0,0,165,0.00,-3.50,1.54,0.17,0.99,0.14
-6.1884766,0.017940894,-0.0022142716,0.02696059,0.16,0.99,0.14,24110,10023.90,0,0,0,0.56,-3.29,2.17,0.16,0.99,0.14
-9.088867,0.021940893,0.0067857243,0.02896059,0.16,0.99,0.14,24125,10021.00,0,0,165,0.84,-2.66,2.31,0.16,0.99,0.14
-11.088867,0.020940892,-0.0012142733,0.02396059,0.15,1.0,0.15,24140,10019.00,0,0,0,0.77,-3.22,1.96,0.15,1.00,0.15
-11.989258,0.015940893,0.009785727,0.013960589,0.16,1.0,0.14,24148,10018.10,0,0,165,0.42,-2.45,1.26,0.16,1.00,0.14
-11.989258,0.013940893,0.024785727,0.00396059,0.16,1.0,0.14,24163,10018.10,0,0,0,0.28,-1.40,0.56,0.16,1.00,0.14
-11.989258,0.015940893,0.022785727,-0.0020394104,0.16,1.0,0.14,24185,10018.10,0,0,165,0.42,-1.54,0.14,0.16,1.00,0.14
-12.989258,0.017940894,0.017785726,-0.008039411,0.16,1.0,0.14,24186,10017.10,0,0,0,0.56,-1.89,-0.28,0.16,1.00,0.14
-11.688477,0.024940893,0.012785725,-0.011039411,0.16,1.0,0.14,24200,10018.40,0,0,165,1.05,-2.24,-0.49,0.16,1.00,0.14
-11.989258,0.019940894,0.015785728,-0.01703941,0.16,1.0,0.14,24215,10018.10,0,0,0,0.70,-2.03,-0.91,0.16,1.00,0.14
-11.989258,0.021940893,0.017785726,-0.020039411,0.16,1.0,0.14,24222,10018.10,0,0,165,0.84,-1.89,-1.12,0.16,1.00,0.14
-11.088867,0.023940895,0.010785725,-0.02403941,0.16,0.99,0.14,24238,10019.00,0,0,0,0.98,-2.38,-1.40,0.16,0.99,0.14
-11.088867,0.033940893,0.0037857294,-0.02403941,0.16,0.99,0.13,24253,10019.00,0,0,165,1.68,-2.87,-1.40,0.16,0.99,0.13
-10.688477,0.04594089,0.005785726,-0.02403941,0.16,0.99,0.13,24260,10019.40,0,0,0,2.52,-2.73,-1.40,0.16,0.99,0.13
-11.989258,0.03894089,0.008785728,-0.02503941,0.16,0.98,0.13,24275,10018.10,0,0,165,2.03,-2.52,-1.47,0.16,0.98,0.13
-11.989258,0.034940895,0.016785726,-0.02603941,0.16,0.98,0.14,24290,10018.10,0,0,0,1.75,-1.96,-1.54,0.16,0.98,0.14
-11.088867,0.029940892,0.005785726,-0.02203941,0.16,0.98,0.14,24298,10019.00,0,0,165,1.40,-2.73,-1.26,0.16,0.98,0.14
-10.688477,0.025940895,-0.0032142699,-0.012039411,0.16,0.98,0.14,24314,10019.40,0,0,0,1.12,-3.36,-0.56,0.16,0.98,0.14
-11.088867,0.025940895,7.8572705E-4,-0.00903941,0.16,0.98,0.14,24328,10019.00,0,0,165,1.12,-3.08,-0.35,0.16,0.98,0.14
-9.088867,0.026940893,-0.0042142756,-0.0020394104,0.16,0.98,0.14,24335,10021.00,0,0,0,1.19,-3.43,0.14,0.16,0.98,0.14
-12.388672,0.015940893,0.0077857263,0.001960589,0.16,0.99,0.14,24350,10017.70,0,0,165,0.42,-2.59,0.42,0.16,0.99,0.14
-9.088867,0.016940894,0.020785728,0.00396059,0.16,0.99,0.14,24372,10021.00,0,0,0,0.49,-1.68,0.56,0.16,0.99,0.14
-10.088867,0.017940894,0.026785728,9.605894E-4,0.15,1.0,0.14,24373,10020.00,0,0,165,0.56,-1.26,0.35,0.15,1.00,0.14
-9.088867,0.026940893,0.019785726,-0.0040394105,0.16,1.0,0.14,24387,10021.00,0,0,0,1.19,-1.75,0.00,0.16,1.00,0.14
-8.088867,0.029940892,0.023785727,-0.01003941,0.15,1.0,0.14,24402,10022.00,0,0,165,1.40,-1.47,-0.42,0.15,1.00,0.14
-10.088867,0.025940895,0.023785727,-0.020039411,0.16,1.0,0.13,24410,10020.00,0,0,0,1.12,-1.47,-1.12,0.16,1.00,0.13
-9.088867,0.023940895,0.016785726,-0.023039412,0.16,1.0,0.13,24433,10021.00,0,0,165,0.98,-1.96,-1.33,0.16,1.00,0.13
-9.088867,0.026940893,0.0147857275,-0.023039412,0.15,0.99,0.13,24440,10021.00,0,0,0,1.19,-2.10,-1.33,0.15,0.99,0.13
-8.7890625,0.029940892,0.009785727,-0.02903941,0.15,0.99,0.13,24448,10021.30,0,0,165,1.40,-2.45,-1.75,0.15,0.99,0.13
-6.1884766,0.032940894,0.0017857254,-0.031039411,0.15,0.99,0.13,24463,10023.90,0,0,0,1.61,-3.01,-1.89,0.15,0.99,0.13
-7.1884766,0.020940892,-2.1427497E-4,-0.03503941,0.15,0.99,0.14,24478,10022.90,0,0,165,0.77,-3.15,-2.17,0.15,0.99,0.14
-7.1884766,0.015940893,-2.1427497E-4,-0.028039409,0.16,0.98,0.14,24485,10022.90,0,0,0,0.42,-3.15,-1.68,0.16,0.98,0.14
-7.1884766,0.009940893,0.0017857254,-0.019039411,0.16,0.99,0.14,24500,10022.90,0,0,165,0.00,-3.01,-1.05,0.16,0.99,0.14
-6.489258,0.008940893,-0.0032142699,-0.01003941,0.15,0.99,0.14,24515,10023.60,0,0,0,-0.07,-3.36,-0.42,0.15,0.99,0.14
-5.888672,0.010940894,-0.0022142716,-0.0050394107,0.15,0.99,0.14,24523,10024.20,0,0,165,0.07,-3.29,-0.07,0.15,0.99,0.14
-4.888672,0.021940893,0.0037857294,-0.0030394103,0.15,0.99,0.14,24538,10025.20,0,0,0,0.84,-2.87,0.07,0.15,0.99,0.14
-5.1884766,0.017940894,0.005785726,-0.0050394107,0.15,0.99,0.14,24555,10024.90,0,0,165,0.56,-2.73,-0.07,0.15,0.99,0.14
-5.1884766,0.021940893,0.013785725,-0.01003941,0.14,0.99,0.14,24564,10024.90,0,0,0,0.84,-2.17,-0.42,0.14,0.99,0.14
-4.2890625,0.016940894,0.011785727,-0.00903941,0.15,0.99,0.14,24576,10025.80,0,0,165,0.49,-2.31,-0.35,0.15,0.99,0.14
-4.2890625,0.014940893,0.010785725,-0.01303941,0.15,0.99,0.14,24590,10025.80,0,0,0,0.35,-2.38,-0.63,0.15,0.99,0.14
-4.2890625,0.022940893,0.016785726,-0.01003941,0.15,0.99,0.14,24598,10025.80,0,0,165,0.91,-1.96,-0.42,0.15,0.99,0.14
-3.2890625,0.026940893,0.019785726,-0.008039411,0.15,0.99,0.14,24620,10026.80,0,0,0,1.19,-1.75,-0.28,0.15,0.99,0.14
-2.2890625,0.028940894,0.015785728,-0.008039411,0.15,0.99,0.14,24628,10027.80,0,0,165,1.33,-2.03,-0.28,0.15,0.99,0.14
-3.2890625,0.031940892,0.015785728,-0.00903941,0.15,0.99,0.14,24635,10026.80,0,0,0,1.54,-2.03,-0.35,0.15,0.99,0.14
-2.2890625,0.027940892,0.012785725,-0.01303941,0.15,0.99,0.14,24651,10027.80,0,0,165,1.26,-2.24,-0.63,0.15,0.99,0.14
-0.9892578,0.031940892,0.013785725,-0.00903941,0.15,0.99,0.14,24665,10029.10,0,0,0,1.54,-2.17,-0.35,0.15,0.99,0.14
-1.2890625,0.034940895,0.013785725,-0.00903941,0.15,0.99,0.14,24673,10028.80,0,0,165,1.75,-2.17,-0.35,0.15,0.99,0.14
-0.38867188,0.03894089,0.0147857275,-0.01003941,0.15,0.99,0.14,24688,10029.70,0,0,0,2.03,-2.10,-0.42,0.15,0.99,0.14
0.0107421875,0.030940894,0.020785728,-0.00703941,0.15,0.99,0.14,24703,10030.10,0,0,165,1.47,-1.68,-0.21,0.15,0.99,0.14
0.6113281,0.034940895,0.022785727,-0.0040394105,0.15,0.99,0.14,24710,10030.70,0,0,0,1.75,-1.54,0.00,0.15,0.99,0.14
1.9111328,0.039940894,0.010785725,-0.00903941,0.14,1.0,0.14,24725,10032.00,0,0,165,2.10,-2.38,-0.35,0.14,1.00,0.14
2.5107422,0.036940895,0.016785726,-0.020039411,0.14,1.0,0.14,24740,10032.60,0,0,0,1.89,-1.96,-1.12,0.14,1.00,0.14
2.5107422,0.033940893,0.0147857275,-0.02703941,0.14,0.99,0.14,24748,10032.60,0,0,165,1.68,-2.10,-1.61,0.14,0.99,0.14
3.8115234,0.024940893,0.005785726,-0.02703941,0.15,0.99,0.13,24763,10033.90,0,0,0,1.05,-2.73,-1.61,0.15,0.99,0.13
3.8115234,0.031940892,0.0037857294,-0.02203941,0.15,0.99,0.13,24779,10033.90,0,0,165,1.54,-2.87,-1.26,0.15,0.99,0.13
4.2109375,0.03894089,-2.1427497E-4,-0.018039411,0.15,0.99,0.13,24786,10034.30,0,0,0,2.03,-3.15,-0.98,0.15,0.99,0.13
5.510742,0.03894089,0.005785726,-0.01403941,0.14,0.99,0.13,24800,10035.60,0,0,165,2.03,-2.73,-0.70,0.14,0.99,0.13
5.510742,0.034940895,0.008785728,-0.012039411,0.15,0.99,0.14,24816,10035.60,0,0,0,1.75,-2.52,-0.56,0.15,0.99,0.14
6.411133,0.032940894,0.010785725,-0.012039411,0.14,0.99,0.13,24823,10036.50,0,0,165,1.61,-2.38,-0.56,0.14,0.99,0.13
6.411133,0.030940894,0.013785725,-0.016039409,0.14,0.99,0.14,24838,10036.50,0,0,0,1.47,-2.17,-0.84,0.14,0.99,0.14
7.411133,0.031940892,0.012785725,-0.01503941,0.14,0.99,0.14,24853,10037.50,0,0,165,1.54,-2.24,-0.77,0.14,0.99,0.14
7.411133,0.031940892,0.0147857275,-0.016039409,0.15,0.99,0.14,24861,10037.50,0,0,0,1.54,-2.10,-0.84,0.15,0.99,0.14
8.411133,0.025940895,0.011785727,-0.012039411,0.15,0.98,0.14,24875,10038.50,0,0,165,1.12,-2.31,-0.56,0.15,0.98,0.14
8.7109375,0.021940893,0.009785727,-0.012039411,0.15,0.99,0.14,24890,10038.80,0,0,0,0.84,-2.45,-0.56,0.15,0.99,0.14
8.411133,0.023940895,-2.1427497E-4,-0.00703941,0.15,0.99,0.13,24906,10038.50,0,0,165,0.98,-3.15,-0.21,0.15,0.99,0.13
8.411133,0.023940895,0.0037857294,-0.0050394107,0.14,0.99,0.13,24913,10038.50,0,0,0,0.98,-2.87,-0.07,0.14,0.99,0.13
10.311523,0.022940893,0.009785727,-0.006039411,0.15,0.99,0.14,24928,10040.40,0,0,165,0.91,-2.45,-0.14,0.15,0.99,0.14
10.611328,0.025940895,-0.0022142716,-0.00703941,0.14,1.0,0.13,24942,10040.70,0,0,0,1.12,-3.29,-0.21,0.14,1.00,0.13
10.611328,0.028940894,-0.0032142699,-0.0040394105,0.15,0.99,0.13,24958,10040.70,0,0,165,1.33,-3.36,0.00,0.15,0.99,0.13
11.611328,0.032940894,-2.1427497E-4,-0.0040394105,0.14,0.99,0.14,24965,10041.70,0,0,0,1.61,-3.15,0.00,0.14,0.99,0.14
11.911133,0.032940894,0.0017857254,-0.0020394104,0.15,0.99,0.13,24973,10042.00,0,0,165,1.61,-3.01,0.14,0.15,0.99,0.13
12.311523,0.036940895,0.0047857277,0.004960589,0.15,0.99,0.14,24996,10042.40,0,0,0,1.89,-2.80,0.63,0.15,0.99,0.14
10.311523,0.033940893,7.8572705E-4,0.007960589,0.15,0.99,0.14,25003,10040.40,0,0,165,1.68,-3.08,0.84,0.15,0.99,0.14
10.311523,0.029940892,0.005785726,0.014960591,0.15,0.98,0.14,25026,10040.40,0,0,0,1.40,-2.73,1.33,0.15,0.98,0.14
10.311523,0.029940892,0.009785727,0.024960589,0.15,0.99,0.14,25026,10040.40,0,0,165,1.40,-2.45,2.03,0.15,0.99,0.14
10.611328,0.024940893,0.0147857275,0.02696059,0.15,0.99,0.13,25040,10040.70,0,0,0,1.05,-2.10,2.17,0.15,0.99,0.13
11.311523,0.019940894,0.020785728,0.027960591,0.15,0.99,0.14,25049,10041.40,0,0,165,0.70,-1.68,2.24,0.15,0.99,0.14
10.311523,0.018940892,0.016785726,0.02896059,0.15,0.99,0.14,25062,10040.40,0,0,0,0.63,-1.96,2.31,0.15,0.99,0.14
10.611328,0.012940893,0.0147857275,0.027960591,0.15,1.0,0.13,25078,10040.70,0,0,165,0.21,-2.10,2.24,0.15,1.00,0.13
10.611328,0.018940892,0.020785728,0.02896059,0.15,1.0,0.13,25085,10040.70,0,0,0,0.63,-1.68,2.31,0.15,1.00,0.13
9.7109375,0.029940892,0.025785726,0.02396059,0.15,0.99,0.13,25100,10039.80,0,0,165,1.40,-1.33,1.96,0.15,0.99,0.13
9.7109375,0.026940893,0.023785727,0.02196059,0.15,0.99,0.13,25130,10039.80,0,0,0,1.19,-1.47,1.82,0.15,0.99,0.13
10.611328,0.028940894,0.020785728,0.01896059,0.15,1.0,0.13,25131,10040.70,0,0,165,1.33,-1.68,1.61,0.15,1.00,0.13
9.311523,0.026940893,0.019785726,0.01296059,0.15,0.99,0.13,25137,10039.40,0,0,0,1.19,-1.75,1.19,0.15,0.99,0.13
9.311523,0.017940894,0.0147857275,0.007960589,0.16,0.99,0.13,25160,10039.40,0,0,165,0.56,-2.10,0.84,0.16,0.99,0.13
8.7109375,0.006940894,0.0077857263,0.01696059,0.16,0.99,0.13,25161,10038.80,0,0,0,-0.21,-2.59,1.47,0.16,0.99,0.13
8.411133,-0.004059107,0.005785726,0.01896059,0.16,0.99,0.13,25175,10038.50,0,0,165,-0.98,-2.73,1.61,0.16,0.99,0.13
8.7109375,-0.0010591066,0.0077857263,0.02396059,0.16,0.99,0.13,25182,10038.80,0,0,0,-0.77,-2.59,1.96,0.16,0.99,0.13
8.411133,-5.9106387E-5,0.0027857274,0.02896059,0.16,0.99,0.13,25205,10038.50,0,0,165,-0.70,-2.94,2.31,0.16,0.99,0.13
9.7109375,0.0029408932,-2.1427497E-4,0.033960592,0.16,0.99,0.14,25212,10039.80,0,0,0,-0.49,-3.15,2.66,0.16,0.99,0.14
8.411133,0.0029408932,0.0037857294,0.03296059,0.16,0.99,0.14,25220,10038.50,0,0,165,-0.49,-2.87,2.59,0.16,0.99,0.14
8.411133,0.006940894,0.0017857254,0.03496059,0.16,0.99,0.14,25235,10038.50,0,0,0,-0.21,-3.01,2.73,0.16,0.99,0.14
8.7109375,0.011940894,0.0017857254,0.03596059,0.16,0.99,0.14,25250,10038.80,0,0,165,0.14,-3.01,2.80,0.16,0.99,0.14
7.7109375,0.017940894,0.0047857277,0.033960592,0.16,0.99,0.14,25259,10037.80,0,0,0,0.56,-2.80,2.66,0.16,0.99,0.14
8.7109375,0.014940893,0.008785728,0.02896059,0.16,1.0,0.14,25273,10038.80,0,0,165,0.35,-2.52,2.31,0.16,1.00,0.14
8.7109375,0.014940893,0.0147857275,0.025960589,0.16,0.99,0.14,25288,10038.80,0,0,0,0.35,-2.10,2.10,0.16,0.99,0.14
7.7109375,0.011940894,0.009785727,0.02096059,0.16,1.0,0.14,25295,10037.80,0,0,165,0.14,-2.45,1.75,0.16,1.00,0.14
7.411133,0.011940894,0.012785725,0.01796059,0.16,0.99,0.14,25311,10037.50,0,0,0,0.14,-2.24,1.54,0.16,0.99,0.14
7.7109375,0.010940894,0.013785725,0.019960588,0.16,0.99,0.14,25326,10037.80,0,0,165,0.07,-2.17,1.68,0.16,0.99,0.14
6.8115234,0.014940893,0.013785725,0.01896059,0.16,0.99,0.14,25340,10036.90,0,0,0,0.35,-2.17,1.61,0.16,0.99,0.14
7.7109375,0.016940894,0.013785725,0.02296059,0.17,0.99,0.14,25348,10037.80,0,0,165,0.49,-2.17,1.89,0.17,0.99,0.14
7.7109375,0.019940894,0.008785728,0.033960592,0.17,0.98,0.14,25363,10037.80,0,0,0,0.70,-2.52,2.66,0.17,0.98,0.14
7.411133,0.016940894,0.005785726,0.036960587,0.16,0.98,0.14,25371,10037.50,0,0,165,0.49,-2.73,2.87,0.16,0.98,0.14
7.7109375,0.022940893,0.011785727,0.042960588,0.16,0.99,0.14,25386,10037.80,0,0,0,0.91,-2.31,3.29,0.16,0.99,0.14
6.411133,0.026940893,0.010785725,0.03796059,0.16,0.99,0.14,25400,10036.50,0,0,165,1.19,-2.38,2.94,0.16,0.99,0.14
6.8115234,0.019940894,0.0077857263,0.033960592,0.16,0.99,0.14,25407,10036.90,0,0,0,0.70,-2.59,2.66,0.16,0.99,0.14
7.7109375,0.010940894,0.010785725,0.029960591,0.16,0.99,0.15,25422,10037.80,0,0,165,0.07,-2.38,2.38,0.16,0.99,0.15
6.8115234,0.0029408932,0.0037857294,0.03096059,0.16,0.99,0.14,25438,10036.90,0,0,0,-0.49,-2.87,2.45,0.16,0.99,0.14
5.510742,9.408938E-4,-0.0022142716,0.03896059,0.17,0.99,0.13,25445,10035.60,0,0,165,-0.63,-3.29,3.01,0.17,0.99,0.13
4.8115234,0.003940894,0.0027857274,0.042960588,0.17,0.99,0.14,25460,10034.90,0,0,0,-0.42,-2.94,3.29,0.17,0.99,0.14
4.8115234,0.0029408932,7.8572705E-4,0.04596059,0.17,0.99,0.14,25476,10034.90,0,0,165,-0.49,-3.08,3.50,0.17,0.99,0.14
3.8115234,0.006940894,-0.0022142716,0.04696059,0.16,0.99,0.14,25483,10033.90,0,0,0,-0.21,-3.29,3.57,0.16,0.99,0.14
3.5107422,0.008940893,-0.0012142733,0.04796059,0.16,0.99,0.14,25498,10033.60,0,0,165,-0.07,-3.22,3.64,0.16,0.99,0.14
2.9111328,-0.004059107,-0.0042142756,0.04796059,0.17,0.99,0.14,25513,10033.00,0,0,0,-0.98,-3.43,3.64,0.17,0.99,0.14
3.5107422,-0.0120591065,-0.019214276,0.05096059,0.17,0.99,0.14,25520,10033.60,0,0,165,-1.54,-4.48,3.85,0.17,0.99,0.14
0.9111328,-0.013059107,-0.02721427,0.053960588,0.17,0.99,0.14,25535,10031.00,0,0,0,-1.61,-5.04,4.06,0.17,0.99,0.14
0.0107421875,-0.014059105,-0.031214278,0.05196059,0.17,0.99,0.14,25558,10030.10,0,0,165,-1.68,-5.32,3.92,0.17,0.99,0.14
-1.9892578,-0.008059106,-0.011214275,0.04996059,0.18,0.99,0.14,25559,10028.10,0,0,0,-1.26,-3.92,3.78,0.18,0.99,0.14
-2.9892578,-0.013059107,-2.1427497E-4,0.05296059,0.18,0.98,0.14,25580,10027.10,0,0,165,-1.61,-3.15,3.99,0.18,0.98,0.14
-6.1884766,-0.023059107,-0.008214273,0.05896059,0.18,0.99,0.15,25587,10023.90,0,0,0,-2.31,-3.71,4.41,0.18,0.99,0.15
-6.1884766,-0.016059108,-0.031214278,0.0639606,0.18,0.99,0.14,25602,10023.90,0,0,165,-1.82,-5.32,4.76,0.18,0.99,0.14
-7.7890625,-0.015059107,-0.033214275,0.06896059,0.18,0.99,0.14,25610,10022.30,0,0,0,-1.75,-5.46,5.11,0.18,0.99,0.14
-7.7890625,-0.0020591058,-0.023214277,0.064960584,0.18,0.99,0.15,25625,10022.30,0,0,165,-0.84,-4.76,4.83,0.18,0.99,0.15
-10.688477,-0.0050591063,-0.024214271,0.05896059,0.18,0.99,0.14,25633,10019.40,0,0,0,-1.05,-4.83,4.41,0.18,0.99,0.14
-11.688477,0.005940893,-0.024214271,0.05096059,0.18,1.0,0.14,25649,10018.40,0,0,165,-0.28,-4.83,3.85,0.18,1.00,0.14
-9.7890625,-0.0010591066,-0.019214276,0.043960586,0.18,0.99,0.14,25663,10020.30,0,0,0,-0.77,-4.48,3.36,0.18,0.99,0.14
-11.989258,0.003940894,0.0047857277,0.03296059,0.18,0.99,0.14,25670,10018.10,0,0,165,-0.42,-2.80,2.59,0.18,0.99,0.14
-11.688477,0.009940893,0.019785726,0.024960589,0.19,0.99,0.14,25685,10018.40,0,0,0,0.00,-1.75,2.03,0.19,0.99,0.14
-11.989258,0.010940894,0.019785726,0.02196059,0.19,0.99,0.14,25700,10018.10,0,0,165,0.07,-1.75,1.82,0.19,0.99,0.14
-10.688477,0.018940892,-0.0042142756,0.019960588,0.19,0.99,0.14,25715,10019.40,0,0,0,0.63,-3.43,1.68,0.19,0.99,0.14
-12.989258,0.017940894,-0.0042142756,0.015960589,0.19,0.99,0.14,25723,10017.10,0,0,165,0.56,-3.43,1.40,0.19,0.99,0.14
-11.688477,0.012940893,-0.012214273,0.019960588,0.19,0.99,0.14,25737,10018.40,0,0,0,0.21,-3.99,1.68,0.19,0.99,0.14
-10.688477,0.0049408935,-0.0132142715,0.01696059,0.19,0.98,0.14,25745,10019.40,0,0,165,-0.35,-4.06,1.47,0.19,0.98,0.14
-11.088867,0.009940893,-0.0042142756,0.013960589,0.2,0.98,0.14,25760,10019.00,0,0,0,0.00,-3.43,1.26,0.20,0.98,0.14
-9.7890625,0.017940894,-0.010214273,0.014960591,0.19,0.98,0.15,25775,10020.30,0,0,165,0.56,-3.85,1.33,0.19,0.98,0.15
-10.688477,0.010940894,0.0027857274,0.015960589,0.19,0.98,0.14,25782,10019.40,0,0,0,0.07,-2.94,1.40,0.19,0.98,0.14
-10.688477,0.013940893,-0.009214275,0.014960591,0.19,0.98,0.14,25799,10019.40,0,0,165,0.28,-3.78,1.33,0.19,0.98,0.14
-10.688477,0.021940893,-0.009214275,0.014960591,0.19,0.98,0.14,25813,10019.40,0,0,0,0.84,-3.78,1.33,0.19,0.98,0.14
-9.7890625,0.014940893,0.0027857274,0.014960591,0.19,0.98,0.14,25827,10020.30,0,0,165,0.35,-2.94,1.33,0.19,0.98,0.14
-10.688477,0.018940892,0.0077857263,0.00896059,0.19,0.99,0.15,25835,10019.40,0,0,0,0.63,-2.59,0.91,0.19,0.99,0.15
-9.7890625,0.009940893,0.0067857243,0.004960589,0.2,0.99,0.15,25843,10020.30,0,0,165,0.00,-2.66,0.63,0.20,0.99,0.15
-10.088867,0.003940894,0.0047857277,0.007960589,0.19,0.98,0.15,25866,10020.00,0,0,0,-0.42,-2.80,0.84,0.19,0.98,0.15
-8.088867,-5.9106387E-5,0.005785726,0.013960589,0.2,0.98,0.15,25872,10022.00,0,0,165,-0.70,-2.73,1.26,0.20,0.98,0.15
-9.7890625,-0.0020591058,0.005785726,0.019960588,0.2,0.99,0.14,25880,10020.30,0,0,0,-0.84,-2.73,1.68,0.20,0.99,0.14
-8.7890625,-5.9106387E-5,0.012785725,0.02196059,0.19,0.99,0.15,25896,10021.30,0,0,165,-0.70,-2.24,1.82,0.19,0.99,0.15
-9.7890625,-0.0010591066,0.009785727,0.02296059,0.19,0.99,0.14,25910,10020.30,0,0,0,-0.77,-2.45,1.89,0.19,0.99,0.14
-9.7890625,0.005940893,0.016785726,0.01896059,0.18,0.99,0.15,25918,10020.30,0,0,165,-0.28,-1.96,1.61,0.18,0.99,0.15
-8.7890625,0.014940893,-0.0072142743,0.01296059,0.19,0.98,0.15,25934,10021.30,0,0,0,0.35,-3.64,1.19,0.19,0.98,0.15
-8.7890625,0.018940892,-0.008214273,0.00896059,0.19,0.98,0.14,25949,10021.30,0,0,165,0.63,-3.71,0.91,0.19,0.98,0.14
-7.7890625,0.020940892,-0.0042142756,0.004960589,0.19,0.98,0.15,25955,10022.30,0,0,0,0.77,-3.43,0.63,0.19,0.98,0.15
-8.7890625,0.013940893,0.0067857243,-0.0020394104,0.19,0.98,0.15,25970,10021.30,0,0,165,0.28,-2.66,0.14,0.19,0.98,0.15
-8.7890625,0.001940893,0.010785725,-0.0020394104,0.19,0.98,0.15,25985,10021.30,0,0,0,-0.56,-2.38,0.14,0.19,0.98,0.15
-8.7890625,0.009940893,0.0067857243,0.007960589,0.19,0.98,0.15,25993,10021.30,0,0,165,0.00,-2.66,0.84,0.19,0.98,0.15
-7.7890625,0.017940894,0.0047857277,0.014960591,0.19,0.98,0.15,26007,10022.30,0,0,0,0.56,-2.80,1.33,0.19,0.98,0.15
-8.088867,0.020940892,7.8572705E-4,0.01296059,0.19,0.98,0.15,26030,10022.00,0,0,165,0.77,-3.08,1.19,0.19,0.98,0.15
