Pressure_Rel,GyroX_Rel,GyroY_Rel,GyroZ_Rel,AccX_Rel,AccY_Rel,AccZ_Rel,Timestamp,Pressure_abs,HeartRate,Oxygen,Status,GyroX,GyroY,GyroZ,AccX,AccY,AccZ
0.0,0.0,0.0,0.0,0.0,0.0,0.0,1527,9882.30,0,0,165,1.05,-0.91,0.77,0.15,1.00,-0.02
0.0,0.0,0.0,0.0,0.0,0.0,0.0,1542,9882.30,0,0,0,1.19,-0.84,0.63,0.15,1.00,-0.02
0.0,0.0,0.0,0.0,0.0,0.0,0.0,1558,9882.30,0,0,165,1.47,-0.70,0.77,0.16,1.00,-0.02
0.0,0.0,0.0,0.0,0.0,0.0,0.0,1565,9881.70,0,0,0,1.26,-0.42,0.84,0.16,1.00,-0.02
0.0,0.0,0.0,0.0,0.0,0.0,0.0,1580,9881.40,0,0,165,1.05,-0.35,0.84,0.16,1.00,-0.02
0.0,0.0,0.0,0.0,0.0,0.0,0.0,1595,9881.70,0,0,0,0.98,-0.35,0.63,0.16,1.00,-0.02
0.0,0.0,0.0,0.0,0.0,0.0,0.0,1603,9882.30,0,0,165,1.12,-0.56,0.35,0.15,1.00,-0.02
0.0,0.0,0.0,0.0,0.0,0.0,0.0,1618,9882.30,0,0,0,1.26,-0.77,0.00,0.16,1.00,-0.03
0.0,0.0,0.0,0.0,0.0,0.0,0.0,1633,9882.30,0,0,165,1.33,-0.98,-0.56,0.16,0.99,-0.03
0.0,0.0,0.0,0.0,0.0,0.0,0.0,1640,9881.40,0,0,0,1.40,-1.05,-0.77,0.15,1.00,-0.02
0.0,0.0,0.0,0.0,0.0,0.0,0.0,1655,9882.70,0,0,165,1.47,-1.12,-0.84,0.15,1.00,-0.02
0.0,0.0,0.0,0.0,0.0,0.0,0.0,1670,9882.70,0,0,0,1.61,-0.91,-0.98,0.16,1.00,-0.02
0.0,0.0,0.0,0.0,0.0,0.0,0.0,1678,9881.70,0,0,165,1.40,-0.98,-0.91,0.16,0.99,-0.03
0.0,0.0,0.0,0.0,0.0,0.0,0.0,1692,9882.30,0,0,0,1.40,-1.05,-0.84,0.16,1.00,-0.03
0.0,0.0,0.0,0.0,0.0,0.0,0.0,1708,9882.70,0,0,165,1.47,-1.33,-1.05,0.16,1.00,-0.03
0.0,0.0,0.0,0.0,0.0,0.0,0.0,1715,9882.30,0,0,0,1.82,-1.75,-1.19,0.16,1.00,-0.04
0.0,0.0,0.0,0.0,0.0,0.0,0.0,1730,9881.70,0,0,165,2.03,-2.17,-1.26,0.15,0.99,-0.03
0.0,0.0,0.0,0.0,0.0,0.0,0.0,1745,9883.60,0,0,0,1.82,-2.45,-1.54,0.16,0.99,-0.02
0.0,0.0,0.0,0.0,0.0,0.0,0.0,1752,9881.40,0,0,165,1.40,-2.45,-1.40,0.15,0.99,-0.02
0.0,0.0,0.0,0.0,0.0,0.0,0.0,1767,9882.70,0,0,0,0.91,-2.31,-0.98,0.16,0.99,-0.02
0.0,0.0,0.0,0.0,0.0,0.0,0.0,1783,9881.70,0,0,165,0.70,-2.31,-0.63,0.15,0.99,-0.02
0.0,0.0,0.0,0.0,0.0,0.0,0.0,1790,9881.70,0,0,0,0.42,-2.03,-0.35,0.15,1.00,-0.02
0.0,0.0,0.0,0.0,0.0,0.0,0.0,1805,9882.70,0,0,165,0.49,-1.82,0.07,0.15,1.00,-0.03
0.0,0.0,0.0,0.0,0.0,0.0,0.0,1819,9881.70,0,0,0,0.42,-2.10,0.07,0.15,1.00,-0.03
0.0,0.0,0.0,0.0,0.0,0.0,0.0,1827,9881.70,0,0,165,0.42,-2.24,-0.07,0.15,0.99,-0.03
0.0,0.0,0.0,0.0,0.0,0.0,0.0,1842,9881.70,0,0,0,0.42,-2.31,0.42,0.15,0.99,-0.03
0.0,0.0,0.0,0.0,0.0,0.0,0.0,1857,9883.00,0,0,165,0.28,-2.52,0.49,0.15,0.99,-0.03
0.0,0.0,0.0,0.0,0.0,0.0,0.0,1865,9882.00,0,0,0,-0.07,-2.80,0.56,0.15,0.99,-0.02
0.0,0.0,0.0,0.0,0.0,0.0,0.0,1879,9881.70,0,0,165,-0.35,-2.87,0.77,0.15,0.99,-0.02
0.0,0.0,0.0,0.0,0.0,0.0,0.0,1894,9883.00,0,0,0,-0.56,-2.87,0.63,0.15,0.99,-0.02
0.0,0.0,0.0,0.0,0.0,0.0,0.0,1903,9882.00,0,0,165,-0.42,-2.80,0.91,0.15,0.99,-0.02
0.0,0.0,0.0,0.0,0.0,0.0,0.0,1917,9880.70,0,0,0,-0.28,-2.66,0.91,0.15,1.00,-0.02
0.0,0.0,0.0,0.0,0.0,0.0,0.0,1932,9882.00,0,0,165,0.00,-2.80,0.77,0.15,1.00,-0.02
0.0,0.0,0.0,0.0,0.0,0.0,0.0,1940,9881.70,0,0,0,0.21,-2.94,0.42,0.15,1.00,-0.02
0.0,0.0,0.0,0.0,0.0,0.0,0.0,1955,9882.70,0,0,165,0.14,-3.08,0.14,0.16,1.00,-0.02
0.0,0.0,0.0,0.0,0.0,0.0,0.0,1970,9883.00,0,0,0,-0.14,-3.36,0.00,0.16,1.00,-0.02
0.0,0.0,0.0,0.0,0.0,0.0,0.0,1977,9882.00,0,0,165,0.07,-3.57,0.07,0.16,1.00,-0.02
0.0,0.0,0.0,0.0,0.0,0.0,0.0,1992,9882.00,0,0,0,0.21,-3.50,0.14,0.15,1.00,-0.02
0.0,0.0,0.0,0.0,0.0,0.0,0.0,2007,9883.30,0,0,165,0.49,-3.08,0.42,0.15,1.00,-0.02
0.0,0.0,0.0,0.0,0.0,0.0,0.0,2015,9882.00,0,0,0,0.91,-2.66,0.35,0.15,1.00,-0.02
0.0,0.0,0.0,0.0,0.0,0.0,0.0,2030,9883.00,0,0,165,0.98,-2.38,0.42,0.15,1.00,-0.02
0.0,0.0,0.0,0.0,0.0,0.0,0.0,2045,9882.00,0,0,0,1.33,-2.17,0.35,0.15,1.00,-0.02
0.0,0.0,0.0,0.0,0.0,0.0,0.0,2052,9882.00,0,0,165,1.40,-2.03,0.42,0.15,1.00,-0.02
0.0,0.0,0.0,0.0,0.0,0.0,0.0,2067,9883.00,0,0,0,1.40,-2.10,0.35,0.16,0.99,-0.02
0.0,0.0,0.0,0.0,0.0,0.0,0.0,2082,9881.00,0,0,165,1.05,-2.24,0.77,0.16,0.99,-0.02
0.0,0.0,0.0,0.0,0.0,0.0,0.0,2090,9881.40,0,0,0,0.84,-2.45,0.77,0.16,0.99,-0.02
0.0,0.0,0.0,0.0,0.0,0.0,0.0,2105,9882.00,0,0,165,0.70,-2.45,0.98,0.16,1.00,-0.02
0.0,0.0,0.0,0.0,0.0,0.0,0.0,2120,9882.30,0,0,0,0.56,-2.66,0.91,0.15,1.00,-0.02
0.0,0.0,0.0,0.0,0.0,0.0,0.0,2128,9882.30,0,0,165,0.70,-2.66,0.70,0.15,1.00,-0.02
0.0,0.0,0.0,0.0,0.0,0.0,0.0,2143,9882.00,0,0,0,0.63,-2.59,0.56,0.15,1.00,-0.02
0.0,0.0,0.0,0.0,0.0,0.0,0.0,2158,9881.40,0,0,165,0.70,-2.59,0.49,0.15,1.00,-0.02
0.0,0.0,0.0,0.0,0.0,0.0,0.0,2165,9882.30,0,0,0,0.70,-2.66,0.77,0.16,0.99,-0.02
0.0,0.0,0.0,0.0,0.0,0.0,0.0,2181,9882.30,0,0,165,0.63,-2.94,0.77,0.15,1.00,-0.02
0.0,0.0,0.0,0.0,0.0,0.0,0.0,2195,9882.70,0,0,0,0.63,-3.22,0.77,0.16,1.00,-0.03
0.0,0.0,0.0,0.0,0.0,0.0,0.0,2202,9882.30,0,0,165,0.49,-3.57,0.56,0.16,0.99,-0.03
0.0,0.0,0.0,0.0,0.0,0.0,0.0,2218,9881.40,0,0,0,0.28,-3.99,0.21,0.16,0.99,-0.02
0.0,0.0,0.0,0.0,0.0,0.0,0.0,2233,9882.70,0,0,165,0.21,-4.55,0.00,0.15,1.00,-0.02
0.0,0.0,0.0,0.0,0.0,0.0,0.0,2240,9882.30,0,0,0,0.14,-4.90,-0.42,0.16,1.00,-0.02
0.0,0.0,0.0,0.0,0.0,0.0,0.0,2256,9882.30,0,0,165,0.00,-5.04,-0.49,0.16,1.00,-0.02
0.0,0.0,0.0,0.0,0.0,0.0,0.0,2270,9883.30,0,0,0,-0.07,-4.97,-0.28,0.15,1.00,-0.02
0.0,0.0,0.0,0.0,0.0,0.0,0.0,2277,9881.40,0,0,165,0.21,-4.62,-0.14,0.15,1.00,-0.02
0.0,0.0,0.0,0.0,0.0,0.0,0.0,2293,9881.00,0,0,0,0.42,-4.34,0.14,0.15,1.00,-0.02
0.0,0.0,0.0,0.0,0.0,0.0,0.0,2308,9881.70,0,0,165,0.63,-4.13,0.35,0.15,1.00,-0.02
0.0,0.0,0.0,0.0,0.0,0.0,0.0,2315,9882.70,0,0,0,0.63,-3.99,0.70,0.16,0.99,-0.02
0.0,0.0,0.0,0.0,0.0,0.0,0.0,2330,9882.30,0,0,165,0.56,-4.13,1.05,0.16,1.00,-0.02
0.0,0.0,0.0,0.0,0.0,0.0,0.0,2345,9882.70,0,0,0,0.14,-4.48,1.26,0.16,1.00,-0.02
0.0,0.0,0.0,0.0,0.0,0.0,0.0,2353,9882.70,0,0,165,0.00,-4.69,1.26,0.16,1.00,-0.02
0.0,0.0,0.0,0.0,0.0,0.0,0.0,2368,9882.30,0,0,0,-0.07,-5.11,1.47,0.15,1.00,-0.02
0.0,0.0,0.0,0.0,0.0,0.0,0.0,2381,9882.30,0,0,165,-0.14,-5.25,1.12,0.16,1.00,-0.02
0.0,0.0,0.0,0.0,0.0,0.0,0.0,2389,9881.70,0,0,0,0.35,-5.18,1.05,0.15,1.00,-0.02
0.0,0.0,0.0,0.0,0.0,0.0,0.0,2404,9882.70,0,0,165,0.70,-4.97,0.91,0.16,1.00,-0.02
0.0,0.0,0.0,0.0,0.0,0.0,0.0,2420,9882.70,0,0,0,0.84,-4.76,0.84,0.15,1.00,-0.02
0.0,0.0,0.0,0.0,0.0,0.0,0.0,2428,9882.30,0,0,165,1.05,-4.55,0.70,0.15,1.00,-0.02
0.0,0.0,0.0,0.0,0.0,0.0,0.0,2442,9882.30,0,0,0,1.19,-4.34,0.35,0.15,1.00,-0.02
0.0,0.0,0.0,0.0,0.0,0.0,0.0,2458,9883.60,0,0,165,1.33,-4.13,0.14,0.15,1.00,-0.02
0.0,0.0,0.0,0.0,0.0,0.0,0.0,2464,9882.70,0,0,0,1.19,-4.13,-0.21,0.16,1.00,-0.02
0.0,0.0,0.0,0.0,0.0,0.0,0.0,2480,9882.70,0,0,165,1.33,-3.85,-0.14,0.16,1.00,-0.02
0.0,0.0,0.0,0.0,0.0,0.0,0.0,2495,9881.70,0,0,0,1.19,-3.64,0.00,0.16,0.99,-0.02
0.0,0.0,0.0,0.0,0.0,0.0,0.0,2503,9882.70,0,0,165,1.33,-3.29,0.21,0.16,1.00,-0.02
0.0,0.0,0.0,0.0,0.0,0.0,0.0,2517,9881.70,0,0,0,1.26,-2.87,0.42,0.16,1.00,-0.02
0.0,0.0,0.0,0.0,0.0,0.0,0.0,2532,9881.70,0,0,165,1.12,-2.59,0.49,0.15,0.88,-0.02
0.0,0.0,0.0,0.0,0.0,0.0,0.0,2540,9882.70,0,0,0,1.12,-2.52,0.14,0.16,1.00,-0.03
0.0,0.0,0.0,0.0,0.0,0.0,0.0,2554,9881.70,0,0,165,1.19,-2.52,-0.28,0.16,1.00,-0.02
0.0,0.0,0.0,0.0,0.0,0.0,0.0,2569,9882.70,0,0,0,1.19,-2.52,-0.49,0.16,1.00,-0.02
0.0,0.0,0.0,0.0,0.0,0.0,0.0,2577,9881.70,0,0,165,1.05,-2.59,-0.56,0.16,1.00,-0.02
0.0,0.0,0.0,0.0,0.0,0.0,0.0,2592,9881.70,0,0,0,1.12,-2.59,-0.49,0.16,1.00,-0.02
0.0,0.0,0.0,0.0,0.0,0.0,0.0,2607,9882.70,0,0,165,0.98,-2.52,-0.35,0.16,0.99,-0.02
0.0,0.0,0.0,0.0,0.0,0.0,0.0,2615,9881.70,0,0,0,0.63,-2.52,-0.21,0.16,1.00,-0.02
0.0,0.0,0.0,0.0,0.0,0.0,0.0,2630,9882.00,0,0,165,0.63,-2.52,0.07,0.15,1.00,-0.02
0.0,0.0,0.0,0.0,0.0,0.0,0.0,2645,9882.70,0,0,0,0.56,-2.59,0.00,0.15,1.00,-0.02
0.0,0.0,0.0,0.0,0.0,0.0,0.0,2652,9882.70,0,0,165,0.84,-2.52,-0.28,0.15,1.00,-0.02
0.0,0.0,0.0,0.0,0.0,0.0,0.0,2667,9881.70,0,0,0,0.98,-2.45,-0.35,0.15,1.00,-0.02
0.0,0.0,0.0,0.0,0.0,0.0,0.0,2675,9881.70,0,0,165,1.19,-2.31,-0.49,0.15,1.00,-0.02
0.0,0.0,0.0,0.0,0.0,0.0,0.0,2690,9881.70,0,0,0,1.33,-1.96,-0.49,0.15,1.00,-0.02
0.0,0.0,0.0,0.0,0.0,0.0,0.0,2705,9882.00,0,0,165,1.26,-1.61,-0.21,0.15,0.99,-0.02
0.0,0.0,0.0,0.0,0.0,0.0,0.0,2713,9881.70,0,0,0,1.05,-1.40,-0.35,0.15,1.00,-0.02
0.0,0.0,0.0,0.0,0.0,0.0,0.0,2728,9882.00,0,0,165,0.91,-1.05,-0.28,0.16,1.00,-0.02
0.0,0.0,0.0,0.0,0.0,0.0,0.0,2742,9882.00,0,0,0,0.84,-1.26,-0.42,0.15,1.00,-0.02
0.0,0.0,0.0,0.0,0.0,0.0,0.0,2750,9882.70,0,0,165,0.98,-1.33,-0.42,0.16,1.00,-0.02
0.0,0.0,0.0,0.0,0.0,0.0,0.0,2765,9882.00,0,0,0,0.91,-1.47,-0.63,0.16,1.00,-0.02
0.0,0.0,0.0,0.0,0.0,0.0,0.0,2779,9882.00,0,0,165,0.91,-1.61,-0.56,0.16,1.00,-0.02
0.0,0.0,0.0,0.0,0.0,0.0,0.0,2787,9883.00,0,0,0,0.84,-1.61,-0.49,0.16,1.00,-0.02
0.0,0.0,0.0,0.0,0.0,0.0,0.0,2803,9882.00,0,0,165,0.70,-1.89,-0.42,0.16,0.99,-0.02
0.0,0.0,0.0,0.0,0.0,0.0,0.0,2817,9882.70,0,0,0,0.84,-1.96,-0.21,0.16,0.99,-0.02
0.0,0.0,0.0,0.0,0.0,0.0,0.0,2824,9881.10,0,0,165,0.84,-1.96,-0.07,0.16,1.00,-0.02
0.0,0.0,0.0,0.0,0.0,0.0,0.0,2839,9882.00,0,0,0,0.84,-2.03,0.07,0.15,1.00,-0.02
0.0,0.0,0.0,0.0,0.0,0.0,0.0,2854,9882.00,0,0,165,0.91,-1.96,0.07,0.15,1.00,-0.02
0.0,0.0,0.0,0.0,0.0,0.0,0.0,2862,9882.30,0,0,0,1.12,-1.82,-0.21,0.15,1.00,-0.02
0.0,0.0,0.0,0.0,0.0,0.0,0.0,2877,9882.00,0,0,165,1.19,-1.68,-0.21,0.16,1.00,-0.02
0.0,0.0,0.0,0.0,0.0,0.0,0.0,2892,9882.00,0,0,0,1.33,-1.82,-0.35,0.16,1.00,-0.02
0.0,0.0,0.0,0.0,0.0,0.0,0.0,2907,9882.30,0,0,165,1.26,-1.82,-0.42,0.15,1.00,-0.02
0.0,0.0,0.0,0.0,0.0,0.0,0.0,2915,9882.00,0,0,0,0.98,-2.10,-0.42,0.16,0.99,-0.02
0.0,0.0,0.0,0.0,0.0,0.0,0.0,2930,9882.00,0,0,165,0.35,-2.24,-0.63,0.16,0.99,-0.02
0.0,0.0,0.0,0.0,0.0,0.0,0.0,2937,9882.00,0,0,0,-0.07,-2.52,-0.56,0.16,1.00,-0.02
0.0,0.0,0.0,0.0,0.0,0.0,0.0,2952,9882.30,0,0,165,-0.07,-2.59,-0.42,0.16,1.00,-0.02
0.0,0.0,0.0,0.0,0.0,0.0,0.0,2967,9882.30,0,0,0,0.21,-2.52,-0.35,0.16,1.00,-0.02
0.0,0.0,0.0,0.0,0.0,0.0,0.0,2975,9881.40,0,0,165,0.42,-2.38,-0.14,0.16,1.00,-0.02
0.0,0.0,0.0,0.0,0.0,0.0,0.0,2990,9881.40,0,0,0,0.63,-2.10,0.28,0.15,1.00,-0.02
0.0,0.0,0.0,0.0,0.0,0.0,0.0,3005,9882.30,0,0,165,0.77,-1.89,0.49,0.16,0.99,-0.02
0.0,0.0,0.0,0.0,0.0,0.0,0.0,3012,9882.00,0,0,0,0.49,-1.75,0.91,0.16,0.99,-0.02
0.0,0.0,0.0,0.0,0.0,0.0,0.0,3028,9881.10,0,0,165,0.42,-1.75,1.12,0.16,0.99,-0.02
0.0,0.0,0.0,0.0,0.0,0.0,0.0,3043,9882.30,0,0,0,0.28,-1.96,1.12,0.16,1.00,-0.02
0.0,0.0,0.0,0.0,0.0,0.0,0.0,3050,9882.30,0,0,165,0.35,-1.96,1.19,0.15,1.00,-0.03
0.0,0.0,0.0,0.0,0.0,0.0,0.0,3065,9882.30,0,0,0,0.35,-2.24,0.77,0.15,1.00,-0.02
0.0,0.0,0.0,0.0,0.0,0.0,0.0,3080,9882.30,0,0,165,0.49,-2.38,0.56,0.16,1.00,-0.02
0.0,0.0,0.0,0.0,0.0,0.0,0.0,3088,9882.00,0,0,0,0.28,-2.52,0.35,0.16,1.00,-0.02
0.0,0.0,0.0,0.0,0.0,0.0,0.0,3110,9882.30,0,0,165,0.42,-2.59,0.07,0.15,1.00,-0.02
0.0,0.0,0.0,0.0,0.0,0.0,0.0,3117,9881.40,0,0,0,0.42,-2.66,0.00,0.16,1.00,-0.02
0.0,0.0,0.0,0.0,0.0,0.0,0.0,3125,9882.30,0,0,165,0.56,-2.45,0.21,0.16,1.00,-0.02
0.0,0.0,0.0,0.0,0.0,0.0,0.0,3140,9882.00,0,0,0,0.49,-2.24,0.42,0.16,0.99,-0.02
0.0,0.0,0.0,0.0,0.0,0.0,0.0,3147,9881.40,0,0,165,0.70,-2.24,0.70,0.16,0.99,-0.02
0.0,0.0,0.0,0.0,0.0,0.0,0.0,3162,9882.30,0,0,0,0.84,-2.38,0.91,0.16,1.00,-0.02
0.0,0.0,0.0,0.0,0.0,0.0,0.0,3177,9882.30,0,0,165,1.05,-2.45,0.91,0.15,1.00,-0.03
0.0,0.0,0.0,0.0,0.0,0.0,0.0,3185,9882.00,0,0,0,1.19,-2.66,0.63,0.15,1.00,-0.02
0.0,0.0,0.0,0.0,0.0,0.0,0.0,3199,9882.30,0,0,165,0.98,-2.87,0.42,0.15,0.99,-0.02
0.0,0.0,0.0,0.0,0.0,0.0,0.0,3215,9881.40,0,0,0,0.77,-3.01,-0.14,0.15,0.99,-0.02
0.0,0.0,0.0,0.0,0.0,0.0,0.0,3222,9883.30,0,0,165,0.77,-2.94,-0.21,0.15,1.00,-0.02
0.0,0.0,0.0,0.0,0.0,0.0,0.0,3237,9881.70,0,0,0,0.98,-2.87,-0.07,0.15,1.00,-0.02
0.0,0.0,0.0,0.0,0.0,0.0,0.0,3252,9882.70,0,0,165,1.26,-2.59,0.07,0.15,1.00,-0.02
0.0,0.0,0.0,0.0,0.0,0.0,0.0,3267,9881.40,0,0,0,1.54,-2.73,0.07,0.16,1.00,-0.03
0.0,0.0,0.0,0.0,0.0,0.0,0.0,3275,9881.40,0,0,165,1.68,-3.01,0.07,0.16,1.00,-0.03
0.0,0.0,0.0,0.0,0.0,0.0,0.0,3290,9882.70,0,0,0,1.61,-3.43,0.21,0.16,1.00,-0.02
0.0,0.0,0.0,0.0,0.0,0.0,0.0,3305,9882.30,0,0,165,1.40,-3.78,0.00,0.16,1.00,-0.02
0.0,0.0,0.0,0.0,0.0,0.0,0.0,3312,9881.40,0,0,0,1.33,-3.78,-0.07,0.15,1.12,-0.02
0.0,0.0,0.0,0.0,0.0,0.0,0.0,3327,9881.70,0,0,165,1.12,-3.92,0.00,0.15,1.00,-0.03
0.0,0.0,0.0,0.0,0.0,0.0,0.0,3343,9882.30,0,0,0,1.54,-4.27,0.07,0.16,1.00,-0.03
0.0,0.0,0.0,0.0,0.0,0.0,0.0,3349,9881.70,0,0,165,1.75,-4.76,0.28,0.15,0.99,-0.03
0.0,0.0,0.0,0.0,0.0,0.0,0.0,3364,9882.70,0,0,0,2.03,-5.18,0.21,0.16,0.99,-0.02
0.0,0.0,0.0,0.0,0.0,0.0,0.0,3380,9881.70,0,0,165,2.31,-5.39,0.42,0.15,1.00,-0.02
0.0,0.0,0.0,0.0,0.0,0.0,0.0,3387,9882.70,0,0,0,1.89,-4.83,0.49,0.15,0.99,0.01
0.0,0.0,0.0,0.0,0.0,0.0,0.0,3402,9882.70,0,0,165,1.47,-3.36,0.77,0.15,1.00,-0.01
0.0,0.0,0.0,0.0,0.0,0.0,0.0,3417,9882.70,0,0,0,1.33,-2.31,0.77,0.15,1.00,-0.03
0.0,0.0,0.0,0.0,0.0,0.0,0.0,3425,9882.70,0,0,165,1.54,-2.17,0.70,0.16,1.00,-0.02
0.0,0.0,0.0,0.0,0.0,0.0,0.0,3440,9882.70,0,0,0,1.61,-2.52,0.49,0.16,1.00,-0.01
0.0,0.0,0.0,0.0,0.0,0.0,0.0,3454,9881.70,0,0,165,1.68,-2.52,0.21,0.16,1.00,-0.02
0.0,0.0,0.0,0.0,0.0,0.0,0.0,3462,9882.00,0,0,0,1.54,-2.45,-0.28,0.16,1.00,-0.03
0.0,0.0,0.0,0.0,0.0,0.0,0.0,3477,9882.70,0,0,165,1.19,-2.45,-0.49,0.16,1.00,-0.02
0.0,0.0,0.0,0.0,0.0,0.0,0.0,3492,9882.00,0,0,0,1.12,-2.17,-0.63,0.15,1.00,-0.01
0.0,0.0,0.0,0.0,0.0,0.0,0.0,3500,9882.70,0,0,165,0.84,-1.75,-0.56,0.16,1.00,-0.02
0.0,0.0,0.0,0.0,0.0,0.0,0.0,3514,9883.00,0,0,0,0.70,-1.33,-0.63,0.16,1.00,-0.02
0.0,0.0,0.0,0.0,0.0,0.0,0.0,3530,9881.70,0,0,165,0.56,-1.05,-0.63,0.16,1.00,-0.03
0.0,0.0,0.0,0.0,0.0,0.0,0.0,3538,9881.70,0,0,0,0.84,-1.05,-0.49,0.16,1.00,-0.03
0.0,0.0,0.0,0.0,0.0,0.0,0.0,3553,9881.70,0,0,165,0.70,-1.26,-0.49,0.16,1.00,-0.03
0.0,0.0,0.0,0.0,0.0,0.0,0.0,3568,9881.70,0,0,0,0.84,-1.33,-0.49,0.16,1.00,-0.02
0.0,0.0,0.0,0.0,0.0,0.0,0.0,3575,9883.00,0,0,165,0.77,-1.54,-0.42,0.16,1.00,-0.03
0.0,0.0,0.0,0.0,0.0,0.0,0.0,3590,9881.10,0,0,0,0.63,-1.75,-0.28,0.16,0.99,-0.03
0.0,0.0,0.0,0.0,0.0,0.0,0.0,3605,9883.00,0,0,165,0.35,-1.82,-0.35,0.16,0.99,-0.02
0.0,0.0,0.0,0.0,0.0,0.0,0.0,3612,9882.00,0,0,0,0.21,-1.89,-0.35,0.16,0.99,-0.02
0.0,0.0,0.0,0.0,0.0,0.0,0.0,3627,9883.30,0,0,165,0.28,-1.96,-0.14,0.16,1.00,-0.03
0.0,0.0,0.0,0.0,0.0,0.0,0.0,3642,9882.00,0,0,0,0.21,-2.17,-0.07,0.15,0.99,-0.02
0.0,0.0,0.0,0.0,0.0,0.0,0.0,3650,9882.00,0,0,165,0.00,-2.03,-0.07,0.15,0.99,-0.03
0.0,0.0,0.0,0.0,0.0,0.0,0.0,3665,9883.00,0,0,0,-0.14,-2.24,-0.28,0.16,0.99,-0.03
0.0,0.0,0.0,0.0,0.0,0.0,0.0,3680,9883.00,0,0,165,-0.14,-2.52,-0.14,0.16,0.99,-0.03
0.0,0.0,0.0,0.0,0.0,0.0,0.0,3687,9883.00,0,0,0,-0.07,-2.80,-0.07,0.16,0.99,-0.02
0.0,0.0,0.0,0.0,0.0,0.0,0.0,3702,9882.00,0,0,165,-0.07,-2.87,0.00,0.15,1.00,-0.02
0.0,0.0,0.0,0.0,0.0,0.0,0.0,3717,9881.10,0,0,0,-0.21,-2.59,-0.21,0.15,1.00,-0.02
0.0,0.0,0.0,0.0,0.0,0.0,0.0,3724,9883.00,0,0,165,-0.21,-2.17,-0.07,0.16,1.00,-0.02
0.0,0.0,0.0,0.0,0.0,0.0,0.0,3739,9882.00,0,0,0,-0.42,-1.82,0.07,0.15,1.00,-0.02
0.0,0.0,0.0,0.0,0.0,0.0,0.0,3754,9882.00,0,0,165,-0.42,-1.75,0.07,0.15,0.99,-0.02
0.0,0.0,0.0,0.0,0.0,0.0,0.0,3762,9882.00,0,0,0,-0.35,-1.82,0.21,0.16,0.99,-0.02
0.0,0.0,0.0,0.0,0.0,0.0,0.0,3777,9882.00,0,0,165,-0.63,-1.96,0.14,0.15,0.99,-0.02
0.0,0.0,0.0,0.0,0.0,0.0,0.0,3784,9881.70,0,0,0,-0.84,-2.10,0.00,0.15,1.00,-0.02
0.0,0.0,0.0,0.0,0.0,0.0,0.0,3799,9882.00,0,0,165,-0.63,-2.10,-0.07,0.15,1.00,-0.02
0.0,0.0,0.0,0.0,0.0,0.0,0.0,3814,9882.30,0,0,0,-0.21,-2.10,-0.21,0.15,1.00,-0.02
0.0,0.0,0.0,0.0,0.0,0.0,0.0,3822,9883.00,0,0,165,0.14,-2.03,-0.21,0.16,0.99,-0.02
0.0,0.0,0.0,0.0,0.0,0.0,0.0,3837,9882.00,0,0,0,0.14,-2.03,-0.21,0.15,1.00,-0.02
0.0,0.0,0.0,0.0,0.0,0.0,0.0,3853,9882.00,0,0,165,0.00,-1.96,-0.21,0.16,1.00,-0.02
0.0,0.0,0.0,0.0,0.0,0.0,0.0,3860,9882.00,0,0,0,-0.35,-1.89,-0.28,0.16,1.00,-0.02
0.0,0.0,0.0,0.0,0.0,0.0,0.0,3874,9882.30,0,0,165,-0.56,-2.03,-0.28,0.16,1.00,-0.02
0.0,0.0,0.0,0.0,0.0,0.0,0.0,3890,9882.30,0,0,0,-0.28,-2.17,0.07,0.16,1.00,-0.02
0.0,0.0,0.0,0.0,0.0,0.0,0.0,3897,9882.00,0,0,165,-0.07,-2.24,0.56,0.16,1.00,-0.02
0.0,0.0,0.0,0.0,0.0,0.0,0.0,3912,9882.30,0,0,0,0.14,-2.24,1.19,0.16,0.99,-0.02
0.0,0.0,0.0,0.0,0.0,0.0,0.0,3927,9883.30,0,0,165,0.07,-2.10,1.68,0.16,0.99,-0.02
0.0,0.0,0.0,0.0,0.0,0.0,0.0,3935,9882.00,0,0,0,-0.14,-2.24,1.89,0.16,0.99,-0.02
0.0,0.0,0.0,0.0,0.0,0.0,0.0,3950,9882.30,0,0,165,-0.35,-2.38,2.10,0.16,0.99,-0.02
0.0,0.0,0.0,0.0,0.0,0.0,0.0,3964,9882.30,0,0,0,-0.14,-2.73,1.75,0.16,1.00,-0.02
0.0,0.0,0.0,0.0,0.0,0.0,0.0,3972,9883.30,0,0,165,0.07,-3.01,1.47,0.16,1.00,-0.02
-0.90722656,-0.002833969,-0.003775239,0.0014744072,0.15,1.0,-0.01,13992,9881.40,0,0,165,0.49,-2.87,0.14,0.15,1.00,-0.01
0.09277344,0.0011660308,-0.0027752407,4.744071E-4,0.15,1.0,-0.0,14007,9882.40,0,0,0,0.77,-2.80,0.07,0.15,1.00,-0.00
0.09277344,0.00216603,-0.004775241,-5.2559294E-4,0.15,1.0,-0.0,14015,9882.40,0,0,165,0.84,-2.94,0.00,0.15,1.00,-0.00
0.39257812,0.0011660308,-0.003775239,4.744071E-4,0.15,1.0,-0.0,14029,9882.70,0,0,0,0.77,-2.87,0.07,0.15,1.00,-0.00
-0.90722656,1.660306E-4,-0.0027752407,0.0014744072,0.15,1.0,-0.0,14044,9881.40,0,0,165,0.70,-2.80,0.14,0.15,1.00,-0.00
-0.6074219,-8.3396956E-4,-0.0017752424,4.744071E-4,0.15,1.0,-0.0,14052,9881.70,0,0,0,0.63,-2.73,0.07,0.15,1.00,-0.00
-1.6074219,-0.0018339688,2.2475794E-4,4.744071E-4,0.15,1.0,0.0,14068,9880.70,0,0,165,0.56,-2.59,0.07,0.15,1.00,0.00
0.39257812,-8.3396956E-4,0.0022247583,-0.001525593,0.15,1.0,-0.0,14082,9882.70,0,0,0,0.63,-2.45,-0.07,0.15,1.00,-0.00
0.9921875,-0.0018339688,0.00122476,-0.004525593,0.15,1.0,-0.0,14090,9883.30,0,0,165,0.56,-2.52,-0.28,0.15,1.00,-0.00
0.09277344,-8.3396956E-4,0.0032247566,-5.2559294E-4,0.15,1.0,-0.0,14104,9882.40,0,0,0,0.63,-2.38,0.00,0.15,1.00,-0.00
-0.6074219,-8.3396956E-4,0.0042247586,-0.0025255932,0.15,1.0,-0.0,14119,9881.70,0,0,165,0.63,-2.31,-0.14,0.15,1.00,-0.00
-0.90722656,-8.3396956E-4,0.0042247586,-0.0025255932,0.15,1.0,-0.0,14127,9881.40,0,0,0,0.63,-2.31,-0.14,0.15,1.00,-0.00
0.39257812,1.660306E-4,0.0032247566,4.744071E-4,0.15,1.0,-0.0,14150,9882.70,0,0,165,0.70,-2.38,0.07,0.15,1.00,-0.00
0.39257812,0.0011660308,0.0032247566,0.0014744072,0.15,1.0,-0.0,14157,9882.70,0,0,0,0.77,-2.38,0.14,0.15,1.00,-0.00
-0.6074219,0.0011660308,0.0032247566,0.0014744072,0.15,1.0,-0.0,14165,9881.70,0,0,165,0.77,-2.38,0.14,0.15,1.00,-0.00
0.39257812,1.660306E-4,-7.752441E-4,0.0014744072,0.15,1.0,-0.0,14180,9882.70,0,0,0,0.70,-2.66,0.14,0.15,1.00,-0.00
-0.6074219,0.0011660308,-7.752441E-4,0.0014744072,0.15,1.0,-0.0,14187,9881.70,0,0,165,0.77,-2.66,0.14,0.15,1.00,-0.00
-0.6074219,-8.3396956E-4,-0.0017752424,0.0034744074,0.15,1.0,-0.0,14202,9881.70,0,0,0,0.63,-2.73,0.28,0.15,1.00,-0.00
0.39257812,1.660306E-4,-0.003775239,0.0024744067,0.15,1.0,-0.0,14217,9882.70,0,0,165,0.70,-2.87,0.21,0.15,1.00,-0.00
0.39257812,1.660306E-4,-0.003775239,0.0024744067,0.15,1.0,-0.0,14225,9882.70,0,0,0,0.70,-2.87,0.21,0.15,1.00,-0.00
0.39257812,1.660306E-4,-0.0027752407,0.0024744067,0.15,1.0,0.0,14239,9882.70,0,0,165,0.70,-2.80,0.21,0.15,1.00,0.00
-0.6074219,1.660306E-4,-0.0017752424,4.744071E-4,0.15,1.0,-0.0,14254,9881.70,0,0,0,0.70,-2.73,0.07,0.15,1.00,-0.00
0.39257812,0.00216603,2.2475794E-4,-5.2559294E-4,0.15,1.0,0.0,14262,9882.70,0,0,165,0.84,-2.59,0.00,0.15,1.00,0.00
-0.90722656,1.660306E-4,2.2475794E-4,4.744071E-4,0.15,1.0,0.0,14276,9881.40,0,0,0,0.70,-2.59,0.07,0.15,1.00,0.00
0.39257812,1.660306E-4,0.00122476,-0.001525593,0.15,1.0,-0.0,14291,9882.70,0,0,165,0.70,-2.52,-0.07,0.15,1.00,-0.00
-0.6074219,-0.0018339688,0.0022247583,0.0014744072,0.15,1.0,-0.0,14299,9881.70,0,0,0,0.56,-2.45,0.14,0.15,1.00,-0.00
0.39257812,-8.3396956E-4,0.0032247566,0.0014744072,0.15,1.0,-0.0,14317,9882.70,0,0,165,0.63,-2.38,0.14,0.15,1.00,-0.00
-0.6074219,1.660306E-4,2.2475794E-4,0.0024744067,0.15,1.0,0.0,14330,9881.70,0,0,0,0.70,-2.59,0.21,0.15,1.00,0.00
0.6923828,1.660306E-4,0.00122476,0.0014744072,0.15,1.0,0.0,14337,9883.00,0,0,165,0.70,-2.52,0.14,0.15,1.00,0.00
1.2919922,0.0011660308,0.0032247566,-5.2559294E-4,0.15,1.0,-0.0,14352,9883.60,0,0,0,0.77,-2.38,0.00,0.15,1.00,-0.00
0.39257812,0.0011660308,2.2475794E-4,-0.001525593,0.15,1.0,-0.0,14367,9882.70,0,0,165,0.77,-2.59,-0.07,0.15,1.00,-0.00
-0.6074219,1.660306E-4,0.00122476,-0.0035255929,0.15,1.0,-0.12,14374,9881.70,0,0,0,0.70,-2.52,-0.21,0.15,1.00,-0.12
-0.6074219,1.660306E-4,0.00122476,-0.001525593,0.15,0.99,-0.0,14392,9881.70,0,0,165,0.70,-2.52,-0.07,0.15,0.99,-0.00
1.6923828,0.0011660308,0.00122476,-5.2559294E-4,0.15,1.0,-0.0,14404,9884.00,0,0,0,0.77,-2.52,0.00,0.15,1.00,-0.00
0.39257812,-0.0018339688,2.2475794E-4,0.0014744072,0.16,1.0,-0.0,14412,9882.70,0,0,165,0.56,-2.59,0.14,0.16,1.00,-0.00
-0.6074219,-0.0018339688,-7.752441E-4,0.0024744067,0.15,1.0,0.0,14433,9881.70,0,0,0,0.56,-2.66,0.21,0.15,1.00,0.00
0.39257812,-0.0018339688,-0.0027752407,0.004474407,0.15,1.0,0.0,14455,9882.70,0,0,165,0.56,-2.80,0.35,0.15,1.00,0.00
-0.3076172,0.0011660308,-0.003775239,0.004474407,0.15,1.0,-0.0,14456,9882.00,0,0,0,0.77,-2.87,0.35,0.15,1.00,-0.00
-0.3076172,0.0041660313,-0.0027752407,0.0054744068,0.15,1.0,-0.0,14466,9882.00,0,0,165,0.98,-2.80,0.42,0.15,1.00,-0.00
-0.3076172,0.0011660308,-0.005775243,0.004474407,0.15,1.0,0.0,14479,9882.00,0,0,0,0.77,-3.01,0.35,0.15,1.00,0.00
-0.3076172,-0.002833969,-0.003775239,0.0034744074,0.15,1.0,0.0,14487,9882.00,0,0,165,0.49,-2.87,0.28,0.15,1.00,0.00
-0.6074219,1.660306E-4,-0.005775243,4.744071E-4,0.15,1.0,-0.0,14502,9881.70,0,0,0,0.70,-3.01,0.07,0.15,1.00,-0.00
-0.3076172,0.0051660305,-0.0027752407,-0.001525593,0.15,1.0,0.0,14520,9882.00,0,0,165,1.05,-2.80,-0.07,0.15,1.00,0.00
-0.3076172,0.0071660317,-0.0027752407,-0.001525593,0.15,1.0,-0.0,14525,9882.00,0,0,0,1.19,-2.80,-0.07,0.15,1.00,-0.00
0.6923828,0.0061660316,-7.752441E-4,-0.001525593,0.15,1.0,-0.0,14539,9883.00,0,0,165,1.12,-2.66,-0.07,0.15,1.00,-0.00
-0.6074219,0.0061660316,-0.0027752407,-0.007525593,0.15,1.0,-0.0,14555,9881.70,0,0,0,1.12,-2.80,-0.49,0.15,1.00,-0.00
-1.2080078,-8.3396956E-4,-0.0027752407,-0.007525593,0.15,1.0,0.0,14562,9881.10,0,0,165,0.63,-2.80,-0.49,0.15,1.00,0.00
0.6923828,-0.0018339688,-7.752441E-4,-0.007525593,0.15,1.0,0.0,14577,9883.00,0,0,0,0.56,-2.66,-0.49,0.15,1.00,0.00
0.09277344,-0.0048339693,0.00122476,-0.0035255929,0.15,1.0,0.0,14591,9882.40,0,0,165,0.35,-2.52,-0.21,0.15,1.00,0.00
0.6923828,-0.002833969,0.0032247566,-5.2559294E-4,0.15,1.01,-0.0,14600,9883.00,0,0,0,0.49,-2.38,0.00,0.15,1.01,-0.00
-0.3076172,-8.3396956E-4,0.006224757,0.0054744068,0.15,1.0,-0.0,14614,9882.00,0,0,165,0.63,-2.17,0.42,0.15,1.00,-0.00
-0.3076172,0.0011660308,0.007224759,0.009474407,0.15,1.0,0.0,14630,9882.00,0,0,0,0.77,-2.10,0.70,0.15,1.00,0.00
-0.3076172,0.00216603,0.008224759,0.011474406,0.15,1.0,-0.0,14637,9882.00,0,0,165,0.84,-2.03,0.84,0.15,1.00,-0.00
-0.3076172,-8.3396956E-4,0.0042247586,0.012474407,0.15,0.99,-0.0,14652,9882.00,0,0,0,0.63,-2.31,0.91,0.15,0.99,-0.00
-0.3076172,-8.3396956E-4,-7.752441E-4,0.009474407,0.15,1.0,-0.0,14666,9882.00,0,0,165,0.63,-2.66,0.70,0.15,1.00,-0.00
-0.3076172,-0.002833969,-0.0027752407,0.008474407,0.15,1.0,-0.01,14674,9882.00,0,0,0,0.49,-2.80,0.63,0.15,1.00,-0.01
0.6923828,-0.005833969,-0.0067752413,0.008474407,0.15,1.0,-0.01,14689,9883.00,0,0,165,0.28,-3.08,0.63,0.15,1.00,-0.01
-0.3076172,-0.0038339696,-0.00977524,0.0064744074,0.15,1.0,-0.01,14705,9882.00,0,0,0,0.42,-3.29,0.49,0.15,1.00,-0.01
0.6923828,-0.0018339688,-0.010775238,0.0054744068,0.15,1.0,-0.0,14712,9883.00,0,0,165,0.56,-3.36,0.42,0.15,1.00,-0.00
-0.3076172,-8.3396956E-4,-0.011775244,0.0034744074,0.15,1.0,0.0,14727,9882.00,0,0,0,0.63,-3.43,0.28,0.15,1.00,0.00
-0.3076172,1.660306E-4,-0.010775238,0.0024744067,0.15,1.0,0.0,14742,9882.00,0,0,165,0.70,-3.36,0.21,0.15,1.00,0.00
0.09277344,-0.0038339696,-0.004775241,-5.2559294E-4,0.15,1.0,0.0,14749,9882.40,0,0,0,0.42,-2.94,0.00,0.15,1.00,0.00
0.09277344,-0.0048339693,-0.0027752407,-0.0025255932,0.15,1.0,0.0,14764,9882.40,0,0,165,0.35,-2.80,-0.14,0.15,1.00,0.00
0.9921875,-0.0018339688,0.00122476,-0.0025255932,0.15,1.0,0.0,14779,9883.30,0,0,0,0.56,-2.52,-0.14,0.15,1.00,0.00
-0.3076172,-0.0018339688,0.0032247566,-5.2559294E-4,0.15,0.99,0.0,14786,9882.00,0,0,165,0.56,-2.38,0.00,0.15,0.99,0.00
-0.3076172,0.0011660308,0.005224757,0.004474407,0.15,1.0,-0.0,14801,9882.00,0,0,0,0.77,-2.24,0.35,0.15,1.00,-0.00
0.09277344,0.00216603,0.005224757,0.0034744074,0.15,1.0,-0.0,14817,9882.40,0,0,165,0.84,-2.24,0.28,0.15,1.00,-0.00
0.09277344,0.0051660305,0.0042247586,0.0024744067,0.15,1.0,-0.0,14824,9882.40,0,0,0,1.05,-2.31,0.21,0.15,1.00,-0.00
0.9921875,0.0041660313,-7.752441E-4,-0.004525593,0.15,0.99,0.0,14839,9883.30,0,0,165,0.98,-2.66,-0.28,0.15,0.99,0.00
0.09277344,1.660306E-4,-0.005775243,-0.0025255932,0.15,0.99,0.0,14854,9882.40,0,0,0,0.70,-3.01,-0.14,0.15,0.99,0.00
0.09277344,-0.002833969,-0.005775243,-0.004525593,0.15,1.0,-0.0,14862,9882.40,0,0,165,0.49,-3.01,-0.28,0.15,1.00,-0.00
-0.3076172,-0.002833969,-0.0077752434,-0.0035255929,0.15,1.0,-0.0,14877,9882.00,0,0,0,0.49,-3.15,-0.21,0.15,1.00,-0.00
-0.3076172,-0.002833969,-0.005775243,-5.2559294E-4,0.15,1.0,0.0,14884,9882.00,0,0,165,0.49,-3.01,0.00,0.15,1.00,0.00
-0.90722656,-0.0018339688,-0.004775241,0.0014744072,0.15,1.0,0.0,14899,9881.40,0,0,0,0.56,-2.94,0.14,0.15,1.00,0.00
0.09277344,0.0011660308,-7.752441E-4,0.0054744068,0.15,1.0,0.0,14914,9882.40,0,0,165,0.77,-2.66,0.42,0.15,1.00,0.00
-0.90722656,0.0041660313,-7.752441E-4,0.0054744068,0.15,1.0,0.0,14922,9881.40,0,0,0,0.98,-2.66,0.42,0.15,1.00,0.00
-0.90722656,0.00216603,-0.003775239,0.008474407,0.15,1.0,0.0,14936,9881.40,0,0,165,0.84,-2.87,0.63,0.15,1.00,0.00
0.09277344,-8.3396956E-4,-0.005775243,0.011474406,0.15,0.99,-0.0,14951,9882.40,0,0,0,0.63,-3.01,0.84,0.15,0.99,-0.00
0.09277344,-0.0038339696,-0.008775242,0.013474408,0.16,0.99,-0.0,14966,9882.40,0,0,165,0.42,-3.22,0.98,0.16,0.99,-0.00
0.39257812,-0.0038339696,-0.012775242,0.012474407,0.16,0.99,-0.0,14974,9882.70,0,0,0,0.42,-3.50,0.91,0.16,0.99,-0.00
-1.9072266,-0.0068339696,-0.014775243,0.011474406,0.15,0.99,-0.0,14989,9880.40,0,0,165,0.21,-3.64,0.84,0.15,0.99,-0.00
0.9921875,-0.005833969,-0.018775243,0.011474406,0.15,1.0,-0.0,14996,9883.30,0,0,0,0.28,-3.92,0.84,0.15,1.00,-0.00
-0.6074219,-0.0048339693,-0.018775243,0.011474406,0.16,0.99,0.0,15011,9881.70,0,0,165,0.35,-3.92,0.84,0.16,0.99,0.00
-0.6074219,-0.008833969,-0.02077524,0.011474406,0.16,1.0,0.0,15026,9881.70,0,0,0,0.07,-4.06,0.84,0.16,1.00,0.00
0.39257812,-0.008833969,-0.02077524,0.013474408,0.16,1.0,0.0,15034,9882.70,0,0,165,0.07,-4.06,0.98,0.16,1.00,0.00
0.09277344,-0.009833969,-0.018775243,0.012474407,0.16,1.0,0.0,15050,9882.40,0,0,0,0.00,-3.92,0.91,0.16,1.00,0.00
-0.6074219,-0.008833969,-0.019775242,0.013474408,0.15,1.0,-0.0,15064,9881.70,0,0,165,0.07,-3.99,0.98,0.15,1.00,-0.00
0.09277344,-0.0018339688,-0.018775243,0.016474407,0.16,1.0,0.0,15072,9882.40,0,0,0,0.56,-3.92,1.19,0.16,1.00,0.00
0.09277344,0.00216603,-0.019775242,0.017474405,0.16,0.99,0.0,15087,9882.40,0,0,165,0.84,-3.99,1.26,0.16,0.99,0.00
0.39257812,0.0041660313,-0.025775243,0.019474406,0.16,0.99,0.0,15102,9882.70,0,0,0,0.98,-4.41,1.40,0.16,0.99,0.00
0.09277344,0.0071660317,-0.030775245,0.022474406,0.16,1.0,-0.01,15109,9882.40,0,0,165,1.19,-4.76,1.61,0.16,1.00,-0.01
0.39257812,0.009166032,-0.03977524,0.025474407,0.16,0.99,-0.0,15124,9882.70,0,0,0,1.33,-5.39,1.82,0.16,0.99,-0.00
0.39257812,0.015166031,-0.048775245,0.027474407,0.16,0.99,-0.0,15140,9882.70,0,0,165,1.75,-6.02,1.96,0.16,0.99,-0.00
0.09277344,0.025166031,-0.052775245,0.036474407,0.16,1.0,-0.0,15147,9882.40,0,0,0,2.45,-6.30,2.59,0.16,1.00,-0.00
0.39257812,0.03216603,-0.051775243,0.040474404,0.16,1.0,-0.01,15162,9882.70,0,0,165,2.94,-6.23,2.87,0.16,1.00,-0.01
0.39257812,0.03016603,-0.051775243,0.040474404,0.16,1.0,-0.01,15177,9882.70,0,0,0,2.80,-6.23,2.87,0.16,1.00,-0.01
0.39257812,0.022166032,-0.051775243,0.039474405,0.16,1.0,-0.0,15184,9882.70,0,0,165,2.24,-6.23,2.80,0.16,1.00,-0.00
-0.6074219,0.027166031,-0.052775245,0.042474408,0.15,1.0,0.0,15199,9881.70,0,0,0,2.59,-6.30,3.01,0.15,1.00,0.00
-0.6074219,0.022166032,-0.038775247,0.040474404,0.15,1.0,0.0,15214,9881.70,0,0,165,2.24,-5.32,2.87,0.15,1.00,0.00
-1.6074219,0.009166032,-0.032775242,0.036474407,0.15,1.0,-0.0,15222,9880.70,0,0,0,1.33,-4.90,2.59,0.15,1.00,-0.00
-5.708008,-0.0048339693,-0.028775241,0.034474406,0.16,1.0,-0.0,15236,9876.60,0,0,165,0.35,-4.62,2.45,0.16,1.00,-0.00
-6.4072266,-0.01383397,-0.025775243,0.032474406,0.16,1.0,-0.0,15252,9875.90,0,0,0,-0.28,-4.41,2.31,0.16,1.00,-0.00
-9.307617,-0.014833969,-0.02277524,0.030474408,0.16,0.99,0.0,15260,9873.00,0,0,165,-0.35,-4.20,2.17,0.16,0.99,0.00
-10.208008,-0.0068339696,-0.010775238,0.043474406,0.16,1.0,-0.0,15274,9872.10,0,0,0,0.21,-3.36,3.08,0.16,1.00,-0.00
-11.208008,-0.0118339695,-0.011775244,0.044474408,0.16,1.0,-0.0,15289,9871.10,0,0,165,-0.14,-3.43,3.15,0.16,1.00,-0.00
-13.107422,-0.015833968,-0.015775241,0.038474407,0.16,1.0,-0.01,15296,9869.20,0,0,0,-0.42,-3.71,2.73,0.16,1.00,-0.01
-13.5078125,-0.0068339696,-0.018775243,0.040474404,0.16,1.0,-0.01,15311,9868.80,0,0,165,0.21,-3.92,2.87,0.16,1.00,-0.01
-13.107422,1.660306E-4,-0.023775242,0.033474408,0.16,1.0,-0.01,15327,9869.20,0,0,0,0.70,-4.27,2.38,0.16,1.00,-0.01
-13.107422,-0.002833969,-0.024775244,0.032474406,0.16,1.0,-0.0,15335,9869.20,0,0,165,0.49,-4.34,2.31,0.16,1.00,-0.00
-14.107422,-0.0048339693,-0.019775242,0.029474406,0.16,1.0,-0.0,15350,9868.20,0,0,0,0.35,-3.99,2.10,0.16,1.00,-0.00
-16.708008,-0.0038339696,-0.021775242,0.028474405,0.16,1.0,-0.0,15364,9865.60,0,0,165,0.42,-4.13,2.03,0.16,1.00,-0.00
-18.007812,-0.010833969,-0.021775242,0.025474407,0.16,1.0,-0.0,15372,9864.30,0,0,0,-0.07,-4.13,1.82,0.16,1.00,-0.00
-17.607422,-0.016833968,-0.019775242,0.021474406,0.16,1.0,0.0,15387,9864.70,0,0,165,-0.49,-3.99,1.54,0.16,1.00,0.00
-18.007812,-0.012833969,-0.017775241,0.021474406,0.16,1.0,0.0,15403,9864.30,0,0,0,-0.21,-3.85,1.54,0.16,1.00,0.00
-17.007812,-0.010833969,-0.021775242,0.020474406,0.16,1.0,0.0,15409,9865.30,0,0,165,-0.07,-4.13,1.47,0.16,1.00,0.00
-17.607422,-0.008833969,-0.018775243,0.019474406,0.17,1.0,0.0,15424,9864.70,0,0,0,0.07,-3.92,1.40,0.17,1.00,0.00
-18.307617,-0.005833969,-0.019775242,0.019474406,0.17,1.0,0.0,15439,9864.00,0,0,165,0.28,-3.99,1.40,0.17,1.00,0.00
-18.907227,-0.002833969,-0.011775244,0.017474405,0.17,1.0,0.0,15446,9863.40,0,0,0,0.49,-3.43,1.26,0.17,1.00,0.00
-18.607422,0.00216603,-0.015775241,0.016474407,0.17,1.0,0.0,15462,9863.70,0,0,165,0.84,-3.71,1.19,0.17,1.00,0.00
-18.907227,0.0041660313,-0.00977524,0.017474405,0.16,1.0,0.0,15477,9863.40,0,0,0,0.98,-3.29,1.26,0.16,1.00,0.00
-18.007812,0.0061660316,-0.005775243,0.020474406,0.16,1.0,0.0,15484,9864.30,0,0,165,1.12,-3.01,1.47,0.16,1.00,0.00
-18.607422,1.660306E-4,-0.0067752413,0.018474407,0.17,1.0,-0.0,15499,9863.70,0,0,0,0.70,-3.08,1.33,0.17,1.00,-0.00
-17.307617,0.00216603,-0.00977524,0.017474405,0.17,1.0,-0.0,15522,9865.00,0,0,165,0.84,-3.29,1.26,0.17,1.00,-0.00
-20.507812,0.00216603,-0.015775241,0.015474408,0.17,0.99,-0.01,15523,9861.80,0,0,0,0.84,-3.71,1.12,0.17,0.99,-0.01
-20.507812,0.0061660316,-0.015775241,0.015474408,0.17,0.99,-0.01,15537,9861.80,0,0,165,1.12,-3.71,1.12,0.17,0.99,-0.01
-19.607422,0.0051660305,-0.023775242,0.010474407,0.17,0.99,-0.0,15552,9862.70,0,0,0,1.05,-4.27,0.77,0.17,0.99,-0.00
-19.307617,0.011166031,-0.028775241,0.0074744076,0.17,1.0,-0.0,15559,9863.00,0,0,165,1.47,-4.62,0.56,0.17,1.00,-0.00
-20.507812,0.011166031,-0.032775242,0.0024744067,0.17,1.0,0.0,15574,9861.80,0,0,0,1.47,-4.90,0.21,0.17,1.00,0.00
-20.507812,0.0061660316,-0.033775236,0.0014744072,0.17,1.0,0.0,15589,9861.80,0,0,165,1.12,-4.97,0.14,0.17,1.00,0.00
-20.208008,-0.0038339696,-0.026775245,0.0064744074,0.16,1.0,0.0,15604,9862.10,0,0,0,0.42,-4.48,0.49,0.16,1.00,0.00
-21.807617,-0.002833969,-0.016775243,0.011474406,0.17,1.0,0.0,15612,9860.50,0,0,165,0.49,-3.78,0.84,0.17,1.00,0.00
-20.507812,1.660306E-4,-0.010775238,0.019474406,0.17,1.0,-0.0,15627,9861.80,0,0,0,0.70,-3.36,1.40,0.17,1.00,-0.00
-22.507812,0.01016603,-0.00977524,0.023474405,0.17,0.99,-0.0,15634,9859.80,0,0,165,1.40,-3.29,1.68,0.17,0.99,-0.00
-21.507812,0.014166029,-0.008775242,0.026474407,0.17,0.99,-0.0,15649,9860.80,0,0,0,1.68,-3.22,1.89,0.17,0.99,-0.00
-22.507812,0.016166031,-0.005775243,0.030474408,0.17,0.99,-0.0,15664,9859.80,0,0,165,1.82,-3.01,2.17,0.17,0.99,-0.00
-22.208008,0.009166032,-0.004775241,0.030474408,0.17,0.99,-0.0,15672,9860.10,0,0,0,1.33,-2.94,2.17,0.17,0.99,-0.00
-22.807617,0.0051660305,-0.008775242,0.027474407,0.17,0.99,-0.0,15687,9859.50,0,0,165,1.05,-3.22,1.96,0.17,0.99,-0.00
-21.507812,1.660306E-4,-0.010775238,0.023474405,0.17,0.99,-0.01,15701,9860.80,0,0,0,0.70,-3.36,1.68,0.17,0.99,-0.01
-20.208008,-0.0038339696,-0.013775241,0.021474406,0.18,0.99,-0.0,15709,9862.10,0,0,165,0.42,-3.57,1.54,0.18,0.99,-0.00
-20.507812,-0.0048339693,-0.016775243,0.020474406,0.18,1.0,-0.01,15725,9861.80,0,0,0,0.35,-3.78,1.47,0.18,1.00,-0.01
-20.507812,-0.0048339693,-0.019775242,0.020474406,0.18,1.0,-0.0,15739,9861.80,0,0,165,0.35,-3.99,1.47,0.18,1.00,-0.00
-19.307617,-0.007833969,-0.02277524,0.015474408,0.17,1.0,-0.0,15747,9863.00,0,0,0,0.14,-4.20,1.12,0.17,1.00,-0.00
-19.607422,-0.0048339693,-0.025775243,0.015474408,0.17,1.0,-0.0,15761,9862.70,0,0,165,0.35,-4.41,1.12,0.17,1.00,-0.00
-19.307617,-0.002833969,-0.026775245,0.016474407,0.18,1.0,-0.0,15777,9863.00,0,0,0,0.49,-4.48,1.19,0.18,1.00,-0.00
-18.607422,-8.3396956E-4,-0.029775243,0.015474408,0.17,1.0,0.0,15784,9863.70,0,0,165,0.63,-4.69,1.12,0.17,1.00,0.00
-19.307617,0.003166031,-0.027775247,0.016474407,0.17,0.99,0.0,15799,9863.00,0,0,0,0.91,-4.55,1.19,0.17,0.99,0.00
-19.307617,0.00216603,-0.018775243,0.021474406,0.17,0.99,-0.0,15814,9863.00,0,0,165,0.84,-3.92,1.54,0.17,0.99,-0.00
-17.007812,0.0061660316,-0.015775241,0.022474406,0.17,1.0,-0.0,15822,9865.30,0,0,0,1.12,-3.71,1.61,0.17,1.00,-0.00
-18.307617,0.0071660317,-0.014775243,0.016474407,0.17,0.99,-0.0,15837,9864.00,0,0,165,1.19,-3.64,1.19,0.17,0.99,-0.00
-17.007812,0.003166031,-0.00977524,0.015474408,0.17,0.99,0.12,15852,9865.30,0,0,0,0.91,-3.29,1.12,0.17,0.99,0.12
-17.007812,0.0011660308,-0.011775244,0.014474407,0.17,1.0,-0.0,15859,9865.30,0,0,165,0.77,-3.43,1.05,0.17,1.00,-0.00
-17.307617,0.0011660308,-0.013775241,0.009474407,0.17,1.0,-0.01,15874,9865.00,0,0,0,0.77,-3.57,0.70,0.17,1.00,-0.01
-16.407227,-0.0018339688,-0.008775242,0.010474407,0.18,1.0,-0.01,15889,9865.90,0,0,165,0.56,-3.22,0.77,0.18,1.00,-0.01
-16.007812,0.0051660305,-0.004775241,0.012474407,0.18,1.0,-0.01,15897,9866.30,0,0,0,1.05,-2.94,0.91,0.18,1.00,-0.01
-15.407227,0.0061660316,2.2475794E-4,0.014474407,0.17,1.0,-0.0,15911,9866.90,0,0,165,1.12,-2.59,1.05,0.17,1.00,-0.00
-15.107422,0.01016603,2.2475794E-4,0.017474405,0.18,1.0,-0.0,15926,9867.20,0,0,0,1.40,-2.59,1.26,0.18,1.00,-0.00
-14.107422,0.0061660316,0.0032247566,0.017474405,0.18,1.0,-0.0,15935,9868.20,0,0,165,1.12,-2.38,1.26,0.18,1.00,-0.00
-15.107422,0.0041660313,-0.003775239,0.014474407,0.18,0.99,-0.0,15949,9867.20,0,0,0,0.98,-2.87,1.05,0.18,0.99,-0.00
-14.107422,0.003166031,-0.005775243,0.010474407,0.18,0.99,-0.01,15964,9868.20,0,0,165,0.91,-3.01,0.77,0.18,0.99,-0.01
-14.107422,0.003166031,-0.0067752413,0.011474406,0.17,0.99,-0.01,15972,9868.20,0,0,0,0.91,-3.08,0.84,0.17,0.99,-0.01
-12.208008,0.0041660313,-0.011775244,0.012474407,0.18,0.99,-0.0,15987,9870.10,0,0,165,0.98,-3.43,0.91,0.18,0.99,-0.00
-12.208008,0.00816603,-0.011775244,0.011474406,0.17,1.0,-0.0,16002,9870.10,0,0,0,1.26,-3.43,0.84,0.17,1.00,-0.00
-10.208008,0.01016603,-0.005775243,0.012474407,0.17,0.99,-0.0,16009,9872.10,0,0,165,1.40,-3.01,0.91,0.17,0.99,-0.00
-8.307617,0.015166031,-0.004775241,0.010474407,0.17,1.0,-0.0,16024,9874.00,0,0,0,1.75,-2.94,0.77,0.17,1.00,-0.00
-7.307617,0.016166031,-0.003775239,0.008474407,0.17,0.99,-0.01,16039,9875.00,0,0,165,1.82,-2.87,0.63,0.17,0.99,-0.01
-6.4072266,0.02016603,-0.0077752434,0.0064744074,0.17,0.99,-0.01,16047,9875.90,0,0,0,2.10,-3.15,0.49,0.17,0.99,-0.01
-3.5078125,0.016166031,-0.0067752413,0.0014744072,0.17,0.99,-0.01,16061,9878.80,0,0,165,1.82,-3.08,0.14,0.17,0.99,-0.01
-1.6074219,0.017166032,-0.0067752413,-0.2565256,0.18,0.99,-0.01,16077,9880.70,0,0,0,1.89,-3.08,-17.92,0.18,0.99,-0.01
0.39257812,0.016166031,-0.011775244,-0.008525593,0.18,0.99,-0.01,16084,9882.70,0,0,165,1.82,-3.43,-0.56,0.18,0.99,-0.01
2.2919922,0.014166029,-0.017775241,-0.011525593,0.18,0.99,-0.01,16099,9884.60,0,0,0,1.68,-3.85,-0.77,0.18,0.99,-0.01
4.892578,0.009166032,-0.016775243,-0.014525593,0.18,0.99,-0.01,16114,9887.20,0,0,165,1.33,-3.78,-0.98,0.18,0.99,-0.01
7.0927734,0.0041660313,-0.010775238,-0.022525594,0.17,0.99,-0.01,16121,9889.40,0,0,0,0.98,-3.36,-1.54,0.17,0.99,-0.01
9.392578,0.00216603,-0.0067752413,-0.029525593,0.18,0.99,-0.01,16137,9891.70,0,0,165,0.84,-3.08,-2.03,0.18,0.99,-0.01
11.9921875,-0.0018339688,-7.752441E-4,-0.032525595,0.18,1.0,-0.01,16152,9894.30,0,0,0,0.56,-2.66,-2.24,0.18,1.00,-0.01
12.892578,-0.0018339688,-0.0017752424,-0.034525596,0.18,0.99,-0.0,16159,9895.20,0,0,165,0.56,-2.73,-2.38,0.18,0.99,-0.00
13.892578,0.003166031,-0.003775239,-0.034525596,0.18,0.99,-0.01,16174,9896.20,0,0,0,0.91,-2.87,-2.38,0.18,0.99,-0.01
14.892578,0.00216603,-0.0027752407,-0.033525594,0.18,0.99,-0.01,16190,9897.20,0,0,165,0.84,-2.80,-2.31,0.18,0.99,-0.01
17.092773,0.0041660313,0.00122476,-0.030525593,0.18,0.99,-0.0,16197,9899.40,0,0,0,0.98,-2.52,-2.10,0.18,0.99,-0.00
17.092773,0.0051660305,-0.0017752424,-0.027525594,0.18,1.0,-0.0,16212,9899.40,0,0,165,1.05,-2.73,-1.89,0.18,1.00,-0.00
18.692383,0.0041660313,-0.0027752407,-0.023525594,0.17,0.99,-0.01,16227,9901.00,0,0,0,0.98,-2.80,-1.61,0.17,0.99,-0.01
18.692383,0.0011660308,0.00122476,-0.021525593,0.18,0.99,-0.01,16234,9901.00,0,0,165,0.77,-2.52,-1.47,0.18,0.99,-0.01
19.692383,-0.0018339688,0.0032247566,-0.022525594,0.18,1.0,-0.01,16249,9902.00,0,0,0,0.56,-2.38,-1.54,0.18,1.00,-0.01
19.992188,-0.002833969,0.0042247586,-0.022525594,0.18,0.99,-0.01,16264,9902.30,0,0,165,0.49,-2.31,-1.54,0.18,0.99,-0.01
20.692383,-0.0068339696,0.0032247566,-0.023525594,0.18,0.99,-0.01,16271,9903.00,0,0,0,0.21,-2.38,-1.61,0.18,0.99,-0.01
19.692383,-0.0038339696,-0.003775239,-0.021525593,0.18,0.99,-0.01,16287,9902.00,0,0,165,0.42,-2.87,-1.47,0.18,0.99,-0.01
20.992188,-0.0018339688,-0.0067752413,-0.017525595,0.18,0.99,-0.01,16301,9903.30,0,0,0,0.56,-3.08,-1.19,0.18,0.99,-0.01
19.092773,1.660306E-4,-0.011775244,-0.011525593,0.17,1.0,-0.01,16310,9901.40,0,0,165,0.70,-3.43,-0.77,0.17,1.00,-0.01
18.692383,-0.0018339688,-0.010775238,-0.007525593,0.17,0.99,-0.01,16324,9901.00,0,0,0,0.56,-3.36,-0.49,0.17,0.99,-0.01
19.092773,-0.002833969,-0.008775242,-0.0065255924,0.17,0.99,-0.01,16339,9901.40,0,0,165,0.49,-3.22,-0.42,0.17,0.99,-0.01
16.791992,-0.0048339693,-0.00977524,-0.0055255927,0.17,0.99,0.0,16347,9899.10,0,0,0,0.35,-3.29,-0.35,0.17,0.99,0.00
15.192383,-0.008833969,-0.008775242,-0.007525593,0.17,1.0,-0.0,16362,9897.50,0,0,165,0.07,-3.22,-0.49,0.17,1.00,-0.00
14.192383,-0.0068339696,-0.00977524,-0.0055255927,0.17,1.0,-0.01,16377,9896.50,0,0,0,0.21,-3.29,-0.35,0.17,1.00,-0.01
13.291992,0.0011660308,-0.010775238,-0.007525593,0.17,0.99,-0.0,16385,9895.60,0,0,165,0.77,-3.36,-0.49,0.17,0.99,-0.00
10.9921875,0.01016603,-0.004775241,-0.008525593,0.17,0.99,-0.0,16400,9893.30,0,0,0,1.40,-2.94,-0.56,0.17,0.99,-0.00
9.692383,0.0071660317,-7.752441E-4,-0.008525593,0.16,1.0,-0.0,16415,9892.00,0,0,165,1.19,-2.66,-0.56,0.16,1.00,-0.00
9.392578,0.011166031,0.0022247583,-0.007525593,0.17,1.0,-0.0,16422,9891.70,0,0,0,1.47,-2.45,-0.49,0.17,1.00,-0.00
9.392578,0.009166032,0.005224757,-0.012525592,0.17,1.0,-0.0,16437,9891.70,0,0,165,1.33,-2.24,-0.84,0.17,1.00,-0.00
9.392578,0.0051660305,0.008224759,-0.0155255925,0.17,1.0,-0.0,16452,9891.70,0,0,0,1.05,-2.03,-1.05,0.17,1.00,-0.00
8.392578,0.0051660305,0.011224758,-0.017525595,0.17,1.0,-0.01,16459,9890.70,0,0,165,1.05,-1.82,-1.19,0.17,1.00,-0.01
7.4921875,0.0041660313,0.01322476,-0.017525595,0.17,1.0,-0.01,16474,9889.80,0,0,0,0.98,-1.68,-1.19,0.17,1.00,-0.01
7.4921875,0.0061660316,0.015224759,-0.012525592,0.17,0.99,-0.01,16489,9889.80,0,0,165,1.12,-1.54,-0.84,0.17,0.99,-0.01
6.4921875,0.0041660313,0.016224759,-0.0065255924,0.17,1.0,-0.01,16497,9888.80,0,0,0,0.98,-1.47,-0.42,0.17,1.00,-0.01
6.4921875,0.0041660313,0.016224759,-0.0055255927,0.17,0.99,-0.01,16519,9888.80,0,0,165,0.98,-1.47,-0.35,0.17,0.99,-0.01
6.192383,0.0051660305,0.011224758,-0.004525593,0.17,0.99,-0.01,16527,9888.50,0,0,0,1.05,-1.82,-0.28,0.17,0.99,-0.01
5.4921875,1.660306E-4,0.005224757,-0.001525593,0.17,0.99,-0.01,16534,9887.80,0,0,165,0.70,-2.24,-0.07,0.17,0.99,-0.01
4.5927734,0.0011660308,0.0022247583,-0.001525593,0.17,0.99,-0.01,16549,9886.90,0,0,0,0.77,-2.45,-0.07,0.17,0.99,-0.01
4.5927734,0.00216603,0.00122476,-5.2559294E-4,0.17,0.99,-0.01,16564,9886.90,0,0,165,0.84,-2.52,0.00,0.17,0.99,-0.01
4.5927734,-0.0018339688,0.00122476,4.744071E-4,0.17,1.0,-0.01,16571,9886.90,0,0,0,0.56,-2.52,0.07,0.17,1.00,-0.01
4.192383,1.660306E-4,-0.005775243,-0.0025255932,0.17,1.0,-0.01,16587,9886.50,0,0,165,0.70,-3.01,-0.14,0.17,1.00,-0.01
3.5927734,-0.0018339688,-0.008775242,-0.004525593,0.17,0.99,-0.01,16602,9885.90,0,0,0,0.56,-3.22,-0.28,0.17,0.99,-0.01
2.5927734,-0.0038339696,-0.00977524,-0.007525593,0.17,1.0,-0.01,16617,9884.90,0,0,165,0.42,-3.29,-0.49,0.17,1.00,-0.01
1.6923828,-8.3396956E-4,-0.008775242,-0.007525593,0.17,0.99,-0.01,16624,9884.00,0,0,0,0.63,-3.22,-0.49,0.17,0.99,-0.01
2.5927734,-0.0018339688,-0.008775242,-0.008525593,0.17,1.0,-0.01,16639,9884.90,0,0,165,0.56,-3.22,-0.56,0.17,1.00,-0.01
2.9921875,-0.0048339693,-0.004775241,-0.0025255932,0.17,0.99,-0.0,16647,9885.30,0,0,0,0.35,-2.94,-0.14,0.17,0.99,-0.00
1.6923828,-0.005833969,2.2475794E-4,4.744071E-4,0.17,0.99,-0.0,16662,9884.00,0,0,165,0.28,-2.59,0.07,0.17,0.99,-0.00
1.9921875,-0.0048339693,0.00122476,0.0034744074,0.17,1.0,-0.01,16676,9884.30,0,0,0,0.35,-2.52,0.28,0.17,1.00,-0.01
1.9921875,0.0011660308,0.00122476,0.0024744067,0.16,1.0,-0.0,16684,9884.30,0,0,165,0.77,-2.52,0.21,0.16,1.00,-0.00
1.6923828,0.0011660308,0.00122476,-0.001525593,0.17,0.99,-0.0,16699,9884.00,0,0,0,0.77,-2.52,-0.07,0.17,0.99,-0.00
1.6923828,-0.002833969,0.0042247586,-0.0035255929,0.16,0.99,-0.01,16715,9884.00,0,0,165,0.49,-2.31,-0.21,0.16,0.99,-0.01
1.6923828,-0.008833969,0.00122476,-0.0055255927,0.16,1.0,-0.01,16722,9884.00,0,0,0,0.07,-2.52,-0.35,0.16,1.00,-0.01
1.6923828,-0.007833969,0.00122476,-0.0065255924,0.16,1.0,-0.01,16737,9884.00,0,0,165,0.14,-2.52,-0.42,0.16,1.00,-0.01
0.9921875,-0.005833969,2.2475794E-4,-0.007525593,0.16,1.0,-0.01,16752,9883.30,0,0,0,0.28,-2.59,-0.49,0.16,1.00,-0.01
0.6923828,-8.3396956E-4,0.007224759,-0.004525593,0.17,1.0,-0.01,16760,9883.00,0,0,165,0.63,-2.10,-0.28,0.17,1.00,-0.01
0.9921875,0.0011660308,0.012224758,-5.2559294E-4,0.17,1.0,-0.0,16775,9883.30,0,0,0,0.77,-1.75,0.00,0.17,1.00,-0.00
0.6923828,0.0061660316,0.009224758,0.0014744072,0.17,1.0,-0.0,16790,9883.00,0,0,165,1.12,-1.96,0.14,0.17,1.00,-0.00
0.39257812,0.0061660316,0.009224758,0.0014744072,0.17,1.0,-0.0,16797,9882.70,0,0,0,1.12,-1.96,0.14,0.17,1.00,-0.00
-0.3076172,0.003166031,0.011224758,0.0024744067,0.16,1.0,-0.01,16812,9882.00,0,0,165,0.91,-1.82,0.21,0.16,1.00,-0.01
-0.3076172,0.0011660308,0.010224758,0.0014744072,0.16,1.0,-0.01,16827,9882.00,0,0,0,0.77,-1.89,0.14,0.16,1.00,-0.01
0.09277344,0.0041660313,0.0042247586,-0.0035255929,0.17,0.99,-0.01,16834,9882.40,0,0,165,0.98,-2.31,-0.21,0.17,0.99,-0.01
-0.90722656,0.0071660317,0.00122476,-0.0025255932,0.17,0.99,-0.01,16849,9881.40,0,0,0,1.19,-2.52,-0.14,0.17,0.99,-0.01
-0.90722656,0.009166032,-0.003775239,-0.0035255929,0.17,0.99,-0.01,16864,9881.40,0,0,165,1.33,-2.87,-0.21,0.17,0.99,-0.01
-1.9072266,0.0061660316,-0.005775243,-0.0035255929,0.17,0.99,-0.01,16872,9880.40,0,0,0,1.12,-3.01,-0.21,0.17,0.99,-0.01
-2.8076172,0.003166031,-0.003775239,-5.2559294E-4,0.17,0.99,-0.0,16886,9879.50,0,0,165,0.91,-2.87,0.00,0.17,0.99,-0.00
-2.8076172,1.660306E-4,-0.0027752407,-5.2559294E-4,0.16,0.99,-0.01,16902,9879.50,0,0,0,0.70,-2.80,0.00,0.16,0.99,-0.01
-2.8076172,1.660306E-4,-0.003775239,-5.2559294E-4,0.16,1.0,-0.0,16909,9879.50,0,0,165,0.70,-2.87,0.00,0.16,1.00,-0.00
-2.8076172,-0.0018339688,-0.0027752407,4.744071E-4,0.17,0.99,-0.0,16924,9879.50,0,0,0,0.56,-2.80,0.07,0.17,0.99,-0.00
-3.5078125,-0.0018339688,-0.0027752407,-0.0035255929,0.17,0.99,-0.0,16939,9878.80,0,0,165,0.56,-2.80,-0.21,0.17,0.99,-0.00
-3.8076172,-0.0038339696,0.0022247583,-0.004525593,0.17,1.0,-0.01,16946,9878.50,0,0,0,0.42,-2.45,-0.28,0.17,1.00,-0.01
-2.8076172,-0.0048339693,0.0032247566,-0.001525593,0.17,1.0,-0.01,16961,9879.50,0,0,165,0.35,-2.38,-0.07,0.17,1.00,-0.01
-2.8076172,-0.005833969,0.005224757,-0.0025255932,0.17,0.99,-0.0,16976,9879.50,0,0,0,0.28,-2.24,-0.14,0.17,0.99,-0.00
-2.8076172,-0.0038339696,0.0022247583,0.0024744067,0.17,1.0,-0.0,16984,9879.50,0,0,165,0.42,-2.45,0.21,0.17,1.00,-0.00
-2.8076172,-0.002833969,0.0022247583,0.0014744072,0.17,0.99,-0.0,16999,9879.50,0,0,0,0.49,-2.45,0.14,0.17,0.99,-0.00
-1.9072266,-0.0038339696,0.00122476,-5.2559294E-4,0.17,1.0,-0.01,17014,9880.40,0,0,165,0.42,-2.52,0.00,0.17,1.00,-0.01
-1.9072266,-0.0018339688,-0.0027752407,4.744071E-4,0.17,1.0,-0.01,17022,9880.40,0,0,0,0.56,-2.80,0.07,0.17,1.00,-0.01
-1.9072266,-0.0018339688,0.00122476,4.744071E-4,0.17,1.0,-0.01,17036,9880.40,0,0,165,0.56,-2.52,0.07,0.17,1.00,-0.01
-1.2080078,-0.0038339696,-0.003775239,4.744071E-4,0.17,1.0,-0.01,17052,9881.10,0,0,0,0.42,-2.87,0.07,0.17,1.00,-0.01
-0.6074219,-0.0038339696,-0.003775239,4.744071E-4,0.17,0.99,-0.01,17059,9881.70,0,0,165,0.42,-2.87,0.07,0.17,0.99,-0.01
-0.90722656,-0.0048339693,-0.0017752424,4.744071E-4,0.17,0.99,-0.01,17074,9881.40,0,0,0,0.35,-2.73,0.07,0.17,0.99,-0.01
-1.9072266,-0.007833969,-0.0017752424,0.0014744072,0.17,1.0,-0.0,17089,9880.40,0,0,165,0.14,-2.73,0.14,0.17,1.00,-0.00
-2.8076172,-0.005833969,-0.004775241,0.0024744067,0.17,1.0,-0.0,17097,9879.50,0,0,0,0.28,-2.94,0.21,0.17,1.00,-0.00
-2.5078125,-0.0038339696,-0.005775243,0.0024744067,0.17,1.0,-0.0,17112,9879.80,0,0,165,0.42,-3.01,0.21,0.17,1.00,-0.00
-2.5078125,-0.0018339688,-0.004775241,0.0054744068,0.17,1.0,-0.0,17127,9879.80,0,0,0,0.56,-2.94,0.42,0.17,1.00,-0.00
-3.8076172,-0.0018339688,-0.008775242,0.008474407,0.17,1.0,-0.0,17134,9878.50,0,0,165,0.56,-3.22,0.63,0.17,1.00,-0.00
-3.8076172,0.003166031,-0.010775238,0.008474407,0.17,1.0,-0.0,17149,9878.50,0,0,0,0.91,-3.36,0.63,0.17,1.00,-0.00
-2.8076172,0.003166031,-0.00977524,0.008474407,0.17,1.0,-0.0,17164,9879.50,0,0,165,0.91,-3.29,0.63,0.17,1.00,-0.00
-3.8076172,0.003166031,-0.012775242,0.004474407,0.16,1.12,-0.0,17171,9878.50,0,0,0,0.91,-3.50,0.35,0.16,1.12,-0.00
-3.5078125,0.0011660308,-0.015775241,0.0014744072,0.16,1.0,-0.0,17187,9878.80,0,0,165,0.77,-3.71,0.14,0.16,1.00,-0.00
-2.5078125,-8.3396956E-4,-0.014775243,-0.001525593,0.17,1.0,-0.0,17201,9879.80,0,0,0,0.63,-3.64,-0.07,0.17,1.00,-0.00
-3.5078125,0.0051660305,-0.008775242,-0.001525593,0.17,0.99,-0.0,17209,9878.80,0,0,165,1.05,-3.22,-0.07,0.17,0.99,-0.00
-4.5078125,0.00816603,-0.004775241,-0.001525593,0.17,0.99,-0.01,17232,9877.80,0,0,0,1.26,-2.94,-0.07,0.17,0.99,-0.01
-4.5078125,0.0071660317,-0.0027752407,-0.0065255924,0.17,1.0,-0.01,17239,9877.80,0,0,165,1.19,-2.80,-0.42,0.17,1.00,-0.01
-5.4072266,0.003166031,-0.003775239,-0.0055255927,0.17,0.99,0.0,17247,9876.90,0,0,0,0.91,-2.87,-0.35,0.17,0.99,0.00
-6.4072266,-0.0018339688,-0.010775238,-0.0035255929,0.17,0.99,0.0,17262,9875.90,0,0,165,0.56,-3.36,-0.21,0.17,0.99,0.00
-7.307617,-0.009833969,-0.013775241,-5.2559294E-4,0.17,0.99,-0.0,17277,9875.00,0,0,0,0.00,-3.57,0.00,0.17,0.99,-0.00
-8.307617,-0.01383397,-0.012775242,0.0064744074,0.17,1.0,-0.01,17284,9874.00,0,0,165,-0.28,-3.50,0.49,0.17,1.00,-0.01
-9.307617,-0.010833969,-0.012775242,0.014474407,0.17,1.0,-0.0,17299,9873.00,0,0,0,-0.07,-3.50,1.05,0.17,1.00,-0.00
-9.0078125,-0.007833969,-0.012775242,0.019474406,0.17,1.0,-0.01,17314,9873.30,0,0,165,0.14,-3.50,1.40,0.17,1.00,-0.01
-11.5078125,-0.009833969,-0.012775242,0.026474407,0.17,1.0,-0.01,17322,9870.80,0,0,0,0.00,-3.50,1.89,0.17,1.00,-0.01
-13.5078125,-0.0068339696,-0.012775242,0.031474408,0.17,0.99,-0.01,17344,9868.80,0,0,165,0.21,-3.50,2.24,0.17,0.99,-0.01
-17.007812,-0.007833969,-0.011775244,0.030474408,0.17,0.99,-0.0,17352,9865.30,0,0,0,0.14,-3.43,2.17,0.17,0.99,-0.00
-18.907227,-0.0118339695,-0.013775241,0.031474408,0.17,0.99,-0.0,17360,9863.40,0,0,165,-0.14,-3.57,2.24,0.17,0.99,-0.00
-21.507812,-0.01383397,-0.016775243,0.030474408,0.17,0.99,-0.0,17375,9860.80,0,0,0,-0.28,-3.78,2.17,0.17,0.99,-0.00
-22.807617,-0.012833969,-0.015775241,0.029474406,0.17,1.0,-0.01,17389,9859.50,0,0,165,-0.21,-3.71,2.10,0.17,1.00,-0.01
-24.407227,-0.012833969,-0.019775242,0.024474407,0.17,1.0,-0.01,17397,9857.90,0,0,0,-0.21,-3.99,1.75,0.17,1.00,-0.01
-25.407227,-0.009833969,-0.019775242,0.022474406,0.17,1.0,-0.0,17411,9856.90,0,0,165,0.00,-3.99,1.61,0.17,1.00,-0.00
-25.407227,-0.0068339696,-0.015775241,0.018474407,0.17,1.0,-0.0,17426,9856.90,0,0,0,0.21,-3.71,1.33,0.17,1.00,-0.00
-25.708008,-0.008833969,-0.012775242,0.011474406,0.17,1.0,-0.0,17442,9856.60,0,0,165,0.07,-3.50,0.84,0.17,1.00,-0.00
-25.708008,-0.008833969,-0.008775242,0.009474407,0.17,1.0,-0.0,17449,9856.60,0,0,0,0.07,-3.22,0.70,0.17,1.00,-0.00
-24.407227,-0.0048339693,-0.0067752413,0.0074744076,0.17,1.0,0.0,17464,9857.90,0,0,165,0.35,-3.08,0.56,0.17,1.00,0.00
-24.407227,1.660306E-4,-0.0017752424,0.0074744076,0.17,0.99,-0.0,17472,9857.90,0,0,0,0.70,-2.73,0.56,0.17,0.99,-0.00
-24.407227,0.00216603,0.005224757,0.012474407,0.17,1.0,-0.0,17487,9857.90,0,0,165,0.84,-2.24,0.91,0.17,1.00,-0.00
-24.407227,0.0051660305,0.008224759,0.011474406,0.17,1.0,-0.01,17502,9857.90,0,0,0,1.05,-2.03,0.84,0.17,1.00,-0.01
-23.407227,0.011166031,0.005224757,0.011474406,0.17,1.0,-0.01,17509,9858.90,0,0,165,1.47,-2.24,0.84,0.17,1.00,-0.01
-22.807617,0.014166029,0.0022247583,0.009474407,0.17,0.99,-0.01,17525,9859.50,0,0,0,1.68,-2.45,0.70,0.17,0.99,-0.01
-22.507812,0.011166031,0.0022247583,0.004474407,0.17,0.99,-0.0,17539,9859.80,0,0,165,1.47,-2.45,0.35,0.17,0.99,-0.00
-19.607422,0.009166032,0.00122476,0.0034744074,0.17,0.99,-0.0,17547,9862.70,0,0,0,1.33,-2.52,0.28,0.17,0.99,-0.00
-21.507812,0.0041660313,-0.0027752407,0.0034744074,0.17,0.99,-0.0,17561,9860.80,0,0,165,0.98,-2.80,0.28,0.17,0.99,-0.00
-19.307617,0.0061660316,-0.0017752424,0.0064744074,0.18,1.0,-0.0,17576,9863.00,0,0,0,1.12,-2.73,0.49,0.18,1.00,-0.00
-19.607422,0.0051660305,2.2475794E-4,0.009474407,0.17,1.0,-0.0,17585,9862.70,0,0,165,1.05,-2.59,0.70,0.17,1.00,-0.00
-19.607422,0.00816603,0.006224757,0.012474407,0.18,1.0,-0.0,17599,9862.70,0,0,0,1.26,-2.17,0.91,0.18,1.00,-0.00
-19.607422,0.003166031,0.0032247566,0.012474407,0.17,0.99,0.0,17614,9862.70,0,0,165,0.91,-2.38,0.91,0.17,0.99,0.00
-18.607422,1.660306E-4,-0.0017752424,0.017474405,0.17,0.99,-0.0,17622,9863.70,0,0,0,0.70,-2.73,1.26,0.17,0.99,-0.00
-18.607422,-0.002833969,-0.0027752407,0.015474408,0.17,0.99,-0.0,17637,9863.70,0,0,165,0.49,-2.80,1.12,0.17,0.99,-0.00
-18.307617,-0.002833969,-0.003775239,0.022474406,0.17,0.99,-0.0,17652,9864.00,0,0,0,0.49,-2.87,1.61,0.17,0.99,-0.00
-18.307617,-0.007833969,-0.008775242,0.021474406,0.17,0.99,-0.0,17659,9864.00,0,0,165,0.14,-3.22,1.54,0.17,0.99,-0.00
-18.307617,-8.3396956E-4,-0.008775242,0.026474407,0.18,1.0,-0.01,17674,9864.00,0,0,0,0.63,-3.22,1.89,0.18,1.00,-0.01
-17.708008,-0.0018339688,-0.0067752413,0.026474407,0.18,0.99,-0.0,17689,9864.60,0,0,165,0.56,-3.08,1.89,0.18,0.99,-0.00
-17.708008,1.660306E-4,-0.014775243,0.026474407,0.18,1.0,-0.0,17696,9864.60,0,0,0,0.70,-3.64,1.89,0.18,1.00,-0.00
-17.708008,0.0041660313,-0.013775241,0.026474407,0.17,1.0,-0.0,17711,9864.60,0,0,165,0.98,-3.57,1.89,0.17,1.00,-0.00
-18.607422,0.0051660305,-0.016775243,0.026474407,0.18,0.99,0.0,17727,9863.70,0,0,0,1.05,-3.78,1.89,0.18,0.99,0.00
-19.607422,0.0051660305,-0.00977524,0.025474407,0.17,0.99,-0.0,17735,9862.70,0,0,165,1.05,-3.29,1.82,0.17,0.99,-0.00
-20.607422,0.0011660308,-0.0077752434,0.022474406,0.18,0.99,-0.0,17750,9861.70,0,0,0,0.77,-3.15,1.61,0.18,0.99,-0.00
-21.208008,-8.3396956E-4,-0.004775241,0.018474407,0.18,1.0,-0.0,17764,9861.10,0,0,165,0.63,-2.94,1.33,0.18,1.00,-0.00
-21.507812,-0.0018339688,-0.0027752407,0.017474405,0.18,1.0,-0.0,17772,9860.80,0,0,0,0.56,-2.80,1.26,0.18,1.00,-0.00
-20.208008,-0.0018339688,0.00122476,0.012474407,0.18,1.0,-0.0,17787,9862.10,0,0,165,0.56,-2.52,0.91,0.18,1.00,-0.00
-21.507812,-8.3396956E-4,0.0032247566,0.013474408,0.18,1.0,-0.0,17801,9860.80,0,0,0,0.63,-2.38,0.98,0.18,1.00,-0.00
-21.208008,0.0011660308,0.0022247583,0.014474407,0.18,1.0,-0.0,17809,9861.10,0,0,165,0.77,-2.45,1.05,0.18,1.00,-0.00
-20.607422,0.0051660305,0.0042247586,0.016474407,0.18,1.0,-0.0,17824,9861.70,0,0,0,1.05,-2.31,1.19,0.18,1.00,-0.00
-20.208008,0.0041660313,0.0032247566,0.016474407,0.18,0.99,-0.0,17839,9862.10,0,0,165,0.98,-2.38,1.19,0.18,0.99,-0.00
-19.307617,0.0071660317,0.00122476,0.018474407,0.18,0.99,0.0,17847,9863.00,0,0,0,1.19,-2.52,1.33,0.18,0.99,0.00
-21.208008,0.0051660305,-7.752441E-4,0.016474407,0.18,1.0,-0.0,17862,9861.10,0,0,165,1.05,-2.66,1.19,0.18,1.00,-0.00
-19.607422,0.0061660316,-7.752441E-4,0.017474405,0.18,0.99,-0.0,17877,9862.70,0,0,0,1.12,-2.66,1.26,0.18,0.99,-0.00
-19.307617,0.003166031,-7.752441E-4,0.016474407,0.18,0.99,-0.0,17884,9863.00,0,0,165,0.91,-2.66,1.19,0.18,0.99,-0.00
-19.307617,0.0041660313,0.00122476,0.019474406,0.18,0.99,-0.0,17899,9863.00,0,0,0,0.98,-2.52,1.40,0.18,0.99,-0.00
-18.907227,0.00216603,0.006224757,0.017474405,0.18,0.99,-0.01,17914,9863.40,0,0,165,0.84,-2.17,1.26,0.18,0.99,-0.01
-18.307617,0.0041660313,0.008224759,0.020474406,0.18,0.99,-0.0,17922,9864.00,0,0,0,0.98,-2.03,1.47,0.18,0.99,-0.00
-18.307617,0.0011660308,0.007224759,0.022474406,0.18,0.99,-0.0,17936,9864.00,0,0,165,0.77,-2.10,1.61,0.18,0.99,-0.00
-18.307617,0.003166031,0.0032247566,0.026474407,0.18,0.99,-0.0,17951,9864.00,0,0,0,0.91,-2.38,1.89,0.18,0.99,-0.00
-17.307617,0.0051660305,0.00122476,0.028474405,0.18,0.99,-0.01,17959,9865.00,0,0,165,1.05,-2.52,2.03,0.18,0.99,-0.01
-15.407227,0.0041660313,2.2475794E-4,0.024474407,0.18,0.99,-0.01,17981,9866.90,0,0,0,0.98,-2.59,1.75,0.18,0.99,-0.01
-16.007812,0.003166031,0.00122476,0.021474406,0.18,0.99,-0.0,17989,9866.30,0,0,165,0.91,-2.52,1.54,0.18,0.99,-0.00
-15.407227,-8.3396956E-4,-0.0027752407,0.019474406,0.18,0.99,-0.0,17996,9866.90,0,0,0,0.63,-2.80,1.40,0.18,0.99,-0.00
-14.407227,-0.0068339696,-0.005775243,0.015474408,0.18,0.99,-0.0,18011,9867.90,0,0,165,0.21,-3.01,1.12,0.18,0.99,-0.00
-14.407227,-0.005833969,-0.0067752413,0.012474407,0.18,0.99,-0.01,18026,9867.90,0,0,0,0.28,-3.08,0.91,0.18,0.99,-0.01
-12.208008,1.660306E-4,-0.004775241,0.012474407,0.18,0.99,-0.0,18034,9870.10,0,0,165,0.70,-2.94,0.91,0.18,0.99,-0.00
-12.5078125,0.00216603,-0.0017752424,0.011474406,0.18,0.99,-0.0,18050,9869.80,0,0,0,0.84,-2.73,0.84,0.18,0.99,-0.00
-11.5078125,1.660306E-4,-0.005775243,0.012474407,0.18,1.0,-0.0,18064,9870.80,0,0,165,0.70,-3.01,0.91,0.18,1.00,-0.00
-11.5078125,1.660306E-4,-0.004775241,0.008474407,0.18,1.0,-0.0,18072,9870.80,0,0,0,0.70,-2.94,0.63,0.18,1.00,-0.00
-10.607422,-0.0018339688,2.2475794E-4,0.004474407,0.18,1.0,-0.0,18087,9871.70,0,0,165,0.56,-2.59,0.35,0.18,1.00,-0.00
-8.607422,-0.002833969,0.005224757,0.0034744074,0.18,1.0,-0.0,18102,9873.70,0,0,0,0.49,-2.24,0.28,0.18,1.00,-0.00
-7.708008,1.660306E-4,0.010224758,0.0064744074,0.18,0.99,-0.0,18109,9874.60,0,0,165,0.70,-1.89,0.49,0.18,0.99,-0.00
-6.107422,1.660306E-4,0.014224758,0.008474407,0.18,0.99,-0.0,18131,9876.20,0,0,0,0.70,-1.61,0.63,0.18,0.99,-0.00
-4.5078125,0.0051660305,0.018224757,0.010474407,0.18,0.99,-0.0,18139,9877.80,0,0,165,1.05,-1.33,0.77,0.18,0.99,-0.00
-2.5078125,0.00816603,0.01922476,0.0074744076,0.18,0.99,-0.01,18146,9879.80,0,0,0,1.26,-1.26,0.56,0.18,0.99,-0.01
0.39257812,0.009166032,0.015224759,0.004474407,0.18,0.99,-0.01,18161,9882.70,0,0,165,1.33,-1.54,0.35,0.18,0.99,-0.01
2.2919922,0.0051660305,0.011224758,-0.0055255927,0.19,0.99,-0.0,18176,9884.60,0,0,0,1.05,-1.82,-0.35,0.19,0.99,-0.00
3.8925781,0.003166031,0.009224758,-0.010525593,0.18,0.99,-0.0,18184,9886.20,0,0,165,0.91,-1.96,-0.70,0.18,0.99,-0.00
6.192383,1.660306E-4,0.006224757,-0.016525595,0.18,0.99,-0.01,18200,9888.50,0,0,0,0.70,-2.17,-1.12,0.18,0.99,-0.01
8.092773,0.00216603,0.005224757,-0.020525593,0.18,0.99,-0.0,18215,9890.40,0,0,165,0.84,-2.24,-1.40,0.18,0.99,-0.00
9.092773,0.00216603,0.005224757,-0.024525592,0.19,0.99,-0.0,18221,9891.40,0,0,0,0.84,-2.24,-1.68,0.19,0.99,-0.00
10.9921875,1.660306E-4,0.0042247586,-0.026525594,0.19,0.99,-0.01,18237,9893.30,0,0,165,0.70,-2.31,-1.82,0.19,0.99,-0.01
11.9921875,1.660306E-4,0.0042247586,-0.024525592,0.19,0.99,-0.0,18252,9894.30,0,0,0,0.70,-2.31,-1.68,0.19,0.99,-0.00
12.892578,0.00216603,0.007224759,-0.023525594,0.19,0.99,-0.0,18259,9895.20,0,0,165,0.84,-2.10,-1.61,0.19,0.99,-0.00
12.592773,-0.0018339688,0.005224757,-0.020525593,0.19,0.99,0.0,18274,9894.90,0,0,0,0.56,-2.24,-1.40,0.19,0.99,0.00
15.192383,-0.002833969,0.008224759,-0.021525593,0.18,1.0,-0.0,18296,9897.50,0,0,165,0.49,-2.03,-1.47,0.18,1.00,-0.00
15.192383,-0.0038339696,0.011224758,-0.019525595,0.19,0.99,-0.0,18298,9897.50,0,0,0,0.42,-1.82,-1.33,0.19,0.99,-0.00
16.192383,-0.0048339693,0.011224758,-0.018525593,0.19,0.99,-0.01,18312,9898.50,0,0,165,0.35,-1.82,-1.26,0.19,0.99,-0.01
15.791992,-0.002833969,0.011224758,-0.018525593,0.18,1.0,-0.0,18327,9898.10,0,0,0,0.49,-1.82,-1.26,0.18,1.00,-0.00
16.791992,0.00216603,0.010224758,-0.019525595,0.18,1.0,-0.0,18334,9899.10,0,0,165,0.84,-1.89,-1.33,0.18,1.00,-0.00
15.791992,0.0011660308,0.0032247566,-0.024525592,0.18,0.99,-0.0,18349,9898.10,0,0,0,0.77,-2.38,-1.68,0.18,0.99,-0.00
17.791992,-0.005833969,-7.752441E-4,-0.026525594,0.18,0.99,0.0,18364,9900.10,0,0,165,0.28,-2.66,-1.82,0.18,0.99,0.00
18.092773,-0.010833969,-0.003775239,-0.025525594,0.18,0.99,-0.0,18371,9900.40,0,0,0,-0.07,-2.87,-1.75,0.18,0.99,-0.00
17.791992,-0.010833969,-0.0067752413,-0.018525593,0.18,1.0,-0.0,18386,9900.10,0,0,165,-0.07,-3.08,-1.26,0.18,1.00,-0.00
17.791992,-0.009833969,-0.0077752434,-0.017525595,0.18,1.0,0.0,18401,9900.10,0,0,0,0.00,-3.15,-1.19,0.18,1.00,0.00
17.791992,-0.005833969,-0.0067752413,-0.012525592,0.17,1.0,0.0,18409,9900.10,0,0,165,0.28,-3.08,-0.84,0.17,1.00,0.00
17.092773,1.660306E-4,-0.004775241,-0.009525592,0.18,0.99,0.0,18424,9899.40,0,0,0,0.70,-2.94,-0.63,0.18,0.99,0.00
17.092773,-8.3396956E-4,-0.005775243,-0.009525592,0.18,1.0,0.0,18439,9899.40,0,0,165,0.63,-3.01,-0.63,0.18,1.00,0.00
16.791992,-8.3396956E-4,-0.0027752407,-0.007525593,0.17,1.0,0.0,18446,9899.10,0,0,0,0.63,-2.80,-0.49,0.17,1.00,0.00
17.092773,1.660306E-4,-0.0067752413,-0.008525593,0.17,1.0,0.0,18469,9899.40,0,0,165,0.70,-3.08,-0.56,0.17,1.00,0.00
15.791992,0.003166031,-0.003775239,-0.007525593,0.17,1.0,0.0,18476,9898.10,0,0,0,0.91,-2.87,-0.49,0.17,1.00,0.00
16.192383,0.00216603,-0.0027752407,-0.010525593,0.17,1.0,0.0,18484,9898.50,0,0,165,0.84,-2.80,-0.70,0.17,1.00,0.00
15.192383,0.0041660313,2.2475794E-4,-0.010525593,0.17,1.0,0.0,18499,9897.50,0,0,0,0.98,-2.59,-0.70,0.17,1.00,0.00
14.892578,0.0061660316,-7.752441E-4,-0.013525593,0.17,1.0,0.0,18514,9897.20,0,0,165,1.12,-2.66,-0.91,0.17,1.00,0.00
16.192383,0.0071660317,-7.752441E-4,-0.013525593,0.17,0.99,0.0,18522,9898.50,0,0,0,1.19,-2.66,-0.91,0.17,0.99,0.00
15.192383,0.01016603,0.00122476,-0.013525593,0.17,1.0,0.0,18536,9897.50,0,0,165,1.40,-2.52,-0.91,0.17,1.00,0.00
14.592773,0.009166032,0.0032247566,-0.014525593,0.18,1.0,0.0,18551,9896.90,0,0,0,1.33,-2.38,-0.98,0.18,1.00,0.00
13.291992,0.009166032,0.0032247566,-0.0155255925,0.17,0.99,-0.0,18559,9895.60,0,0,165,1.33,-2.38,-1.05,0.17,0.99,-0.00
13.291992,0.012166031,0.0032247566,-0.016525595,0.18,1.0,0.0,18574,9895.60,0,0,0,1.54,-2.38,-1.12,0.18,1.00,0.00
14.592773,0.013166031,0.00122476,-0.016525595,0.17,1.0,-0.0,18590,9896.90,0,0,165,1.61,-2.52,-1.12,0.17,1.00,-0.00
12.291992,0.016166031,0.0032247566,-0.018525593,0.18,1.0,-0.0,18597,9894.60,0,0,0,1.82,-2.38,-1.26,0.18,1.00,-0.00
12.291992,0.016166031,0.00122476,-0.019525595,0.17,1.0,-0.0,18612,9894.60,0,0,165,1.82,-2.52,-1.33,0.17,1.00,-0.00
13.592773,0.01916603,0.0022247583,-0.022525594,0.18,1.0,-0.0,18627,9895.90,0,0,0,2.03,-2.45,-1.54,0.18,1.00,-0.00
13.592773,0.017166032,0.0042247586,-0.023525594,0.17,1.0,-0.01,18635,9895.90,0,0,165,1.89,-2.31,-1.61,0.17,1.00,-0.01
13.291992,0.018166032,0.0022247583,-0.022525594,0.18,0.99,-0.0,18649,9895.60,0,0,0,1.96,-2.45,-1.54,0.18,0.99,-0.00
11.692383,0.01916603,0.0032247566,-0.023525594,0.18,0.99,-0.01,18664,9894.00,0,0,165,2.03,-2.38,-1.61,0.18,0.99,-0.01
11.291992,0.015166031,0.0022247583,-0.022525594,0.18,0.99,-0.01,18671,9893.60,0,0,0,1.75,-2.45,-1.54,0.18,0.99,-0.01
11.692383,0.014166029,0.0022247583,-0.020525593,0.17,0.99,-0.01,18686,9894.00,0,0,165,1.68,-2.45,-1.40,0.17,0.99,-0.01
11.692383,0.009166032,0.0042247586,-0.020525593,0.17,0.99,-0.01,18701,9894.00,0,0,0,1.33,-2.31,-1.40,0.17,0.99,-0.01
11.692383,0.0071660317,0.005224757,-0.0155255925,0.17,0.99,-0.01,18709,9894.00,0,0,165,1.19,-2.24,-1.05,0.17,0.99,-0.01
10.692383,0.009166032,0.008224759,-0.012525592,0.17,0.99,-0.01,18724,9893.00,0,0,0,1.33,-2.03,-0.84,0.17,0.99,-0.01
10.392578,0.0071660317,0.007224759,-0.007525593,0.17,0.99,-0.01,18739,9892.70,0,0,165,1.19,-2.10,-0.49,0.17,0.99,-0.01
9.692383,0.0041660313,0.005224757,-0.0035255929,0.17,0.99,-0.01,18747,9892.00,0,0,0,0.98,-2.24,-0.21,0.17,0.99,-0.01
9.692383,0.00816603,0.005224757,-0.0025255932,0.17,0.99,-0.01,18762,9892.00,0,0,165,1.26,-2.24,-0.14,0.17,0.99,-0.01
9.692383,0.0051660305,0.0022247583,-0.0025255932,0.17,0.99,-0.01,18777,9892.00,0,0,0,1.05,-2.45,-0.14,0.17,0.99,-0.01
9.692383,1.660306E-4,-0.0027752407,-0.0025255932,0.17,0.99,-0.01,18784,9892.00,0,0,165,0.70,-2.80,-0.14,0.17,0.99,-0.01
8.791992,-0.0018339688,-0.005775243,-0.0035255929,0.17,1.0,-0.01,18800,9891.10,0,0,0,0.56,-3.01,-0.21,0.17,1.00,-0.01
8.791992,-0.0038339696,-0.005775243,-0.007525593,0.17,1.0,-0.01,18815,9891.10,0,0,165,0.42,-3.01,-0.49,0.17,1.00,-0.01
8.791992,1.660306E-4,-0.004775241,-0.0065255924,0.17,0.99,-0.01,18822,9891.10,0,0,0,0.70,-2.94,-0.42,0.17,0.99,-0.01
7.791992,0.00216603,-0.003775239,-0.0025255932,0.17,0.99,-0.01,18837,9890.10,0,0,165,0.84,-2.87,-0.14,0.17,0.99,-0.01
6.791992,0.0061660316,-0.004775241,-0.004525593,0.17,1.0,-0.01,18852,9889.10,0,0,0,1.12,-2.94,-0.28,0.17,1.00,-0.01
7.791992,0.0041660313,-0.005775243,-0.0065255924,0.17,0.99,-0.01,18859,9890.10,0,0,165,0.98,-3.01,-0.42,0.17,0.99,-0.01
7.791992,-0.0018339688,-0.0077752434,-0.009525592,0.17,0.99,-0.0,18882,9890.10,0,0,0,0.56,-3.15,-0.63,0.17,0.99,-0.00
6.791992,-0.0068339696,-0.0067752413,-0.009525592,0.17,1.0,-0.0,18889,9889.10,0,0,165,0.21,-3.08,-0.63,0.17,1.00,-0.00
7.791992,-0.007833969,-0.004775241,-0.0065255924,0.17,1.0,-0.0,18897,9890.10,0,0,0,0.14,-2.94,-0.42,0.17,1.00,-0.00
6.791992,-0.007833969,-7.752441E-4,-5.2559294E-4,0.17,1.0,-0.0,18912,9889.10,0,0,165,0.14,-2.66,0.00,0.17,1.00,-0.00
7.0927734,-0.005833969,0.0042247586,4.744071E-4,0.17,1.0,-0.0,18934,9889.40,0,0,0,0.28,-2.31,0.07,0.17,1.00,-0.00
4.892578,-0.0038339696,0.005224757,0.004474407,0.17,0.99,-0.0,18936,9887.20,0,0,165,0.42,-2.24,0.35,0.17,0.99,-0.00
6.192383,-0.0038339696,0.006224757,0.008474407,0.17,0.99,-0.0,18950,9888.50,0,0,0,0.42,-2.17,0.63,0.17,0.99,-0.00
4.892578,-0.0048339693,0.006224757,0.0074744076,0.17,0.99,-0.0,18965,9887.20,0,0,165,0.35,-2.17,0.56,0.17,0.99,-0.00
4.192383,-0.002833969,0.0042247586,0.0074744076,0.17,0.99,-0.01,18972,9886.50,0,0,0,0.49,-2.31,0.56,0.17,0.99,-0.01
3.8925781,1.660306E-4,0.0032247566,0.008474407,0.17,0.99,-0.0,18987,9886.20,0,0,165,0.70,-2.38,0.63,0.17,0.99,-0.00
3.8925781,-8.3396956E-4,0.00122476,0.008474407,0.17,1.0,-0.0,19002,9886.20,0,0,0,0.63,-2.52,0.63,0.17,1.00,-0.00
3.2919922,-0.002833969,0.00122476,0.0074744076,0.17,1.0,-0.01,19009,9885.60,0,0,165,0.49,-2.52,0.56,0.17,1.00,-0.01
1.6923828,-0.0038339696,-0.0017752424,0.0064744074,0.17,0.99,-0.0,19024,9884.00,0,0,0,0.42,-2.73,0.49,0.17,0.99,-0.00
0.9921875,-0.0068339696,-0.005775243,0.004474407,0.17,1.0,-0.0,19039,9883.30,0,0,165,0.21,-3.01,0.35,0.17,1.00,-0.00
0.39257812,-0.0048339693,-0.008775242,0.0064744074,0.17,1.0,-0.0,19046,9882.70,0,0,0,0.35,-3.22,0.49,0.17,1.00,-0.00
-0.90722656,-0.005833969,-0.011775244,0.0054744068,0.18,1.0,-0.0,19061,9881.40,0,0,165,0.28,-3.43,0.42,0.18,1.00,-0.00
-2.5078125,-0.007833969,-0.013775241,0.008474407,0.17,1.0,-0.0,19076,9879.80,0,0,0,0.14,-3.57,0.63,0.17,1.00,-0.00
-3.8076172,-0.009833969,-0.014775243,0.010474407,0.17,0.99,0.0,19084,9878.50,0,0,165,0.00,-3.64,0.77,0.17,0.99,0.00
-5.4072266,-0.0068339696,-0.011775244,0.017474405,0.17,1.0,-0.0,19106,9876.90,0,0,0,0.21,-3.43,1.26,0.17,1.00,-0.00
-8.0078125,-0.002833969,-0.010775238,0.021474406,0.17,1.0,-0.0,19114,9874.30,0,0,165,0.49,-3.36,1.54,0.17,1.00,-0.00
-10.208008,0.003166031,-0.00977524,0.025474407,0.17,1.0,-0.0,19121,9872.10,0,0,0,0.91,-3.29,1.82,0.17,1.00,-0.00
-11.208008,-8.3396956E-4,-0.010775238,0.023474405,0.17,0.99,0.0,19136,9871.10,0,0,165,0.63,-3.36,1.68,0.17,0.99,0.00
-13.107422,-0.0048339693,-0.011775244,0.023474405,0.17,1.0,0.0,19153,9869.20,0,0,0,0.35,-3.43,1.68,0.17,1.00,0.00
-13.807617,-0.0048339693,-0.012775242,0.020474406,0.17,0.99,-0.0,19159,9868.50,0,0,165,0.35,-3.50,1.47,0.17,0.99,-0.00
-16.407227,-0.0048339693,-0.010775238,0.021474406,0.17,1.0,0.0,19174,9865.90,0,0,0,0.35,-3.36,1.54,0.17,1.00,0.00
-18.307617,-0.0048339693,-0.008775242,0.024474407,0.17,1.0,-0.0,19189,9864.00,0,0,165,0.35,-3.22,1.75,0.17,1.00,-0.00
-18.907227,-0.002833969,-0.005775243,0.025474407,0.17,1.0,-0.0,19197,9863.40,0,0,0,0.49,-3.01,1.82,0.17,1.00,-0.00
-18.907227,1.660306E-4,-0.003775239,0.029474406,0.17,1.0,0.0,19212,9863.40,0,0,165,0.70,-2.87,2.10,0.17,1.00,0.00
-18.907227,-8.3396956E-4,-7.752441E-4,0.027474407,0.17,1.0,-0.0,19226,9863.40,0,0,0,0.63,-2.66,1.96,0.17,1.00,-0.00
-19.907227,-8.3396956E-4,-0.0017752424,0.026474407,0.17,0.99,0.0,19234,9862.40,0,0,165,0.63,-2.73,1.89,0.17,0.99,0.00
-21.807617,1.660306E-4,-0.003775239,0.024474407,0.17,0.99,-0.0,19250,9860.50,0,0,0,0.70,-2.87,1.75,0.17,0.99,-0.00
-20.607422,0.00216603,-0.0067752413,0.024474407,0.17,1.0,-0.0,19264,9861.70,0,0,165,0.84,-3.08,1.75,0.17,1.00,-0.00
-22.507812,0.0041660313,-0.0067752413,0.024474407,0.17,0.99,-0.0,19271,9859.80,0,0,0,0.98,-3.08,1.75,0.17,0.99,-0.00
-23.807617,0.0061660316,-0.0017752424,0.024474407,0.18,1.0,-0.0,19287,9858.50,0,0,165,1.12,-2.73,1.75,0.18,1.00,-0.00
-22.507812,0.0071660317,2.2475794E-4,0.023474405,0.17,1.0,-0.0,19302,9859.80,0,0,0,1.19,-2.59,1.68,0.17,1.00,-0.00
-23.507812,0.01016603,0.0022247583,0.024474407,0.18,1.0,-0.0,19309,9858.80,0,0,165,1.40,-2.45,1.75,0.18,1.00,-0.00
-24.708008,0.00816603,0.00122476,0.021474406,0.18,0.99,-0.0,19324,9857.60,0,0,0,1.26,-2.52,1.54,0.18,0.99,-0.00
-23.507812,0.0071660317,0.00122476,0.019474406,0.18,0.99,-0.0,19339,9858.80,0,0,165,1.19,-2.52,1.40,0.18,0.99,-0.00
-22.507812,0.003166031,-7.752441E-4,0.016474407,0.18,1.0,-0.0,19346,9859.80,0,0,0,0.91,-2.66,1.19,0.18,1.00,-0.00
-22.807617,0.00216603,0.00122476,0.014474407,0.18,0.99,-0.0,19361,9859.50,0,0,165,0.84,-2.52,1.05,0.18,0.99,-0.00
-23.507812,0.0011660308,0.00122476,0.013474408,0.18,0.99,-0.0,19376,9858.80,0,0,0,0.77,-2.52,0.98,0.18,0.99,-0.00
-22.507812,0.003166031,0.0042247586,0.012474407,0.18,0.99,-0.0,19384,9859.80,0,0,165,0.91,-2.31,0.91,0.18,0.99,-0.00
-23.807617,0.0011660308,0.0022247583,0.015474408,0.18,0.99,-0.0,19399,9858.50,0,0,0,0.77,-2.45,1.12,0.18,0.99,-0.00
-21.807617,-8.3396956E-4,0.0022247583,0.014474407,0.18,0.99,-0.01,19413,9860.50,0,0,165,0.63,-2.45,1.05,0.18,0.99,-0.01
-21.507812,1.660306E-4,2.2475794E-4,0.017474405,0.18,0.99,-0.0,19421,9860.80,0,0,0,0.70,-2.59,1.26,0.18,0.99,-0.00
-20.607422,-0.002833969,0.00122476,0.020474406,0.18,0.99,-0.0,19437,9861.70,0,0,165,0.49,-2.52,1.47,0.18,0.99,-0.00
-20.607422,-0.0018339688,2.2475794E-4,0.022474406,0.18,0.99,-0.01,19451,9861.70,0,0,0,0.56,-2.59,1.61,0.18,0.99,-0.01
-21.807617,-0.0018339688,-0.0017752424,0.020474406,0.18,0.99,-0.0,19459,9860.50,0,0,165,0.56,-2.73,1.47,0.18,0.99,-0.00
-19.607422,-0.0018339688,-7.752441E-4,0.020474406,0.18,0.99,-0.0,19474,9862.70,0,0,0,0.56,-2.66,1.47,0.18,0.99,-0.00
-20.607422,-0.0018339688,2.2475794E-4,0.021474406,0.18,1.0,-0.0,19489,9861.70,0,0,165,0.56,-2.59,1.54,0.18,1.00,-0.00
-20.607422,-8.3396956E-4,-0.0027752407,0.019474406,0.18,1.0,-0.0,19497,9861.70,0,0,0,0.63,-2.80,1.40,0.18,1.00,-0.00
-18.607422,-0.002833969,-0.004775241,0.019474406,0.18,0.99,-0.0,19512,9863.70,0,0,165,0.49,-2.94,1.40,0.18,0.99,-0.00
-19.607422,0.0011660308,-0.004775241,0.024474407,0.18,0.99,-0.0,19526,9862.70,0,0,0,0.77,-2.94,1.75,0.18,0.99,-0.00
-18.307617,0.00216603,-0.005775243,0.021474406,0.18,0.99,-0.0,19534,9864.00,0,0,165,0.84,-3.01,1.54,0.18,0.99,-0.00
-18.607422,-0.0018339688,-0.0027752407,0.020474406,0.18,0.99,-0.0,19549,9863.70,0,0,0,0.56,-2.80,1.47,0.18,0.99,-0.00
-17.708008,-0.0018339688,-0.004775241,0.020474406,0.18,0.99,0.0,19564,9864.60,0,0,165,0.56,-2.94,1.47,0.18,0.99,0.00
-17.307617,-0.0018339688,-0.004775241,0.021474406,0.18,0.99,0.0,19572,9865.00,0,0,0,0.56,-2.94,1.54,0.18,0.99,0.00
-16.708008,-8.3396956E-4,-0.0017752424,0.020474406,0.18,0.99,-0.0,19587,9865.60,0,0,165,0.63,-2.73,1.47,0.18,0.99,-0.00
-16.708008,0.0011660308,0.00122476,0.020474406,0.18,0.99,-0.0,19601,9865.60,0,0,0,0.77,-2.52,1.47,0.18,0.99,-0.00
-15.407227,0.0011660308,0.0022247583,0.017474405,0.18,0.99,-0.0,19609,9866.90,0,0,165,0.77,-2.45,1.26,0.18,0.99,-0.00
-15.407227,0.0011660308,0.005224757,0.017474405,0.18,1.0,-0.0,19624,9866.90,0,0,0,0.77,-2.24,1.26,0.18,1.00,-0.00
-13.5078125,0.003166031,0.008224759,0.016474407,0.18,0.99,-0.0,19639,9868.80,0,0,165,0.91,-2.03,1.19,0.18,0.99,-0.00
-13.5078125,0.003166031,0.007224759,0.018474407,0.19,0.99,-0.0,19646,9868.80,0,0,0,0.91,-2.10,1.33,0.19,0.99,-0.00
-12.807617,0.0041660313,0.0042247586,0.017474405,0.19,0.99,-0.0,19661,9869.50,0,0,165,0.98,-2.31,1.26,0.19,0.99,-0.00
-12.807617,0.0051660305,0.0022247583,0.017474405,0.19,0.99,-0.0,19676,9869.50,0,0,0,1.05,-2.45,1.26,0.19,0.99,-0.00
-11.5078125,0.003166031,2.2475794E-4,0.015474408,0.18,0.99,0.0,19684,9870.80,0,0,165,0.91,-2.59,1.12,0.18,0.99,0.00
-10.907227,-8.3396956E-4,-7.752441E-4,0.010474407,0.19,0.99,-0.0,19707,9871.40,0,0,0,0.63,-2.66,0.77,0.19,0.99,-0.00
-10.307617,-0.0048339693,-0.004775241,0.008474407,0.19,0.99,-0.0,19714,9872.00,0,0,165,0.35,-2.94,0.63,0.19,0.99,-0.00
-8.607422,-0.002833969,-0.0077752434,0.008474407,0.19,0.99,-0.01,19722,9873.70,0,0,0,0.49,-3.15,0.63,0.19,0.99,-0.01
-8.307617,0.003166031,-0.0067752413,0.0064744074,0.19,0.99,-0.0,19736,9874.00,0,0,165,0.91,-3.08,0.49,0.19,0.99,-0.00
-7.708008,0.0061660316,-0.004775241,0.0074744076,0.19,0.99,-0.0,19751,9874.60,0,0,0,1.12,-2.94,0.56,0.19,0.99,-0.00
-7.708008,0.003166031,-0.005775243,0.008474407,0.19,1.0,-0.0,19759,9874.60,0,0,165,0.91,-3.01,0.63,0.19,1.00,-0.00
-4.807617,1.660306E-4,-0.0027752407,0.0054744068,0.18,0.99,0.0,19773,9877.50,0,0,0,0.70,-2.80,0.42,0.18,0.99,0.00
-2.8076172,-0.0048339693,-0.0017752424,0.0064744074,0.18,0.99,0.0,19789,9879.50,0,0,165,0.35,-2.73,0.49,0.18,0.99,0.00
-3.5078125,-0.005833969,0.00122476,0.0054744068,0.18,0.99,0.0,19796,9878.80,0,0,0,0.28,-2.52,0.42,0.18,0.99,0.00
-1.6074219,-0.0068339696,0.008224759,0.0064744074,0.18,0.99,0.0,19812,9880.70,0,0,165,0.21,-2.03,0.49,0.18,0.99,0.00
-0.3076172,-0.0018339688,0.01322476,0.0034744074,0.19,0.99,-0.0,19827,9882.00,0,0,0,0.56,-1.68,0.28,0.19,0.99,-0.00
2.2919922,0.00216603,0.014224758,0.0034744074,0.19,0.99,-0.0,19834,9884.60,0,0,165,0.84,-1.61,0.28,0.19,0.99,-0.00
2.5927734,0.0051660305,0.016224759,-5.2559294E-4,0.18,0.99,-0.0,19849,9884.90,0,0,0,1.05,-1.47,0.00,0.18,0.99,-0.00
3.8925781,0.0061660316,0.016224759,-0.0055255927,0.19,0.99,-0.0,19864,9886.20,0,0,165,1.12,-1.47,-0.35,0.19,0.99,-0.00
6.791992,0.0011660308,0.012224758,-0.014525593,0.19,0.99,-0.0,19872,9889.10,0,0,0,0.77,-1.75,-0.98,0.19,0.99,-0.00
7.791992,-8.3396956E-4,0.011224758,-0.016525595,0.19,0.99,0.0,19886,9890.10,0,0,165,0.63,-1.82,-1.12,0.19,0.99,0.00
9.392578,-0.002833969,0.009224758,-0.020525593,0.19,0.99,-0.0,19901,9891.70,0,0,0,0.49,-1.96,-1.40,0.19,0.99,-0.00
10.392578,-0.002833969,0.006224757,-0.023525594,0.19,0.99,-0.0,19909,9892.70,0,0,165,0.49,-2.17,-1.61,0.19,0.99,-0.00
11.9921875,-0.0048339693,0.005224757,-0.024525592,0.19,1.0,-0.0,19924,9894.30,0,0,0,0.35,-2.24,-1.68,0.19,1.00,-0.00
12.592773,-0.0038339696,0.005224757,-0.025525594,0.19,1.0,0.0,19939,9894.90,0,0,165,0.42,-2.24,-1.75,0.19,1.00,0.00
14.892578,-0.002833969,0.007224759,-0.027525594,0.19,0.99,-0.0,19947,9897.20,0,0,0,0.49,-2.10,-1.89,0.19,0.99,-0.00
14.892578,-0.005833969,0.0042247586,-0.028525595,0.19,0.99,0.0,19961,9897.20,0,0,165,0.28,-2.31,-1.96,0.19,0.99,0.00
17.791992,-0.0048339693,0.006224757,-0.028525595,0.19,1.0,-0.0,19976,9900.10,0,0,0,0.35,-2.17,-1.96,0.19,1.00,-0.00
19.092773,-0.002833969,0.006224757,-0.026525594,0.18,1.0,0.0,19984,9901.40,0,0,165,0.49,-2.17,-1.82,0.18,1.00,0.00
18.692383,-0.0038339696,0.008224759,-0.026525594,0.19,0.99,0.0,19999,9901.00,0,0,0,0.42,-2.03,-1.82,0.19,0.99,0.00
19.992188,-0.0018339688,0.010224758,-0.025525594,0.19,0.99,-0.0,20014,9902.30,0,0,165,0.56,-1.89,-1.75,0.19,0.99,-0.00
19.692383,-8.3396956E-4,0.006224757,-0.021525593,0.19,0.99,-0.0,20022,9902.00,0,0,0,0.63,-2.17,-1.47,0.19,0.99,-0.00
20.692383,0.003166031,0.006224757,-0.023525594,0.18,1.0,-0.0,20037,9903.00,0,0,165,0.91,-2.17,-1.61,0.18,1.00,-0.00
20.992188,0.003166031,0.0032247566,-0.025525594,0.18,0.99,0.0,20052,9903.30,0,0,0,0.91,-2.38,-1.75,0.18,0.99,0.00
21.592773,-8.3396956E-4,-0.003775239,-0.026525594,0.18,0.99,0.0,20059,9903.90,0,0,165,0.63,-2.87,-1.82,0.18,0.99,0.00
21.592773,-0.0048339693,-0.0077752434,-0.029525593,0.18,0.99,0.0,20074,9903.90,0,0,0,0.35,-3.15,-2.03,0.18,0.99,0.00
20.692383,-0.0048339693,-0.00977524,-0.025525594,0.18,1.0,0.0,20089,9903.00,0,0,165,0.35,-3.29,-1.75,0.18,1.00,0.00
20.692383,-0.0048339693,-0.011775244,-0.022525594,0.18,1.0,0.0,20096,9903.00,0,0,0,0.35,-3.43,-1.54,0.18,1.00,0.00
19.692383,-0.0038339696,-0.011775244,-0.017525595,0.18,1.0,0.0,20111,9902.00,0,0,165,0.42,-3.43,-1.19,0.18,1.00,0.00
19.092773,-0.0018339688,-0.0077752434,-0.014525593,0.18,1.0,0.0,20126,9901.40,0,0,0,0.56,-3.15,-0.98,0.18,1.00,0.00
19.692383,1.660306E-4,-0.005775243,-0.009525592,0.17,0.99,0.0,20134,9902.00,0,0,165,0.70,-3.01,-0.63,0.17,0.99,0.00
18.692383,-0.0018339688,-0.0067752413,-0.008525593,0.17,1.0,0.0,20150,9901.00,0,0,0,0.56,-3.08,-0.56,0.17,1.00,0.00
19.092773,-8.3396956E-4,-0.005775243,-0.008525593,0.17,1.0,0.0,20164,9901.40,0,0,165,0.63,-3.01,-0.56,0.17,1.00,0.00
18.092773,0.00216603,-0.0067752413,-0.009525592,0.17,1.0,-0.0,20172,9900.40,0,0,0,0.84,-3.08,-0.63,0.17,1.00,-0.00
17.791992,0.0051660305,-0.0067752413,-0.009525592,0.17,1.0,0.0,20187,9900.10,0,0,165,1.05,-3.08,-0.63,0.17,1.00,0.00
17.092773,0.0061660316,-0.004775241,-0.013525593,0.18,1.0,0.0,20201,9899.40,0,0,0,1.12,-2.94,-0.91,0.18,1.00,0.00
17.092773,0.01016603,-0.0027752407,-0.012525592,0.18,0.99,0.0,20209,9899.40,0,0,165,1.40,-2.80,-0.84,0.18,0.99,0.00
16.192383,0.01016603,-7.752441E-4,-0.0155255925,0.18,1.0,0.0,20224,9898.50,0,0,0,1.40,-2.66,-1.05,0.18,1.00,0.00
15.192383,0.011166031,-7.752441E-4,-0.0155255925,0.18,1.0,0.0,20238,9897.50,0,0,165,1.47,-2.66,-1.05,0.18,1.00,0.00
16.192383,0.011166031,2.2475794E-4,-0.014525593,0.18,1.0,-0.0,20247,9898.50,0,0,0,1.47,-2.59,-0.98,0.18,1.00,-0.00
15.192383,0.011166031,2.2475794E-4,-0.0155255925,0.18,1.0,-0.0,20261,9897.50,0,0,165,1.47,-2.59,-1.05,0.18,1.00,-0.00
15.192383,0.011166031,0.0032247566,-0.016525595,0.18,0.99,-0.0,20277,9897.50,0,0,0,1.47,-2.38,-1.12,0.18,0.99,-0.00
15.192383,0.012166031,0.0022247583,-0.016525595,0.18,1.0,-0.0,20285,9897.50,0,0,165,1.54,-2.45,-1.12,0.18,1.00,-0.00
13.291992,0.014166029,0.006224757,-0.020525593,0.18,1.0,-0.0,20298,9895.60,0,0,0,1.68,-2.17,-1.40,0.18,1.00,-0.00
14.592773,0.015166031,0.006224757,-0.019525595,0.18,0.99,0.0,20314,9896.90,0,0,165,1.75,-2.17,-1.33,0.18,0.99,0.00
13.592773,0.014166029,0.005224757,-0.019525595,0.18,0.99,0.0,20322,9895.90,0,0,0,1.68,-2.24,-1.33,0.18,0.99,0.00
13.291992,0.014166029,0.006224757,-0.017525595,0.18,0.99,-0.0,20336,9895.60,0,0,165,1.68,-2.17,-1.19,0.18,0.99,-0.00
14.592773,0.013166031,0.006224757,-0.0155255925,0.18,0.99,-0.0,20351,9896.90,0,0,0,1.61,-2.17,-1.05,0.18,0.99,-0.00
13.592773,0.011166031,0.0042247586,-0.0155255925,0.18,0.99,-0.0,20359,9895.90,0,0,165,1.47,-2.31,-1.05,0.18,0.99,-0.00
12.592773,0.011166031,0.0022247583,-0.0155255925,0.18,0.99,-0.0,20374,9894.90,0,0,0,1.47,-2.45,-1.05,0.18,0.99,-0.00
12.592773,0.00816603,0.00122476,-0.014525593,0.18,0.99,-0.0,20389,9894.90,0,0,165,1.26,-2.52,-0.98,0.18,0.99,-0.00
12.291992,0.0071660317,0.0022247583,-0.011525593,0.18,0.99,-0.01,20396,9894.60,0,0,0,1.19,-2.45,-0.77,0.18,0.99,-0.01
11.692383,0.0061660316,0.0022247583,-0.010525593,0.18,0.99,-0.01,20411,9894.00,0,0,165,1.12,-2.45,-0.70,0.18,0.99,-0.01
12.592773,0.00816603,2.2475794E-4,-0.007525593,0.17,1.0,-0.01,20427,9894.90,0,0,0,1.26,-2.59,-0.49,0.17,1.00,-0.01
12.592773,0.0071660317,-7.752441E-4,-0.0055255927,0.17,0.99,-0.01,20434,9894.90,0,0,165,1.19,-2.66,-0.35,0.17,0.99,-0.01
10.692383,0.0071660317,-7.752441E-4,-0.004525593,0.17,1.0,-0.01,20449,9893.00,0,0,0,1.19,-2.66,-0.28,0.17,1.00,-0.01
10.692383,0.0041660313,-0.0017752424,-0.0065255924,0.17,0.99,-0.01,20463,9893.00,0,0,165,0.98,-2.73,-0.42,0.17,0.99,-0.01
11.692383,0.0011660308,2.2475794E-4,-0.0035255929,0.17,0.99,-0.0,20472,9894.00,0,0,0,0.77,-2.59,-0.21,0.17,0.99,-0.00
10.692383,1.660306E-4,-0.0017752424,-0.004525593,0.17,0.99,-0.0,20487,9893.00,0,0,165,0.70,-2.73,-0.28,0.17,0.99,-0.00
11.692383,-8.3396956E-4,-0.0017752424,-0.001525593,0.17,0.99,-0.0,20501,9894.00,0,0,0,0.63,-2.73,-0.07,0.17,0.99,-0.00
9.692383,1.660306E-4,-0.0027752407,-0.0025255932,0.17,1.0,-0.0,20509,9892.00,0,0,165,0.70,-2.80,-0.14,0.17,1.00,-0.00
10.692383,1.660306E-4,-0.0027752407,4.744071E-4,0.17,0.99,-0.0,20524,9893.00,0,0,0,0.70,-2.80,0.07,0.17,0.99,-0.00
10.9921875,0.0011660308,-0.0027752407,0.0024744067,0.17,0.99,-0.0,20539,9893.30,0,0,165,0.77,-2.80,0.21,0.17,0.99,-0.00
8.791992,1.660306E-4,-0.0027752407,0.0024744067,0.17,1.0,-0.01,20547,9891.10,0,0,0,0.70,-2.80,0.21,0.17,1.00,-0.01
9.692383,0.0011660308,-0.0027752407,0.0024744067,0.17,1.0,-0.0,20561,9892.00,0,0,165,0.77,-2.80,0.21,0.17,1.00,-0.00
8.092773,1.660306E-4,-0.005775243,0.0024744067,0.17,1.0,-0.0,20576,9890.40,0,0,0,0.70,-3.01,0.21,0.17,1.00,-0.00
7.791992,-8.3396956E-4,-0.0067752413,4.744071E-4,0.17,1.0,-0.0,20584,9890.10,0,0,165,0.63,-3.08,0.07,0.17,1.00,-0.00
5.892578,-8.3396956E-4,-0.0077752434,-0.001525593,0.17,1.0,-0.01,20599,9888.20,0,0,0,0.63,-3.15,-0.07,0.17,1.00,-0.01
5.192383,0.00216603,-0.004775241,4.744071E-4,0.17,0.99,-0.0,20614,9887.50,0,0,165,0.84,-2.94,0.07,0.17,0.99,-0.00
1.9921875,0.0041660313,-0.0067752413,0.0014744072,0.17,0.99,-0.0,20622,9884.30,0,0,0,0.98,-3.08,0.14,0.17,0.99,-0.00
0.39257812,0.00216603,-0.0067752413,0.0074744076,0.17,0.99,-0.0,20637,9882.70,0,0,165,0.84,-3.08,0.56,0.17,0.99,-0.00
-1.6074219,-8.3396956E-4,-0.0067752413,0.009474407,0.18,0.99,-0.0,20652,9880.70,0,0,0,0.63,-3.08,0.70,0.18,0.99,-0.00
-5.4072266,-0.008833969,-0.0067752413,0.012474407,0.18,0.99,0.0,20659,9876.90,0,0,165,0.07,-3.08,0.91,0.18,0.99,0.00
-8.307617,-0.01783397,-0.005775243,0.022474406,0.18,0.99,-0.0,20675,9874.00,0,0,0,-0.56,-3.01,1.61,0.18,0.99,-0.00
-12.208008,-0.02083397,-0.005775243,0.034474406,0.18,0.99,-0.0,20689,9870.10,0,0,165,-0.77,-3.01,2.45,0.18,0.99,-0.00
-17.007812,-0.02383397,-0.0077752434,0.044474408,0.18,1.0,-0.01,20697,9865.30,0,0,0,-0.98,-3.15,3.15,0.18,1.00,-0.01
-18.907227,-0.019833969,-0.005775243,0.053474408,0.18,0.99,-0.01,20712,9863.40,0,0,165,-0.70,-3.01,3.78,0.18,0.99,-0.01
-21.507812,-0.018833969,-0.008775242,0.059474405,0.18,1.0,-0.0,20726,9860.80,0,0,0,-0.63,-3.22,4.20,0.18,1.00,-0.00
-23.807617,-0.015833968,-0.0067752413,0.06147441,0.17,1.0,-0.0,20734,9858.50,0,0,165,-0.42,-3.08,4.34,0.17,1.00,-0.00
-24.107422,-0.010833969,-0.0077752434,0.055474408,0.17,1.0,0.0,20749,9858.20,0,0,0,-0.07,-3.15,3.92,0.17,1.00,0.00
-24.708008,-0.010833969,-0.008775242,0.04847441,0.17,1.0,-0.01,20764,9857.60,0,0,165,-0.07,-3.22,3.43,0.17,1.00,-0.01
-25.708008,-0.0068339696,-0.0067752413,0.042474408,0.18,1.0,-0.0,20771,9856.60,0,0,0,0.21,-3.08,3.01,0.18,1.00,-0.00
-25.708008,-0.0038339696,-0.003775239,0.035474405,0.18,1.0,0.0,20786,9856.60,0,0,165,0.42,-2.87,2.52,0.18,1.00,0.00
-24.708008,-0.0018339688,-7.752441E-4,0.029474406,0.18,1.0,0.0,20801,9857.60,0,0,0,0.56,-2.66,2.10,0.18,1.00,0.00
-24.708008,-0.0018339688,-0.0027752407,0.023474405,0.18,1.0,-0.0,20809,9857.60,0,0,165,0.56,-2.80,1.68,0.18,1.00,-0.00
-24.708008,0.0041660313,-0.005775243,0.020474406,0.18,1.0,-0.0,20824,9857.60,0,0,0,0.98,-3.01,1.47,0.18,1.00,-0.00
-23.507812,0.0071660317,-0.005775243,0.017474405,0.18,1.0,0.0,20839,9858.80,0,0,165,1.19,-3.01,1.26,0.18,1.00,0.00
-23.507812,0.0071660317,-0.003775239,0.013474408,0.18,1.0,0.0,20846,9858.80,0,0,0,1.19,-2.87,0.98,0.18,1.00,0.00
-22.807617,0.009166032,-0.0017752424,0.009474407,0.18,0.99,0.0,20861,9859.50,0,0,165,1.33,-2.73,0.70,0.18,0.99,0.00
-21.807617,0.0061660316,0.005224757,0.010474407,0.18,0.99,0.0,20876,9860.50,0,0,0,1.12,-2.24,0.77,0.18,0.99,0.00
-20.907227,0.0051660305,0.007224759,0.014474407,0.18,0.99,0.0,20884,9861.40,0,0,165,1.05,-2.10,1.05,0.18,0.99,0.00
-21.507812,0.003166031,0.01322476,0.018474407,0.18,0.99,-0.0,20906,9860.80,0,0,0,0.91,-1.68,1.33,0.18,0.99,-0.00
-20.907227,0.0051660305,0.016224759,0.017474405,0.18,0.99,-0.01,20914,9861.40,0,0,165,1.05,-1.47,1.26,0.18,0.99,-0.01
-20.907227,0.00816603,0.016224759,0.013474408,0.18,0.99,-0.01,20930,9861.40,0,0,0,1.26,-1.47,0.98,0.18,0.99,-0.01
-20.607422,0.003166031,0.012224758,0.010474407,0.18,0.98,-0.0,20937,9861.70,0,0,165,0.91,-1.75,0.77,0.18,0.98,-0.00
-19.607422,-0.0038339696,0.006224757,0.0074744076,0.19,0.99,-0.0,20951,9862.70,0,0,0,0.42,-2.17,0.56,0.19,0.99,-0.00
-19.607422,-0.010833969,0.0022247583,0.010474407,0.19,0.99,-0.0,20959,9862.70,0,0,165,-0.07,-2.45,0.77,0.19,0.99,-0.00
-19.607422,-0.012833969,-0.0017752424,0.018474407,0.19,0.99,-0.0,20975,9862.70,0,0,0,-0.21,-2.73,1.33,0.19,0.99,-0.00
-19.607422,-0.01383397,-0.004775241,0.024474407,0.19,1.0,-0.0,20989,9862.70,0,0,165,-0.28,-2.94,1.75,0.19,1.00,-0.00
-19.607422,-0.012833969,-0.004775241,0.029474406,0.19,1.0,-0.0,20997,9862.70,0,0,0,-0.21,-2.94,2.10,0.19,1.00,-0.00
-18.607422,-0.0118339695,-0.0067752413,0.031474408,0.19,0.99,-0.0,21011,9863.70,0,0,165,-0.14,-3.08,2.24,0.19,0.99,-0.00
-18.607422,-0.0118339695,-0.011775244,0.028474405,0.18,0.99,0.0,21027,9863.70,0,0,0,-0.14,-3.43,2.03,0.18,0.99,0.00
-18.607422,-0.01383397,-0.013775241,0.026474407,0.18,0.99,0.0,21034,9863.70,0,0,165,-0.28,-3.57,1.89,0.18,0.99,0.00
-18.907227,-0.012833969,-0.014775243,0.024474407,0.19,0.99,0.0,21049,9863.40,0,0,0,-0.21,-3.64,1.75,0.19,0.99,0.00
-17.708008,-0.01383397,-0.013775241,0.024474407,0.18,0.99,0.0,21064,9864.60,0,0,165,-0.28,-3.57,1.75,0.18,0.99,0.00
-16.708008,-0.012833969,-0.010775238,0.023474405,0.18,0.99,0.0,21079,9865.60,0,0,0,-0.21,-3.36,1.68,0.18,0.99,0.00
-17.307617,-0.010833969,-0.008775242,0.024474407,0.18,0.99,0.0,21087,9865.00,0,0,165,-0.07,-3.22,1.75,0.18,0.99,0.00
-16.407227,-0.007833969,-0.0067752413,0.022474406,0.18,1.0,0.0,21102,9865.90,0,0,0,0.14,-3.08,1.61,0.18,1.00,0.00
-15.708008,-0.0048339693,-0.004775241,0.022474406,0.18,0.99,0.0,21109,9866.60,0,0,165,0.35,-2.94,1.61,0.18,0.99,0.00
-14.807617,-0.0018339688,-0.004775241,0.018474407,0.19,0.99,0.0,21131,9867.50,0,0,0,0.56,-2.94,1.33,0.19,0.99,0.00
-15.708008,1.660306E-4,-7.752441E-4,0.015474408,0.19,0.99,0.0,21139,9866.60,0,0,165,0.70,-2.66,1.12,0.19,0.99,0.00
-15.407227,0.00216603,0.0022247583,0.017474405,0.19,1.0,0.0,21146,9866.90,0,0,0,0.84,-2.45,1.26,0.19,1.00,0.00
-13.5078125,0.0011660308,0.0022247583,0.013474408,0.19,0.99,0.0,21162,9868.80,0,0,165,0.77,-2.45,0.98,0.19,0.99,0.00
-11.5078125,1.660306E-4,0.006224757,0.012474407,0.19,0.99,0.0,21176,9870.80,0,0,0,0.70,-2.17,0.91,0.19,0.99,0.00
-11.5078125,0.0011660308,0.0042247586,0.010474407,0.19,0.99,0.0,21184,9870.80,0,0,165,0.77,-2.31,0.77,0.19,0.99,0.00
-11.5078125,-8.3396956E-4,0.005224757,0.011474406,0.19,0.99,0.0,21199,9870.80,0,0,0,0.63,-2.24,0.84,0.19,0.99,0.00
-10.607422,0.0011660308,0.0042247586,0.012474407,0.19,0.99,-0.0,21214,9871.70,0,0,165,0.77,-2.31,0.91,0.19,0.99,-0.00
-10.607422,-8.3396956E-4,0.0032247566,0.012474407,0.19,0.99,0.0,21221,9871.70,0,0,0,0.63,-2.38,0.91,0.19,0.99,0.00
-8.607422,-0.0018339688,0.0032247566,0.014474407,0.19,0.99,0.0,21237,9873.70,0,0,165,0.56,-2.38,1.05,0.19,0.99,0.00
-8.307617,0.0011660308,0.005224757,0.011474406,0.19,0.99,0.0,21252,9874.00,0,0,0,0.77,-2.24,0.84,0.19,0.99,0.00
-8.0078125,-8.3396956E-4,0.005224757,0.010474407,0.19,0.99,0.0,21259,9874.30,0,0,165,0.63,-2.24,0.77,0.19,0.99,0.00
-7.0078125,0.0011660308,0.00122476,0.010474407,0.19,0.99,0.0,21274,9875.30,0,0,0,0.77,-2.52,0.77,0.19,0.99,0.00
-4.807617,0.0041660313,0.00122476,0.008474407,0.19,0.99,0.0,21289,9877.50,0,0,165,0.98,-2.52,0.63,0.19,0.99,0.00
-2.8076172,0.0041660313,2.2475794E-4,0.0074744076,0.19,0.99,0.0,21296,9879.50,0,0,0,0.98,-2.59,0.56,0.19,0.99,0.00
-0.90722656,0.0041660313,0.00122476,0.0034744074,0.19,0.99,0.0,21312,9881.40,0,0,165,0.98,-2.52,0.28,0.19,0.99,0.00
0.39257812,0.003166031,0.0022247583,-0.0025255932,0.19,0.99,0.0,21326,9882.70,0,0,0,0.91,-2.45,-0.14,0.19,0.99,0.00
0.9921875,0.003166031,0.0032247566,-0.0065255924,0.19,0.99,0.0,21334,9883.30,0,0,165,0.91,-2.38,-0.42,0.19,0.99,0.00
3.2919922,0.0041660313,0.0042247586,-0.013525593,0.19,0.99,0.0,21349,9885.60,0,0,0,0.98,-2.31,-0.91,0.19,0.99,0.00
4.892578,0.00816603,0.007224759,-0.018525593,0.18,0.99,0.0,21364,9887.20,0,0,165,1.26,-2.10,-1.26,0.18,0.99,0.00
7.0927734,0.00816603,0.006224757,-0.024525592,0.19,0.99,0.0,21372,9889.40,0,0,0,1.26,-2.17,-1.68,0.19,0.99,0.00
8.092773,0.0071660317,0.005224757,-0.029525593,0.19,0.99,-0.0,21386,9890.40,0,0,165,1.19,-2.24,-2.03,0.19,0.99,-0.00
10.9921875,0.00816603,0.005224757,-0.032525595,0.19,0.99,0.0,21402,9893.30,0,0,0,1.26,-2.24,-2.24,0.19,0.99,0.00
10.692383,0.0061660316,0.008224759,-0.033525594,0.19,0.99,0.0,21410,9893.00,0,0,165,1.12,-2.03,-2.31,0.19,0.99,0.00
11.9921875,0.003166031,0.0042247586,-0.035525594,0.19,0.99,0.0,21424,9894.30,0,0,0,0.91,-2.31,-2.45,0.19,0.99,0.00
15.791992,1.660306E-4,0.006224757,-0.034525596,0.19,0.99,0.01,21439,9898.10,0,0,165,0.70,-2.17,-2.38,0.19,0.99,0.01
15.791992,-0.0038339696,0.006224757,-0.036525592,0.19,0.99,0.0,21446,9898.10,0,0,0,0.42,-2.17,-2.52,0.19,0.99,0.00
16.791992,-0.008833969,0.008224759,-0.035525594,0.19,0.99,0.0,21462,9899.10,0,0,165,0.07,-2.03,-2.45,0.19,0.99,0.00
18.392578,-0.008833969,0.008224759,-0.034525596,0.19,0.99,0.0,21477,9900.70,0,0,0,0.07,-2.03,-2.38,0.19,0.99,0.00
18.692383,-0.0068339696,0.009224758,-0.030525593,0.19,0.99,0.0,21484,9901.00,0,0,165,0.21,-1.96,-2.10,0.19,0.99,0.00
19.992188,-0.0048339693,0.009224758,-0.028525595,0.19,0.99,0.0,21499,9902.30,0,0,0,0.35,-1.96,-1.96,0.19,0.99,0.00
21.592773,-0.008833969,0.008224759,-0.027525594,0.19,0.99,0.01,21514,9903.90,0,0,165,0.07,-2.03,-1.89,0.19,0.99,0.01
21.592773,-0.009833969,0.005224757,-0.027525594,0.19,0.99,0.0,21521,9903.90,0,0,0,0.00,-2.24,-1.89,0.19,0.99,0.00
20.692383,-0.009833969,0.0022247583,-0.026525594,0.19,1.0,-0.0,21536,9903.00,0,0,165,0.00,-2.45,-1.82,0.19,1.00,-0.00
21.992188,-0.0038339696,-7.752441E-4,-0.028525595,0.18,0.99,-0.0,21551,9904.30,0,0,0,0.42,-2.66,-1.96,0.18,0.99,-0.00
21.592773,-8.3396956E-4,-0.004775241,-0.025525594,0.18,0.99,0.0,21559,9903.90,0,0,165,0.63,-2.94,-1.75,0.18,0.99,0.00
20.692383,1.660306E-4,-0.0067752413,-0.022525594,0.19,0.99,0.0,21574,9903.00,0,0,0,0.70,-3.08,-1.54,0.19,0.99,0.00
20.992188,-0.0018339688,-0.00977524,-0.023525594,0.18,1.0,0.0,21589,9903.30,0,0,165,0.56,-3.29,-1.61,0.18,1.00,0.00
20.992188,-0.0018339688,-0.012775242,-0.023525594,0.18,1.0,0.0,21596,9903.30,0,0,0,0.56,-3.50,-1.61,0.18,1.00,0.00
20.692383,-0.0038339696,-0.013775241,-0.020525593,0.18,1.0,0.01,21611,9903.00,0,0,165,0.42,-3.57,-1.40,0.18,1.00,0.01
19.992188,-0.005833969,-0.010775238,-0.019525595,0.18,1.0,0.01,21626,9902.30,0,0,0,0.28,-3.36,-1.33,0.18,1.00,0.01
19.992188,-0.002833969,-0.0067752413,-0.013525593,0.18,1.0,0.01,21633,9902.30,0,0,165,0.49,-3.08,-0.91,0.18,1.00,0.01
19.692383,0.0041660313,0.00122476,-0.008525593,0.17,1.0,0.01,21649,9902.00,0,0,0,0.98,-2.52,-0.56,0.17,1.00,0.01
19.092773,0.01016603,0.0042247586,-0.0055255927,0.18,0.99,0.01,21664,9901.40,0,0,165,1.40,-2.31,-0.35,0.18,0.99,0.01
19.092773,0.01016603,0.0042247586,-0.0035255929,0.18,0.99,0.0,21672,9901.40,0,0,0,1.40,-2.31,-0.21,0.18,0.99,0.00
18.092773,0.013166031,0.0042247586,-0.004525593,0.18,0.99,0.0,21687,9900.40,0,0,165,1.61,-2.31,-0.28,0.18,0.99,0.00
18.092773,0.011166031,0.0042247586,-0.010525593,0.18,0.99,0.0,21702,9900.40,0,0,0,1.47,-2.31,-0.70,0.18,0.99,0.00
17.092773,0.011166031,2.2475794E-4,-0.011525593,0.18,0.99,0.0,21709,9899.40,0,0,165,1.47,-2.59,-0.77,0.18,0.99,0.00
17.092773,0.0071660317,-7.752441E-4,-0.011525593,0.18,0.99,0.0,21724,9899.40,0,0,0,1.19,-2.66,-0.77,0.18,0.99,0.00
17.092773,0.0071660317,-0.0027752407,-0.013525593,0.18,0.99,0.0,21739,9899.40,0,0,165,1.19,-2.80,-0.91,0.18,0.99,0.00
18.092773,0.00816603,-0.004775241,-0.013525593,0.18,0.99,0.0,21746,9900.40,0,0,0,1.26,-2.94,-0.91,0.18,0.99,0.00
16.492188,0.0061660316,-0.0067752413,-0.012525592,0.18,1.0,0.0,21761,9898.80,0,0,165,1.12,-3.08,-0.84,0.18,1.00,0.00
17.492188,0.0071660317,-0.0067752413,-0.014525593,0.18,1.0,0.0,21784,9899.80,0,0,0,1.19,-3.08,-0.98,0.18,1.00,0.00
15.4921875,0.00816603,-0.005775243,-0.014525593,0.18,0.99,0.0,21785,9897.80,0,0,165,1.26,-3.01,-0.98,0.18,0.99,0.00
15.192383,0.01016603,-0.0067752413,-0.017525595,0.18,1.0,0.0,21799,9897.50,0,0,0,1.40,-3.08,-1.19,0.18,1.00,0.00
16.192383,0.011166031,-0.005775243,-0.017525595,0.18,1.0,0.0,21814,9898.50,0,0,165,1.47,-3.01,-1.19,0.18,1.00,0.00
15.192383,0.013166031,-0.003775239,-0.017525595,0.18,1.0,0.0,21829,9897.50,0,0,0,1.61,-2.87,-1.19,0.18,1.00,0.00
15.192383,0.01016603,-0.0017752424,-0.016525595,0.18,0.99,0.0,21836,9897.50,0,0,165,1.40,-2.73,-1.12,0.18,0.99,0.00
15.4921875,0.012166031,0.0032247566,-0.012525592,0.18,1.0,0.0,21844,9897.80,0,0,0,1.54,-2.38,-0.84,0.18,1.00,0.00
15.192383,0.00816603,0.0022247583,-0.0155255925,0.18,1.0,-0.0,21867,9897.50,0,0,165,1.26,-2.45,-1.05,0.18,1.00,-0.00
15.4921875,0.017166032,2.2475794E-4,-0.017525595,0.18,0.99,-0.0,21874,9897.80,0,0,0,1.89,-2.59,-1.19,0.18,0.99,-0.00
15.4921875,0.011166031,-0.005775243,-0.021525593,0.17,0.99,0.0,21882,9897.80,0,0,165,1.47,-3.01,-1.47,0.17,0.99,0.00
14.192383,0.0061660316,-0.008775242,-0.023525594,0.17,0.99,-0.12,21897,9896.50,0,0,0,1.12,-3.22,-1.61,0.17,0.99,-0.12
14.592773,0.003166031,-0.0077752434,-0.021525593,0.18,1.0,0.0,21912,9896.90,0,0,165,0.91,-3.15,-1.47,0.18,1.00,0.00
14.592773,0.00216603,-0.008775242,-0.020525593,0.17,1.0,-0.0,21919,9896.90,0,0,0,0.84,-3.22,-1.40,0.17,1.00,-0.00
12.592773,0.0041660313,-0.0067752413,-0.013525593,0.17,1.0,-0.0,21934,9894.90,0,0,165,0.98,-3.08,-0.91,0.17,1.00,-0.00
13.592773,0.0061660316,-0.0067752413,-0.0155255925,0.18,0.99,-0.0,21949,9895.90,0,0,0,1.12,-3.08,-1.05,0.18,0.99,-0.00
13.592773,0.0051660305,-0.0077752434,-0.010525593,0.17,0.99,0.0,21971,9895.90,0,0,165,1.05,-3.15,-0.70,0.17,0.99,0.00
11.692383,0.0051660305,-0.00977524,-0.0065255924,0.17,0.99,0.0,21973,9894.00,0,0,0,1.05,-3.29,-0.42,0.17,0.99,0.00
11.692383,0.0051660305,-0.00977524,0.2534744,0.17,1.0,0.0,21987,9894.00,0,0,165,1.05,-3.29,17.78,0.17,1.00,0.00
11.692383,0.00216603,-0.011775244,-5.2559294E-4,0.17,0.99,0.0,21994,9894.00,0,0,0,0.84,-3.43,0.00,0.17,0.99,0.00
11.692383,-8.3396956E-4,-0.010775238,0.0024744067,0.17,0.99,0.0,22009,9894.00,0,0,165,0.63,-3.36,0.21,0.17,0.99,0.00
10.692383,-0.0018339688,-0.012775242,0.004474407,0.17,0.99,0.0,22024,9893.00,0,0,0,0.56,-3.50,0.35,0.17,0.99,0.00
10.9921875,-0.0018339688,-0.013775241,0.008474407,0.18,0.99,0.0,22031,9893.30,0,0,165,0.56,-3.57,0.63,0.18,0.99,0.00
11.692383,0.00216603,-0.017775241,0.010474407,0.18,1.0,0.0,22047,9894.00,0,0,0,0.84,-3.85,0.77,0.18,1.00,0.00
9.9921875,1.660306E-4,-0.023775242,0.014474407,0.18,1.0,0.0,22062,9892.30,0,0,165,0.70,-4.27,1.05,0.18,1.00,0.00
9.692383,-0.005833969,-0.030775245,0.014474407,0.18,1.0,0.01,22076,9892.00,0,0,0,0.28,-4.76,1.05,0.18,1.00,0.01
10.9921875,-0.01383397,-0.037775245,0.016474407,0.18,1.0,0.01,22084,9893.30,0,0,165,-0.28,-5.25,1.19,0.18,1.00,0.01
8.092773,-0.02083397,-0.044775236,0.016474407,0.18,1.0,0.01,22100,9890.40,0,0,0,-0.77,-5.74,1.19,0.18,1.00,0.01
7.791992,-0.030833969,-0.059775244,0.018474407,0.18,1.0,0.01,22107,9890.10,0,0,165,-1.47,-6.79,1.33,0.18,1.00,0.01
7.0927734,-0.03283397,-0.07877524,0.015474408,0.18,1.0,0.01,22122,9889.40,0,0,0,-1.61,-8.12,1.12,0.18,1.00,0.01
6.192383,-0.034833968,-0.09577525,0.008474407,0.18,1.0,0.0,22136,9888.50,0,0,165,-1.75,-9.31,0.63,0.18,1.00,0.00
6.192383,-0.03783397,-0.12577525,4.744071E-4,0.18,1.0,-0.0,22144,9888.50,0,0,0,-1.96,-11.41,0.07,0.18,1.00,-0.00
4.192383,-0.04383397,-0.15777524,-0.0065255924,0.18,0.99,-0.01,22159,9886.50,0,0,165,-2.38,-13.65,-0.42,0.18,0.99,-0.01
4.892578,-0.05283397,-0.18977524,-0.014525593,0.19,0.99,-0.01,22173,9887.20,0,0,0,-3.01,-15.89,-0.98,0.19,0.99,-0.01
3.2919922,-0.057833966,-0.22777523,-0.020525593,0.19,0.98,-0.02,22182,9885.60,0,0,165,-3.36,-18.55,-1.40,0.19,0.98,-0.02
0.39257812,-0.07183397,-0.26077524,-0.022525594,0.18,0.98,-0.02,22197,9882.70,0,0,0,-4.34,-20.86,-1.54,0.18,0.98,-0.02
1.6923828,-0.07983397,-0.29177523,-0.024525592,0.18,0.99,-0.01,22211,9884.00,0,0,165,-4.90,-23.03,-1.68,0.18,0.99,-0.01
-0.90722656,-0.092833966,-0.30977523,-0.029525593,0.17,0.98,-0.01,22219,9881.40,0,0,0,-5.81,-24.29,-2.03,0.17,0.98,-0.01
-2.2080078,-0.10583396,-0.3207752,-0.033525594,0.18,0.98,-0.0,22241,9880.10,0,0,165,-6.72,-25.06,-2.31,0.18,0.98,-0.00
-5.4072266,-0.12183397,-0.34377524,-0.034525596,0.18,0.98,-0.0,22249,9876.90,0,0,0,-7.84,-26.67,-2.38,0.18,0.98,-0.00
-7.4072266,-0.13683397,-0.36377522,-0.031525593,0.18,0.99,-0.0,22256,9874.90,0,0,165,-8.89,-28.07,-2.17,0.18,0.99,-0.00
-9.907227,-0.14583397,-0.37877524,-0.029525593,0.18,1.0,-0.01,22271,9872.40,0,0,0,-9.52,-29.12,-2.03,0.18,1.00,-0.01
-9.907227,-0.13983399,-0.38177523,-0.021525593,0.18,1.0,-0.01,22287,9872.40,0,0,165,-9.10,-29.33,-1.47,0.18,1.00,-0.01
-13.208008,-0.12583396,-0.38177523,-0.008525593,0.18,1.0,-0.01,22295,9869.10,0,0,0,-8.12,-29.33,-0.56,0.18,1.00,-0.01
-16.708008,-0.107833974,-0.38577524,4.744071E-4,0.19,0.99,-0.01,22309,9865.60,0,0,165,-6.86,-29.61,0.07,0.19,0.99,-0.01
-17.708008,-0.09383397,-0.39477524,0.012474407,0.18,1.0,-0.01,22323,9864.60,0,0,0,-5.88,-30.24,0.91,0.18,1.00,-0.01
-19.607422,-0.08383397,-0.39977524,0.021474406,0.18,1.0,0.0,22331,9862.70,0,0,165,-5.18,-30.59,1.54,0.18,1.00,0.00
-19.607422,-0.06083397,-0.40277523,0.025474407,0.18,1.0,0.0,22347,9862.70,0,0,0,-3.57,-30.80,1.82,0.18,1.00,0.00
-21.507812,-0.045833968,-0.39277524,0.024474407,0.17,1.0,0.01,22362,9860.80,0,0,165,-2.52,-30.10,1.75,0.17,1.00,0.01
-21.208008,-0.034833968,-0.37677523,0.023474405,0.17,1.0,0.01,22369,9861.10,0,0,0,-1.75,-28.98,1.68,0.17,1.00,0.01
-20.607422,-0.02883397,-0.36977524,0.021474406,0.18,1.0,0.01,22384,9861.70,0,0,165,-1.33,-28.49,1.54,0.18,1.00,0.01
-21.507812,-0.027833968,-0.35977525,0.022474406,0.18,0.99,0.01,22399,9860.80,0,0,0,-1.26,-27.79,1.61,0.18,0.99,0.01
-21.507812,-0.02583397,-0.35277522,0.026474407,0.18,0.99,0.0,22406,9860.80,0,0,165,-1.12,-27.30,1.89,0.18,0.99,0.00
-21.507812,-0.019833969,-0.34277523,0.030474408,0.18,1.0,0.0,22430,9860.80,0,0,0,-0.70,-26.60,2.17,0.18,1.00,0.00
-19.607422,-0.014833969,-0.33077523,0.032474406,0.18,0.99,0.0,22437,9862.70,0,0,165,-0.35,-25.76,2.31,0.18,0.99,0.00
-20.607422,-0.0068339696,-0.30977523,0.035474405,0.18,0.99,0.0,22444,9861.70,0,0,0,0.21,-24.29,2.52,0.18,0.99,0.00
-19.607422,-0.002833969,-0.2907752,0.040474404,0.18,0.99,0.0,22474,9862.70,0,0,165,0.49,-22.96,2.87,0.18,0.99,0.00
-19.607422,0.0051660305,-0.28277522,0.045474406,0.19,0.98,-0.0,22475,9862.70,0,0,0,1.05,-22.40,3.22,0.19,0.98,-0.00
-19.607422,0.00216603,-0.27977523,0.050474405,0.19,0.99,-0.01,22481,9862.70,0,0,165,0.84,-22.19,3.57,0.19,0.99,-0.01
-18.307617,1.660306E-4,-0.28277522,0.053474408,0.18,0.99,-0.02,22504,9864.00,0,0,0,0.70,-22.40,3.78,0.18,0.99,-0.02
-17.708008,1.660306E-4,-0.28677523,0.053474408,0.18,1.0,-0.02,22526,9864.60,0,0,165,0.70,-22.68,3.78,0.18,1.00,-0.02
-18.307617,0.014166029,-0.36377522,0.10747441,0.18,1.0,-0.01,22528,9864.00,0,0,0,1.68,-28.07,7.56,0.18,1.00,-0.01
-18.307617,-0.027833968,-0.23477526,0.036474407,0.17,1.0,-0.01,22534,9864.00,0,0,165,-1.26,-19.04,2.59,0.17,1.00,-0.01
-18.307617,-0.04383397,-0.23477526,0.047474403,0.17,0.99,0.0,22542,9864.00,0,0,0,-2.38,-19.04,3.36,0.17,0.99,0.00
-17.307617,-0.040833972,-0.25077522,0.041474406,0.17,1.0,0.0,22557,9865.00,0,0,165,-2.17,-20.16,2.94,0.17,1.00,0.00
-17.307617,-0.04483397,-0.23577525,0.03747441,0.16,1.0,0.01,22572,9865.00,0,0,0,-2.45,-19.11,2.66,0.16,1.00,0.01
-16.708008,-0.04183397,-0.22777523,0.050474405,0.15,1.0,0.02,22579,9865.60,0,0,165,-2.24,-18.55,3.57,0.15,1.00,0.02
-16.407227,-0.03883397,-0.21477525,0.059474405,0.14,1.0,0.03,22594,9865.90,0,0,0,-2.03,-17.64,4.20,0.14,1.00,0.03
-17.307617,-0.04683397,-0.17677523,0.06147441,0.13,0.99,0.04,22609,9865.00,0,0,165,-2.59,-14.98,4.34,0.13,0.99,0.04
-17.307617,-0.06683397,-0.11577524,0.06647441,0.13,0.98,0.04,22616,9865.00,0,0,0,-3.99,-10.71,4.69,0.13,0.98,0.04
-17.307617,-0.08983397,-0.09177524,0.055474408,0.13,0.97,0.03,22632,9865.00,0,0,165,-5.60,-9.03,3.92,0.13,0.97,0.03
-17.307617,-0.11683396,-0.07077524,0.011474406,0.13,0.98,0.01,22646,9865.00,0,0,0,-7.49,-7.56,0.84,0.13,0.98,0.01
-17.007812,-0.13183397,-0.04677524,-0.010525593,0.14,1.0,-0.12,22654,9865.30,0,0,165,-8.54,-5.88,-0.70,0.14,1.00,-0.12
-16.107422,-0.11683396,-0.05377524,-0.027525594,0.15,0.99,0.02,22669,9866.20,0,0,0,-7.49,-6.37,-1.89,0.15,0.99,0.02
-15.107422,-0.12983397,-0.11177525,-0.04152559,0.17,1.01,0.02,22685,9867.20,0,0,165,-8.40,-10.43,-2.87,0.17,1.01,0.02
-15.107422,-0.15983397,-0.08577524,-0.024525592,0.19,0.97,0.04,22692,9867.20,0,0,0,-10.50,-8.61,-1.68,0.19,0.97,0.04
-16.107422,-0.15183395,-0.065775245,0.010474407,0.2,0.97,0.02,22706,9866.20,0,0,165,-9.94,-7.21,0.77,0.20,0.97,0.02
-15.107422,-0.10183397,-0.109775245,0.09947441,0.17,0.99,-0.0,22722,9867.20,0,0,0,-6.44,-10.29,7.00,0.17,0.99,-0.00
-13.807617,-0.07783397,-0.026775245,0.08647441,0.16,1.0,-0.01,22728,9868.50,0,0,165,-4.76,-4.48,6.09,0.16,1.00,-0.01
-13.807617,-0.05483397,-0.0077752434,0.058474407,0.17,1.01,-0.01,22744,9868.50,0,0,0,-3.15,-3.15,4.13,0.17,1.01,-0.01
-12.807617,-0.02683397,-0.025775243,0.056474406,0.18,1.01,-0.01,22758,9869.50,0,0,165,-1.19,-4.41,3.99,0.18,1.01,-0.01
-14.107422,-0.0048339693,-0.06177524,0.043474406,0.19,1.01,-0.01,22767,9868.20,0,0,0,0.35,-6.93,3.08,0.19,1.01,-0.01
-11.907227,-8.3396956E-4,-0.08977525,0.043474406,0.2,1.01,-0.01,22782,9870.40,0,0,165,0.63,-8.89,3.08,0.20,1.01,-0.01
-11.907227,-0.007833969,-0.16377524,0.042474408,0.19,1.0,0.0,22796,9870.40,0,0,0,0.14,-14.07,3.01,0.19,1.00,0.00
-10.907227,-0.050833967,-0.097775236,0.009474407,0.19,0.99,0.01,22804,9871.40,0,0,165,-2.87,-9.45,0.70,0.19,0.99,0.01
-9.907227,-0.09483397,-0.055775244,-0.017525595,0.17,1.0,0.02,22819,9872.40,0,0,0,-5.95,-6.51,-1.19,0.17,1.00,0.02
-9.907227,-0.10483397,-0.048775245,-0.016525595,0.17,1.0,0.03,22834,9872.40,0,0,165,-6.65,-6.02,-1.12,0.17,1.00,0.03
-8.0078125,-0.10083397,-0.018775243,-0.020525593,0.17,0.99,0.03,22842,9874.30,0,0,0,-6.37,-3.92,-1.40,0.17,0.99,0.03
-9.0078125,-0.09483397,0.006224757,-0.009525592,0.16,0.99,0.03,22865,9873.30,0,0,165,-5.95,-2.17,-0.63,0.16,0.99,0.03
-7.0078125,-0.07283397,0.017224759,-5.2559294E-4,0.16,0.98,0.02,22872,9875.30,0,0,0,-4.41,-1.40,0.00,0.16,0.98,0.02
-7.0078125,-0.04983397,0.04522476,-0.0065255924,0.15,0.98,0.01,22879,9875.30,0,0,165,-2.80,0.56,-0.42,0.15,0.98,0.01
-6.107422,-0.045833968,0.09922476,-0.019525595,0.15,0.98,0.0,22894,9876.20,0,0,0,-2.52,4.34,-1.33,0.15,0.98,0.00
-6.107422,-0.04783397,0.13722476,-0.027525594,0.15,0.98,0.0,22901,9876.20,0,0,165,-2.66,7.00,-1.89,0.15,0.98,0.00
-5.708008,-0.057833966,0.15822476,-0.030525593,0.17,0.98,0.01,22917,9876.60,0,0,0,-3.36,8.47,-2.10,0.17,0.98,0.01
-5.4072266,-0.069833964,0.16422476,-0.019525595,0.18,0.97,0.01,22932,9876.90,0,0,165,-4.20,8.89,-1.33,0.18,0.97,0.01
-4.107422,-0.07783397,0.18022476,-0.007525593,0.2,0.97,0.02,22938,9878.20,0,0,0,-4.76,10.01,-0.49,0.20,0.97,0.02
-3.2080078,-0.09983397,0.17922474,0.027474407,0.21,0.97,0.03,22954,9879.10,0,0,165,-6.30,9.94,1.96,0.21,0.97,0.03
0.39257812,-0.12183397,0.17822476,0.08447441,0.22,0.97,0.04,22970,9882.70,0,0,0,-7.84,9.87,5.95,0.22,0.97,0.04
-0.90722656,-0.15383396,0.18622476,0.13247441,0.22,0.97,0.04,22977,9881.40,0,0,165,-10.08,10.43,9.31,0.22,0.97,0.04
0.9921875,-0.18983397,0.17522475,0.1914744,0.22,0.97,0.04,22992,9883.30,0,0,0,-12.60,9.66,13.44,0.22,0.97,0.04
1.9921875,-0.21083397,0.17422476,0.23647441,0.23,0.98,0.04,23007,9884.30,0,0,165,-14.07,9.59,16.59,0.23,0.98,0.04
3.8925781,-0.22183397,0.18322475,0.2724744,0.23,0.98,0.04,23014,9886.20,0,0,0,-14.84,10.22,19.11,0.23,0.98,0.04
4.5927734,-0.22783399,0.16822475,0.3114744,0.23,0.97,0.04,23029,9886.90,0,0,165,-15.26,9.17,21.84,0.23,0.97,0.04
6.4921875,-0.22783399,0.15622476,0.3354744,0.23,0.97,0.05,23044,9888.80,0,0,0,-15.26,8.33,23.52,0.23,0.97,0.05
8.392578,-0.23083398,0.14122476,0.3524744,0.23,0.97,0.06,23052,9890.70,0,0,165,-15.47,7.28,24.71,0.23,0.97,0.06
9.9921875,-0.24683398,0.10622476,0.3604744,0.23,0.96,0.08,23067,9892.30,0,0,0,-16.59,4.83,25.27,0.23,0.96,0.08
13.291992,-0.25883397,0.081224754,0.3584744,0.24,0.96,0.09,23082,9895.60,0,0,165,-17.43,3.08,25.13,0.24,0.96,0.09
13.291992,-0.26483396,0.07322475,0.3454744,0.25,0.97,0.09,23089,9895.60,0,0,0,-17.85,2.52,24.22,0.25,0.97,0.09
13.291992,-0.26683396,0.05822476,0.3274744,0.25,0.97,0.09,23104,9895.60,0,0,165,-17.99,1.47,22.96,0.25,0.97,0.09
15.192383,-0.26183397,0.05022476,0.3044744,0.25,0.98,0.09,23119,9897.50,0,0,0,-17.64,0.91,21.35,0.25,0.98,0.09
16.492188,-0.25683397,0.038224757,0.2754744,0.26,0.99,0.1,23126,9898.80,0,0,165,-17.29,0.07,19.32,0.26,0.99,0.10
16.192383,-0.24183396,0.026224758,0.23447442,0.26,1.0,0.11,23142,9898.50,0,0,0,-16.24,-0.77,16.45,0.26,1.00,0.11
18.092773,-0.23283395,0.02522476,0.1964744,0.26,1.0,0.11,23157,9900.40,0,0,165,-15.61,-0.84,13.79,0.26,1.00,0.11
18.392578,-0.21883398,0.024224758,0.1614744,0.26,1.0,0.12,23164,9900.70,0,0,0,-14.63,-0.91,11.34,0.26,1.00,0.12
18.092773,-0.20883396,0.029224757,0.13247441,0.26,1.0,0.13,23179,9900.40,0,0,165,-13.93,-0.56,9.31,0.26,1.00,0.13
18.392578,-0.19683397,0.023224758,0.109474406,0.26,1.0,0.13,23193,9900.70,0,0,0,-13.09,-0.98,7.70,0.26,1.00,0.13
18.392578,-0.17683396,0.027224759,0.08847441,0.26,1.0,0.13,23202,9900.70,0,0,165,-11.69,-0.70,6.23,0.26,1.00,0.13
19.992188,-0.15783396,0.03722476,0.055474408,0.26,1.0,0.13,23217,9902.30,0,0,0,-10.36,0.00,3.92,0.26,1.00,0.13
19.392578,-0.14483395,0.03922476,0.041474406,0.26,0.99,0.13,23231,9901.70,0,0,165,-9.45,0.14,2.94,0.26,0.99,0.13
18.692383,-0.12883396,0.033224758,0.031474408,0.27,0.99,0.13,23239,9901.00,0,0,0,-8.33,-0.28,2.24,0.27,0.99,0.13
18.092773,-0.11283397,0.024224758,0.028474405,0.27,0.98,0.13,23254,9900.40,0,0,165,-7.21,-0.91,2.03,0.27,0.98,0.13
16.492188,-0.09883397,0.023224758,0.033474408,0.27,0.98,0.13,23269,9898.80,0,0,0,-6.23,-0.98,2.38,0.27,0.98,0.13
16.492188,-0.081833966,0.017224759,0.038474407,0.26,0.97,0.13,23277,9898.80,0,0,165,-5.04,-1.40,2.73,0.26,0.97,0.13
15.192383,-0.070833966,0.008224759,0.038474407,0.27,0.97,0.14,23292,9897.50,0,0,0,-4.27,-2.03,2.73,0.27,0.97,0.14
15.4921875,-0.06383397,0.0042247586,0.03747441,0.27,0.97,0.14,23307,9897.80,0,0,165,-3.78,-2.31,2.66,0.27,0.97,0.14
16.492188,-0.056833968,-0.0027752407,0.040474404,0.27,0.97,0.14,23314,9898.80,0,0,0,-3.29,-2.80,2.87,0.27,0.97,0.14
15.4921875,-0.05183397,-0.008775242,0.040474404,0.26,0.97,0.14,23329,9897.80,0,0,165,-2.94,-3.22,2.87,0.26,0.97,0.14
16.492188,-0.04483397,-0.012775242,0.039474405,0.26,0.98,0.14,23344,9898.80,0,0,0,-2.45,-3.50,2.80,0.26,0.98,0.14
14.592773,-0.040833972,-0.010775238,0.03747441,0.26,0.98,0.14,23352,9896.90,0,0,165,-2.17,-3.36,2.66,0.26,0.98,0.14
15.791992,-0.033833966,-0.011775244,0.029474406,0.26,0.98,0.14,23366,9898.10,0,0,0,-1.68,-3.43,2.10,0.26,0.98,0.14
14.592773,-0.02483397,-0.004775241,0.023474405,0.26,0.98,0.14,23382,9896.90,0,0,165,-1.05,-2.94,1.68,0.26,0.98,0.14
14.592773,-0.0118339695,0.0032247566,0.016474407,0.26,0.98,0.14,23389,9896.90,0,0,0,-0.14,-2.38,1.19,0.26,0.98,0.14
13.892578,-0.0018339688,0.006224757,0.010474407,0.26,0.98,0.14,23404,9896.20,0,0,165,0.56,-2.17,0.77,0.26,0.98,0.14
13.592773,0.012166031,0.016224759,-5.2559294E-4,0.25,0.99,0.14,23419,9895.90,0,0,0,1.54,-1.47,0.00,0.25,0.99,0.14
13.592773,0.017166032,0.020224757,-0.008525593,0.26,0.98,0.14,23426,9895.90,0,0,165,1.89,-1.19,-0.56,0.26,0.98,0.14
11.9921875,0.022166032,0.027224759,-0.016525595,0.26,0.98,0.14,23442,9894.30,0,0,0,2.24,-0.70,-1.12,0.26,0.98,0.14
11.9921875,0.02316603,0.03222476,-0.027525594,0.26,0.97,0.13,23456,9894.30,0,0,165,2.31,-0.35,-1.89,0.26,0.97,0.13
11.9921875,0.025166031,0.035224758,-0.034525596,0.26,0.97,0.13,23464,9894.30,0,0,0,2.45,-0.14,-2.38,0.26,0.97,0.13
11.9921875,0.02616603,0.033224758,-0.034525596,0.26,0.97,0.13,23479,9894.30,0,0,165,2.52,-0.28,-2.38,0.26,0.97,0.13
11.9921875,0.03016603,0.035224758,-0.032525595,0.26,0.97,0.12,23495,9894.30,0,0,0,2.80,-0.14,-2.24,0.26,0.97,0.12
12.592773,0.035166033,0.040224757,-0.022525594,0.26,0.97,0.12,23501,9894.90,0,0,165,3.15,0.21,-1.54,0.26,0.97,0.12
10.9921875,0.038166028,0.03922476,-0.019525595,0.26,0.97,0.11,23517,9893.30,0,0,0,3.36,0.14,-1.33,0.26,0.97,0.11
9.9921875,0.04016603,0.03922476,-0.021525593,0.26,0.96,0.12,23532,9892.30,0,0,165,3.50,0.14,-1.47,0.26,0.96,0.12
9.9921875,0.04016603,0.03422476,-0.021525593,0.27,0.96,0.12,23539,9892.30,0,0,0,3.50,-0.21,-1.47,0.27,0.96,0.12
9.9921875,0.04016603,0.028224759,-0.022525594,0.26,0.96,0.12,23554,9892.30,0,0,165,3.50,-0.63,-1.54,0.26,0.96,0.12
9.9921875,0.03016603,0.022224758,-0.019525595,0.27,0.96,0.12,23569,9892.30,0,0,0,2.80,-1.05,-1.33,0.27,0.96,0.12
9.092773,0.027166031,0.018224757,-0.017525595,0.26,0.96,0.11,23577,9891.40,0,0,165,2.59,-1.33,-1.19,0.26,0.96,0.11
9.9921875,0.02016603,0.016224759,-0.0155255925,0.27,0.97,0.11,23591,9892.30,0,0,0,2.10,-1.47,-1.05,0.27,0.97,0.11
9.092773,0.013166031,0.016224759,-0.016525595,0.26,0.97,0.11,23606,9891.40,0,0,165,1.61,-1.47,-1.12,0.26,0.97,0.11
9.092773,0.00816603,0.016224759,-0.016525595,0.26,0.97,0.11,23614,9891.40,0,0,0,1.26,-1.47,-1.12,0.26,0.97,0.11
9.9921875,0.0071660317,0.017224759,-0.0155255925,0.26,0.97,0.11,23629,9892.30,0,0,165,1.19,-1.40,-1.05,0.26,0.97,0.11
9.092773,0.0051660305,0.012224758,-0.018525593,0.26,0.97,0.12,23644,9891.40,0,0,0,1.05,-1.75,-1.26,0.26,0.97,0.12
9.392578,0.0041660313,0.009224758,-0.017525595,0.26,0.97,0.12,23652,9891.70,0,0,165,0.98,-1.96,-1.19,0.26,0.97,0.12
9.092773,1.660306E-4,0.009224758,-0.010525593,0.26,0.97,0.12,23667,9891.40,0,0,0,0.70,-1.96,-0.70,0.26,0.97,0.12
9.092773,0.0011660308,0.010224758,-0.0055255927,0.26,0.97,0.11,23681,9891.40,0,0,165,0.77,-1.89,-0.35,0.26,0.97,0.11
9.392578,0.0051660305,0.009224758,0.0014744072,0.26,0.97,0.11,23689,9891.70,0,0,0,1.05,-1.96,0.14,0.26,0.97,0.11
8.092773,0.009166032,0.007224759,-0.0035255929,0.25,0.97,0.11,23705,9890.40,0,0,165,1.33,-2.10,-0.21,0.25,0.97,0.11
7.4921875,0.01016603,2.2475794E-4,-0.009525592,0.25,0.97,0.12,23719,9889.80,0,0,0,1.40,-2.59,-0.63,0.25,0.97,0.12
8.392578,0.009166032,-0.004775241,-0.014525593,0.26,0.97,0.12,23727,9890.70,0,0,165,1.33,-2.94,-0.98,0.26,0.97,0.12
6.4921875,0.0071660317,-0.011775244,-0.011525593,0.26,0.97,0.12,23741,9888.80,0,0,0,1.19,-3.43,-0.77,0.26,0.97,0.12
5.4921875,0.003166031,-0.00977524,-0.008525593,0.26,0.97,0.12,23756,9887.80,0,0,165,0.91,-3.29,-0.56,0.26,0.97,0.12
5.4921875,0.003166031,-0.0067752413,-5.2559294E-4,0.26,0.97,0.12,23765,9887.80,0,0,0,0.91,-3.08,0.00,0.26,0.97,0.12
3.5927734,0.003166031,-0.0017752424,0.0054744068,0.26,0.97,0.12,23779,9885.90,0,0,165,0.91,-2.73,0.42,0.26,0.97,0.12
1.6923828,0.003166031,-0.0017752424,0.009474407,0.26,0.97,0.12,23794,9884.00,0,0,0,0.91,-2.73,0.70,0.26,0.97,0.12
-0.3076172,-0.002833969,-0.005775243,0.014474407,0.26,0.97,0.12,23801,9882.00,0,0,165,0.49,-3.01,1.05,0.26,0.97,0.12
-4.107422,-0.0038339696,-0.008775242,0.017474405,0.26,0.97,0.12,23817,9878.20,0,0,0,0.42,-3.22,1.26,0.26,0.97,0.12
-7.0078125,-0.005833969,-0.008775242,0.026474407,0.26,0.97,0.12,23832,9875.30,0,0,165,0.28,-3.22,1.89,0.26,0.97,0.12
-10.907227,-0.009833969,-0.013775241,0.034474406,0.27,0.97,0.12,23839,9871.40,0,0,0,0.00,-3.57,2.45,0.27,0.97,0.12
-12.807617,-0.009833969,-0.017775241,0.041474406,0.27,0.97,0.12,23854,9869.50,0,0,165,0.00,-3.85,2.94,0.27,0.97,0.12
-15.407227,-0.008833969,-0.015775241,0.043474406,0.26,0.97,0.12,23869,9866.90,0,0,0,0.07,-3.71,3.08,0.26,0.97,0.12
-16.407227,-0.0048339693,-0.011775244,0.040474404,0.26,0.98,0.12,23877,9865.90,0,0,165,0.35,-3.43,2.87,0.26,0.98,0.12
-17.407227,-0.0038339696,-0.011775244,0.033474408,0.25,0.98,0.12,23891,9864.90,0,0,0,0.42,-3.43,2.38,0.25,0.98,0.12
-16.107422,-0.002833969,-0.005775243,0.026474407,0.25,0.98,0.12,23906,9866.20,0,0,165,0.49,-3.01,1.89,0.25,0.98,0.12
-17.007812,-0.0018339688,-0.0027752407,0.016474407,0.25,0.97,0.12,23914,9865.30,0,0,0,0.56,-2.80,1.19,0.25,0.97,0.12
-17.007812,-0.0018339688,0.0022247583,0.015474408,0.26,0.97,0.12,23929,9865.30,0,0,165,0.56,-2.45,1.12,0.26,0.97,0.12
-18.307617,-0.0068339696,2.2475794E-4,0.013474408,0.26,0.97,0.12,23944,9864.00,0,0,0,0.21,-2.59,0.98,0.26,0.97,0.12
-18.307617,-0.0068339696,0.005224757,0.011474406,0.26,0.97,0.12,23951,9864.00,0,0,165,0.21,-2.24,0.84,0.26,0.97,0.12
-16.107422,-0.0018339688,0.0032247566,0.010474407,0.26,0.97,0.12,23966,9866.20,0,0,0,0.56,-2.38,0.77,0.26,0.97,0.12
-17.007812,0.003166031,0.00122476,0.010474407,0.26,0.97,0.12,23982,9865.30,0,0,165,0.91,-2.52,0.77,0.26,0.97,0.12
-16.107422,0.0061660316,0.0032247566,0.009474407,0.26,0.97,0.12,23988,9866.20,0,0,0,1.12,-2.38,0.70,0.26,0.97,0.12
-16.107422,0.00816603,0.007224759,0.010474407,0.26,0.96,0.12,24004,9866.20,0,0,165,1.26,-2.10,0.77,0.26,0.96,0.12
-16.107422,0.0071660317,0.008224759,0.009474407,0.26,0.97,0.12,24019,9866.20,0,0,0,1.19,-2.03,0.70,0.26,0.97,0.12
-15.107422,0.0051660305,0.007224759,0.010474407,0.26,0.97,0.12,24027,9867.20,0,0,165,1.05,-2.10,0.77,0.26,0.97,0.12
-15.107422,0.0011660308,2.2475794E-4,0.012474407,0.27,0.96,0.12,24041,9867.20,0,0,0,0.77,-2.59,0.91,0.27,0.96,0.12
-14.807617,1.660306E-4,-0.004775241,0.012474407,0.27,0.97,0.12,24057,9867.50,0,0,165,0.70,-2.94,0.91,0.27,0.97,0.12
-13.807617,-0.0048339693,-0.003775239,0.018474407,0.27,0.97,0.12,24064,9868.50,0,0,0,0.35,-2.87,1.33,0.27,0.97,0.12
-16.107422,-0.007833969,0.0022247583,0.017474405,0.27,0.97,0.12,24079,9866.20,0,0,165,0.14,-2.45,1.26,0.27,0.97,0.12
-14.807617,-0.007833969,0.0032247566,0.016474407,0.26,0.97,0.12,24094,9867.50,0,0,0,0.14,-2.38,1.19,0.26,0.97,0.12
-14.807617,-0.007833969,-7.752441E-4,0.014474407,0.27,0.97,0.12,24101,9867.50,0,0,165,0.14,-2.66,1.05,0.27,0.97,0.12
-14.807617,-0.007833969,-0.003775239,0.015474408,0.27,0.97,0.12,24117,9867.50,0,0,0,0.14,-2.87,1.12,0.27,0.97,0.12
-13.807617,-0.0038339696,-0.0017752424,0.014474407,0.27,0.97,0.12,24131,9868.50,0,0,165,0.42,-2.73,1.05,0.27,0.97,0.12
-14.807617,1.660306E-4,2.2475794E-4,0.016474407,0.27,0.97,0.12,24139,9867.50,0,0,0,0.70,-2.59,1.19,0.27,0.97,0.12
-14.807617,-8.3396956E-4,-7.752441E-4,0.016474407,0.27,0.97,0.12,24154,9867.50,0,0,165,0.63,-2.66,1.19,0.27,0.97,0.12
-14.807617,0.003166031,-0.005775243,0.015474408,0.27,0.97,0.12,24169,9867.50,0,0,0,0.91,-3.01,1.12,0.27,0.97,0.12
-13.807617,0.0061660316,-0.0027752407,0.016474407,0.27,0.97,0.12,24176,9868.50,0,0,165,1.12,-2.80,1.19,0.27,0.97,0.12
-13.807617,0.003166031,-0.0017752424,0.015474408,0.27,0.97,0.12,24191,9868.50,0,0,0,0.91,-2.73,1.12,0.27,0.97,0.12
-12.807617,0.0061660316,-0.005775243,0.013474408,0.26,0.96,0.12,24206,9869.50,0,0,165,1.12,-3.01,0.98,0.26,0.96,0.12
-12.5078125,1.660306E-4,-0.0067752413,0.008474407,0.26,0.96,0.12,24214,9869.80,0,0,0,0.70,-3.08,0.63,0.26,0.96,0.12
-12.807617,-8.3396956E-4,-0.004775241,0.0074744076,0.26,0.97,0.12,24230,9869.50,0,0,165,0.63,-2.94,0.56,0.26,0.97,0.12
-12.807617,0.0011660308,-0.005775243,0.0074744076,0.26,0.97,0.11,24244,9869.50,0,0,0,0.77,-3.01,0.56,0.26,0.97,0.11
-12.5078125,0.009166032,-0.0017752424,0.0064744074,0.26,0.97,0.12,24252,9869.80,0,0,165,1.33,-2.73,0.49,0.26,0.97,0.12
-10.607422,0.013166031,0.0022247583,0.0064744074,0.27,0.97,0.12,24266,9871.70,0,0,0,1.61,-2.45,0.49,0.27,0.97,0.12
-10.607422,0.012166031,2.2475794E-4,0.004474407,0.26,0.97,0.12,24282,9871.70,0,0,165,1.54,-2.59,0.35,0.26,0.97,0.12
-10.607422,0.0061660316,-7.752441E-4,-0.0025255932,0.27,0.97,0.12,24289,9871.70,0,0,0,1.12,-2.66,-0.14,0.27,0.97,0.12
-11.607422,-8.3396956E-4,-0.004775241,4.744071E-4,0.27,0.97,0.13,24303,9870.70,0,0,165,0.63,-2.94,0.07,0.27,0.97,0.13
-11.607422,-0.007833969,2.2475794E-4,0.004474407,0.27,0.97,0.12,24319,9870.70,0,0,0,0.14,-2.59,0.35,0.27,0.97,0.12
-9.607422,-0.0068339696,0.0042247586,0.010474407,0.27,0.97,0.12,24327,9872.70,0,0,165,0.21,-2.31,0.77,0.27,0.97,0.12
-10.607422,-0.0038339696,0.0042247586,0.015474408,0.27,0.97,0.12,24342,9871.70,0,0,0,0.42,-2.31,1.12,0.27,0.97,0.12
-10.907227,0.0011660308,0.0032247566,0.018474407,0.26,0.97,0.12,24357,9871.40,0,0,165,0.77,-2.38,1.33,0.26,0.97,0.12
-9.607422,0.00816603,0.00122476,0.020474406,0.27,0.97,0.12,24364,9872.70,0,0,0,1.26,-2.52,1.47,0.27,0.97,0.12
-9.607422,0.01016603,0.0032247566,0.018474407,0.26,0.97,0.12,24379,9872.70,0,0,165,1.40,-2.38,1.33,0.26,0.97,0.12
-9.307617,0.01016603,0.009224758,0.013474408,0.27,0.97,0.12,24394,9873.00,0,0,0,1.40,-1.96,0.98,0.27,0.97,0.12
-7.708008,0.0071660317,0.010224758,0.010474407,0.27,0.97,0.12,24401,9874.60,0,0,165,1.19,-1.89,0.77,0.27,0.97,0.12
-6.708008,0.009166032,0.012224758,0.008474407,0.27,0.97,0.12,24416,9875.60,0,0,0,1.33,-1.75,0.63,0.27,0.97,0.12
-6.708008,0.003166031,0.010224758,0.008474407,0.27,0.97,0.12,24433,9875.60,0,0,165,0.91,-1.89,0.63,0.27,0.97,0.12
-5.807617,0.0041660313,0.011224758,0.0054744068,0.27,0.97,0.12,24439,9876.50,0,0,0,0.98,-1.82,0.42,0.27,0.97,0.12
-4.5078125,0.0041660313,0.006224757,0.004474407,0.27,0.97,0.12,24455,9877.80,0,0,165,0.98,-2.17,0.35,0.27,0.97,0.12
-3.5078125,0.003166031,-0.003775239,0.004474407,0.27,0.97,0.12,24469,9878.80,0,0,0,0.91,-2.87,0.35,0.27,0.97,0.12
-3.8076172,0.0051660305,-0.0027752407,0.0014744072,0.27,0.97,0.12,24477,9878.50,0,0,165,1.05,-2.80,0.14,0.27,0.97,0.12
-2.2080078,0.009166032,0.0042247586,4.744071E-4,0.27,0.97,0.12,24492,9880.10,0,0,0,1.33,-2.31,0.07,0.27,0.97,0.12
-1.6074219,0.011166031,0.006224757,-0.0025255932,0.26,0.97,0.12,24507,9880.70,0,0,165,1.47,-2.17,-0.14,0.26,0.97,0.12
0.6923828,0.012166031,0.007224759,-0.0035255929,0.27,0.97,0.12,24514,9883.00,0,0,0,1.54,-2.10,-0.21,0.27,0.97,0.12
1.2919922,0.016166031,0.009224758,-0.004525593,0.27,0.97,0.11,24529,9883.60,0,0,165,1.82,-1.96,-0.28,0.27,0.97,0.11
2.9921875,0.022166032,0.012224758,-0.0035255929,0.27,0.97,0.12,24544,9885.30,0,0,0,2.24,-1.75,-0.21,0.27,0.97,0.12
4.192383,0.022166032,0.009224758,-0.011525593,0.26,0.96,0.11,24551,9886.50,0,0,165,2.24,-1.96,-0.77,0.26,0.96,0.11
5.892578,0.016166031,0.00122476,-0.023525594,0.26,0.96,0.12,24567,9888.20,0,0,0,1.82,-2.52,-1.61,0.26,0.96,0.12
7.0927734,0.01016603,-0.003775239,-0.026525594,0.27,0.96,0.12,24582,9889.40,0,0,165,1.40,-2.87,-1.82,0.27,0.96,0.12
9.092773,0.00216603,-0.0017752424,-0.026525594,0.27,0.96,0.12,24590,9891.40,0,0,0,0.84,-2.73,-1.82,0.27,0.96,0.12
9.9921875,-0.002833969,0.00122476,-0.021525593,0.27,0.97,0.12,24605,9892.30,0,0,165,0.49,-2.52,-1.47,0.27,0.97,0.12
9.692383,1.660306E-4,2.2475794E-4,-0.0155255925,0.27,0.97,0.11,24619,9892.00,0,0,0,0.70,-2.59,-1.05,0.27,0.97,0.11
11.9921875,0.0061660316,0.0022247583,-0.013525593,0.27,0.97,0.12,24627,9894.30,0,0,165,1.12,-2.45,-0.91,0.27,0.97,0.12
11.9921875,0.0061660316,0.0032247566,-0.013525593,0.27,0.97,0.12,24641,9894.30,0,0,0,1.12,-2.38,-0.91,0.27,0.97,0.12
12.892578,0.00816603,0.0032247566,-0.0155255925,0.27,0.97,0.12,24656,9895.20,0,0,165,1.26,-2.38,-1.05,0.27,0.97,0.12
14.192383,0.0041660313,0.0032247566,-0.013525593,0.27,0.97,0.12,24664,9896.50,0,0,0,0.98,-2.38,-0.91,0.27,0.97,0.12
13.892578,1.660306E-4,0.0042247586,-0.013525593,0.27,0.97,0.12,24679,9896.20,0,0,165,0.70,-2.31,-0.91,0.27,0.97,0.12
14.892578,-0.0038339696,0.0022247583,-0.0155255925,0.27,0.97,0.12,24694,9897.20,0,0,0,0.42,-2.45,-1.05,0.27,0.97,0.12
15.791992,-0.0048339693,0.0042247586,-0.017525595,0.27,0.97,0.12,24702,9898.10,0,0,165,0.35,-2.31,-1.19,0.27,0.97,0.12
16.791992,-0.002833969,0.007224759,-0.018525593,0.27,0.97,0.11,24717,9899.10,0,0,0,0.49,-2.10,-1.26,0.27,0.97,0.11
16.192383,1.660306E-4,0.008224759,-0.017525595,0.27,0.97,0.12,24732,9898.50,0,0,165,0.70,-2.03,-1.19,0.27,0.97,0.12
15.791992,-8.3396956E-4,0.0042247586,-0.017525595,0.27,0.97,0.12,24740,9898.10,0,0,0,0.63,-2.31,-1.19,0.27,0.97,0.12
16.791992,0.0011660308,-7.752441E-4,-0.016525595,0.27,0.97,0.12,24754,9899.10,0,0,165,0.77,-2.66,-1.12,0.27,0.97,0.12
16.791992,0.00216603,-0.0027752407,-0.017525595,0.27,0.97,0.12,24769,9899.10,0,0,0,0.84,-2.80,-1.19,0.27,0.97,0.12
17.791992,0.0041660313,-0.003775239,-0.017525595,0.26,0.97,0.12,24777,9900.10,0,0,165,0.98,-2.87,-1.19,0.26,0.97,0.12
17.791992,0.00216603,-0.004775241,-0.009525592,0.26,0.97,0.12,24792,9900.10,0,0,0,0.84,-2.94,-0.63,0.26,0.97,0.12
17.092773,0.0071660317,-0.0077752434,-0.008525593,0.26,0.97,0.12,24806,9899.40,0,0,165,1.19,-3.15,-0.56,0.26,0.97,0.12
16.791992,0.009166032,-7.752441E-4,-0.009525592,0.26,0.97,0.12,24814,9899.10,0,0,0,1.33,-2.66,-0.63,0.26,0.97,0.12
16.791992,0.009166032,0.00122476,-0.007525593,0.26,0.97,0.12,24829,9899.10,0,0,165,1.33,-2.52,-0.49,0.26,0.97,0.12
18.092773,0.0071660317,0.007224759,-0.010525593,0.26,0.97,0.12,24844,9900.40,0,0,0,1.19,-2.10,-0.70,0.26,0.97,0.12
17.092773,0.0051660305,0.010224758,-0.011525593,0.26,0.97,0.12,24851,9899.40,0,0,165,1.05,-1.89,-0.77,0.26,0.97,0.12
17.092773,0.0061660316,0.009224758,-0.011525593,0.26,0.97,0.12,24866,9899.40,0,0,0,1.12,-1.96,-0.77,0.26,0.97,0.12
15.791992,0.0041660313,0.011224758,-0.0155255925,0.26,0.97,0.12,24882,9898.10,0,0,165,0.98,-1.82,-1.05,0.26,0.97,0.12
17.092773,0.003166031,0.007224759,-0.013525593,0.26,0.97,0.12,24890,9899.40,0,0,0,0.91,-2.10,-0.91,0.26,0.97,0.12
15.791992,0.003166031,0.009224758,-0.011525593,0.26,0.97,0.12,24904,9898.10,0,0,165,0.91,-1.96,-0.77,0.26,0.97,0.12
16.192383,0.0011660308,0.007224759,-0.010525593,0.26,0.97,0.12,24919,9898.50,0,0,0,0.77,-2.10,-0.70,0.26,0.97,0.12
15.192383,0.003166031,0.007224759,-0.009525592,0.26,0.97,0.12,24927,9897.50,0,0,165,0.91,-2.10,-0.63,0.26,0.97,0.12
15.192383,0.003166031,0.009224758,-0.0055255927,0.26,0.97,0.11,24942,9897.50,0,0,0,0.91,-1.96,-0.35,0.26,0.97,0.11
14.192383,0.00216603,0.006224757,-0.0035255929,0.26,0.97,0.12,24957,9896.50,0,0,165,0.84,-2.17,-0.21,0.26,0.97,0.12
13.291992,0.003166031,-0.0027752407,0.0014744072,0.26,0.97,0.11,24964,9895.60,0,0,0,0.91,-2.80,0.14,0.26,0.97,0.11
14.592773,0.0041660313,-0.005775243,-5.2559294E-4,0.26,0.97,0.11,24979,9896.90,0,0,165,0.98,-3.01,0.00,0.26,0.97,0.11
13.291992,0.0041660313,-0.004775241,-0.001525593,0.26,0.97,0.12,24993,9895.60,0,0,0,0.98,-2.94,-0.07,0.26,0.97,0.12
12.892578,0.0011660308,-0.004775241,-0.007525593,0.26,0.97,0.12,25001,9895.20,0,0,165,0.77,-2.94,-0.49,0.26,0.97,0.12
13.592773,-8.3396956E-4,-0.0027752407,-0.0065255924,0.26,0.97,0.12,25016,9895.90,0,0,0,0.63,-2.80,-0.42,0.26,0.97,0.12
13.592773,0.0041660313,2.2475794E-4,-0.008525593,0.26,0.97,0.11,25031,9895.90,0,0,165,0.98,-2.59,-0.56,0.26,0.97,0.11
12.291992,0.00816603,-0.003775239,-0.008525593,0.26,0.97,0.12,25039,9894.60,0,0,0,1.26,-2.87,-0.56,0.26,0.97,0.12
12.592773,0.00816603,-0.003775239,-0.008525593,0.26,0.97,0.12,25054,9894.90,0,0,165,1.26,-2.87,-0.56,0.26,0.97,0.12
11.692383,0.0061660316,-0.003775239,-0.010525593,0.26,0.97,0.12,25070,9894.00,0,0,0,1.12,-2.87,-0.70,0.26,0.97,0.12
11.291992,0.0011660308,-0.005775243,-0.009525592,0.26,0.97,0.12,25077,9893.60,0,0,165,0.77,-3.01,-0.63,0.26,0.97,0.12
11.692383,-0.008833969,-0.010775238,-0.010525593,0.26,0.97,0.12,25092,9894.00,0,0,0,0.07,-3.36,-0.70,0.26,0.97,0.12
11.692383,-0.012833969,-0.004775241,-0.0065255924,0.26,0.97,0.12,25107,9894.00,0,0,165,-0.21,-2.94,-0.42,0.26,0.97,0.12
10.692383,-0.014833969,0.0022247583,-0.004525593,0.26,0.97,0.12,25114,9893.00,0,0,0,-0.35,-2.45,-0.28,0.26,0.97,0.12
11.692383,-0.0118339695,0.0042247586,-5.2559294E-4,0.26,0.97,0.12,25129,9894.00,0,0,165,-0.14,-2.31,0.00,0.26,0.97,0.12
11.692383,-0.005833969,0.008224759,0.0064744074,0.26,0.97,0.12,25144,9894.00,0,0,0,0.28,-2.03,0.49,0.26,0.97,0.12
