Pressure_Rel,GyroX_Rel,GyroY_Rel,GyroZ_Rel,AccX_Rel,AccY_Rel,AccZ_Rel,Timestamp,Pressure_abs,HeartRate,Oxygen,Status,GyroX,GyroY,GyroZ,AccX,AccY,AccZ
0.0,0.0,0.0,0.0,0.0,0.0,0.0,8810,10035.90,0,0,0,2.66,0.63,-2.59,-0.86,0.48,-0.33

0.0,0.0,0.0,0.0,0.0,0.0,0.0,8862,10035.40,0,0,0,-3.64,-9.10,10.57,-0.87,0.40,-0.30

0.0,0.0,0.0,0.0,0.0,0.0,0.0,8908,10035.70,0,0,0,4.13,-2.38,-6.58,-0.87,0.45,-0.34

0.0,0.0,0.0,0.0,0.0,0.0,0.0,8959,10035.70,0,0,0,-0.07,-3.99,4.90,-0.86,0.40,-0.29

0.0,0.0,0.0,0.0,0.0,0.0,0.0,9012,10035.00,0,0,0,1.89,-1.33,-10.50,-0.88,0.42,-0.33

0.0,0.0,0.0,0.0,0.0,0.0,0.0,9058,10035.50,0,0,0,0.14,2.24,7.07,-0.87,0.43,-0.29

0.0,0.0,0.0,0.0,0.0,0.0,0.0,9110,10035.70,0,0,0,1.89,-2.17,-6.23,-0.87,0.44,-0.32

0.0,0.0,0.0,0.0,0.0,0.0,0.0,9162,10035.70,0,0,0,-1.61,-1.33,2.80,-0.88,0.41,-0.32

0.0,0.0,0.0,0.0,0.0,0.0,0.0,9208,10035.70,0,0,0,2.52,-2.52,-3.85,-0.88,0.44,-0.32

0.0,0.0,0.0,0.0,0.0,0.0,0.0,9260,10035.70,0,0,0,-1.68,-3.29,4.41,-0.87,0.42,-0.32

0.0,0.0,0.0,0.0,0.0,0.0,0.0,9305,10036.10,0,0,0,-5.88,-8.33,5.18,-0.90,0.46,-0.33

0.0,0.0,0.0,0.0,0.0,0.0,0.0,9357,10035.90,0,0,0,0.70,-0.63,5.46,-0.87,0.41,-0.29

0.0,0.0,0.0,0.0,0.0,0.0,0.0,9402,10035.90,0,0,0,-1.82,-4.69,10.71,-0.91,0.48,-0.33

0.0,0.0,0.0,0.0,0.0,0.0,0.0,9455,10035.70,0,0,0,-10.22,-11.90,10.50,-0.98,0.50,-0.34

0.0,0.0,0.0,0.0,0.0,0.0,0.0,9500,10035.80,0,0,0,-11.34,-7.70,18.62,-1.00,0.48,-0.41

0.0,0.0,0.0,0.0,0.0,0.0,0.0,9553,10036.10,0,0,0,-10.08,17.01,26.32,-0.99,0.62,-0.39

0.0,0.0,0.0,0.0,0.0,0.0,0.0,9597,10036.10,0,0,0,-2.03,19.39,38.99,-0.93,0.58,-0.34

0.0,0.0,0.0,0.0,0.0,0.0,0.0,9649,10035.90,0,0,0,21.28,36.96,31.08,-0.83,0.52,-0.37

0.0,0.0,0.0,0.0,0.0,0.0,0.0,9702,10035.90,0,0,0,-7.63,17.71,34.65,-0.73,0.46,-0.47

0.0,0.0,0.0,0.0,0.0,0.0,0.0,9747,10035.80,0,0,0,-5.39,62.44,43.61,-0.61,0.47,-0.47

0.0,0.0,0.0,0.0,0.0,0.0,0.0,9799,10036.10,0,0,0,-31.99,52.50,-32.20,-0.78,0.02,-0.29

0.0,0.0,0.0,0.0,0.0,0.0,0.0,9845,10036.10,0,0,0,4.76,19.60,-11.69,-0.92,0.91,-0.40

0.0,0.0,0.0,0.0,0.0,0.0,0.0,9897,10036.10,0,0,0,-2.10,-36.47,-21.63,-1.17,0.52,-0.27

0.0,0.0,0.0,0.0,0.0,0.0,0.0,9950,10035.90,0,0,0,39.41,-79.10,-77.63,-1.00,1.13,-0.54

0.0,0.0,0.0,0.0,0.0,0.0,0.0,9994,10035.70,0,0,0,42.07,-42.98,114.24,-1.02,0.92,-0.37

0.0,0.0,0.0,0.0,0.0,0.0,0.0,10047,10036.10,0,0,0,17.78,-66.08,30.17,-0.75,0.05,-0.23

0.0,0.0,0.0,0.0,0.0,0.0,0.0,10092,10036.00,0,0,0,46.97,-62.44,22.75,-0.92,0.77,-0.38

0.0,0.0,0.0,0.0,0.0,0.0,0.0,10145,10035.50,0,0,0,107.94,5.95,-24.57,-0.93,0.70,-0.51

0.0,0.0,0.0,0.0,0.0,0.0,0.0,10190,10035.70,0,0,0,17.92,-62.09,72.73,-0.87,0.39,-0.06

0.0,0.0,0.0,0.0,0.0,0.0,0.0,10243,10035.60,0,0,0,91.35,-126.63,55.65,-0.56,0.36,0.11

0.0,0.0,0.0,0.0,0.0,0.0,0.0,10295,10035.60,0,0,0,56.00,-239.75,50.89,-0.60,0.23,-0.02

0.0,0.0,0.0,0.0,0.0,0.0,0.0,10339,10035.50,0,0,0,48.02,-391.23,-43.47,-1.01,-0.05,0.06

0.0,0.0,0.0,0.0,0.0,0.0,0.0,10393,10035.50,0,0,0,-240.45,-462.28,-137.41,-1.36,0.25,-2.58

0.0,0.0,0.0,0.0,0.0,0.0,0.0,10438,10035.60,0,0,0,103.53,443.24,-63.91,-1.17,0.31,-0.13

0.0,0.0,0.0,0.0,0.0,0.0,0.0,10490,10035.40,0,0,0,21.98,11.48,-12.74,-0.87,0.47,1.54

0.0,0.0,0.0,0.0,0.0,0.0,0.0,10534,10035.60,0,0,0,-50.19,-327.11,27.16,-1.46,0.42,0.14

0.0,0.0,0.0,0.0,0.0,0.0,0.0,10588,10035.20,0,0,0,111.86,81.83,50.40,-1.10,0.63,-0.96

0.0,0.0,0.0,0.0,0.0,0.0,0.0,10640,10035.90,0,0,0,12.53,97.23,-52.99,-0.97,0.06,0.48

0.0,0.0,0.0,0.0,0.0,0.0,0.0,10684,10035.50,0,0,0,-2.66,-33.18,-32.83,-0.94,0.59,0.04

0.0,0.0,0.0,0.0,0.0,0.0,0.0,10738,10036.30,0,0,0,10.08,-4.34,-13.23,-1.01,0.24,-0.05

0.0,0.0,0.0,0.0,0.0,0.0,0.0,10783,10036.20,0,0,0,-22.96,16.31,-12.18,-0.91,0.52,-0.09

0.0,0.0,0.0,0.0,0.0,0.0,0.0,10834,10036.40,0,0,0,-28.14,21.42,12.53,-0.94,0.20,-0.17

0.0,0.0,0.0,0.0,0.0,0.0,0.0,10879,10036.30,0,0,0,-1.96,28.21,4.20,-0.95,0.46,0.09

0.0,0.0,0.0,0.0,0.0,0.0,0.0,10931,10037.00,0,0,0,-2.59,-34.86,22.54,-0.95,0.20,-0.04

0.0,0.0,0.0,0.0,0.0,0.0,0.0,10976,10036.80,0,0,0,14.42,15.12,8.12,-0.97,0.54,-0.13

0.0,0.0,0.0,0.0,0.0,0.0,0.0,11029,10036.50,0,0,0,23.80,-17.57,44.52,-0.98,0.48,0.15

0.0,0.0,0.0,0.0,0.0,0.0,0.0,11081,10037.00,0,0,0,-14.42,14.42,14.00,-1.02,0.24,-0.20

0.0,0.0,0.0,0.0,0.0,0.0,0.0,11127,10037.40,0,0,0,-20.86,-35.91,69.44,-0.90,0.76,0.13

0.0,0.0,0.0,0.0,0.0,0.0,0.0,11187,10037.90,0,0,0,1.75,7.42,6.02,-0.96,0.63,-0.39

0.0,0.0,0.0,0.0,0.0,0.0,0.0,11241,10038.20,0,0,0,-7.14,12.95,48.72,-0.88,0.22,0.00

0.0,0.0,0.0,0.0,0.0,0.0,0.0,11292,10038.80,0,0,0,-39.62,8.19,13.58,-0.99,0.65,-0.14

0.0,0.0,0.0,0.0,0.0,0.0,0.0,11345,10039.00,0,0,0,-5.88,-8.40,46.27,-0.84,0.35,-0.12

0.0,0.0,0.0,0.0,0.0,0.0,0.0,11405,10039.40,0,0,0,37.17,37.80,-18.62,-0.88,0.55,0.26

0.0,0.0,0.0,0.0,0.0,0.0,0.0,11458,10040.30,0,0,0,1.68,-17.99,-87.08,-0.91,0.28,-0.18

0.0,0.0,0.0,0.0,0.0,0.0,0.0,11510,10040.50,0,0,0,15.96,-3.71,-29.40,-0.85,0.73,0.00

0.0,0.0,0.0,0.0,0.0,0.0,0.0,11570,10040.90,0,0,0,-34.58,-58.17,29.12,-0.95,0.34,-0.28

0.0,0.0,0.0,0.0,0.0,0.0,0.0,11622,10041.10,0,0,0,13.93,60.76,13.44,-0.95,0.47,0.00

0.0,0.0,0.0,0.0,0.0,0.0,0.0,11675,10041.00,0,0,0,-31.08,-38.36,26.04,-0.83,0.56,-0.01

0.0,0.0,0.0,0.0,0.0,0.0,0.0,11734,10041.80,0,0,0,-2.87,7.49,43.05,-1.01,0.17,-0.21

0.0,0.0,0.0,0.0,0.0,0.0,0.0,11787,10043.40,0,0,0,2.87,-38.15,73.43,-0.79,0.73,-0.00

0.0,0.0,0.0,0.0,0.0,0.0,0.0,11840,10043.50,0,0,0,-14.28,33.95,-12.46,-0.83,0.35,-0.21

0.0,0.0,0.0,0.0,0.0,0.0,0.0,11900,10044.00,0,0,0,10.57,-28.35,45.64,-0.89,0.27,-0.18

0.0,0.0,0.0,0.0,0.0,0.0,0.0,11952,10044.00,0,0,0,7.77,16.59,-82.18,-0.89,0.38,0.04

0.0,0.0,0.0,0.0,0.0,0.0,0.0,12005,10044.50,0,0,0,-25.06,-19.81,-65.24,-0.84,0.65,0.05

0.0,0.0,0.0,0.0,0.0,0.0,0.0,12057,10044.30,0,0,0,-0.49,-37.31,-3.92,-0.98,0.22,-0.44

0.0,0.0,0.0,0.0,0.0,0.0,0.0,12117,10044.60,0,0,0,-24.29,21.07,-30.17,-0.88,0.58,0.05

0.0,0.0,0.0,0.0,0.0,0.0,0.0,12170,10044.90,0,0,0,-24.08,46.06,-1.12,-1.07,0.34,-0.35

0.0,0.0,0.0,0.0,0.0,0.0,0.0,12222,10045.10,0,0,0,-22.89,32.69,21.84,-0.81,0.32,-0.01

0.0,0.0,0.0,0.0,0.0,0.0,0.0,12275,10044.80,0,0,0,-56.35,4.48,-4.41,-0.94,0.37,-0.38

0.0,0.0,0.0,0.0,0.0,0.0,0.0,12335,10045.00,0,0,0,5.39,34.23,16.03,-0.86,0.59,0.13

0.0,0.0,0.0,0.0,0.0,0.0,0.0,12387,10045.30,0,0,0,0.21,64.54,-30.31,-0.99,0.65,-0.10

0.0,0.0,0.0,0.0,0.0,0.0,0.0,12440,10045.50,0,0,0,-7.56,54.60,-5.53,-0.87,0.44,-0.17

0.0,0.0,0.0,0.0,0.0,0.0,0.0,12499,10045.40,0,0,0,39.55,3.01,-38.43,-0.96,0.19,-0.09

0.0,0.0,0.0,0.0,0.0,0.0,0.0,12553,10045.60,0,0,0,-10.08,-4.06,-63.91,-0.79,0.58,-0.28

0.0,0.0,0.0,0.0,0.0,0.0,0.0,12604,10046.00,0,0,0,-3.43,-8.33,-27.93,-0.95,0.33,-0.20

0.0,0.0,0.0,0.0,0.0,0.0,0.0,12657,10046.20,0,0,0,14.49,-1.40,-22.61,-0.96,1.04,-0.33

0.0,0.0,0.0,0.0,0.0,0.0,0.0,12718,10046.30,0,0,0,-16.87,94.29,-6.09,-1.24,0.46,-0.14

0.0,0.0,0.0,0.0,0.0,0.0,0.0,12770,10046.40,0,0,0,-49.42,-35.21,40.04,-0.74,0.10,-0.24

0.0,0.0,0.0,0.0,0.0,0.0,0.0,12822,10046.70,0,0,0,-50.19,-82.95,134.40,-1.17,0.97,-0.11

0.0,0.0,0.0,0.0,0.0,0.0,0.0,12882,10046.90,0,0,0,-43.26,85.61,-16.10,-0.77,0.25,0.12

0.0,0.0,0.0,0.0,0.0,0.0,0.0,12934,10046.90,0,0,0,34.93,38.01,46.55,-1.02,0.30,-0.71

0.0,0.0,0.0,0.0,0.0,0.0,0.0,12989,10047.10,0,0,0,-16.38,-18.48,4.27,-0.83,0.49,-0.30

0.0,0.0,0.0,0.0,0.0,0.0,0.0,13047,10047.40,0,0,0,40.46,2.52,4.55,-0.93,0.26,-0.29

0.0,0.0,0.0,0.0,0.0,0.0,0.0,13099,10047.40,0,0,0,18.62,-24.43,-9.73,-0.77,0.51,-0.18

0.0,0.0,0.0,0.0,0.0,0.0,0.0,13153,10047.50,0,0,0,45.92,-54.11,-80.15,-0.89,0.20,-0.37

0.0,0.0,0.0,0.0,0.0,0.0,0.0,13212,10047.80,0,0,0,17.92,-86.73,-9.66,-0.86,0.84,-0.05

0.0,0.0,0.0,0.0,0.0,0.0,0.0,13264,10047.60,0,0,0,-11.97,31.78,-0.56,-0.99,0.18,-0.49

0.0,0.0,0.0,0.0,0.0,0.0,0.0,13316,10047.70,0,0,0,-35.63,-17.71,45.85,-0.71,0.47,-0.73

0.0,0.0,0.0,0.0,0.0,0.0,0.0,13370,10048.10,0,0,0,-29.68,-42.42,14.56,-0.82,0.31,0.14

0.0,0.0,0.0,0.0,0.0,0.0,0.0,13429,10048.00,0,0,0,-0.35,-20.37,81.76,-0.98,0.86,-0.08

0.0,0.0,0.0,0.0,0.0,0.0,0.0,13482,10048.70,0,0,0,-32.97,-4.34,29.75,-0.82,0.64,-0.12

0.0,0.0,0.0,0.0,0.0,0.0,0.0,13534,10049.00,0,0,0,-3.29,-0.56,32.90,-0.82,0.42,-0.18

0.0,0.0,0.0,0.0,0.0,0.0,0.0,13587,10048.90,0,0,0,-7.70,-5.04,37.24,-0.92,0.43,0.15

0.0,0.0,0.0,0.0,0.0,0.0,0.0,13647,10049.30,0,0,0,7.35,-9.24,16.24,-0.89,0.62,-0.04

0.0,0.0,0.0,0.0,0.0,0.0,0.0,13700,10049.30,0,0,0,26.74,-14.28,-13.72,-0.85,0.31,-0.24

0.0,0.0,0.0,0.0,0.0,0.0,0.0,13752,10049.40,0,0,0,8.68,-18.20,-43.54,-0.75,0.75,-0.09

0.0,0.0,0.0,0.0,0.0,0.0,0.0,13804,10049.30,0,0,0,7.00,-48.58,1.40,-0.90,0.42,-0.18

0.0,0.0,0.0,0.0,0.0,0.0,0.0,13864,10049.50,0,0,0,2.73,25.41,-22.40,-0.85,0.73,-0.02

0.0,0.0,0.0,0.0,0.0,0.0,0.0,13917,10049.80,0,0,0,-29.82,-6.30,-9.87,-0.92,0.29,-0.37

0.0,0.0,0.0,0.0,0.0,0.0,0.0,13970,10049.90,0,0,0,-5.88,-5.32,5.11,-0.86,0.70,0.09

0.0,0.0,0.0,0.0,0.0,0.0,0.0,14029,10049.90,0,0,0,-9.52,25.76,-28.49,-0.89,0.47,-0.16

0.0,0.0,0.0,0.0,0.0,0.0,0.0,14081,10050.20,0,0,0,-8.26,18.41,16.38,-0.95,0.23,-0.49

0.0,0.0,0.0,0.0,0.0,0.0,0.0,14135,10050.20,0,0,0,-10.36,-15.75,63.49,-0.84,0.80,-0.20

0.0,0.0,0.0,0.0,0.0,0.0,0.0,14187,10050.60,0,0,0,-6.58,0.63,16.38,-0.76,0.70,0.18

0.0,0.0,0.0,0.0,0.0,0.0,0.0,14247,10050.60,0,0,0,5.04,30.80,-0.84,-0.90,0.54,0.27

0.0,0.0,0.0,0.0,0.0,0.0,0.0,14299,10050.80,0,0,0,33.32,-55.16,-20.44,-0.89,0.31,-0.04

0.0,0.0,0.0,0.0,0.0,0.0,0.0,14352,10050.80,0,0,0,50.33,-47.46,9.38,-0.77,0.57,-0.26

0.0,0.0,0.0,0.0,0.0,0.0,0.0,14411,10051.10,0,0,0,67.34,-158.97,-1.61,-0.92,0.49,0.30

0.0,0.0,0.0,0.0,0.0,0.0,0.0,14465,10050.70,0,0,0,-61.74,-132.02,-0.28,-1.08,0.54,-0.75

0.0,0.0,0.0,0.0,0.0,0.0,0.0,14517,10051.40,0,0,0,19.53,70.98,27.51,-0.49,0.83,-0.24

0.0,0.0,0.0,0.0,0.0,0.0,0.0,14569,10051.20,0,0,0,620.06,60.06,7.63,0.50,0.81,0.80

0.0,0.0,0.0,0.0,0.0,0.0,0.0,14629,10051.40,0,0,0,-278.95,-223.65,26.67,-1.31,1.00,-0.21

0.0,0.0,0.0,0.0,0.0,0.0,0.0,14682,10051.50,0,0,0,295.75,-75.81,113.75,-0.48,0.75,0.25

0.0,0.0,0.0,0.0,0.0,0.0,0.0,14742,10051.30,0,0,0,64.54,-87.43,32.27,-0.75,0.45,-0.30

0.0,0.0,0.0,0.0,0.0,0.0,0.0,14794,10051.40,0,0,0,93.24,86.45,90.65,-0.62,1.10,-0.39

0.0,0.0,0.0,0.0,0.0,0.0,0.0,14846,10051.50,0,0,0,23.66,95.83,107.73,-0.64,0.80,-0.17

0.0,0.0,0.0,0.0,0.0,0.0,0.0,14899,10051.80,0,0,0,66.15,144.34,189.42,-0.68,1.28,0.18

0.0,0.0,0.0,0.0,0.0,0.0,0.0,14951,10051.60,0,0,0,10.64,68.11,196.63,-0.55,0.55,0.32

0.0,0.0,0.0,0.0,0.0,0.0,0.0,15005,10051.90,0,0,0,16.94,14.98,96.25,0.07,1.38,-0.08

0.0,0.0,0.0,0.0,0.0,0.0,0.0,15057,10051.60,0,0,0,-67.62,16.59,250.74,0.20,0.98,-0.25

0.0,0.0,0.0,0.0,0.0,0.0,0.0,15102,10051.70,0,0,0,82.53,64.96,188.65,0.07,1.29,0.21

0.0,0.0,0.0,0.0,0.0,0.0,0.0,15155,10051.90,0,0,0,-54.18,-58.73,226.31,0.28,0.75,0.62

0.0,0.0,0.0,0.0,0.0,0.0,0.0,15207,10051.90,0,0,0,-190.75,-221.76,210.42,0.32,1.33,0.34

0.0,0.0,0.0,0.0,0.0,0.0,0.0,15260,10051.90,0,0,0,43.75,-299.88,288.12,0.36,-1.02,-2.12

0.0,0.0,0.0,0.0,0.0,0.0,0.0,15319,10052.00,0,0,0,-158.76,76.51,244.30,0.58,1.33,0.64

0.0,0.0,0.0,0.0,0.0,0.0,0.0,15365,10052.20,0,0,0,-494.83,-242.97,164.36,1.11,-0.51,0.62

0.0,0.0,0.0,0.0,0.0,0.0,0.0,15424,10052.20,0,0,0,-107.87,-56.98,-14.63,0.34,0.85,-0.90

0.0,0.0,0.0,0.0,0.0,0.0,0.0,15478,10052.30,0,0,0,164.01,116.20,33.81,1.09,0.16,0.69

0.0,0.0,0.0,0.0,0.0,0.0,0.0,15529,10052.30,0,0,0,111.58,28.63,-93.03,0.79,-0.09,0.86

0.0,0.0,0.0,0.0,0.0,0.0,0.0,15597,10052.40,0,0,0,-32.48,-14.28,0.63,0.80,0.88,-0.10

0.0,0.0,0.0,0.0,0.0,0.0,0.0,15635,10052.90,0,0,0,7.84,11.69,28.84,0.51,0.52,-0.34

0.0,0.0,0.0,0.0,0.0,0.0,0.0,15687,10052.20,0,0,0,-33.18,29.12,31.43,0.73,0.63,-0.04

0.0,0.0,0.0,0.0,0.0,0.0,0.0,15732,10052.50,0,0,0,-26.95,-53.06,3.85,0.80,0.51,0.22

0.0,0.0,0.0,0.0,0.0,0.0,0.0,15784,10052.60,0,0,0,-92.40,-116.48,25.48,0.81,0.43,-0.01

0.0,0.0,0.0,0.0,0.0,0.0,0.0,15837,10052.40,0,0,0,-95.55,-78.82,39.97,1.04,0.41,-0.20

0.0,0.0,0.0,0.0,0.0,0.0,0.0,15889,10052.60,0,0,0,17.85,-0.21,4.27,1.22,0.34,0.23

0.0,0.0,0.0,0.0,0.0,0.0,0.0,15949,10052.70,0,0,0,-43.75,-49.84,25.76,0.89,0.41,0.44

0.0,0.0,0.0,0.0,0.0,0.0,0.0,16002,10052.80,0,0,0,-78.61,-86.24,27.44,0.96,0.48,-0.05

0.0,0.0,0.0,0.0,0.0,0.0,0.0,16055,10052.70,0,0,0,-56.56,-32.41,35.63,0.81,0.52,-0.34

0.0,0.0,0.0,0.0,0.0,0.0,0.0,16114,10052.70,0,0,0,46.20,56.56,-8.82,0.89,0.28,-0.29

0.0,0.0,0.0,0.0,0.0,0.0,0.0,16167,10052.50,0,0,0,66.64,39.69,-56.56,0.95,0.37,0.03

0.0,0.0,0.0,0.0,0.0,0.0,0.0,16219,10052.80,0,0,0,37.45,5.11,-34.51,0.95,0.40,0.05

0.0,0.0,0.0,0.0,0.0,0.0,0.0,16279,10052.70,0,0,0,-1.89,0.49,-14.91,0.90,0.36,0.04

0.0,0.0,0.0,0.0,0.0,0.0,0.0,16331,10053.00,0,0,0,27.65,31.43,-13.37,0.93,0.35,0.12

0.0,0.0,0.0,0.0,0.0,0.0,0.0,16384,10052.70,0,0,0,36.82,17.78,-22.33,0.93,0.55,0.22

0.0,0.0,0.0,0.0,0.0,0.0,0.0,16438,10052.40,0,0,0,-42.84,-48.65,28.77,0.84,0.49,0.07

0.0,0.0,0.0,0.0,0.0,0.0,0.0,16497,10052.60,0,0,0,-64.19,-51.03,35.91,0.86,0.41,-0.20

0.0,0.0,0.0,0.0,0.0,0.0,0.0,16549,10052.60,0,0,0,-22.89,-15.82,14.63,0.87,0.34,-0.14

0.0,0.0,0.0,0.0,0.0,0.0,0.0,16610,10052.80,0,0,0,-4.41,-6.51,13.58,0.99,0.32,0.03

0.0,0.0,0.0,0.0,0.0,0.0,0.0,16662,10052.80,0,0,0,-38.08,-40.74,-1.05,0.94,0.40,0.05

0.0,0.0,0.0,0.0,0.0,0.0,0.0,16714,10053.00,0,0,0,-25.13,-17.08,28.63,0.93,0.41,0.01

0.0,0.0,0.0,0.0,0.0,0.0,0.0,16767,10052.60,0,0,0,-6.51,-4.48,-3.08,0.87,0.33,-0.02

0.0,0.0,0.0,0.0,0.0,0.0,0.0,16827,10052.50,0,0,0,28.49,22.96,-5.11,0.91,0.41,-0.11

0.0,0.0,0.0,0.0,0.0,0.0,0.0,16879,10052.60,0,0,0,24.64,18.97,-14.28,0.88,0.38,-0.08

0.0,0.0,0.0,0.0,0.0,0.0,0.0,16931,10052.70,0,0,0,13.23,12.18,-8.26,0.89,0.40,-0.04

0.0,0.0,0.0,0.0,0.0,0.0,0.0,16984,10052.40,0,0,0,16.94,13.30,-6.65,0.92,0.41,0.07

0.0,0.0,0.0,0.0,0.0,0.0,0.0,17044,10052.50,0,0,0,0.77,-3.99,-3.85,0.93,0.38,0.11

0.0,0.0,0.0,0.0,0.0,0.0,0.0,17097,10052.50,0,0,0,4.83,-2.17,-2.10,0.96,0.40,0.08

0.0,0.0,0.0,0.0,0.0,0.0,0.0,17149,10052.50,0,0,0,-2.24,-7.35,0.63,0.94,0.39,0.03

0.0,0.0,0.0,0.0,0.0,0.0,0.0,17209,10052.60,0,0,0,-16.59,-16.87,0.42,0.88,0.38,-0.05

0.0,0.0,0.0,0.0,0.0,0.0,0.0,17261,10052.40,0,0,0,-24.36,-23.80,4.27,0.85,0.36,-0.07

0.0,0.0,0.0,0.0,0.0,0.0,0.0,17314,10052.70,0,0,0,-19.60,-27.79,-8.96,0.82,0.29,-0.04

0.0,0.0,0.0,0.0,0.0,0.0,0.0,17375,10052.40,0,0,0,-3.29,-24.64,-21.42,0.81,0.29,0.02

0.0,0.0,0.0,0.0,0.0,0.0,0.0,17427,10052.30,0,0,0,8.89,-24.01,-26.67,0.94,0.37,0.02

0.0,0.0,0.0,0.0,0.0,0.0,0.0,17479,10052.40,0,0,0,13.79,-27.16,-36.89,0.90,0.35,0.03

0.0,0.0,0.0,0.0,0.0,0.0,0.0,17531,10052.20,0,0,0,22.26,-16.59,-25.90,0.97,0.48,-0.09

0.0,0.0,0.0,0.0,0.0,0.0,0.0,17593,10052.30,0,0,0,26.18,-5.60,-24.15,0.88,0.50,-0.13

0.0,0.0,0.0,0.0,0.0,0.0,0.0,17644,10052.30,0,0,0,7.00,-19.53,-4.27,0.80,0.57,-0.08

0.0,0.0,0.0,0.0,0.0,0.0,0.0,17697,10052.40,0,0,0,-47.53,-71.61,14.98,0.78,0.60,-0.10

0.0,0.0,0.0,0.0,0.0,0.0,0.0,17757,10052.50,0,0,0,-76.16,-98.70,38.50,0.78,0.52,-0.14

0.0,0.0,0.0,0.0,0.0,0.0,0.0,17809,10052.30,0,0,0,-62.58,-90.37,3.57,0.78,0.45,-0.22

0.0,0.0,0.0,0.0,0.0,0.0,0.0,17862,10052.30,0,0,0,-3.71,-35.07,-14.28,0.88,0.48,-0.25

0.0,0.0,0.0,0.0,0.0,0.0,0.0,17922,10052.30,0,0,0,97.65,1.54,-74.13,0.77,0.53,-0.16

0.0,0.0,0.0,0.0,0.0,0.0,0.0,17974,10052.50,0,0,0,35.00,-37.66,-33.81,0.67,0.66,-0.40

0.0,0.0,0.0,0.0,0.0,0.0,0.0,18027,10052.60,0,0,0,-13.93,-50.33,-22.96,0.57,0.63,-0.47

0.0,0.0,0.0,0.0,0.0,0.0,0.0,18088,10052.20,0,0,0,26.95,-4.55,-24.71,0.58,0.72,-0.57

0.0,0.0,0.0,0.0,0.0,0.0,0.0,18140,10052.20,0,0,0,17.85,1.96,-19.53,0.54,0.67,-0.51

0.0,0.0,0.0,0.0,0.0,0.0,0.0,18193,10052.10,0,0,0,13.44,0.35,-15.75,0.56,0.64,-0.48

0.0,0.0,0.0,0.0,0.0,0.0,0.0,18252,10052.20,0,0,0,7.35,-9.73,-14.28,0.57,0.62,-0.47

0.0,0.0,0.0,0.0,0.0,0.0,0.0,18304,10052.20,0,0,0,1.75,-12.39,-16.31,0.60,0.66,-0.50

0.0,0.0,0.0,0.0,0.0,0.0,0.0,18357,10051.80,0,0,0,12.04,0.14,-20.51,0.60,0.63,-0.45

0.0,0.0,0.0,0.0,0.0,0.0,0.0,18416,10052.00,0,0,0,21.21,7.35,-16.87,0.63,0.64,-0.42

0.0,0.0,0.0,0.0,0.0,0.0,0.0,18469,10052.00,0,0,0,17.15,4.41,-13.02,0.63,0.63,-0.41

0.0,0.0,0.0,0.0,0.0,0.0,0.0,18522,10052.20,0,0,0,15.12,-2.73,-10.08,0.63,0.66,-0.41

0.0,0.0,0.0,0.0,0.0,0.0,0.0,18575,10052.20,0,0,0,8.47,-7.84,2.17,0.61,0.69,-0.47

0.0,0.0,0.0,0.0,0.0,0.0,0.0,18634,10052.40,0,0,0,2.31,-8.40,4.76,0.57,0.67,-0.50

0.0,0.0,0.0,0.0,0.0,0.0,0.0,18686,10052.10,0,0,0,-10.01,-14.77,7.56,0.53,0.68,-0.49

0.0,0.0,0.0,0.0,0.0,0.0,0.0,18740,10052.00,0,0,0,-17.43,-21.63,17.15,0.52,0.67,-0.50

0.0,0.0,0.0,0.0,0.0,0.0,0.0,18791,10052.00,0,0,0,-21.42,-23.94,13.65,0.52,0.66,-0.52

0.0,0.0,0.0,0.0,0.0,0.0,0.0,18852,10052.20,0,0,0,-8.68,-13.16,7.70,0.54,0.66,-0.54

0.0,0.0,0.0,0.0,0.0,0.0,0.0,18904,10052.10,0,0,0,8.89,5.11,-3.08,0.54,0.62,-0.53

0.0,0.0,0.0,0.0,0.0,0.0,0.0,18957,10051.80,0,0,0,17.85,18.34,-9.24,0.57,0.66,-0.51

0.0,0.0,0.0,0.0,0.0,0.0,0.0,19017,10052.20,0,0,0,17.92,19.60,-11.76,0.59,0.64,-0.48

0.0,0.0,0.0,0.0,0.0,0.0,0.0,19069,10052.00,0,0,0,15.47,16.31,-7.49,0.60,0.66,-0.45

0.0,0.0,0.0,0.0,0.0,0.0,0.0,19122,10051.90,0,0,0,4.55,4.62,-2.17,0.60,0.65,-0.42

0.0,0.0,0.0,0.0,0.0,0.0,0.0,19174,10052.40,0,0,0,5.74,1.96,-0.42,0.60,0.62,-0.42

0.0,0.0,0.0,0.0,0.0,0.0,0.0,19235,10052.00,0,0,0,-3.29,-8.12,0.49,0.60,0.63,-0.45

0.0,0.0,0.0,0.0,0.0,0.0,0.0,19287,10052.20,0,0,0,-11.27,-16.10,3.57,0.59,0.62,-0.46

0.0,0.0,0.0,0.0,0.0,0.0,0.0,19339,10052.10,0,0,0,-7.91,-14.84,1.75,0.57,0.62,-0.47

0.0,0.0,0.0,0.0,0.0,0.0,0.0,19392,10052.10,0,0,0,-8.54,-13.86,6.93,0.55,0.65,-0.49

0.0,0.0,0.0,0.0,0.0,0.0,0.0,19444,10052.30,0,0,0,-10.36,-13.30,10.50,0.55,0.65,-0.51

0.0,0.0,0.0,0.0,0.0,0.0,0.0,19504,10052.10,0,0,0,-3.64,-6.58,6.51,0.54,0.64,-0.53

0.0,0.0,0.0,0.0,0.0,0.0,0.0,19557,10051.90,0,0,0,4.69,3.71,0.91,0.56,0.64,-0.53

0.0,0.0,0.0,0.0,0.0,0.0,0.0,19609,10052.10,0,0,0,10.92,12.81,-6.44,0.56,0.62,-0.50

0.0,0.0,0.0,0.0,0.0,0.0,0.0,19661,10052.10,0,0,0,15.12,17.29,-7.70,0.59,0.64,-0.46

0.0,0.0,0.0,0.0,0.0,0.0,0.0,19721,10052.20,0,0,0,10.15,9.31,-7.63,0.60,0.64,-0.42

0.0,0.0,0.0,0.0,0.0,0.0,0.0,19774,10051.90,0,0,0,2.94,-2.10,-2.45,0.60,0.64,-0.40

0.0,0.0,0.0,0.0,0.0,0.0,0.0,19826,10051.90,0,0,0,-0.77,-7.98,3.85,0.61,0.63,-0.44

0.0,0.0,0.0,0.0,0.0,0.0,0.0,19887,10051.90,0,0,0,-6.23,-12.95,1.26,0.61,0.65,-0.48

0.0,0.0,0.0,0.0,0.0,0.0,0.0,19939,10052.00,0,0,0,-10.71,-15.96,2.66,0.57,0.62,-0.47

0.0,0.0,0.0,0.0,0.0,0.0,0.0,19992,10051.90,0,0,0,-5.95,-12.74,3.29,0.56,0.67,-0.52

0.0,0.0,0.0,0.0,0.0,0.0,0.0,20045,10052.10,0,0,0,-10.43,-12.04,7.70,0.55,0.68,-0.50

0.0,0.0,0.0,0.0,0.0,0.0,0.0,20104,10052.00,0,0,0,-6.44,-11.69,7.35,0.55,0.65,-0.49

0.0,0.0,0.0,0.0,0.0,0.0,0.0,20156,10051.60,0,0,0,-2.59,-7.56,5.46,0.55,0.65,-0.52

0.0,0.0,0.0,0.0,0.0,0.0,0.0,20209,10052.00,0,0,0,6.72,4.83,-1.05,0.56,0.63,-0.52

0.0,0.0,0.0,0.0,0.0,0.0,0.0,20269,10051.90,0,0,0,15.68,14.63,-8.96,0.56,0.63,-0.49

0.0,0.0,0.0,0.0,0.0,0.0,0.0,20321,10051.80,0,0,0,13.93,13.65,-7.63,0.57,0.66,-0.47

0.0,0.0,0.0,0.0,0.0,0.0,0.0,20375,10051.60,0,0,0,3.85,3.71,-3.01,0.58,0.65,-0.44

0.0,0.0,0.0,0.0,0.0,0.0,0.0,20426,10051.90,0,0,0,-0.70,-6.37,1.89,0.59,0.65,-0.43

0.0,0.0,0.0,0.0,0.0,0.0,0.0,20479,10051.90,0,0,0,-5.74,-10.29,5.67,0.59,0.61,-0.45

0.0,0.0,0.0,0.0,0.0,0.0,0.0,20540,10051.60,0,0,0,-3.85,-10.29,1.89,0.60,0.64,-0.49

0.0,0.0,0.0,0.0,0.0,0.0,0.0,20592,10052.00,0,0,0,-5.18,-9.73,-1.19,0.57,0.62,-0.49

0.0,0.0,0.0,0.0,0.0,0.0,0.0,20644,10051.80,0,0,0,-2.03,-4.69,0.91,0.56,0.65,-0.49

0.0,0.0,0.0,0.0,0.0,0.0,0.0,20697,10051.90,0,0,0,-1.89,-5.53,5.04,0.55,0.69,-0.51

0.0,0.0,0.0,0.0,0.0,0.0,0.0,20756,10052.00,0,0,0,-4.55,-8.05,7.98,0.54,0.66,-0.50

0.0,0.0,0.0,0.0,0.0,0.0,0.0,20809,10051.70,0,0,0,-3.99,-7.07,6.93,0.53,0.65,-0.50

0.0,0.0,0.0,0.0,0.0,0.0,0.0,20862,10052.00,0,0,0,2.24,-0.21,4.69,0.55,0.64,-0.50

0.0,0.0,0.0,0.0,0.0,0.0,0.0,20922,10051.80,0,0,0,8.47,5.18,-1.40,0.57,0.63,-0.47

0.0,0.0,0.0,0.0,0.0,0.0,0.0,20974,10051.90,0,0,0,10.57,6.23,-4.62,0.58,0.64,-0.45

0.0,0.0,0.0,0.0,0.0,0.0,0.0,21027,10051.80,0,0,0,7.84,2.31,-2.73,0.59,0.65,-0.44

0.0,0.0,0.0,0.0,0.0,0.0,0.0,21080,10051.60,0,0,0,1.89,-2.59,0.98,0.61,0.65,-0.47

0.0,0.0,0.0,0.0,0.0,0.0,0.0,21132,10052.10,0,0,0,0.21,-3.78,-1.26,0.61,0.63,-0.48

0.0,0.0,0.0,0.0,0.0,0.0,0.0,21192,10051.70,0,0,0,-1.12,-3.57,1.89,0.61,0.63,-0.50

0.0,0.0,0.0,0.0,0.0,0.0,0.0,21245,10051.80,0,0,0,4.69,1.61,-2.10,0.59,0.66,-0.53

0.0,0.0,0.0,0.0,0.0,0.0,0.0,21297,10051.60,0,0,0,-0.84,-0.42,1.54,0.58,0.66,-0.52

0.0,0.0,0.0,0.0,0.0,0.0,0.0,21349,10051.90,0,0,0,-4.55,-2.31,4.06,0.57,0.63,-0.51

0.0,0.0,0.0,0.0,0.0,0.0,0.0,21402,10051.80,0,0,0,-1.68,-1.40,4.90,0.56,0.63,-0.51

-1.8759766,0.04129891,-0.005440213,-0.03407064,0.88,0.43,-0.13,31466,10048.50,0,0,0,1.61,-1.61,0.49,0.88,0.43,-0.13

-1.6757812,0.007298913,-0.057440214,-0.03907064,0.87,0.44,-0.13,31519,10048.70,0,0,0,-0.77,-5.25,0.14,0.87,0.44,-0.13

-1.7763672,-0.0047010873,-0.05944021,0.03592936,0.88,0.42,-0.13,31571,10048.60,0,0,0,-1.61,-5.39,5.39,0.88,0.42,-0.13

-1.7763672,-0.015701089,-0.101440206,-0.03407064,0.88,0.44,-0.13,31631,10048.60,0,0,0,-2.38,-8.33,0.49,0.88,0.44,-0.13

-1.4755859,-0.03370109,-0.08644021,0.07992937,0.88,0.43,-0.13,31684,10048.90,0,0,0,-3.64,-7.28,8.47,0.88,0.43,-0.13

-1.5761719,-0.09970109,-0.10844021,0.04292936,0.9,0.42,-0.15,31736,10048.80,0,0,0,-8.26,-8.82,5.88,0.90,0.42,-0.15

-1.7763672,0.026298914,-0.034440212,-0.05607064,0.86,0.42,-0.15,31790,10048.60,0,0,0,0.56,-3.64,-1.05,0.86,0.42,-0.15

-1.5761719,0.031298913,-0.017440213,0.056929365,0.87,0.41,-0.13,31849,10048.80,0,0,0,0.91,-2.45,6.86,0.87,0.41,-0.13

-1.7763672,-0.16270109,-0.0994402,-0.00607064,0.89,0.41,-0.17,31901,10048.60,0,0,0,-12.67,-8.19,2.45,0.89,0.41,-0.17

-1.7763672,0.15029891,0.14755979,-0.07407064,0.9,0.43,-0.18,31955,10048.60,0,0,0,9.24,9.10,-2.31,0.90,0.43,-0.18

-1.7763672,0.2232989,0.19955978,-0.10307065,0.9,0.4,-0.13,32014,10048.60,0,0,0,14.35,12.74,-4.34,0.90,0.40,-0.13

-1.6757812,-0.009701088,-0.009440213,-0.02807064,0.9,0.44,-0.11,32066,10048.70,0,0,0,-1.96,-1.89,0.91,0.90,0.44,-0.11

-1.5761719,-0.029701084,-0.047440216,0.051929362,0.89,0.42,-0.11,32119,10048.80,0,0,0,-3.36,-4.55,6.51,0.89,0.42,-0.11

-1.7763672,0.008298913,-0.042440213,-7.064268E-5,0.89,0.4,-0.12,32172,10048.60,0,0,0,-0.70,-4.20,2.87,0.89,0.40,-0.12

-1.5761719,0.061298914,-0.018440211,-0.02307064,0.89,0.4,-0.12,32232,10048.80,0,0,0,3.01,-2.52,1.26,0.89,0.40,-0.12

-0.87597656,0.08629891,-0.018440211,-0.04207064,0.9,0.4,-0.12,32277,10049.50,0,0,0,4.76,-2.52,-0.07,0.90,0.40,-0.12

-2.2763672,0.022298913,-0.080440216,-0.022070639,0.89,0.41,-0.12,32330,10048.10,0,0,0,0.28,-6.86,1.33,0.89,0.41,-0.12

-0.67578125,-0.08670108,-0.13744022,0.020929363,0.88,0.42,-0.14,32374,10049.70,0,0,0,-7.35,-10.85,4.34,0.88,0.42,-0.14

-1.7763672,-0.1307011,-0.13844022,0.08092936,0.88,0.41,-0.15,32427,10048.60,0,0,0,-10.43,-10.92,8.54,0.88,0.41,-0.15

-1.5761719,-0.06870109,-0.08144021,-0.0020706393,0.89,0.42,-0.15,32479,10048.80,0,0,0,-6.09,-6.93,2.73,0.89,0.42,-0.15

-1.8759766,0.06729892,0.011559788,-0.07407064,0.88,0.43,-0.14,32531,10048.50,0,0,0,3.43,-0.42,-2.31,0.88,0.43,-0.14

-1.7763672,0.025298912,0.004559787,-0.01907064,0.9,0.42,-0.14,32591,10048.60,0,0,0,0.49,-0.91,1.54,0.90,0.42,-0.14

-2.0761719,-0.017701086,-0.005440213,-0.02607064,0.9,0.4,-0.14,32643,10048.30,0,0,0,-2.52,-1.61,1.05,0.90,0.40,-0.14

-1.9755859,0.117298916,0.08655979,-0.02807064,0.91,0.41,-0.16,32696,10048.40,0,0,0,6.93,4.83,0.91,0.91,0.41,-0.16

-1.8759766,0.116298914,0.10255979,-0.073070645,0.89,0.38,-0.14,32756,10048.50,0,0,0,6.86,5.95,-2.24,0.89,0.38,-0.14

-2.1757812,0.12929891,0.10255979,-0.06807064,0.88,0.42,-0.14,32809,10048.20,0,0,0,7.77,5.95,-1.89,0.88,0.42,-0.14

-1.9755859,0.11429891,0.08355979,-0.00607064,0.87,0.42,-0.12,32862,10048.40,0,0,0,6.72,4.62,2.45,0.87,0.42,-0.12

-2.0761719,-0.013701089,-0.027440215,0.037929364,0.9,0.43,-0.12,32921,10048.30,0,0,0,-2.24,-3.15,5.53,0.90,0.43,-0.12

-2.0761719,-0.053701084,-0.08644021,0.02192936,0.9,0.4,-0.11,32973,10048.30,0,0,0,-5.04,-7.28,4.41,0.90,0.40,-0.11

-2.475586,-0.011701087,-0.07144021,0.01792936,0.9,0.38,-0.11,33026,10047.90,0,0,0,-2.10,-6.23,4.13,0.90,0.38,-0.11

-2.0761719,-0.040701088,-0.09744021,0.009929359,0.91,0.37,-0.11,33078,10048.30,0,0,0,-4.13,-8.05,3.57,0.91,0.37,-0.11

-2.0761719,-0.050701085,-0.10044021,0.018929359,0.91,0.37,-0.12,33139,10048.30,0,0,0,-4.83,-8.26,4.20,0.91,0.37,-0.12

-2.3759766,0.011298913,-0.078440204,-0.022070639,0.89,0.38,-0.11,33191,10048.00,0,0,0,-0.49,-6.72,1.33,0.89,0.38,-0.11

-2.2763672,-0.014701087,-0.07444021,0.01792936,0.9,0.42,-0.13,33244,10048.10,0,0,0,-2.31,-6.44,4.13,0.90,0.42,-0.13

-2.2763672,-0.07070109,-0.08544021,-0.03507064,0.87,0.4,-0.13,33296,10048.10,0,0,0,-6.23,-7.21,0.42,0.87,0.40,-0.13

-2.5761719,0.058298912,0.03655979,0.02492936,0.88,0.45,-0.15,33356,10047.80,0,0,0,2.80,1.33,4.62,0.88,0.45,-0.15

-2.2763672,0.0042989124,0.10555979,0.26092935,0.92,0.48,-0.15,33408,10048.10,0,0,0,-0.98,6.16,21.14,0.92,0.48,-0.15

-1.4755859,-0.058701087,0.045559786,0.30792937,0.94,0.49,-0.12,33462,10048.90,0,0,0,-5.39,1.96,24.43,0.94,0.49,-0.12

-2.2763672,-0.12670109,-0.064440206,0.32792935,0.9,0.46,-0.09,33515,10048.10,0,0,0,-10.15,-5.74,25.83,0.90,0.46,-0.09

-2.0761719,-0.25170106,-0.15144022,0.43092936,0.89,0.42,-0.11,33559,10048.30,0,0,0,-18.90,-11.83,33.04,0.89,0.42,-0.11

-2.3759766,-0.26170108,-0.10344022,0.39392936,0.85,0.29,-0.13,33611,10048.00,0,0,0,-19.60,-8.47,30.45,0.85,0.29,-0.13

-2.475586,-0.0067010876,0.14355978,0.21192935,0.93,0.27,-0.2,33656,10047.90,0,0,0,-1.75,8.82,17.71,0.93,0.27,-0.20

-2.2763672,0.39129892,0.45655978,-0.06707064,0.92,0.12,-0.13,33716,10048.10,0,0,0,26.11,30.73,-1.82,0.92,0.12,-0.13

-2.8759766,0.55229896,0.61055976,-0.23207064,1.02,0.15,-0.06,33769,10047.50,0,0,0,37.38,41.51,-13.37,1.02,0.15,-0.06

-2.2763672,0.6942989,0.6615598,-0.31007063,0.97,0.26,-0.01,33821,10048.10,0,0,0,47.32,45.08,-18.83,0.97,0.26,-0.01

-2.5761719,0.7032989,0.63355976,-0.06307064,0.93,0.22,0.1,33882,10047.80,0,0,0,47.95,43.12,-1.54,0.93,0.22,0.10

-2.6757812,0.33029893,0.33955982,-0.10507064,0.98,0.27,0.12,33934,10047.70,0,0,0,21.84,22.54,-4.48,0.98,0.27,0.12

-2.7763672,-0.06970109,-0.10244021,0.11192936,0.93,0.24,0.04,33986,10047.60,0,0,0,-6.16,-8.40,10.71,0.93,0.24,0.04

-2.7763672,-0.51270103,-0.4264402,0.23692936,0.95,0.22,-0.09,34047,10047.60,0,0,0,-37.17,-31.08,19.46,0.95,0.22,-0.09

-2.475586,-0.39370108,-0.3594402,0.067929365,0.96,0.27,-0.09,34099,10047.90,0,0,0,-28.84,-26.39,7.63,0.96,0.27,-0.09

-2.8759766,-0.21770109,-0.2994402,0.16192935,0.96,0.25,0.03,34152,10047.50,0,0,0,-16.52,-22.19,14.21,0.96,0.25,0.03

-2.8759766,-0.4547011,-0.51044023,0.15492937,0.98,0.3,0.06,34204,10047.50,0,0,0,-33.11,-36.96,13.72,0.98,0.30,0.06

-2.6757812,-0.5387011,-0.57044023,0.17792936,0.94,0.29,0.01,34265,10047.70,0,0,0,-38.99,-41.16,15.33,0.94,0.29,0.01

-3.0761719,-0.29070106,-0.3504402,0.19492936,0.96,0.25,-0.07,34316,10047.30,0,0,0,-21.63,-25.76,16.52,0.96,0.25,-0.07

-3.0761719,-0.16370109,-0.13844022,0.027929358,0.96,0.23,-0.13,34369,10047.30,0,0,0,-12.74,-10.92,4.83,0.96,0.23,-0.13

-3.2763672,0.33729893,0.19855978,-0.15607065,0.94,0.23,-0.17,34429,10047.10,0,0,0,22.33,12.67,-8.05,0.94,0.23,-0.17

-3.2763672,0.47829893,0.3805598,-0.28507066,0.93,0.25,-0.09,34482,10047.10,0,0,0,32.20,25.41,-17.08,0.93,0.25,-0.09

-3.2763672,0.2302989,0.22055978,-0.19307065,0.97,0.27,-0.03,34534,10047.10,0,0,0,14.84,14.21,-10.64,0.97,0.27,-0.03

-3.475586,0.30929893,0.2935598,-0.25707066,0.97,0.26,-0.01,34587,10046.90,0,0,0,20.37,19.32,-15.12,0.97,0.26,-0.01

-3.3759766,0.43729892,0.4275598,-0.26607063,0.96,0.25,0.0,34647,10047.00,0,0,0,29.33,28.70,-15.75,0.96,0.25,0.00

-3.5761719,0.35929894,0.32155982,-0.22907063,0.97,0.24,0.0,34700,10046.80,0,0,0,23.87,21.28,-13.16,0.97,0.24,0.00

-3.6757812,-0.017701086,-0.03344021,-0.03907064,0.98,0.29,-0.02,34752,10046.70,0,0,0,-2.52,-3.57,0.14,0.98,0.29,-0.02

-3.475586,-0.30670106,-0.2884402,0.08492936,0.95,0.29,-0.08,34804,10046.90,0,0,0,-22.75,-21.42,8.82,0.95,0.29,-0.08

-3.6757812,-0.31970108,-0.2994402,0.17292935,0.91,0.28,-0.04,34864,10046.70,0,0,0,-23.66,-22.19,14.98,0.91,0.28,-0.04

-3.5761719,-0.31770107,-0.3574402,0.17892936,0.95,0.28,-0.02,34917,10046.80,0,0,0,-23.52,-26.25,15.40,0.95,0.28,-0.02

-3.6757812,-0.18770109,-0.3214402,0.09492937,0.96,0.29,-0.02,34976,10046.70,0,0,0,-14.42,-23.73,9.52,0.96,0.29,-0.02

-3.7763672,-0.1317011,-0.29644018,0.14592937,0.96,0.26,-0.03,35029,10046.60,0,0,0,-10.50,-21.98,13.09,0.96,0.26,-0.03

-3.8759766,-0.21370108,-0.26644018,0.12292935,0.96,0.21,-0.07,35082,10046.50,0,0,0,-16.24,-19.88,11.48,0.96,0.21,-0.07

-3.6757812,-0.03370109,-0.03044021,0.022929363,0.96,0.17,-0.12,35142,10046.70,0,0,0,-3.64,-3.36,4.48,0.96,0.17,-0.12

-4.076172,0.4012989,0.2645598,-0.22407065,0.96,0.24,-0.1,35194,10046.30,0,0,0,26.81,17.29,-12.81,0.96,0.24,-0.10

-4.076172,0.51729894,0.37555978,-0.25207067,0.95,0.29,-0.05,35246,10046.30,0,0,0,34.93,25.06,-14.77,0.95,0.29,-0.05

-3.7763672,0.16729891,0.18455978,-0.18107064,0.94,0.3,0.03,35299,10046.60,0,0,0,10.43,11.69,-9.80,0.94,0.30,0.03

-3.3759766,-0.03370109,0.022559788,-0.08507064,0.94,0.28,0.0,35359,10047.00,0,0,0,-3.64,0.35,-3.08,0.94,0.28,0.00

-3.8759766,0.14529891,0.13455978,-0.12107064,0.96,0.25,-0.05,35412,10046.50,0,0,0,8.89,8.19,-5.60,0.96,0.25,-0.05

-4.1757812,0.12829891,0.11255979,-0.12907064,0.97,0.24,-0.04,35464,10046.20,0,0,0,7.70,6.65,-6.16,0.97,0.24,-0.04

-3.8759766,0.049298912,-4.4021197E-4,-0.07107064,0.96,0.26,-0.04,35516,10046.50,0,0,0,2.17,-1.26,-2.10,0.96,0.26,-0.04

-3.975586,-0.17170109,-0.20244022,0.06892936,0.95,0.28,-0.04,35576,10046.40,0,0,0,-13.30,-15.40,7.70,0.95,0.28,-0.04

-4.1757812,-0.31570107,-0.2774402,0.12292935,0.94,0.27,-0.07,35629,10046.20,0,0,0,-23.38,-20.65,11.48,0.94,0.27,-0.07

-4.1757812,-0.010701086,-0.11444021,0.03992936,0.96,0.27,-0.05,35682,10046.20,0,0,0,-2.03,-9.24,5.67,0.96,0.27,-0.05

-4.076172,0.06429891,-0.09744021,-0.0040706396,0.96,0.26,-0.02,35742,10046.30,0,0,0,3.22,-8.05,2.59,0.96,0.26,-0.02

-4.076172,-0.078701094,-0.14844021,0.029929355,0.97,0.24,-0.09,35794,10046.30,0,0,0,-6.79,-11.62,4.97,0.97,0.24,-0.09

-4.276367,0.016298912,-0.045440212,0.018929359,0.97,0.22,-0.09,35846,10046.10,0,0,0,-0.14,-4.41,4.20,0.97,0.22,-0.09

-4.1757812,0.23929891,0.12055979,-0.082070634,0.98,0.23,-0.06,35899,10046.20,0,0,0,15.47,7.21,-2.87,0.98,0.23,-0.06

-4.475586,0.1642989,0.063559785,-0.11607064,0.95,0.28,-0.01,35952,10045.90,0,0,0,10.22,3.22,-5.25,0.95,0.28,-0.01

-4.276367,0.027298912,-0.021440214,-0.05807064,0.94,0.32,-0.02,35996,10046.10,0,0,0,0.63,-2.73,-1.19,0.94,0.32,-0.02

-3.7763672,-0.013701089,-0.005440213,-0.0020706393,0.93,0.3,-0.02,36049,10046.60,0,0,0,-2.24,-1.61,2.73,0.93,0.30,-0.02

-4.1757812,-0.031701088,-0.016440215,-0.009070639,0.96,0.28,-0.04,36101,10046.20,0,0,0,-3.50,-2.38,2.24,0.96,0.28,-0.04

-4.276367,0.018298913,-0.006440211,-0.05207064,0.96,0.25,-0.05,36154,10046.10,0,0,0,0.00,-1.68,-0.77,0.96,0.25,-0.05

-4.076172,-0.034701087,-0.047440216,-0.029070642,0.96,0.25,-0.06,36206,10046.30,0,0,0,-3.71,-4.55,0.84,0.96,0.25,-0.06

-4.076172,-0.08370109,-0.03744021,0.0029293597,0.96,0.24,-0.08,36266,10046.30,0,0,0,-7.14,-3.85,3.08,0.96,0.24,-0.08

-4.475586,0.08429891,0.08755979,-0.06007064,0.96,0.24,-0.06,36319,10045.90,0,0,0,4.62,4.90,-1.33,0.96,0.24,-0.06

-4.475586,0.20429891,0.11455979,-0.11407064,0.96,0.26,-0.03,36371,10045.90,0,0,0,13.02,6.79,-5.11,0.96,0.26,-0.03

-4.1757812,0.09629892,0.015559787,-0.06407064,0.95,0.28,-0.04,36423,10046.20,0,0,0,5.46,-0.14,-1.61,0.95,0.28,-0.04

-4.076172,-0.021701086,-0.032440215,0.0039293617,0.93,0.25,-0.04,36484,10046.30,0,0,0,-2.80,-3.50,3.15,0.93,0.25,-0.04

-3.975586,0.07829891,-0.012440212,-0.04107064,0.95,0.24,-0.05,36541,10046.40,0,0,0,4.20,-2.10,0.00,0.95,0.24,-0.05

-4.1757812,0.062298913,-0.058440216,-0.03107064,0.97,0.27,-0.03,36589,10046.20,0,0,0,3.08,-5.32,0.70,0.97,0.27,-0.03

-4.076172,-0.07270108,-0.16944022,0.01992936,0.96,0.29,-0.02,36649,10046.30,0,0,0,-6.37,-13.09,4.27,0.96,0.29,-0.02

-4.076172,-0.10470109,-0.15544021,0.09292936,0.95,0.29,-0.03,36701,10046.30,0,0,0,-8.61,-12.11,9.38,0.95,0.29,-0.03

-4.1757812,-0.1337011,-0.14844021,0.06892936,0.96,0.26,-0.04,36754,10046.20,0,0,0,-10.64,-11.62,7.70,0.96,0.26,-0.04

-4.076172,-0.03370109,-0.072440214,-0.01607064,0.96,0.26,-0.06,36814,10046.30,0,0,0,-3.64,-6.30,1.75,0.96,0.26,-0.06

-4.1757812,-0.0017010868,-0.039440215,-0.03207064,0.96,0.26,-0.06,36866,10046.20,0,0,0,-1.40,-3.99,0.63,0.96,0.26,-0.06

-4.276367,-0.08570109,-0.050440215,0.011929359,0.95,0.24,-0.07,36919,10046.10,0,0,0,-7.28,-4.76,3.71,0.95,0.24,-0.07

-3.975586,0.062298913,0.08555979,-0.07807064,0.97,0.23,-0.09,36972,10046.40,0,0,0,3.08,4.76,-2.59,0.97,0.23,-0.09

-4.1757812,0.30729893,0.24755979,-0.19307065,0.97,0.25,-0.06,37031,10046.20,0,0,0,20.23,16.10,-10.64,0.97,0.25,-0.06

-4.1757812,0.2352989,0.18055978,-0.18007064,0.95,0.26,-0.03,37084,10046.20,0,0,0,15.19,11.41,-9.73,0.95,0.26,-0.03

-4.076172,0.109298915,0.08155979,-0.07807064,0.95,0.28,-0.04,37137,10046.30,0,0,0,6.37,4.48,-2.59,0.95,0.28,-0.04

-3.975586,0.09129891,0.047559787,-0.04307064,0.96,0.27,-0.04,37188,10046.40,0,0,0,5.11,2.10,-0.14,0.96,0.27,-0.04

-4.3759766,0.042298913,-0.047440216,-0.03907064,0.96,0.27,-0.03,37248,10046.00,0,0,0,1.68,-4.55,0.14,0.96,0.27,-0.03

-4.1757812,-0.017701086,-0.111440204,0.01792936,0.95,0.27,-0.03,37301,10046.20,0,0,0,-2.52,-9.03,4.13,0.95,0.27,-0.03

-3.975586,-0.14070109,-0.20044023,0.077929355,0.95,0.28,-0.03,37354,10046.40,0,0,0,-11.13,-15.26,8.33,0.95,0.28,-0.03

-4.076172,-0.1687011,-0.21344022,0.11392936,0.97,0.27,-0.04,37413,10046.30,0,0,0,-13.09,-16.17,10.85,0.97,0.27,-0.04

-4.3759766,-0.18270108,-0.21544021,0.077929355,0.97,0.26,-0.05,37466,10046.00,0,0,0,-14.07,-16.31,8.33,0.97,0.26,-0.05

-4.276367,-0.1027011,-0.13344021,0.011929359,0.96,0.25,-0.06,37518,10046.10,0,0,0,-8.47,-10.57,3.71,0.96,0.25,-0.06

-4.3759766,-0.003701087,-0.03344021,-0.02007064,0.95,0.25,-0.06,37579,10046.00,0,0,0,-1.54,-3.57,1.47,0.95,0.25,-0.06

-4.1757812,0.025298912,0.03555979,-0.04607064,0.95,0.25,-0.07,37631,10046.20,0,0,0,0.49,1.26,-0.35,0.95,0.25,-0.07

-4.3759766,0.08629891,0.09055979,-0.10407064,0.96,0.25,-0.07,37683,10046.00,0,0,0,4.76,5.11,-4.41,0.96,0.25,-0.07

-4.1757812,0.24229892,0.18855979,-0.16607064,0.95,0.27,-0.06,37737,10046.20,0,0,0,15.68,11.97,-8.75,0.95,0.27,-0.06

-4.576172,0.19429891,0.16555978,-0.13607064,0.95,0.27,-0.03,37797,10045.80,0,0,0,12.32,10.36,-6.65,0.95,0.27,-0.03

-4.475586,0.08229892,0.07555979,-0.080070645,0.96,0.27,-0.03,37849,10045.90,0,0,0,4.48,4.06,-2.73,0.96,0.27,-0.03

-4.1757812,0.087298915,0.037559785,-0.05407064,0.96,0.27,-0.03,37901,10046.20,0,0,0,4.83,1.40,-0.91,0.96,0.27,-0.03

-4.3759766,0.043298915,-0.029440211,-0.029070642,0.94,0.27,-0.02,37962,10046.00,0,0,0,1.75,-3.29,0.84,0.94,0.27,-0.02

-4.475586,-0.052701082,-0.10044021,0.037929364,0.96,0.28,-0.03,38014,10045.90,0,0,0,-4.97,-8.26,5.53,0.96,0.28,-0.03

-4.6757812,-0.13670109,-0.16844022,0.06392936,0.96,0.26,-0.04,38067,10045.70,0,0,0,-10.85,-13.02,7.35,0.96,0.26,-0.04

-4.6757812,-0.115701094,-0.16244023,0.037929364,0.97,0.26,-0.05,38119,10045.70,0,0,0,-9.38,-12.60,5.53,0.97,0.26,-0.05

-4.3759766,-0.08470109,-0.13244022,0.026929364,0.96,0.25,-0.05,38179,10046.00,0,0,0,-7.21,-10.50,4.76,0.96,0.25,-0.05

-4.3759766,-0.08670108,-0.11244022,0.016929358,0.96,0.24,-0.04,38231,10046.00,0,0,0,-7.35,-9.10,4.06,0.96,0.24,-0.04

-4.276367,-0.020701088,-0.05544021,-0.01807064,0.96,0.26,-0.05,38292,10046.10,0,0,0,-2.73,-5.11,1.61,0.96,0.26,-0.05

-4.276367,0.06429891,0.023559786,-0.05907064,0.95,0.26,-0.06,38343,10046.10,0,0,0,3.22,0.42,-1.26,0.95,0.26,-0.06

-4.3759766,0.11429891,0.06855979,-0.08607064,0.95,0.27,-0.05,38397,10046.00,0,0,0,6.72,3.57,-3.15,0.95,0.27,-0.05

-4.576172,0.11829892,0.07355979,-0.087070644,0.95,0.28,-0.05,38448,10045.80,0,0,0,7.00,3.92,-3.22,0.95,0.28,-0.05

-4.475586,0.08429891,0.049559787,-0.06307064,0.96,0.27,-0.04,38501,10045.90,0,0,0,4.62,2.24,-1.54,0.96,0.27,-0.04

-4.576172,0.073298916,0.037559785,-0.06707064,0.96,0.28,-0.05,38554,10045.80,0,0,0,3.85,1.40,-1.82,0.96,0.28,-0.05

-4.776367,0.090298906,0.037559785,-0.05807064,0.96,0.26,-0.03,38614,10045.60,0,0,0,5.04,1.40,-1.19,0.96,0.26,-0.03

-4.475586,0.040298913,-0.011440212,-0.03907064,0.96,0.26,-0.03,38667,10045.90,0,0,0,1.54,-2.03,0.14,0.96,0.26,-0.03

-4.576172,-0.022701085,-0.05244021,-0.001070641,0.96,0.26,-0.04,38718,10045.80,0,0,0,-2.87,-4.90,2.80,0.96,0.26,-0.04

-4.276367,-0.040701088,-0.069440216,-0.0040706396,0.96,0.26,-0.05,38771,10046.10,0,0,0,-4.13,-6.09,2.59,0.96,0.26,-0.05

-4.8759766,-0.012701089,-0.058440216,-0.029070642,0.96,0.26,-0.05,38831,10045.50,0,0,0,-2.17,-5.32,0.84,0.96,0.26,-0.05

-4.576172,-0.017701086,-0.061440215,-0.0070706382,0.96,0.26,-0.04,38884,10045.80,0,0,0,-2.52,-5.53,2.38,0.96,0.26,-0.04

-4.6757812,-0.066701084,-0.09644021,-0.0070706382,0.95,0.26,-0.04,38937,10045.70,0,0,0,-5.95,-7.98,2.38,0.95,0.26,-0.04

-4.3759766,0.016298912,-0.05244021,-0.01607064,0.96,0.27,-0.05,38996,10046.00,0,0,0,-0.14,-4.90,1.75,0.96,0.27,-0.05

-4.276367,0.031298913,-0.034440212,-0.01607064,0.95,0.27,-0.05,39048,10046.10,0,0,0,0.91,-3.64,1.75,0.95,0.27,-0.05

-4.475586,0.030298911,-0.038440213,-0.02607064,0.94,0.28,-0.05,39101,10045.90,0,0,0,0.84,-3.92,1.05,0.94,0.28,-0.05

-4.6757812,0.061298914,-0.012440212,0.0019293614,0.96,0.28,-0.05,39154,10045.70,0,0,0,3.01,-2.10,3.01,0.96,0.28,-0.05

-4.6757812,0.012298914,-0.03344021,-0.02107064,0.96,0.26,-0.04,39206,10045.70,0,0,0,-0.42,-3.57,1.40,0.96,0.26,-0.04

-4.576172,0.080298916,0.020559788,-0.04507064,0.95,0.26,-0.05,39266,10045.80,0,0,0,4.34,0.21,-0.28,0.95,0.26,-0.05

-4.6757812,0.08529891,0.04355979,-0.029070642,0.96,0.26,-0.03,39318,10045.70,0,0,0,4.69,1.82,0.84,0.96,0.26,-0.03

-4.475586,-0.0047010873,0.0015597865,-0.05407064,0.97,0.25,-0.04,39372,10045.90,0,0,0,-1.61,-1.12,-0.91,0.97,0.25,-0.04

-4.776367,0.10129891,0.060559787,-0.08507064,0.96,0.26,-0.05,39431,10045.60,0,0,0,5.81,3.01,-3.08,0.96,0.26,-0.05

-4.6757812,0.06629891,0.041559786,-0.04107064,0.96,0.26,-0.04,39483,10045.70,0,0,0,3.36,1.68,0.00,0.96,0.26,-0.04

-4.6757812,-0.066701084,-0.04044021,-0.04507064,0.96,0.25,-0.05,39536,10045.70,0,0,0,-5.95,-4.06,-0.28,0.96,0.25,-0.05

-4.776367,0.09229891,0.020559788,-0.06307064,0.95,0.27,-0.05,39589,10045.60,0,0,0,5.18,0.21,-1.54,0.95,0.27,-0.05

-4.776367,0.049298912,-0.024440212,-0.03007064,0.94,0.27,-0.03,39649,10045.60,0,0,0,2.17,-2.94,0.77,0.94,0.27,-0.03

-4.475586,-0.12570108,-0.15344022,0.041929357,0.95,0.27,-0.04,39701,10045.90,0,0,0,-10.08,-11.97,5.81,0.95,0.27,-0.04

-4.3759766,-0.042701088,-0.11944022,0.022929363,0.95,0.26,-0.05,39754,10046.00,0,0,0,-4.27,-9.59,4.48,0.95,0.26,-0.05

-4.276367,0.058298912,-0.061440215,-7.064268E-5,0.96,0.27,-0.06,39814,10046.10,0,0,0,2.80,-5.53,2.87,0.96,0.27,-0.06

-4.776367,-0.027701087,-0.07644021,0.025929362,0.96,0.26,-0.05,39866,10045.60,0,0,0,-3.22,-6.58,4.69,0.96,0.26,-0.05

-4.6757812,-0.0077010877,-0.05544021,9.2935935E-4,0.96,0.26,-0.05,39919,10045.70,0,0,0,-1.82,-5.11,2.94,0.96,0.26,-0.05

-4.6757812,0.07629891,0.0065597873,-0.04907064,0.96,0.26,-0.05,39972,10045.70,0,0,0,4.06,-0.77,-0.56,0.96,0.26,-0.05

-4.776367,0.028298913,0.018559787,-0.04607064,0.95,0.25,-0.04,40031,10045.60,0,0,0,0.70,0.07,-0.35,0.95,0.25,-0.04

-4.975586,0.018298913,0.03555979,-0.062070638,0.96,0.25,-0.05,40083,10045.40,0,0,0,0.00,1.26,-1.47,0.96,0.25,-0.05

-4.6757812,0.11529891,0.088559784,-0.11007064,0.96,0.25,-0.05,40136,10045.70,0,0,0,6.79,4.97,-4.83,0.96,0.25,-0.05

-4.576172,0.09629892,0.074559785,-0.09907064,0.96,0.26,-0.05,40197,10045.80,0,0,0,5.46,3.99,-4.06,0.96,0.26,-0.05

-4.475586,0.014298912,0.015559787,-0.051070638,0.95,0.28,-0.04,40249,10045.90,0,0,0,-0.28,-0.14,-0.70,0.95,0.28,-0.04

-4.776367,0.0062989136,-0.020440215,-0.011070641,0.95,0.26,-0.04,40301,10045.60,0,0,0,-0.84,-2.66,2.10,0.95,0.26,-0.04

-4.8759766,-0.0017010868,-0.064440206,-0.03607064,0.95,0.27,-0.04,40354,10045.50,0,0,0,-1.40,-5.74,0.35,0.95,0.27,-0.04

-4.6757812,0.0012989119,-0.06544021,0.018929359,0.95,0.27,-0.05,40407,10045.70,0,0,0,-1.19,-5.81,4.20,0.95,0.27,-0.05

-4.975586,-0.04870109,-0.09344021,0.037929364,0.97,0.26,-0.05,40466,10045.40,0,0,0,-4.69,-7.77,5.53,0.97,0.26,-0.05

-4.776367,-0.01970109,-0.09844021,0.0039293617,0.96,0.25,-0.04,40518,10045.60,0,0,0,-2.66,-8.12,3.15,0.96,0.25,-0.04

-4.975586,0.010298912,-0.07644021,0.016929358,0.95,0.26,-0.04,40572,10045.40,0,0,0,-0.56,-6.58,4.06,0.95,0.26,-0.04

-4.975586,-0.07770108,-0.09344021,0.02892936,0.96,0.25,-0.04,40624,10045.40,0,0,0,-6.72,-7.77,4.90,0.96,0.25,-0.04

-4.8759766,0.014298912,-0.017440213,-0.03807064,0.96,0.26,-0.05,40683,10045.50,0,0,0,-0.28,-2.45,0.21,0.96,0.26,-0.05

-4.975586,0.1412989,0.07355979,-0.08407064,0.96,0.26,-0.04,40737,10045.40,0,0,0,8.61,3.92,-3.01,0.96,0.26,-0.04

-4.475586,0.008298913,0.0065597873,-0.05907064,0.96,0.27,-0.04,40788,10045.90,0,0,0,-0.70,-0.77,-1.26,0.96,0.27,-0.04

-4.576172,-0.015701089,-4.4021197E-4,-0.03507064,0.96,0.26,-0.04,40849,10045.80,0,0,0,-2.38,-1.26,0.42,0.96,0.26,-0.04

-4.776367,0.06929891,0.037559785,-0.08407064,0.96,0.26,-0.04,40901,10045.60,0,0,0,3.57,1.40,-3.01,0.96,0.26,-0.04

-4.975586,0.057298914,0.033559788,-0.06007064,0.96,0.26,-0.05,40954,10045.40,0,0,0,2.73,1.12,-1.33,0.96,0.26,-0.05

-4.776367,0.025298912,0.012559787,-0.04507064,0.96,0.27,-0.05,41006,10045.60,0,0,0,0.49,-0.35,-0.28,0.96,0.27,-0.05

-4.8759766,0.06829891,0.0065597873,-0.03807064,0.95,0.27,-0.04,41059,10045.50,0,0,0,3.50,-0.77,0.21,0.95,0.27,-0.04

-5.076172,-0.010701086,-0.06644021,0.0039293617,0.95,0.27,-0.04,41119,10045.30,0,0,0,-2.03,-5.88,3.15,0.95,0.27,-0.04

-4.975586,-0.098701075,-0.12544023,0.044929363,0.96,0.26,-0.04,41172,10045.40,0,0,0,-8.19,-10.01,6.02,0.96,0.26,-0.04

-4.8759766,0.014298912,-0.06344021,-0.02607064,0.96,0.25,-0.05,41223,10045.50,0,0,0,-0.28,-5.67,1.05,0.96,0.25,-0.05

-4.975586,0.117298916,0.0015597865,-0.04007064,0.96,0.26,-0.04,41277,10045.40,0,0,0,6.93,-1.12,0.07,0.96,0.26,-0.04

-4.8759766,-0.032701086,-0.079440214,-0.011070641,0.96,0.26,-0.03,41329,10045.50,0,0,0,-3.57,-6.79,2.10,0.96,0.26,-0.03

-5.076172,-0.04870109,-0.089440204,0.0059293583,0.97,0.27,-0.04,41388,10045.30,0,0,0,-4.69,-7.49,3.29,0.97,0.27,-0.04

-4.8759766,0.042298913,-0.022440212,-0.05207064,0.95,0.27,-0.04,41442,10045.50,0,0,0,1.68,-2.80,-0.77,0.95,0.27,-0.04

-5.076172,0.03429891,-0.005440213,-0.04507064,0.95,0.27,-0.04,41494,10045.30,0,0,0,1.12,-1.61,-0.28,0.95,0.27,-0.04

-4.576172,0.0032989131,-0.008440213,-0.05207064,0.95,0.27,-0.04,41553,10045.80,0,0,0,-1.05,-1.82,-0.77,0.95,0.27,-0.04

-4.975586,0.072298914,0.019559788,-0.06407064,0.95,0.27,-0.05,41606,10045.40,0,0,0,3.78,0.14,-1.61,0.95,0.27,-0.05

-4.776367,0.039298914,5.5978633E-4,-0.04007064,0.95,0.27,-0.05,41659,10045.60,0,0,0,1.47,-1.19,0.07,0.95,0.27,-0.05

-5.1757812,-0.0057010856,-0.02344021,-0.02707064,0.96,0.26,-0.05,41719,10045.20,0,0,0,-1.68,-2.87,0.98,0.96,0.26,-0.05

-4.776367,0.08529891,0.026559787,-0.05807064,0.96,0.26,-0.05,41772,10045.60,0,0,0,4.69,0.63,-1.19,0.96,0.26,-0.05

-4.975586,0.13829891,0.053559788,-0.073070645,0.96,0.26,-0.05,41824,10045.40,0,0,0,8.40,2.52,-2.24,0.96,0.26,-0.05

-5.076172,0.051298913,-0.0034402125,-0.02707064,0.96,0.27,-0.04,41884,10045.30,0,0,0,2.31,-1.47,0.98,0.96,0.27,-0.04

-5.1757812,0.002298912,-0.04144021,0.0069293566,0.97,0.27,-0.05,41936,10045.20,0,0,0,-1.12,-4.13,3.36,0.97,0.27,-0.05

-4.475586,0.032298915,-0.046440214,-0.04207064,0.95,0.26,-0.04,41988,10045.90,0,0,0,0.98,-4.48,-0.07,0.95,0.26,-0.04

-4.975586,0.039298914,-0.03744021,0.0029293597,0.95,0.27,-0.04,42041,10045.40,0,0,0,1.47,-3.85,3.08,0.95,0.27,-0.04

-4.975586,-0.06070109,-0.089440204,0.01392936,0.96,0.26,-0.04,42101,10045.40,0,0,0,-5.53,-7.49,3.85,0.96,0.26,-0.04

-4.8759766,-0.016701087,-0.072440214,-0.011070641,0.96,0.27,-0.05,42154,10045.50,0,0,0,-2.45,-6.30,2.10,0.96,0.27,-0.05

-4.576172,0.023298912,-0.04144021,-0.001070641,0.95,0.27,-0.05,42206,10045.80,0,0,0,0.35,-4.13,2.80,0.95,0.27,-0.05

-4.6757812,-0.08070108,-0.08544021,0.025929362,0.96,0.26,-0.05,42259,10045.70,0,0,0,-6.93,-7.21,4.69,0.96,0.26,-0.05

-4.975586,-0.011701087,-0.031440213,-0.02607064,0.96,0.26,-0.06,42311,10045.40,0,0,0,-2.10,-3.43,1.05,0.96,0.26,-0.06

-4.776367,0.13529891,0.06255979,-0.06607064,0.96,0.26,-0.06,42371,10045.60,0,0,0,8.19,3.15,-1.75,0.96,0.26,-0.06

-4.8759766,0.056298915,0.03555979,-0.05507064,0.96,0.25,-0.04,42423,10045.50,0,0,0,2.66,1.26,-0.98,0.96,0.25,-0.04

-5.076172,0.05929891,0.030559788,-0.062070638,0.96,0.26,-0.05,42476,10045.30,0,0,0,2.87,0.91,-1.47,0.96,0.26,-0.05

-4.8759766,0.10129891,0.047559787,-0.07407064,0.96,0.25,-0.05,42536,10045.50,0,0,0,5.81,2.10,-2.31,0.96,0.25,-0.05

-4.576172,0.057298914,0.021559788,-0.06607064,0.95,0.26,-0.05,42589,10045.80,0,0,0,2.73,0.28,-1.75,0.95,0.26,-0.05

-5.076172,0.05429891,0.017559787,-0.04007064,0.96,0.27,-0.04,42642,10045.30,0,0,0,2.52,0.00,0.07,0.96,0.27,-0.04

-5.076172,0.031298913,-0.022440212,-0.01907064,0.96,0.27,-0.03,42694,10045.30,0,0,0,0.91,-2.80,1.54,0.96,0.27,-0.03

-4.3759766,-0.03370109,-0.091440216,-0.014070639,0.95,0.27,-0.04,42746,10046.00,0,0,0,-3.64,-7.63,1.89,0.95,0.27,-0.04

-4.8759766,-0.07070109,-0.11844022,0.033929363,0.95,0.27,-0.04,42806,10045.50,0,0,0,-6.23,-9.52,5.25,0.95,0.27,-0.04

-4.975586,-0.1097011,-0.13544022,0.03692936,0.95,0.25,-0.05,42858,10045.40,0,0,0,-8.96,-10.71,5.46,0.95,0.25,-0.05

-5.076172,-7.0108846E-4,-0.069440216,-0.00807064,0.96,0.26,-0.06,42912,10045.30,0,0,0,-1.33,-6.09,2.31,0.96,0.26,-0.06

-4.475586,0.031298913,-0.03344021,-0.0040706396,0.96,0.26,-0.05,42971,10045.90,0,0,0,0.91,-3.57,2.59,0.96,0.26,-0.05

-4.8759766,-0.06370108,-0.07544021,-0.01907064,0.96,0.25,-0.05,43024,10045.50,0,0,0,-5.74,-6.51,1.54,0.96,0.25,-0.05

-4.975586,0.056298915,0.013559787,-0.04907064,0.96,0.26,-0.06,43076,10045.40,0,0,0,2.66,-0.28,-0.56,0.96,0.26,-0.06

-5.076172,0.12329891,0.08155979,-0.09007064,0.96,0.25,-0.05,43130,10045.30,0,0,0,7.35,4.48,-3.43,0.96,0.25,-0.05

-4.776367,0.09129891,0.07255979,-0.09007064,0.96,0.26,-0.05,43189,10045.60,0,0,0,5.11,3.85,-3.43,0.96,0.26,-0.05

-4.975586,0.09329891,0.070559785,-0.06707064,0.96,0.26,-0.04,43241,10045.40,0,0,0,5.25,3.71,-1.82,0.96,0.26,-0.04

-5.1757812,0.065298915,0.032559786,-0.07007064,0.96,0.27,-0.04,43294,10045.20,0,0,0,3.29,1.05,-2.03,0.96,0.27,-0.04

-4.975586,0.050298914,0.013559787,-0.051070638,0.95,0.27,-0.04,43354,10045.40,0,0,0,2.24,-0.28,-0.70,0.95,0.27,-0.04

-4.6757812,-7.0108846E-4,-0.042440213,-0.00807064,0.95,0.27,-0.03,43406,10045.70,0,0,0,-1.33,-4.20,2.31,0.95,0.27,-0.03

-4.975586,-0.08470109,-0.11944022,0.011929359,0.95,0.26,-0.04,43459,10045.40,0,0,0,-7.21,-9.59,3.71,0.95,0.26,-0.04

-4.8759766,-0.038701087,-0.10044021,0.016929358,0.96,0.27,-0.05,43512,10045.50,0,0,0,-3.99,-8.26,4.06,0.96,0.27,-0.05

-4.975586,-0.046701092,-0.09544021,0.025929362,0.96,0.26,-0.05,43571,10045.40,0,0,0,-4.55,-7.91,4.69,0.96,0.26,-0.05

-5.076172,-0.06570108,-0.10844021,0.01992936,0.96,0.26,-0.05,43624,10045.30,0,0,0,-5.88,-8.82,4.27,0.96,0.26,-0.05

-5.1757812,-0.016701087,-0.07044021,-0.0050706416,0.96,0.25,-0.05,43676,10045.20,0,0,0,-2.45,-6.16,2.52,0.96,0.25,-0.05

-4.776367,0.033298913,-0.018440211,-0.03507064,0.95,0.26,-0.05,43737,10045.60,0,0,0,1.05,-2.52,0.42,0.95,0.26,-0.05

-4.975586,0.061298914,0.024559788,-0.04607064,0.95,0.26,-0.04,43789,10045.40,0,0,0,3.01,0.49,-0.35,0.95,0.26,-0.04

-5.076172,0.07029891,0.03555979,-0.07007064,0.95,0.26,-0.04,43841,10045.30,0,0,0,3.64,1.26,-2.03,0.95,0.26,-0.04

-4.975586,0.08629891,0.038559787,-0.08407064,0.96,0.27,-0.04,43894,10045.40,0,0,0,4.76,1.47,-3.01,0.96,0.27,-0.04

-4.8759766,0.058298912,0.03555979,-0.057070643,0.95,0.27,-0.05,43946,10045.50,0,0,0,2.80,1.26,-1.12,0.95,0.27,-0.05

-5.276367,0.018298913,0.023559786,-0.04107064,0.97,0.26,-0.05,44006,10045.10,0,0,0,0.00,0.42,0.00,0.97,0.26,-0.05

-4.975586,0.07129891,0.031559788,-0.06907064,0.96,0.27,-0.04,44059,10045.40,0,0,0,3.71,0.98,-1.96,0.96,0.27,-0.04

-4.975586,0.051298913,-0.005440213,-0.03207064,0.95,0.27,-0.03,44111,10045.40,0,0,0,2.31,-1.61,0.63,0.95,0.27,-0.03

-5.3759766,-0.08670108,-0.09544021,0.023929365,0.95,0.26,-0.03,44164,10045.00,0,0,0,-7.35,-7.91,4.55,0.95,0.26,-0.03

-5.076172,-0.038701087,-0.08144021,0.007929362,0.96,0.26,-0.05,44224,10045.30,0,0,0,-3.99,-6.93,3.43,0.96,0.26,-0.05

-5.1757812,0.05429891,-0.025440214,-0.02407064,0.96,0.26,-0.05,44284,10045.20,0,0,0,2.52,-3.01,1.19,0.96,0.26,-0.05

-5.076172,-0.0047010873,-0.05544021,-0.010070639,0.96,0.26,-0.05,44329,10045.30,0,0,0,-1.61,-5.11,2.17,0.96,0.26,-0.05

-5.1757812,-0.027701087,-0.072440214,-0.00807064,0.96,0.26,-0.04,44381,10045.20,0,0,0,-3.22,-6.30,2.31,0.96,0.26,-0.04

-4.975586,0.008298913,-0.057440214,-0.012070641,0.96,0.25,-0.04,44426,10045.40,0,0,0,-0.70,-5.25,2.03,0.96,0.25,-0.04

-4.975586,0.010298912,-0.039440215,-0.03207064,0.96,0.26,-0.05,44479,10045.40,0,0,0,-0.56,-3.99,0.63,0.96,0.26,-0.05

-5.076172,0.06729892,0.011559788,-0.04607064,0.95,0.27,-0.05,44532,10045.30,0,0,0,3.43,-0.42,-0.35,0.95,0.27,-0.05

-5.076172,0.09829891,0.021559788,-0.062070638,0.95,0.27,-0.03,44584,10045.30,0,0,0,5.60,0.28,-1.47,0.95,0.27,-0.03

-5.076172,0.007298913,-0.04044021,-0.02807064,0.96,0.28,-0.04,44636,10045.30,0,0,0,-0.77,-4.06,0.91,0.96,0.28,-0.04

-4.975586,-0.040701088,-0.058440216,-0.01607064,0.95,0.26,-0.05,44696,10045.40,0,0,0,-4.13,-5.32,1.75,0.95,0.26,-0.05

-5.1757812,0.05429891,0.008559788,-0.04807064,0.95,0.26,-0.05,44749,10045.20,0,0,0,2.52,-0.63,-0.49,0.95,0.26,-0.05

-5.276367,0.07629891,0.031559788,-0.04707064,0.97,0.26,-0.05,44804,10045.10,0,0,0,4.06,0.98,-0.42,0.97,0.26,-0.05

-5.276367,0.031298913,0.005559788,-0.04607064,0.97,0.26,-0.05,44861,10045.10,0,0,0,0.91,-0.84,-0.35,0.97,0.26,-0.05

-5.276367,0.06829891,0.018559787,-0.04407064,0.96,0.26,-0.05,44914,10045.10,0,0,0,3.50,0.07,-0.21,0.96,0.26,-0.05

-5.3759766,0.032298915,-0.014440214,-0.02007064,0.95,0.26,-0.05,44967,10045.00,0,0,0,0.98,-2.24,1.47,0.95,0.26,-0.05

-5.3759766,-0.018701088,-0.047440216,-0.01807064,0.96,0.25,-0.05,45019,10045.00,0,0,0,-2.59,-4.55,1.61,0.96,0.25,-0.05

-5.1757812,0.09329891,0.010559787,-0.05507064,0.95,0.26,-0.05,45071,10045.20,0,0,0,5.25,-0.49,-0.98,0.95,0.26,-0.05

-5.076172,0.09129891,-4.4021197E-4,-0.03507064,0.95,0.27,-0.04,45132,10045.30,0,0,0,5.11,-1.26,0.42,0.95,0.27,-0.04

-4.975586,-0.071701095,-0.11444021,0.026929364,0.96,0.27,-0.04,45184,10045.40,0,0,0,-6.30,-9.24,4.76,0.96,0.27,-0.04

-5.3759766,-0.053701084,-0.11344021,0.007929362,0.96,0.26,-0.05,45237,10045.00,0,0,0,-5.04,-9.17,3.43,0.96,0.26,-0.05

-5.276367,0.057298914,-0.035440214,-0.01907064,0.96,0.26,-0.05,45289,10045.10,0,0,0,2.73,-3.71,1.54,0.96,0.26,-0.05

-5.475586,0.011298913,-0.044440217,-0.0050706416,0.96,0.26,-0.04,45348,10044.90,0,0,0,-0.49,-4.34,2.52,0.96,0.26,-0.04

-5.576172,-0.013701089,-0.05644021,-0.012070641,0.96,0.26,-0.05,45401,10044.80,0,0,0,-2.24,-5.18,2.03,0.96,0.26,-0.05

-5.276367,0.038298912,-0.022440212,-0.03807064,0.95,0.26,-0.05,45454,10045.10,0,0,0,1.40,-2.80,0.21,0.95,0.26,-0.05

-5.3759766,0.013298913,-0.009440213,-0.03207064,0.95,0.25,-0.06,45514,10045.00,0,0,0,-0.35,-1.89,0.63,0.95,0.25,-0.06

-5.1757812,0.06329891,0.033559788,-0.05807064,0.95,0.25,-0.05,45566,10045.20,0,0,0,3.15,1.12,-1.19,0.95,0.25,-0.05

-5.076172,0.15729891,0.08155979,-0.10107064,0.96,0.26,-0.05,45619,10045.30,0,0,0,9.73,4.48,-4.20,0.96,0.26,-0.05

-5.3759766,0.072298914,0.032559786,-0.06007064,0.96,0.26,-0.05,45671,10045.00,0,0,0,3.78,1.05,-1.33,0.96,0.26,-0.05

-5.1757812,0.0012989119,-0.0044402126,-0.03807064,0.97,0.26,-0.06,45731,10045.20,0,0,0,-1.19,-1.54,0.21,0.97,0.26,-0.06

-5.576172,0.10029891,0.04655979,-0.06307064,0.96,0.26,-0.06,45784,10044.80,0,0,0,5.74,2.03,-1.54,0.96,0.26,-0.06

-5.475586,0.08129892,0.019559788,-0.03307064,0.96,0.26,-0.04,45836,10044.90,0,0,0,4.41,0.14,0.56,0.96,0.26,-0.04

-5.3759766,-0.06770109,-0.08544021,0.020929363,0.96,0.26,-0.04,45888,10045.00,0,0,0,-6.02,-7.21,4.34,0.96,0.26,-0.04

-5.3759766,-0.042701088,-0.09244021,0.026929364,0.97,0.26,-0.05,45948,10045.00,0,0,0,-4.27,-7.70,4.76,0.97,0.26,-0.05

-5.1757812,-0.0067010876,-0.07544021,0.0069293566,0.96,0.25,-0.05,46001,10045.20,0,0,0,-1.75,-6.51,3.36,0.96,0.25,-0.05

-5.6757812,-0.04570109,-0.09044021,0.02492936,0.95,0.26,-0.05,46054,10044.70,0,0,0,-4.48,-7.56,4.62,0.95,0.26,-0.05

-5.1757812,-0.039701086,-0.08244021,0.0039293617,0.96,0.26,-0.05,46106,10045.20,0,0,0,-4.06,-7.00,3.15,0.96,0.26,-0.05

-5.3759766,-7.0108846E-4,-0.044440217,-0.01507064,0.96,0.26,-0.06,46167,10045.00,0,0,0,-1.33,-4.34,1.82,0.96,0.26,-0.06

-5.475586,-0.013701089,-0.028440213,-0.01807064,0.96,0.25,-0.05,46219,10044.90,0,0,0,-2.24,-3.22,1.61,0.96,0.25,-0.05

-5.276367,0.033298913,0.015559787,-0.05407064,0.96,0.26,-0.05,46272,10045.10,0,0,0,1.05,-0.14,-0.91,0.96,0.26,-0.05

-5.475586,0.08629891,0.05155979,-0.06107064,0.95,0.25,-0.04,46331,10044.90,0,0,0,4.76,2.38,-1.40,0.95,0.25,-0.04

-5.475586,0.029298913,0.020559788,-0.04807064,0.96,0.26,-0.05,46384,10044.90,0,0,0,0.77,0.21,-0.49,0.96,0.26,-0.05

-5.475586,0.050298914,0.03655979,-0.04907064,0.95,0.25,-0.05,46436,10044.90,0,0,0,2.24,1.33,-0.56,0.95,0.25,-0.05

-5.3759766,0.116298914,0.056559786,-0.06507064,0.95,0.27,-0.04,46489,10045.00,0,0,0,6.86,2.73,-1.68,0.95,0.27,-0.04

-5.475586,0.019298913,-0.020440215,-0.02407064,0.95,0.27,-0.03,46548,10044.90,0,0,0,0.07,-2.66,1.19,0.95,0.27,-0.03

-5.475586,-0.05970109,-0.08444021,0.01392936,0.96,0.26,-0.04,46601,10044.90,0,0,0,-5.46,-7.14,3.85,0.96,0.26,-0.04

-5.576172,-0.0017010868,-0.05544021,-0.0040706396,0.96,0.25,-0.05,46655,10044.80,0,0,0,-1.40,-5.11,2.59,0.96,0.25,-0.05

-5.475586,0.057298914,-0.026440213,-0.02007064,0.95,0.25,-0.04,46706,10044.90,0,0,0,2.73,-3.08,1.47,0.95,0.25,-0.04

-5.1757812,-0.028701086,-0.08144021,0.023929365,0.95,0.25,-0.03,46766,10045.20,0,0,0,-3.29,-6.93,4.55,0.95,0.25,-0.03

-5.475586,-0.09170109,-0.12344021,0.023929365,0.96,0.25,-0.05,46819,10044.90,0,0,0,-7.70,-9.87,4.55,0.96,0.25,-0.05

-5.475586,0.018298913,-0.03044021,-0.022070639,0.96,0.25,-0.06,46871,10044.90,0,0,0,0.00,-3.36,1.33,0.96,0.25,-0.06

-5.6757812,0.11029892,0.049559787,-0.05807064,0.96,0.25,-0.05,46924,10044.70,0,0,0,6.44,2.24,-1.19,0.96,0.25,-0.05

-5.3759766,0.061298914,0.022559788,-0.05807064,0.96,0.25,-0.04,46984,10045.00,0,0,0,3.01,0.35,-1.19,0.96,0.25,-0.04

-5.6757812,0.025298912,-0.009440213,-0.04007064,0.96,0.25,-0.03,47036,10044.70,0,0,0,0.49,-1.89,0.07,0.96,0.25,-0.03

-5.6757812,0.042298913,0.009559787,-0.04007064,0.97,0.25,-0.05,47089,10044.70,0,0,0,1.68,-0.56,0.07,0.97,0.25,-0.05

-5.776367,0.08129892,0.05155979,-0.06007064,0.96,0.24,-0.05,47142,10044.60,0,0,0,4.41,2.38,-1.33,0.96,0.24,-0.05

-5.6757812,0.12629892,0.06155979,-0.07907064,0.96,0.25,-0.04,47201,10044.70,0,0,0,7.56,3.08,-2.66,0.96,0.25,-0.04

-5.576172,0.05929891,-4.4021197E-4,-0.03407064,0.95,0.25,-0.04,47254,10044.80,0,0,0,2.87,-1.26,0.49,0.95,0.25,-0.04

-5.776367,-0.05970109,-0.083440214,9.2935935E-4,0.96,0.26,-0.04,47307,10044.60,0,0,0,-5.46,-7.07,2.94,0.96,0.26,-0.04

-5.576172,-0.036701087,-0.06544021,0.011929359,0.96,0.25,-0.05,47366,10044.80,0,0,0,-3.85,-5.81,3.71,0.96,0.25,-0.05

-5.3759766,0.023298912,-0.036440216,-0.03707064,0.96,0.24,-0.05,47420,10045.00,0,0,0,0.35,-3.78,0.28,0.96,0.24,-0.05

-5.6757812,0.036298912,-0.03344021,-0.029070642,0.95,0.24,-0.04,47471,10044.70,0,0,0,1.26,-3.57,0.84,0.95,0.24,-0.04

-5.8759766,-0.027701087,-0.07344021,0.007929362,0.96,0.26,-0.04,47524,10044.50,0,0,0,-3.22,-6.37,3.43,0.96,0.26,-0.04

-5.576172,-0.08970109,-0.10744021,0.03692936,0.96,0.26,-0.05,47576,10044.80,0,0,0,-7.56,-8.75,5.46,0.96,0.26,-0.05

-5.6757812,-0.011701087,-0.054440208,-0.02107064,0.96,0.25,-0.06,47636,10044.70,0,0,0,-2.10,-5.04,1.40,0.96,0.25,-0.06

-5.6757812,0.10729891,0.029559787,-0.08507064,0.94,0.24,-0.05,47689,10044.70,0,0,0,6.23,0.84,-3.08,0.94,0.24,-0.05

-5.8759766,0.087298915,0.042559788,-0.03207064,0.97,0.26,-0.04,47741,10044.50,0,0,0,4.83,1.75,0.63,0.97,0.26,-0.04

-5.1757812,-0.020701088,-0.02344021,-0.04407064,0.97,0.25,-0.04,47794,10045.20,0,0,0,-2.73,-2.87,-0.21,0.97,0.25,-0.04

-4.6757812,0.05429891,0.029559787,-0.057070643,0.97,0.24,-0.05,47854,10045.70,0,0,0,2.52,0.84,-1.12,0.97,0.24,-0.05

-5.1757812,0.035298914,0.022559788,-0.09007064,0.95,0.23,-0.04,47906,10045.20,0,0,0,1.19,0.35,-3.43,0.95,0.23,-0.04

-5.276367,0.0062989136,0.018559787,-0.05507064,0.94,0.23,-0.03,47958,10045.10,0,0,0,-0.84,0.07,-0.98,0.94,0.23,-0.03

-4.8759766,0.07729891,0.023559786,-0.03207064,0.96,0.26,-0.04,48018,10045.50,0,0,0,4.13,0.42,0.63,0.96,0.26,-0.04

-4.1757812,-0.03370109,-0.053440206,-0.0070706382,0.97,0.27,-0.04,48071,10046.20,0,0,0,-3.64,-4.97,2.38,0.97,0.27,-0.04

-3.5761719,-0.071701095,-0.09544021,-0.02807064,0.96,0.26,-0.05,48124,10046.80,0,0,0,-6.30,-7.91,0.91,0.96,0.26,-0.05

-3.3759766,0.03429891,-0.038440213,0.011929359,0.95,0.25,-0.04,48176,10047.00,0,0,0,1.12,-3.92,3.71,0.95,0.25,-0.04

-3.475586,-0.05670109,-0.09344021,-0.014070639,0.96,0.24,-0.03,48236,10046.90,0,0,0,-5.25,-7.77,1.89,0.96,0.24,-0.03

-3.1757812,-0.011701087,-0.06544021,-0.0020706393,0.96,0.25,-0.05,48289,10047.20,0,0,0,-2.10,-5.81,2.73,0.96,0.25,-0.05

-3.0761719,0.025298912,-0.034440212,-0.02107064,0.96,0.25,-0.04,48342,10047.30,0,0,0,0.49,-3.64,1.40,0.96,0.25,-0.04

-3.0761719,-0.011701087,-0.054440208,-0.022070639,0.96,0.26,-0.04,48401,10047.30,0,0,0,-2.10,-5.04,1.33,0.96,0.26,-0.04

-3.3759766,0.002298912,-0.03044021,-0.02807064,0.96,0.26,-0.04,48454,10047.00,0,0,0,-1.12,-3.36,0.91,0.96,0.26,-0.04

-3.2763672,0.04829891,0.009559787,-0.05607064,0.96,0.26,-0.05,48507,10047.10,0,0,0,2.10,-0.56,-1.05,0.96,0.26,-0.05

-3.1757812,0.07929891,0.05055979,-0.07507064,0.96,0.25,-0.05,48559,10047.20,0,0,0,4.27,2.31,-2.38,0.96,0.25,-0.05

-2.7763672,0.072298914,0.04655979,-0.06407064,0.97,0.13,-0.03,48611,10047.60,0,0,0,3.78,2.03,-1.61,0.97,0.13,-0.03

-2.5761719,0.014298912,-0.0024402123,-0.04507064,0.97,0.26,-0.03,48671,10047.80,0,0,0,-0.28,-1.40,-0.28,0.97,0.26,-0.03

-2.2763672,0.020298913,-0.001440214,-0.04407064,0.96,0.26,-0.04,48723,10048.10,0,0,0,0.14,-1.33,-0.21,0.96,0.26,-0.04

-1.9755859,0.060298912,0.013559787,-0.03607064,0.95,0.26,-0.04,48776,10048.40,0,0,0,2.94,-0.28,0.35,0.95,0.26,-0.04

-1.9755859,0.009298913,-0.038440213,-0.00807064,0.96,0.27,-0.04,48829,10048.40,0,0,0,-0.63,-3.92,2.31,0.96,0.27,-0.04

-1.6757812,-0.050701085,-0.09644021,-7.064268E-5,0.95,0.26,-0.04,48889,10048.70,0,0,0,-4.83,-7.98,2.87,0.95,0.26,-0.04

-1.9755859,-0.022701085,-0.08744021,0.011929359,0.95,0.26,-0.05,48941,10048.40,0,0,0,-2.87,-7.35,3.71,0.95,0.26,-0.05

-1.8759766,-0.050701085,-0.08544021,0.030929357,0.96,0.24,-0.04,48994,10048.50,0,0,0,-4.83,-7.21,5.04,0.96,0.24,-0.04

-1.7763672,-7.0108846E-4,-0.05944021,-0.010070639,0.98,0.25,-0.05,49053,10048.60,0,0,0,-1.33,-5.39,2.17,0.98,0.25,-0.05

-1.5761719,0.10029891,0.0075597875,-0.05407064,0.97,0.26,-0.04,49106,10048.80,0,0,0,5.74,-0.70,-0.91,0.97,0.26,-0.04

-1.2763672,0.032298915,-0.015440213,-0.03407064,0.95,0.26,-0.04,49158,10049.10,0,0,0,0.98,-2.31,0.49,0.95,0.26,-0.04

-1.3759766,-0.026701089,-0.03044021,0.00492936,0.95,0.25,-0.05,49211,10049.00,0,0,0,-3.15,-3.36,3.22,0.95,0.25,-0.05

-1.4755859,0.065298915,0.029559787,-0.07607064,0.96,0.24,-0.06,49264,10048.90,0,0,0,3.29,0.84,-2.45,0.96,0.24,-0.06

-1.8759766,0.16829892,0.09155979,-0.09907064,0.95,0.26,-0.05,49324,10048.50,0,0,0,10.50,5.18,-4.06,0.95,0.26,-0.05

-1.8759766,0.053298913,0.032559786,-0.05507064,0.97,0.26,-0.04,49376,10048.50,0,0,0,2.45,1.05,-0.98,0.97,0.26,-0.04

-1.8759766,-0.018701088,-0.03044021,-0.04107064,0.96,0.25,-0.03,49428,10048.50,0,0,0,-2.59,-3.36,0.00,0.96,0.25,-0.03

-2.475586,0.057298914,-0.0034402125,-0.05007064,0.96,0.25,-0.04,49481,10047.90,0,0,0,2.73,-1.47,-0.63,0.96,0.25,-0.04

-2.6757812,0.044298913,-0.016440215,-0.04607064,0.95,0.26,-0.04,49542,10047.70,0,0,0,1.82,-2.38,-0.35,0.95,0.26,-0.04

-3.1757812,2.9891357E-4,-0.04144021,-0.001070641,0.97,0.28,-0.05,49594,10047.20,0,0,0,-1.26,-4.13,2.80,0.97,0.28,-0.05

-3.5761719,-0.040701088,-0.09644021,-0.01807064,0.96,0.25,-0.05,49646,10046.80,0,0,0,-4.13,-7.98,1.61,0.96,0.25,-0.05

-3.6757812,-0.04570109,-0.10344022,0.01392936,0.95,0.25,-0.05,49706,10046.70,0,0,0,-4.48,-8.47,3.85,0.95,0.25,-0.05

-4.1757812,-0.025701087,-0.064440206,-0.0040706396,0.96,0.24,-0.05,49758,10046.20,0,0,0,-3.08,-5.74,2.59,0.96,0.24,-0.05

-4.276367,0.052298915,0.0015597865,-0.03207064,0.98,0.26,-0.05,49811,10046.10,0,0,0,2.38,-1.12,0.63,0.98,0.26,-0.05

-4.776367,0.049298912,-0.006440211,-0.04807064,0.97,0.26,-0.04,49872,10045.60,0,0,0,2.17,-1.68,-0.49,0.97,0.26,-0.04

-4.975586,-0.009701088,-0.039440215,-0.02407064,0.95,0.27,-0.05,49924,10045.40,0,0,0,-1.96,-3.99,1.19,0.95,0.27,-0.05

-4.8759766,-0.0017010868,-0.017440213,-0.02607064,0.95,0.25,-0.05,49977,10045.50,0,0,0,-1.40,-2.45,1.05,0.95,0.25,-0.05

-5.1757812,0.04829891,0.012559787,-0.05307064,0.95,0.26,-0.05,50028,10045.20,0,0,0,2.10,-0.35,-0.84,0.95,0.26,-0.05

-5.6757812,0.06629891,0.018559787,-0.06407064,0.96,0.26,-0.04,50088,10044.70,0,0,0,3.36,0.07,-1.61,0.96,0.26,-0.04

-5.475586,0.026298914,-0.007440213,-0.04007064,0.96,0.26,-0.04,50141,10044.90,0,0,0,0.56,-1.75,0.07,0.96,0.26,-0.04

-5.975586,-0.016701087,-0.03744021,-0.02407064,0.95,0.25,-0.03,50193,10044.40,0,0,0,-2.45,-3.85,1.19,0.95,0.25,-0.03

-5.576172,0.013298913,-0.039440215,-0.029070642,0.96,0.27,-0.04,50254,10044.80,0,0,0,-0.35,-3.99,0.84,0.96,0.27,-0.04

-5.576172,0.017298913,-0.026440213,-0.00607064,0.96,0.27,-0.05,50306,10044.80,0,0,0,-0.07,-3.08,2.45,0.96,0.27,-0.05

-5.276367,0.024298912,-0.029440211,-0.04207064,0.95,0.27,-0.05,50360,10045.10,0,0,0,0.42,-3.29,-0.07,0.95,0.27,-0.05

-4.975586,0.035298914,-0.029440211,-0.017070642,0.95,0.26,-0.05,50411,10045.40,0,0,0,1.19,-3.29,1.68,0.95,0.26,-0.05

-4.8759766,-0.057701092,-0.07744021,-0.0030706376,0.95,0.24,-0.05,50465,10045.50,0,0,0,-5.32,-6.65,2.66,0.95,0.24,-0.05

-4.475586,0.022298913,-0.013440214,-0.02507064,0.97,0.26,-0.06,50523,10045.90,0,0,0,0.28,-2.17,1.12,0.97,0.26,-0.06

-4.776367,0.12029891,0.05755979,-0.04507064,0.97,0.26,-0.04,50576,10045.60,0,0,0,7.14,2.80,-0.28,0.97,0.26,-0.04

-4.576172,0.007298913,-0.021440214,-0.03907064,0.97,0.26,-0.03,50629,10045.80,0,0,0,-0.77,-2.73,0.14,0.97,0.26,-0.03

-4.475586,0.0032989131,-0.032440215,-0.03407064,0.95,0.26,-0.04,50681,10045.90,0,0,0,-1.05,-3.50,0.49,0.95,0.26,-0.04

-4.276367,0.04829891,0.008559788,-0.02707064,0.95,0.25,-0.05,50742,10046.10,0,0,0,2.10,-0.63,0.98,0.95,0.25,-0.05

-4.276367,0.014298912,-0.005440213,-0.04007064,0.96,0.25,-0.05,50794,10046.10,0,0,0,-0.28,-1.61,0.07,0.96,0.25,-0.05

-4.076172,0.060298912,5.5978633E-4,-0.05207064,0.96,0.26,-0.04,50847,10046.30,0,0,0,2.94,-1.19,-0.77,0.96,0.26,-0.04

-4.076172,-0.0067010876,-0.042440213,-0.01607064,0.96,0.26,-0.04,50906,10046.30,0,0,0,-1.75,-4.20,1.75,0.96,0.26,-0.04

-4.3759766,-0.06770109,-0.08644021,-0.012070641,0.95,0.25,-0.03,50958,10046.00,0,0,0,-6.02,-7.28,2.03,0.95,0.25,-0.03

-3.975586,0.06929891,-0.015440213,-0.02707064,0.96,0.27,-0.04,51011,10046.40,0,0,0,3.57,-2.31,0.98,0.96,0.27,-0.04

-3.5761719,0.013298913,-0.038440213,-0.00607064,0.97,0.26,-0.04,51063,10046.80,0,0,0,-0.35,-3.92,2.45,0.97,0.26,-0.04

-3.3759766,-0.04870109,-0.072440214,-0.04207064,0.96,0.26,-0.06,51116,10047.00,0,0,0,-4.69,-6.30,-0.07,0.96,0.26,-0.06

-3.1757812,0.09629892,0.018559787,-0.04207064,0.95,0.26,-0.05,51176,10047.20,0,0,0,5.46,0.07,-0.07,0.95,0.26,-0.05

-3.0761719,-0.009701088,-0.035440214,-0.02007064,0.96,0.25,-0.03,51229,10047.30,0,0,0,-1.96,-3.71,1.47,0.96,0.25,-0.03

-3.1757812,-0.04370109,-0.05244021,-0.02407064,0.96,0.26,-0.05,51281,10047.20,0,0,0,-4.34,-4.90,1.19,0.96,0.26,-0.05

-3.475586,0.12129891,0.04855979,-0.05507064,0.96,0.26,-0.05,51333,10046.90,0,0,0,7.21,2.17,-0.98,0.96,0.26,-0.05

-3.1757812,0.038298912,0.004559787,-0.04007064,0.96,0.26,-0.04,51386,10047.20,0,0,0,1.40,-0.91,0.07,0.96,0.26,-0.04

-2.475586,-0.018701088,-0.035440214,-0.02807064,0.95,0.26,-0.05,51446,10047.90,0,0,0,-2.59,-3.71,0.91,0.95,0.26,-0.05

-2.3759766,0.073298916,0.004559787,-0.04607064,0.96,0.26,-0.05,51498,10048.00,0,0,0,3.85,-0.91,-0.35,0.96,0.26,-0.05

-2.5761719,0.0012989119,-0.03044021,-0.02307064,0.96,0.26,-0.04,51551,10047.80,0,0,0,-1.19,-3.36,1.26,0.96,0.26,-0.04

-2.2763672,-0.010701086,-0.049440213,-0.03407064,0.96,0.26,-0.03,51611,10048.10,0,0,0,-2.03,-4.69,0.49,0.96,0.26,-0.03

-1.7763672,0.06429891,-0.020440215,-0.03007064,0.96,0.26,-0.04,51664,10048.60,0,0,0,3.22,-2.66,0.77,0.96,0.26,-0.04

-1.5761719,-0.028701086,-0.06344021,-0.01907064,0.95,0.26,-0.04,51715,10048.80,0,0,0,-3.29,-5.67,1.54,0.95,0.26,-0.04

-1.5761719,0.016298912,-0.03044021,-0.02007064,0.96,0.26,-0.06,51777,10048.80,0,0,0,-0.14,-3.36,1.47,0.96,0.26,-0.06

-1.3759766,0.058298912,0.0035597868,-0.029070642,0.97,0.26,-0.05,51829,10049.00,0,0,0,2.80,-0.98,0.84,0.97,0.26,-0.05

-1.7763672,-0.028701086,-0.047440216,-0.03307064,0.96,0.26,-0.05,51881,10048.60,0,0,0,-3.29,-4.55,0.56,0.96,0.26,-0.05

-1.5761719,0.039298914,0.0025597876,-0.03107064,0.94,0.26,-0.05,51941,10048.80,0,0,0,1.47,-1.05,0.70,0.94,0.26,-0.05

-1.2763672,0.058298912,0.017559787,-0.022070639,0.96,0.26,-0.04,51993,10049.10,0,0,0,2.80,0.00,1.33,0.96,0.26,-0.04

-1.1757812,-0.01970109,-0.029440211,-0.02107064,0.96,0.26,-0.04,52046,10049.20,0,0,0,-2.66,-3.29,1.40,0.96,0.26,-0.04

-1.1757812,0.06929891,0.010559787,-0.04107064,0.96,0.26,-0.05,52098,10049.20,0,0,0,3.57,-0.49,0.00,0.96,0.26,-0.05

-1.2763672,0.043298915,-4.4021197E-4,-0.01907064,0.95,0.25,-0.04,52158,10049.10,0,0,0,1.75,-1.26,1.54,0.95,0.25,-0.04

-1.3759766,-0.03570109,-0.054440208,-0.013070639,0.96,0.26,-0.04,52211,10049.00,0,0,0,-3.78,-5.04,1.96,0.96,0.26,-0.04

-1.4755859,0.031298913,-0.03044021,-0.022070639,0.95,0.26,-0.04,52263,10048.90,0,0,0,0.91,-3.36,1.33,0.95,0.26,-0.04

-1.4755859,0.037298914,-0.03044021,-0.03007064,0.95,0.26,-0.04,52317,10048.90,0,0,0,1.33,-3.36,0.77,0.95,0.26,-0.04

-1.3759766,-0.017701086,-0.060440212,-0.0040706396,0.96,0.27,-0.03,52368,10049.00,0,0,0,-2.52,-5.46,2.59,0.96,0.27,-0.03

-0.97558594,-0.015701089,-0.06644021,-0.001070641,0.96,0.26,-0.04,52428,10049.40,0,0,0,-2.38,-5.88,2.80,0.96,0.26,-0.04

-1.5761719,-0.012701089,-0.06344021,-0.01607064,0.96,0.25,-0.05,52489,10048.80,0,0,0,-2.17,-5.67,1.75,0.96,0.25,-0.05

-1.1757812,0.037298914,-0.013440214,-0.05307064,0.95,0.26,-0.06,52541,10049.20,0,0,0,1.33,-2.17,-0.84,0.95,0.26,-0.06

-1.6757812,0.072298914,0.023559786,-0.04007064,0.96,0.26,-0.05,52594,10048.70,0,0,0,3.78,0.42,0.07,0.96,0.26,-0.05

-2.1757812,0.017298913,-0.006440211,-0.05307064,0.96,0.26,-0.04,52646,10048.20,0,0,0,-0.07,-1.68,-0.84,0.96,0.26,-0.04

-2.3759766,0.07829891,0.027559787,-0.06307064,0.96,0.26,-0.05,52699,10048.00,0,0,0,4.20,0.70,-1.54,0.96,0.26,-0.05

-2.6757812,0.087298915,0.040559787,-0.05807064,0.97,0.26,-0.05,52751,10047.70,0,0,0,4.83,1.61,-1.19,0.97,0.26,-0.05

-3.475586,0.027298912,0.0025597876,-0.06007064,0.96,0.25,-0.04,52811,10046.90,0,0,0,0.63,-1.05,-1.33,0.96,0.25,-0.04

-3.6757812,0.065298915,5.5978633E-4,-0.04407064,0.96,0.26,-0.05,52863,10046.70,0,0,0,3.29,-1.19,-0.21,0.96,0.26,-0.05

-4.1757812,-0.002701087,-0.044440217,-0.022070639,0.96,0.26,-0.04,52917,10046.20,0,0,0,-1.47,-4.34,1.33,0.96,0.26,-0.04

-3.975586,-0.018701088,-0.05644021,-0.029070642,0.96,0.26,-0.05,52970,10046.40,0,0,0,-2.59,-5.18,0.84,0.96,0.26,-0.05

-4.776367,0.051298913,-0.028440213,-0.01907064,0.96,0.27,-0.04,53013,10045.60,0,0,0,2.31,-3.22,1.54,0.96,0.27,-0.04

-5.3759766,-0.018701088,-0.08244021,-0.014070639,0.96,0.27,-0.03,53066,10045.00,0,0,0,-2.59,-7.00,1.89,0.96,0.27,-0.03

-5.3759766,-0.09770109,-0.13044022,0.022929363,0.95,0.27,-0.05,53111,10045.00,0,0,0,-8.12,-10.36,4.48,0.95,0.27,-0.05

-5.576172,-0.038701087,-0.08244021,0.02192936,0.96,0.26,-0.05,53163,10044.80,0,0,0,-3.99,-7.00,4.41,0.96,0.26,-0.05

-5.576172,0.029298913,-0.03344021,-0.03707064,0.96,0.26,-0.05,53216,10044.80,0,0,0,0.77,-3.57,0.28,0.96,0.26,-0.05

-5.576172,0.035298914,-0.015440213,-0.029070642,0.96,0.27,-0.05,53269,10044.80,0,0,0,1.19,-2.31,0.84,0.96,0.27,-0.05

-5.276367,-0.0047010873,-0.026440213,-0.03107064,0.96,0.26,-0.05,53328,10045.10,0,0,0,-1.61,-3.08,0.70,0.96,0.26,-0.05

-5.3759766,0.04529891,0.013559787,-0.04107064,0.95,0.26,-0.05,53381,10045.00,0,0,0,1.89,-0.28,0.00,0.95,0.26,-0.05

-5.975586,0.10329892,0.056559786,-0.05007064,0.96,0.26,-0.05,53434,10044.40,0,0,0,5.95,2.73,-0.63,0.96,0.26,-0.05

-6.076172,0.07429892,0.03655979,-0.07607064,0.96,0.27,-0.04,53486,10044.30,0,0,0,3.92,1.33,-2.45,0.96,0.27,-0.04

-5.975586,0.07929891,0.029559787,-0.06407064,0.95,0.26,-0.04,53546,10044.40,0,0,0,4.27,0.84,-1.61,0.95,0.26,-0.04

-5.975586,0.03429891,-0.0034402125,-0.04107064,0.95,0.25,-0.04,53599,10044.40,0,0,0,1.12,-1.47,0.00,0.95,0.25,-0.04

-5.8759766,0.007298913,-0.018440211,-0.03107064,0.96,0.26,-0.06,53651,10044.50,0,0,0,-0.77,-2.52,0.70,0.96,0.26,-0.06

-5.8759766,0.035298914,-0.018440211,-0.02407064,0.96,0.26,-0.04,53704,10044.50,0,0,0,1.19,-2.52,1.19,0.96,0.26,-0.04

-6.076172,-0.003701087,-0.057440214,-0.02007064,0.96,0.27,-0.04,53757,10044.30,0,0,0,-1.54,-5.25,1.47,0.96,0.27,-0.04

-6.3759766,-0.022701085,-0.072440214,0.010929361,0.95,0.27,-0.05,53816,10044.00,0,0,0,-2.87,-6.30,3.64,0.95,0.27,-0.05

-5.8759766,-0.051701088,-0.09244021,0.01992936,0.96,0.26,-0.05,53870,10044.50,0,0,0,-4.90,-7.70,4.27,0.96,0.26,-0.05

-6.475586,-0.031701088,-0.07744021,-0.001070641,0.96,0.25,-0.05,53921,10043.90,0,0,0,-3.50,-6.65,2.80,0.96,0.25,-0.05

-6.3759766,0.042298913,-0.022440212,-0.03307064,0.96,0.26,-0.05,53981,10044.00,0,0,0,1.68,-2.80,0.56,0.96,0.26,-0.05

-5.8759766,0.037298914,-0.010440214,-0.03007064,0.96,0.26,-0.05,54034,10044.50,0,0,0,1.33,-1.96,0.77,0.96,0.26,-0.05

-5.8759766,0.0062989136,-0.019440213,-0.01807064,0.96,0.26,-0.04,54086,10044.50,0,0,0,-0.84,-2.59,1.61,0.96,0.26,-0.04

-6.1757812,0.056298915,0.013559787,-0.04707064,0.96,0.27,-0.05,54139,10044.20,0,0,0,2.66,-0.28,-0.42,0.96,0.27,-0.05

-5.8759766,0.08329892,0.031559788,-0.062070638,0.95,0.26,-0.05,54191,10044.50,0,0,0,4.55,0.98,-1.47,0.95,0.26,-0.05

-5.776367,0.057298914,0.017559787,-0.05207064,0.96,0.27,-0.04,54251,10044.60,0,0,0,2.73,0.00,-0.77,0.96,0.27,-0.04

-5.076172,0.036298912,-0.0034402125,-0.03507064,0.96,0.26,-0.04,54304,10045.30,0,0,0,1.26,-1.47,0.42,0.96,0.26,-0.04

-5.076172,0.019298913,-0.020440215,-0.04807064,0.96,0.26,-0.05,54356,10045.30,0,0,0,0.07,-2.66,-0.49,0.96,0.26,-0.05

-5.475586,0.032298915,-0.015440213,-0.03107064,0.95,0.26,-0.04,54409,10044.90,0,0,0,0.98,-2.31,0.70,0.95,0.26,-0.04

-4.8759766,0.0062989136,-0.036440216,-0.01807064,0.96,0.26,-0.05,54454,10045.50,0,0,0,-0.84,-3.78,1.61,0.96,0.26,-0.05

-4.576172,0.002298912,-0.04144021,-0.03507064,0.96,0.26,-0.05,54507,10045.80,0,0,0,-1.12,-4.13,0.42,0.96,0.26,-0.05

-4.975586,0.043298915,-0.02344021,-0.01807064,0.95,0.26,-0.05,54551,10045.40,0,0,0,1.75,-2.87,1.61,0.95,0.26,-0.05

-3.975586,-0.0057010856,-0.058440216,-0.014070639,0.96,0.27,-0.05,54611,10046.40,0,0,0,-1.68,-5.32,1.89,0.96,0.27,-0.05

-4.6757812,-0.021701086,-0.07144021,-0.001070641,0.96,0.27,-0.05,54663,10045.70,0,0,0,-2.80,-6.23,2.80,0.96,0.27,-0.05

-4.3759766,-7.0108846E-4,-0.054440208,-0.02307064,0.96,0.25,-0.05,54716,10046.00,0,0,0,-1.33,-5.04,1.26,0.96,0.25,-0.05

-4.475586,0.047298912,-0.007440213,-0.03807064,0.96,0.26,-0.06,54776,10045.90,0,0,0,2.03,-1.75,0.21,0.96,0.26,-0.06

-4.076172,0.08329892,0.020559788,-0.05507064,0.96,0.26,-0.05,54829,10046.30,0,0,0,4.55,0.21,-0.98,0.96,0.26,-0.05

-4.076172,0.03429891,-0.019440213,-0.04107064,0.95,0.27,-0.04,54881,10046.30,0,0,0,1.12,-2.59,0.00,0.95,0.27,-0.04

-3.8759766,-0.01970109,-0.05544021,-0.014070639,0.95,0.26,-0.05,54941,10046.50,0,0,0,-2.66,-5.11,1.89,0.95,0.26,-0.05

-3.975586,0.013298913,-0.019440213,-0.03907064,0.96,0.26,-0.06,54994,10046.40,0,0,0,-0.35,-2.59,0.14,0.96,0.26,-0.06

-3.8759766,0.09329891,0.04355979,-0.06407064,0.95,0.26,-0.06,55046,10046.50,0,0,0,5.25,1.82,-1.61,0.95,0.26,-0.06

-3.7763672,0.058298912,0.012559787,-0.051070638,0.96,0.27,-0.04,55106,10046.60,0,0,0,2.80,-0.35,-0.70,0.96,0.27,-0.04

-3.6757812,-0.042701088,-0.068440214,-0.01807064,0.95,0.26,-0.04,55159,10046.70,0,0,0,-4.27,-6.02,1.61,0.95,0.26,-0.04

-3.6757812,-0.021701086,-0.049440213,-0.01507064,0.95,0.25,-0.05,55211,10046.70,0,0,0,-2.80,-4.69,1.82,0.95,0.25,-0.05

-3.6757812,0.05929891,0.005559788,-0.04407064,0.95,0.26,-0.06,55263,10046.70,0,0,0,2.87,-0.84,-0.21,0.95,0.26,-0.06

-3.6757812,0.058298912,0.0035597868,-0.03607064,0.96,0.27,-0.05,55331,10046.70,0,0,0,2.80,-0.98,0.35,0.96,0.27,-0.05

-3.5761719,-7.0108846E-4,-0.044440217,-0.017070642,0.96,0.27,-0.05,55376,10046.80,0,0,0,-1.33,-4.34,1.68,0.96,0.27,-0.05

-3.7763672,-0.003701087,-0.057440214,-0.0050706416,0.95,0.27,-0.05,55428,10046.60,0,0,0,-1.54,-5.25,2.52,0.95,0.27,-0.05

-3.6757812,0.009298913,-0.039440215,9.2935935E-4,0.96,0.26,-0.05,55481,10046.70,0,0,0,-0.63,-3.99,2.94,0.96,0.26,-0.05

-3.475586,0.009298913,-0.035440214,-0.02307064,0.96,0.26,-0.05,55534,10046.90,0,0,0,-0.63,-3.71,1.26,0.96,0.26,-0.05

-3.975586,0.04829891,-0.012440212,-0.02707064,0.96,0.27,-0.04,55594,10046.40,0,0,0,2.10,-2.10,0.98,0.96,0.27,-0.04

-3.475586,-7.0108846E-4,-0.039440215,-0.0030706376,0.96,0.26,-0.05,55639,10046.90,0,0,0,-1.33,-3.99,2.66,0.96,0.26,-0.05

-4.076172,-0.042701088,-0.054440208,-0.011070641,0.96,0.26,-0.06,55691,10046.30,0,0,0,-4.27,-5.04,2.10,0.96,0.26,-0.06

-3.975586,0.037298914,-0.001440214,-0.03707064,0.96,0.26,-0.06,55736,10046.40,0,0,0,1.33,-1.33,0.28,0.96,0.26,-0.06

-2.8759766,0.073298916,0.027559787,-0.05507064,0.96,0.26,-0.05,55788,10047.50,0,0,0,3.85,0.70,-0.98,0.96,0.26,-0.05

-3.3759766,0.015298913,0.0015597865,-0.03307064,0.96,0.26,-0.05,55841,10047.00,0,0,0,-0.21,-1.12,0.56,0.96,0.26,-0.05

-4.076172,0.018298913,-4.4021197E-4,-0.03607064,0.96,0.26,-0.05,55901,10046.30,0,0,0,0.00,-1.26,0.35,0.96,0.26,-0.05

-3.8759766,0.058298912,0.010559787,-0.05407064,0.96,0.26,-0.05,55953,10046.50,0,0,0,2.80,-0.49,-0.91,0.96,0.26,-0.05

-3.975586,0.039298914,-0.009440213,-0.03207064,0.95,0.26,-0.04,56006,10046.40,0,0,0,1.47,-1.89,0.63,0.95,0.26,-0.04

-3.7763672,0.015298913,-0.035440214,-0.02507064,0.95,0.27,-0.05,56066,10046.60,0,0,0,-0.21,-3.71,1.12,0.95,0.27,-0.05

-4.1757812,0.03429891,-0.038440213,-0.03207064,0.96,0.27,-0.06,56118,10046.20,0,0,0,1.12,-3.92,0.63,0.96,0.27,-0.06

-4.3759766,-0.011701087,-0.06344021,-0.00807064,0.95,0.26,-0.05,56171,10046.00,0,0,0,-2.10,-5.67,2.31,0.95,0.26,-0.05

-4.576172,-0.038701087,-0.07544021,-0.009070639,0.95,0.26,-0.06,56232,10045.80,0,0,0,-3.99,-6.51,2.24,0.95,0.26,-0.06

-4.8759766,0.028298913,-0.027440215,-0.01507064,0.97,0.26,-0.06,56284,10045.50,0,0,0,0.70,-3.15,1.82,0.97,0.26,-0.06

-5.076172,0.014298912,-0.029440211,-0.02407064,0.97,0.26,-0.04,56336,10045.30,0,0,0,-0.28,-3.29,1.19,0.97,0.26,-0.04

-5.3759766,0.007298913,-0.026440213,-0.029070642,0.96,0.26,-0.05,56388,10045.00,0,0,0,-0.77,-3.08,0.84,0.96,0.26,-0.05

-5.3759766,0.016298912,-0.011440212,-0.010070639,0.96,0.26,-0.05,56448,10045.00,0,0,0,-0.14,-2.03,2.17,0.96,0.26,-0.05

-5.475586,-0.0057010856,-0.013440214,-0.03807064,0.95,0.26,-0.06,56501,10044.90,0,0,0,-1.68,-2.17,0.21,0.95,0.26,-0.06

-5.8759766,0.09929891,0.05055979,-0.05207064,0.96,0.26,-0.06,56553,10044.50,0,0,0,5.67,2.31,-0.77,0.96,0.26,-0.06

-5.6757812,0.065298915,0.030559788,-0.04907064,0.96,0.26,-0.05,56606,10044.70,0,0,0,3.29,0.91,-0.56,0.96,0.26,-0.05

-6.276367,-0.0047010873,-0.024440212,-0.03607064,0.96,0.26,-0.05,56667,10044.10,0,0,0,-1.61,-2.94,0.35,0.96,0.26,-0.05

-6.3759766,0.021298913,-0.011440212,-0.02107064,0.96,0.26,-0.05,56719,10044.00,0,0,0,0.21,-2.03,1.40,0.96,0.26,-0.05

-6.576172,0.016298912,-0.016440215,-0.02307064,0.96,0.25,-0.04,56771,10043.80,0,0,0,-0.14,-2.38,1.26,0.96,0.25,-0.04

-6.576172,0.049298912,-0.015440213,-0.04907064,0.95,0.27,-0.04,56823,10043.80,0,0,0,2.17,-2.31,-0.56,0.95,0.27,-0.04

-6.6757812,0.027298912,-0.046440214,0.020929363,0.96,0.26,-0.03,56876,10043.70,0,0,0,0.63,-4.48,4.34,0.96,0.26,-0.03

-7.276367,-0.103701085,-0.13444023,-0.009070639,0.96,0.26,-0.04,56928,10043.10,0,0,0,-8.54,-10.64,2.24,0.96,0.26,-0.04

-7.276367,0.026298914,-0.058440216,-0.011070641,0.94,0.27,-0.05,56973,10043.10,0,0,0,0.56,-5.32,2.10,0.94,0.27,-0.05

-7.1757812,0.039298914,-0.02344021,0.014929362,0.94,0.26,-0.05,57026,10043.20,0,0,0,1.47,-2.87,3.92,0.94,0.26,-0.05

-7.3759766,-0.08270109,-0.07544021,0.020929363,0.96,0.27,-0.06,57079,10043.00,0,0,0,-7.07,-6.51,4.34,0.96,0.27,-0.06

-7.076172,0.036298912,-0.012440212,-0.04907064,0.96,0.26,-0.06,57131,10043.30,0,0,0,1.26,-2.10,-0.56,0.96,0.26,-0.06

-7.576172,0.08229892,0.019559788,-0.05307064,0.95,0.25,-0.04,57199,10042.80,0,0,0,4.48,0.14,-0.84,0.95,0.25,-0.04

-7.1757812,-0.047701087,-0.02344021,-0.0070706382,0.97,0.25,-0.05,57244,10043.20,0,0,0,-4.62,-2.87,2.38,0.97,0.25,-0.05

-7.776367,0.09329891,0.058559783,-0.06407064,0.97,0.25,-0.05,57296,10042.60,0,0,0,5.25,2.87,-1.61,0.97,0.25,-0.05

-7.6757812,0.19829892,0.104559794,-0.07807064,0.96,0.26,-0.04,57356,10042.70,0,0,0,12.60,6.09,-2.59,0.96,0.26,-0.04

-7.776367,0.008298913,-0.024440212,-0.05907064,0.96,0.26,-0.04,57409,10042.60,0,0,0,-0.70,-2.94,-1.26,0.96,0.26,-0.04

-7.8759766,0.014298912,-0.026440213,-0.03407064,0.95,0.24,-0.05,57461,10042.50,0,0,0,-0.28,-3.08,0.49,0.95,0.24,-0.05

-7.776367,0.11929892,0.049559787,-0.05007064,0.97,0.27,-0.06,57522,10042.60,0,0,0,7.07,2.24,-0.63,0.97,0.27,-0.06

-7.975586,-0.002701087,-0.008440213,-0.02007064,0.97,0.25,-0.04,57574,10042.40,0,0,0,-1.47,-1.82,1.47,0.97,0.25,-0.04

-7.6757812,-0.026701089,-0.069440216,-0.03607064,0.97,0.26,-0.04,57626,10042.70,0,0,0,-3.15,-6.09,0.35,0.97,0.26,-0.04

-7.6757812,-0.025701087,-0.08644021,0.0019293614,0.96,0.25,-0.03,57686,10042.70,0,0,0,-3.08,-7.28,3.01,0.96,0.25,-0.03

-7.276367,-0.11470109,-0.12344021,0.009929359,0.95,0.25,-0.05,57731,10043.10,0,0,0,-9.31,-9.87,3.57,0.95,0.25,-0.05

-7.276367,-0.003701087,-0.04144021,0.01792936,0.96,0.26,-0.05,57791,10043.10,0,0,0,-1.54,-4.13,4.13,0.96,0.26,-0.05

-7.076172,0.035298914,-0.032440215,-0.02107064,0.97,0.27,-0.06,57844,10043.30,0,0,0,1.19,-3.50,1.40,0.97,0.27,-0.06

-7.3759766,-0.04570109,-0.069440216,-0.014070639,0.95,0.26,-0.06,57896,10043.00,0,0,0,-4.48,-6.09,1.89,0.95,0.26,-0.06

-6.576172,-0.010701086,-0.034440212,-0.0020706393,0.94,0.26,-0.05,57948,10043.80,0,0,0,-2.03,-3.64,2.73,0.94,0.26,-0.05

-6.475586,-0.008701088,-0.015440213,0.01792936,0.97,0.24,-0.04,58008,10043.90,0,0,0,-1.89,-2.31,4.13,0.97,0.24,-0.04

-5.776367,0.051298913,0.033559788,-0.08807064,0.97,0.25,-0.05,58061,10044.60,0,0,0,2.31,1.12,-3.29,0.97,0.25,-0.05

-6.076172,0.1972989,0.122559786,-0.087070644,0.95,0.25,-0.04,58121,10044.30,0,0,0,12.53,7.35,-3.22,0.95,0.25,-0.04

-5.8759766,0.07829891,0.04855979,-0.051070638,0.96,0.26,-0.03,58158,10044.50,0,0,0,4.20,2.17,-0.70,0.96,0.26,-0.03

-5.6757812,-0.039701086,-0.034440212,-0.02107064,0.96,0.26,-0.04,58211,10044.70,0,0,0,-4.06,-3.64,1.40,0.96,0.26,-0.04

-5.475586,0.036298912,-0.001440214,-0.04507064,0.95,0.25,-0.05,58264,10044.90,0,0,0,1.26,-1.33,-0.28,0.95,0.25,-0.05

-5.3759766,0.042298913,0.005559788,-0.03807064,0.96,0.25,-0.04,58316,10045.00,0,0,0,1.68,-0.84,0.21,0.96,0.25,-0.04

-5.3759766,-0.017701086,-0.031440213,-0.03607064,0.96,0.25,-0.03,58369,10045.00,0,0,0,-2.52,-3.43,0.35,0.96,0.25,-0.03

-5.1757812,0.016298912,-0.05144021,-0.0040706396,0.96,0.26,-0.02,58421,10045.20,0,0,0,-0.14,-4.83,2.59,0.96,0.26,-0.02

-4.8759766,-0.10170108,-0.13144022,0.03992936,0.97,0.26,-0.04,58481,10045.50,0,0,0,-8.40,-10.43,5.67,0.97,0.26,-0.04

-4.6757812,-0.08770108,-0.10544021,0.02192936,0.97,0.25,-0.06,58534,10045.70,0,0,0,-7.42,-8.61,4.41,0.97,0.25,-0.06

-4.3759766,0.109298915,0.014559788,-0.04607064,0.96,0.26,-0.05,58586,10046.00,0,0,0,6.37,-0.21,-0.35,0.96,0.26,-0.05

-4.576172,0.033298913,-0.015440213,-0.02007064,0.95,0.25,-0.04,58646,10045.80,0,0,0,1.05,-2.31,1.47,0.95,0.25,-0.04

-4.3759766,-0.046701092,-0.054440208,-0.02707064,0.95,0.25,-0.05,58699,10046.00,0,0,0,-4.55,-5.04,0.98,0.95,0.25,-0.05

-4.776367,0.089298904,0.041559786,-0.03507064,0.97,0.26,-0.05,58751,10045.60,0,0,0,4.97,1.68,0.42,0.97,0.26,-0.05

-5.276367,0.061298914,0.03555979,-0.06907064,0.98,0.24,-0.03,58804,10045.10,0,0,0,3.01,1.26,-1.96,0.98,0.24,-0.03

-4.8759766,0.065298915,0.033559788,-0.083070636,0.96,0.25,-0.03,58856,10045.50,0,0,0,3.29,1.12,-2.94,0.96,0.25,-0.03

-4.6757812,0.109298915,0.047559787,-0.062070638,0.95,0.26,-0.03,58916,10045.70,0,0,0,6.37,2.10,-1.47,0.95,0.26,-0.03

-4.276367,-0.046701092,-0.050440215,-0.01507064,0.96,0.25,-0.03,58969,10046.10,0,0,0,-4.55,-4.76,1.82,0.96,0.25,-0.03

-4.8759766,-0.020701088,-0.046440214,-0.03907064,0.96,0.26,-0.05,59021,10045.50,0,0,0,-2.73,-4.48,0.14,0.96,0.26,-0.05

-4.3759766,0.080298916,0.0025597876,-0.05407064,0.96,0.26,-0.04,59074,10046.00,0,0,0,4.34,-1.05,-0.91,0.96,0.26,-0.04

-4.475586,-0.050701085,-0.08544021,-0.014070639,0.96,0.26,-0.03,59134,10045.90,0,0,0,-4.83,-7.21,1.89,0.96,0.26,-0.03

-4.576172,-0.09970109,-0.12744021,0.029929355,0.96,0.26,-0.04,59185,10045.80,0,0,0,-8.26,-10.15,4.97,0.96,0.26,-0.04

-4.576172,-0.025701087,-0.079440214,0.008929361,0.96,0.25,-0.04,59238,10045.80,0,0,0,-3.08,-6.79,3.50,0.96,0.25,-0.04

-4.6757812,0.025298912,-0.034440212,-0.03407064,0.95,0.25,-0.05,59299,10045.70,0,0,0,0.49,-3.64,0.49,0.95,0.25,-0.05

-5.1757812,0.056298915,0.0015597865,-0.01807064,0.96,0.26,-0.05,59343,10045.20,0,0,0,2.66,-1.12,1.61,0.96,0.26,-0.05

-4.276367,0.010298912,-0.020440215,-0.01907064,0.97,0.26,-0.05,59405,10046.10,0,0,0,-0.56,-2.66,1.54,0.97,0.26,-0.05

-5.276367,0.0032989131,-0.005440213,-0.04407064,0.95,0.25,-0.05,59441,10045.10,0,0,0,-1.05,-1.61,-0.21,0.95,0.25,-0.05

-4.975586,0.11029892,0.060559787,-0.05307064,0.96,0.25,-0.04,59494,10045.40,0,0,0,6.44,3.01,-0.84,0.96,0.25,-0.04

-4.975586,0.04529891,0.034559786,-0.04707064,0.97,0.25,-0.03,59546,10045.40,0,0,0,1.89,1.19,-0.42,0.97,0.25,-0.03

-5.1757812,0.025298912,0.015559787,-0.05607064,0.96,0.25,-0.03,59598,10045.20,0,0,0,0.49,-0.14,-1.05,0.96,0.25,-0.03

-5.475586,0.08229892,0.04355979,-0.04507064,0.95,0.25,-0.04,59658,10044.90,0,0,0,4.48,1.82,-0.28,0.95,0.25,-0.04

-5.276367,-0.011701087,-0.017440213,-0.01607064,0.96,0.25,-0.03,59711,10045.10,0,0,0,-2.10,-2.45,1.75,0.96,0.25,-0.03

-5.776367,-0.046701092,-0.053440206,0.0039293617,0.96,0.26,-0.04,59763,10044.60,0,0,0,-4.55,-4.97,3.15,0.96,0.26,-0.04

-6.1757812,-0.0067010876,-0.050440215,-0.013070639,0.96,0.25,-0.04,59816,10044.20,0,0,0,-1.75,-4.76,1.96,0.96,0.25,-0.04

-6.1757812,-0.028701086,-0.080440216,-0.0050706416,0.95,0.25,-0.02,59876,10044.20,0,0,0,-3.29,-6.86,2.52,0.95,0.25,-0.02

-6.6757812,-0.040701088,-0.08844021,0.026929364,0.96,0.25,-0.03,59928,10043.70,0,0,0,-4.13,-7.42,4.76,0.96,0.25,-0.03

-7.276367,-0.014701087,-0.079440214,-0.02607064,0.98,0.25,-0.04,59981,10043.10,0,0,0,-2.31,-6.79,1.05,0.98,0.25,-0.04

-7.3759766,0.036298912,-0.032440215,-0.04507064,0.96,0.24,-0.05,60034,10043.00,0,0,0,1.26,-3.50,-0.28,0.96,0.24,-0.05

-7.8759766,0.039298914,-0.006440211,-0.04807064,0.95,0.24,-0.04,60087,10042.50,0,0,0,1.47,-1.68,-0.49,0.95,0.24,-0.04

-7.975586,0.033298913,5.5978633E-4,-0.04807064,0.96,0.25,-0.04,60146,10042.40,0,0,0,1.05,-1.19,-0.49,0.96,0.25,-0.04

-8.375977,0.07129891,0.010559787,-0.10007064,0.96,0.26,-0.03,60199,10042.00,0,0,0,3.71,-0.49,-4.13,0.96,0.26,-0.03

-8.576172,0.06829891,0.013559787,-0.07607064,0.96,0.27,-0.03,60251,10041.80,0,0,0,3.50,-0.28,-2.45,0.96,0.27,-0.03

-8.875977,-0.020701088,-0.031440213,-0.04407064,0.96,0.26,-0.02,60304,10041.50,0,0,0,-2.73,-3.43,-0.21,0.96,0.26,-0.02

-8.675781,0.0042989124,-0.027440215,-0.062070638,0.96,0.25,-0.04,60363,10041.70,0,0,0,-0.98,-3.15,-1.47,0.96,0.25,-0.04

-8.875977,0.08129892,0.011559788,-0.07107064,0.96,0.26,-0.05,60416,10041.50,0,0,0,4.41,-0.42,-2.10,0.96,0.26,-0.05

-9.076172,-0.008701088,-0.028440213,-0.02407064,0.96,0.27,-0.05,60476,10041.30,0,0,0,-1.89,-3.22,1.19,0.96,0.27,-0.05

-9.375977,-0.03570109,-0.058440216,-0.01907064,0.95,0.27,-0.05,60528,10041.00,0,0,0,-3.78,-5.32,1.54,0.95,0.27,-0.05

-9.576172,0.016298912,-0.043440215,-0.017070642,0.95,0.26,-0.04,60574,10040.80,0,0,0,-0.14,-4.27,1.68,0.95,0.26,-0.04

-9.675781,-0.010701086,-0.05944021,-0.012070641,0.96,0.27,-0.04,60620,10040.70,0,0,0,-2.03,-5.39,2.03,0.96,0.27,-0.04

-9.375977,0.011298913,-0.04044021,-0.014070639,0.97,0.27,-0.04,60671,10041.00,0,0,0,-0.49,-4.06,1.89,0.97,0.27,-0.04

-9.776367,0.06429891,-0.015440213,-0.02007064,0.96,0.27,-0.04,60724,10040.60,0,0,0,3.22,-2.31,1.47,0.96,0.27,-0.04

-9.875977,-0.017701086,-0.064440206,-0.0040706396,0.95,0.25,-0.04,60783,10040.50,0,0,0,-2.52,-5.74,2.59,0.95,0.25,-0.04

-9.675781,-0.021701086,-0.049440213,0.0029293597,0.95,0.26,-0.05,60829,10040.70,0,0,0,-2.80,-4.69,3.08,0.95,0.26,-0.05

-9.576172,0.08629891,0.03555979,-0.02807064,0.96,0.26,-0.05,60889,10040.80,0,0,0,4.76,1.26,0.91,0.96,0.26,-0.05

-9.875977,0.07129891,0.032559786,-0.051070638,0.97,0.28,-0.03,60941,10040.50,0,0,0,3.71,1.05,-0.70,0.97,0.28,-0.03

-9.675781,0.0062989136,-0.019440213,-0.02607064,0.96,0.26,-0.03,60993,10040.70,0,0,0,-0.84,-2.59,1.05,0.96,0.26,-0.03

-9.576172,-0.017701086,-0.03344021,-0.014070639,0.95,0.25,-0.03,61053,10040.80,0,0,0,-2.52,-3.57,1.89,0.95,0.25,-0.03

-8.975586,0.025298912,-4.4021197E-4,-0.02307064,0.96,0.24,-0.04,61106,10041.40,0,0,0,0.49,-1.26,1.26,0.96,0.24,-0.04

-9.276367,0.06429891,0.022559788,-0.04507064,0.96,0.25,-0.04,61159,10041.10,0,0,0,3.22,0.35,-0.28,0.96,0.25,-0.04

-8.776367,0.065298915,0.0035597868,-0.05007064,0.95,0.26,-0.04,61211,10041.60,0,0,0,3.29,-0.98,-0.63,0.95,0.26,-0.04

-8.675781,0.002298912,-0.03744021,-0.00807064,0.96,0.26,-0.04,61271,10041.70,0,0,0,-1.12,-3.85,2.31,0.96,0.26,-0.04

-7.776367,-0.016701087,-0.060440212,-0.02307064,0.96,0.26,-0.04,61323,10042.60,0,0,0,-2.45,-5.46,1.26,0.96,0.26,-0.04

-8.076172,0.072298914,-0.012440212,-0.03707064,0.96,0.26,-0.04,61376,10042.30,0,0,0,3.78,-2.10,0.28,0.96,0.26,-0.04

-7.475586,0.046298914,-0.03344021,-0.02807064,0.96,0.26,-0.03,61436,10042.90,0,0,0,1.96,-3.57,0.91,0.96,0.26,-0.03

-7.1757812,-0.017701086,-0.08244021,-0.012070641,0.96,0.26,-0.04,61489,10043.20,0,0,0,-2.52,-7.00,2.03,0.96,0.26,-0.04

-7.076172,-0.0017010868,-0.06244021,-0.01607064,0.95,0.25,-0.05,61541,10043.30,0,0,0,-1.40,-5.60,1.75,0.95,0.25,-0.05

-6.576172,0.024298912,-0.038440213,-0.03107064,0.96,0.26,-0.05,61594,10043.80,0,0,0,0.42,-3.92,0.70,0.96,0.26,-0.05

-6.475586,0.028298913,-0.017440213,-0.03407064,0.97,0.26,-0.05,61646,10043.90,0,0,0,0.70,-2.45,0.49,0.97,0.26,-0.05

-6.1757812,0.036298912,-0.010440214,-0.057070643,0.96,0.26,-0.04,61706,10044.20,0,0,0,1.26,-1.96,-1.12,0.96,0.26,-0.04

-5.8759766,0.031298913,-0.0034402125,-0.057070643,0.95,0.25,-0.04,61759,10044.50,0,0,0,0.91,-1.47,-1.12,0.95,0.25,-0.04

-5.576172,0.037298914,-0.001440214,-0.05007064,0.95,0.25,-0.04,61812,10044.80,0,0,0,1.33,-1.33,-0.63,0.95,0.25,-0.04

-5.6757812,0.038298912,-0.0034402125,-0.04807064,0.96,0.26,-0.05,61864,10044.70,0,0,0,1.40,-1.47,-0.49,0.96,0.26,-0.05

-5.475586,0.06729892,0.011559788,-0.07007064,0.96,0.26,-0.05,61924,10044.90,0,0,0,3.43,-0.42,-2.03,0.96,0.26,-0.05

-5.475586,0.095298916,0.018559787,-0.07007064,0.95,0.27,-0.05,61969,10044.90,0,0,0,5.39,0.07,-2.03,0.95,0.27,-0.05

-5.276367,0.04829891,-0.019440213,-0.03507064,0.95,0.27,-0.04,62021,10045.10,0,0,0,2.10,-2.59,0.42,0.95,0.27,-0.04

-5.6757812,-0.023701087,-0.078440204,-0.00807064,0.96,0.27,-0.04,62066,10044.70,0,0,0,-2.94,-6.72,2.31,0.96,0.27,-0.04

-4.475586,0.012298914,-0.06744021,-0.017070642,0.95,0.26,-0.04,62119,10045.90,0,0,0,-0.42,-5.95,1.68,0.95,0.26,-0.04

-5.1757812,0.039298914,-0.050440215,-0.012070641,0.96,0.26,-0.04,62171,10045.20,0,0,0,1.47,-4.76,2.03,0.96,0.26,-0.04

-4.975586,-0.010701086,-0.07344021,-0.009070639,0.96,0.26,-0.05,62223,10045.40,0,0,0,-2.03,-6.37,2.24,0.96,0.26,-0.05

-4.6757812,0.007298913,-0.06344021,-0.00807064,0.95,0.26,-0.05,62276,10045.70,0,0,0,-0.77,-5.67,2.31,0.95,0.26,-0.05

-4.6757812,0.008298913,-0.05144021,-0.0070706382,0.96,0.27,-0.05,62336,10045.70,0,0,0,-0.70,-4.83,2.38,0.96,0.27,-0.05

-4.776367,-0.013701089,-0.043440215,-0.01507064,0.95,0.26,-0.05,62389,10045.60,0,0,0,-2.24,-4.27,1.82,0.95,0.26,-0.05

-4.776367,0.055298913,0.008559788,-0.02307064,0.96,0.27,-0.06,62441,10045.60,0,0,0,2.59,-0.63,1.26,0.96,0.27,-0.06

-5.1757812,0.044298913,0.005559788,-0.04607064,0.96,0.25,-0.05,62493,10045.20,0,0,0,1.82,-0.84,-0.35,0.96,0.25,-0.05

-4.975586,0.057298914,0.017559787,-0.04607064,0.96,0.26,-0.06,62553,10045.40,0,0,0,2.73,0.00,-0.35,0.96,0.26,-0.06

-4.8759766,0.09829891,0.059559785,-0.04507064,0.96,0.24,-0.06,62613,10045.50,0,0,0,5.60,2.94,-0.28,0.96,0.24,-0.06

-4.776367,0.094298914,0.03955979,-0.06807064,0.96,0.25,-0.05,62658,10045.60,0,0,0,5.32,1.54,-1.89,0.96,0.25,-0.05

-5.276367,0.07029891,0.020559788,-0.04807064,0.95,0.25,-0.04,62711,10045.10,0,0,0,3.64,0.21,-0.49,0.95,0.25,-0.04

-5.076172,0.052298915,-0.010440214,-0.03907064,0.95,0.27,-0.04,62774,10045.30,0,0,0,2.38,-1.96,0.14,0.95,0.27,-0.04

-5.276367,0.021298913,-0.03744021,-0.00807064,0.96,0.27,-0.04,62823,10045.10,0,0,0,0.21,-3.85,2.31,0.96,0.27,-0.04

-5.076172,-0.016701087,-0.07344021,0.010929361,0.97,0.26,-0.04,62876,10045.30,0,0,0,-2.45,-6.37,3.64,0.97,0.26,-0.04

-5.3759766,-0.014701087,-0.09344021,-0.013070639,0.95,0.25,-0.05,62928,10045.00,0,0,0,-2.31,-7.77,1.96,0.95,0.25,-0.05

-5.475586,0.0052989125,-0.07444021,0.01592936,0.96,0.26,-0.05,62981,10044.90,0,0,0,-0.91,-6.44,3.99,0.96,0.26,-0.05

-5.8759766,-0.08370109,-0.10744021,0.027929358,0.96,0.25,-0.05,63033,10044.50,0,0,0,-7.14,-8.75,4.83,0.96,0.25,-0.05

-5.475586,0.0052989125,-0.05144021,-0.03007064,0.96,0.26,-0.06,63094,10044.90,0,0,0,-0.91,-4.83,0.77,0.96,0.26,-0.06

-5.6757812,0.102298915,0.028559787,-0.03707064,0.96,0.26,-0.05,63146,10044.70,0,0,0,5.88,0.77,0.28,0.96,0.26,-0.05

-5.576172,2.9891357E-4,-0.013440214,-0.02807064,0.96,0.27,-0.05,63198,10044.80,0,0,0,-1.26,-2.17,0.91,0.96,0.27,-0.05

-6.1757812,0.025298912,0.004559787,-0.03407064,0.95,0.26,-0.06,63251,10044.20,0,0,0,0.49,-0.91,0.49,0.95,0.26,-0.06

-6.1757812,0.08829892,0.044559788,-0.04907064,0.96,0.25,-0.06,63304,10044.20,0,0,0,4.90,1.89,-0.56,0.96,0.25,-0.06

-6.576172,0.061298914,0.04355979,-0.06007064,0.96,0.25,-0.06,63348,10043.80,0,0,0,3.01,1.82,-1.33,0.96,0.25,-0.06

-6.475586,0.09929891,0.067559786,-0.07707064,0.96,0.25,-0.06,63401,10043.90,0,0,0,5.67,3.50,-2.52,0.96,0.25,-0.06

-7.475586,0.10329892,0.052559786,-0.04707064,0.96,0.25,-0.04,63453,10042.90,0,0,0,5.95,2.45,-0.42,0.96,0.25,-0.04

-7.3759766,-0.017701086,-0.036440216,-0.011070641,0.97,0.26,-0.04,63506,10043.00,0,0,0,-2.52,-3.78,2.10,0.97,0.26,-0.04

-7.6757812,-0.0077010877,-0.046440214,-0.012070641,0.96,0.27,-0.05,63559,10042.70,0,0,0,-1.82,-4.48,2.03,0.96,0.27,-0.05

-8.076172,0.015298913,-0.04044021,0.0019293614,0.95,0.25,-0.04,63619,10042.30,0,0,0,-0.21,-4.06,3.01,0.95,0.25,-0.04

-8.276367,-0.05970109,-0.09044021,0.0039293617,0.96,0.25,-0.05,63671,10042.10,0,0,0,-5.46,-7.56,3.15,0.96,0.25,-0.05

-8.576172,-0.029701084,-0.07444021,0.0059293583,0.97,0.25,-0.06,63723,10041.80,0,0,0,-3.36,-6.44,3.29,0.97,0.25,-0.06

-8.375977,-0.042701088,-0.07144021,0.01592936,0.96,0.24,-0.05,63776,10042.00,0,0,0,-4.27,-6.23,3.99,0.96,0.24,-0.05

-8.675781,-0.05670109,-0.07344021,-7.064268E-5,0.96,0.25,-0.05,63836,10041.70,0,0,0,-5.25,-6.37,2.87,0.96,0.25,-0.05

-8.875977,0.040298913,-0.005440213,-0.02107064,0.95,0.25,-0.04,63889,10041.50,0,0,0,1.54,-1.61,1.40,0.95,0.25,-0.04

-9.076172,0.036298912,-0.0024402123,-0.03507064,0.96,0.26,-0.05,63941,10041.30,0,0,0,1.26,-1.40,0.42,0.96,0.26,-0.05

-9.276367,0.019298913,-0.0034402125,-0.02607064,0.96,0.26,-0.05,63994,10041.10,0,0,0,0.07,-1.47,1.05,0.96,0.26,-0.05

-9.276367,0.05929891,0.021559788,-0.05007064,0.96,0.25,-0.05,64054,10041.10,0,0,0,2.87,0.28,-0.63,0.96,0.25,-0.05

-9.576172,0.056298915,0.026559787,-0.05007064,0.96,0.24,-0.04,64106,10040.80,0,0,0,2.66,0.63,-0.63,0.96,0.24,-0.04

-9.375977,0.055298913,0.025559787,-0.06007064,0.96,0.25,-0.04,64159,10041.00,0,0,0,2.59,0.56,-1.33,0.96,0.25,-0.04

-9.576172,0.08229892,0.037559785,-0.057070643,0.96,0.25,-0.03,64219,10040.80,0,0,0,4.48,1.40,-1.12,0.96,0.25,-0.03

-9.776367,0.030298911,-0.012440212,-0.04107064,0.96,0.26,-0.03,64271,10040.60,0,0,0,0.84,-2.10,0.00,0.96,0.26,-0.03

-9.776367,-0.027701087,-0.058440216,-0.01607064,0.96,0.25,-0.04,64324,10040.60,0,0,0,-3.22,-5.32,1.75,0.96,0.25,-0.04

-9.576172,-7.0108846E-4,-0.054440208,-0.02107064,0.96,0.26,-0.05,64375,10040.80,0,0,0,-1.33,-5.04,1.40,0.96,0.26,-0.05

-9.875977,-0.012701089,-0.04844021,-0.001070641,0.97,0.25,-0.05,64436,10040.50,0,0,0,-2.17,-4.62,2.80,0.97,0.25,-0.05

-9.675781,-0.016701087,-0.05244021,-0.01607064,0.97,0.26,-0.05,64489,10040.70,0,0,0,-2.45,-4.90,1.75,0.97,0.26,-0.05

-9.675781,0.03429891,-0.047440216,-0.02807064,0.96,0.26,-0.04,64541,10040.70,0,0,0,1.12,-4.55,0.91,0.96,0.26,-0.04

-9.475586,-0.029701084,-0.083440214,9.2935935E-4,0.95,0.25,-0.04,64601,10040.90,0,0,0,-3.36,-7.07,2.94,0.95,0.25,-0.04

-9.675781,-0.022701085,-0.05944021,-0.00607064,0.95,0.25,-0.05,64654,10040.70,0,0,0,-2.87,-5.39,2.45,0.95,0.25,-0.05

-9.276367,0.11029892,0.026559787,-0.05807064,0.96,0.26,-0.06,64705,10041.10,0,0,0,6.44,0.63,-1.19,0.96,0.26,-0.06

-8.875977,0.06629891,0.008559788,-0.04507064,0.96,0.26,-0.05,64759,10041.50,0,0,0,3.36,-0.63,-0.28,0.96,0.26,-0.05

-8.375977,-0.026701089,-0.03344021,-0.02507064,0.96,0.25,-0.05,64811,10042.00,0,0,0,-3.15,-3.57,1.12,0.96,0.25,-0.05

-8.475586,0.062298913,0.024559788,-0.04307064,0.96,0.25,-0.05,64878,10041.90,0,0,0,3.08,0.49,-0.14,0.96,0.25,-0.05

-7.8759766,0.07629891,0.03955979,-0.051070638,0.97,0.25,-0.04,64923,10042.50,0,0,0,4.06,1.54,-0.70,0.97,0.25,-0.04

-7.576172,0.024298912,0.009559787,-0.051070638,0.97,0.25,-0.04,64976,10042.80,0,0,0,0.42,-0.56,-0.70,0.97,0.25,-0.04

-7.276367,0.089298904,0.026559787,-0.06907064,0.96,0.25,-0.04,65028,10043.10,0,0,0,4.97,0.63,-1.96,0.96,0.25,-0.04

-7.3759766,0.022298913,-0.017440213,-0.00607064,0.96,0.25,-0.05,65089,10043.00,0,0,0,0.28,-2.45,2.45,0.96,0.25,-0.05

-7.276367,-0.110701084,-0.09544021,0.014929362,0.96,0.24,-0.05,65141,10043.10,0,0,0,-9.03,-7.91,3.92,0.96,0.24,-0.05

-7.076172,0.057298914,-0.007440213,-0.03207064,0.96,0.26,-0.06,65193,10043.30,0,0,0,2.73,-1.75,0.63,0.96,0.26,-0.06

-7.076172,0.08229892,0.0025597876,-0.01807064,0.96,0.26,-0.04,65253,10043.30,0,0,0,4.48,-1.05,1.61,0.96,0.26,-0.04

-6.8759766,-0.103701085,-0.12144021,0.029929355,0.96,0.25,-0.03,65306,10043.50,0,0,0,-8.54,-9.73,4.97,0.96,0.25,-0.03

-6.8759766,-0.036701087,-0.10044021,0.026929364,0.97,0.24,-0.04,65358,10043.50,0,0,0,-3.85,-8.26,4.76,0.97,0.24,-0.04

-7.276367,0.036298912,-0.03744021,-0.03307064,0.96,0.23,-0.05,65419,10043.10,0,0,0,1.26,-3.85,0.56,0.96,0.23,-0.05

-6.8759766,0.06829891,0.008559788,-0.03607064,0.96,0.25,-0.05,65471,10043.50,0,0,0,3.50,-0.63,0.35,0.96,0.25,-0.05

-6.576172,0.037298914,5.5978633E-4,-0.02607064,0.97,0.25,-0.04,65524,10043.80,0,0,0,1.33,-1.19,1.05,0.97,0.25,-0.04

-6.6757812,0.0032989131,-0.024440212,-0.06107064,0.96,0.25,-0.05,65576,10043.70,0,0,0,-1.05,-2.94,-1.40,0.96,0.25,-0.05

-6.3759766,0.060298912,0.028559787,-0.04707064,0.96,0.25,-0.05,65636,10044.00,0,0,0,2.94,0.77,-0.42,0.96,0.25,-0.05

-6.8759766,0.039298914,0.034559786,-0.05407064,0.96,0.24,-0.04,65690,10043.50,0,0,0,1.47,1.19,-0.91,0.96,0.24,-0.04

-6.975586,0.08129892,0.03555979,-0.09107064,0.96,0.25,-0.04,65741,10043.40,0,0,0,4.41,1.26,-3.50,0.96,0.25,-0.04

-6.776367,0.057298914,0.0025597876,-0.02507064,0.96,0.25,-0.04,65801,10043.60,0,0,0,2.73,-1.05,1.12,0.96,0.25,-0.04

-6.276367,-0.088701084,-0.079440214,-0.00607064,0.97,0.25,-0.06,65853,10044.10,0,0,0,-7.49,-6.79,2.45,0.97,0.25,-0.06

-6.576172,0.07829891,0.0075597875,-0.04807064,0.95,0.25,-0.06,65913,10043.80,0,0,0,4.20,-0.70,-0.49,0.95,0.25,-0.06

-6.6757812,0.08429891,-0.006440211,-0.03007064,0.96,0.26,-0.04,65966,10043.70,0,0,0,4.62,-1.68,0.77,0.96,0.26,-0.04

-6.975586,-0.10670109,-0.12544023,0.012929361,0.96,0.25,-0.04,66018,10043.40,0,0,0,-8.75,-10.01,3.78,0.96,0.25,-0.04

-6.3759766,2.9891357E-4,-0.068440214,-7.064268E-5,0.96,0.25,-0.05,66071,10044.00,0,0,0,-1.26,-6.02,2.87,0.96,0.25,-0.05

-6.6757812,0.050298914,-0.026440213,-0.013070639,0.97,0.24,-0.04,66131,10043.70,0,0,0,2.24,-3.08,1.96,0.97,0.24,-0.04

-6.776367,-0.04370109,-0.05944021,-0.01807064,0.97,0.24,-0.05,66183,10043.60,0,0,0,-4.34,-5.39,1.61,0.97,0.24,-0.05

-7.076172,0.050298914,0.0025597876,-0.04507064,0.96,0.25,-0.05,66236,10043.30,0,0,0,2.24,-1.05,-0.28,0.96,0.25,-0.05

-6.975586,0.051298913,0.009559787,-0.03907064,0.96,0.25,-0.04,66289,10043.40,0,0,0,2.31,-0.56,0.14,0.96,0.25,-0.04

-7.276367,-0.057701092,-0.036440216,-0.00807064,0.97,0.25,-0.05,66342,10043.10,0,0,0,-5.32,-3.78,2.31,0.97,0.25,-0.05

-7.276367,0.04529891,0.016559787,-0.07407064,0.96,0.25,-0.05,66404,10043.10,0,0,0,1.89,-0.07,-2.31,0.96,0.25,-0.05

-7.776367,0.10729891,0.056559786,-0.07207064,0.95,0.26,-0.04,66454,10042.60,0,0,0,6.23,2.73,-2.17,0.95,0.26,-0.04

-7.8759766,-0.040701088,-0.022440212,-0.02107064,0.94,0.25,-0.05,66506,10042.50,0,0,0,-4.13,-2.80,1.40,0.94,0.25,-0.05

-8.576172,-0.013701089,-0.012440212,-0.011070641,0.97,0.26,-0.06,66566,10041.80,0,0,0,-2.24,-2.10,2.10,0.97,0.26,-0.06

-8.776367,0.049298912,0.010559787,-0.03907064,0.97,0.25,-0.05,66618,10041.60,0,0,0,2.17,-0.49,0.14,0.97,0.25,-0.05

-9.675781,0.016298912,-0.011440212,-0.03707064,0.96,0.25,-0.04,66671,10040.70,0,0,0,-0.14,-2.03,0.28,0.96,0.25,-0.04

-9.675781,0.007298913,-0.017440213,0.016929358,0.95,0.25,-0.03,66723,10040.70,0,0,0,-0.77,-2.45,4.06,0.95,0.25,-0.03

-9.776367,-0.053701084,-0.06544021,0.026929364,0.97,0.24,-0.04,66783,10040.60,0,0,0,-5.04,-5.81,4.76,0.97,0.24,-0.04

-10.276367,-0.012701089,-0.026440213,0.0039293617,0.97,0.24,-0.05,66836,10040.10,0,0,0,-2.17,-3.08,3.15,0.97,0.24,-0.05

-10.475586,0.080298916,0.03655979,-0.02307064,0.96,0.25,-0.04,66888,10039.90,0,0,0,4.34,1.33,1.26,0.96,0.25,-0.04

-10.776367,-0.024701089,-0.039440215,-0.0050706416,0.95,0.24,-0.02,66941,10039.60,0,0,0,-3.01,-3.99,2.52,0.95,0.24,-0.02

-10.975586,-0.11370109,-0.10444021,0.044929363,0.96,0.24,-0.02,67001,10039.40,0,0,0,-9.24,-8.54,6.02,0.96,0.24,-0.02

-11.175781,-0.03070109,-0.053440206,-0.009070639,0.96,0.24,-0.03,67053,10039.20,0,0,0,-3.43,-4.97,2.24,0.96,0.24,-0.03

-11.276367,0.07029891,0.011559788,-0.04507064,0.96,0.24,-0.03,67106,10039.10,0,0,0,3.64,-0.42,-0.28,0.96,0.24,-0.03

-11.675781,-0.008701088,-0.035440214,-0.03107064,0.96,0.24,-0.02,67158,10038.70,0,0,0,-1.89,-3.71,0.70,0.96,0.24,-0.02

-11.576172,-0.008701088,-0.046440214,-0.03707064,0.95,0.24,-0.04,67221,10038.80,0,0,0,-1.89,-4.48,0.28,0.95,0.24,-0.04

-11.776367,0.08129892,0.030559788,-0.04907064,0.96,0.24,-0.05,67271,10038.60,0,0,0,4.41,0.91,-0.56,0.96,0.24,-0.05

-12.276367,0.040298913,0.030559788,-0.05807064,0.97,0.25,-0.03,67323,10038.10,0,0,0,1.54,0.91,-1.19,0.97,0.25,-0.03

-12.276367,0.058298912,0.023559786,-0.08807064,0.96,0.25,-0.03,67383,10038.10,0,0,0,2.80,0.42,-3.29,0.96,0.25,-0.03

-12.475586,0.095298916,0.03555979,-0.08507064,0.95,0.24,-0.03,67436,10037.90,0,0,0,5.39,1.26,-3.08,0.95,0.24,-0.03

-12.475586,0.002298912,0.0025597876,-7.064268E-5,0.97,0.25,-0.04,67489,10037.90,0,0,0,-1.12,-1.05,2.87,0.97,0.25,-0.04

-12.675781,-0.050701085,-0.034440212,-0.0020706393,0.98,0.24,-0.04,67541,10037.70,0,0,0,-4.83,-3.64,2.73,0.98,0.24,-0.04

-12.776367,0.07629891,0.004559787,-0.04507064,0.97,0.25,-0.04,67601,10037.60,0,0,0,4.06,-0.91,-0.28,0.97,0.25,-0.04

-12.776367,0.030298911,-0.02344021,-0.0020706393,0.95,0.25,-0.02,67654,10037.60,0,0,0,0.84,-2.87,2.73,0.95,0.25,-0.02

-12.675781,-0.110701084,-0.11244022,0.07392936,0.96,0.24,-0.02,67706,10037.70,0,0,0,-9.03,-9.10,8.05,0.96,0.24,-0.02

-12.576172,-0.07070109,-0.101440206,0.03292936,0.97,0.23,-0.03,67765,10037.80,0,0,0,-6.23,-8.33,5.18,0.97,0.23,-0.03

-12.375977,0.07929891,-0.013440214,-0.022070639,0.96,0.24,-0.04,67818,10038.00,0,0,0,4.27,-2.17,1.33,0.96,0.24,-0.04

-12.076172,0.04529891,-0.009440213,-0.02507064,0.96,0.24,-0.03,67871,10038.30,0,0,0,1.89,-1.89,1.12,0.96,0.24,-0.03

-12.076172,-0.041701086,-0.061440215,0.008929361,0.97,0.23,-0.02,67924,10038.30,0,0,0,-4.20,-5.53,3.50,0.97,0.23,-0.02

-11.675781,-0.017701086,-0.050440215,-0.02807064,0.97,0.23,-0.03,67976,10038.70,0,0,0,-2.52,-4.76,0.91,0.97,0.23,-0.03

-11.276367,0.10829891,0.047559787,-0.07007064,0.97,0.24,-0.04,68036,10039.10,0,0,0,6.30,2.10,-2.03,0.97,0.24,-0.04

-10.975586,0.10629891,0.06455979,-0.09007064,0.97,0.24,-0.02,68089,10039.40,0,0,0,6.16,3.29,-3.43,0.97,0.24,-0.02

-10.776367,0.055298913,0.016559787,-0.07207064,0.96,0.23,-0.02,68141,10039.60,0,0,0,2.59,-0.07,-2.17,0.96,0.23,-0.02

-10.475586,0.025298912,-0.009440213,-0.05307064,0.96,0.24,-0.04,68193,10039.90,0,0,0,0.49,-1.89,-0.84,0.96,0.24,-0.04

-9.875977,0.019298913,0.010559787,-0.04507064,0.98,0.25,-0.05,68253,10040.50,0,0,0,0.07,-0.49,-0.28,0.98,0.25,-0.05

-9.675781,0.07529891,0.03555979,-0.082070634,0.97,0.23,-0.03,68306,10040.70,0,0,0,3.99,1.26,-2.87,0.97,0.23,-0.03

-9.576172,0.073298916,5.5978633E-4,-0.04507064,0.96,0.25,-0.02,68359,10040.80,0,0,0,3.85,-1.19,-0.28,0.96,0.25,-0.02

-9.776367,-0.088701084,-0.09044021,0.033929363,0.96,0.24,-0.03,68419,10040.60,0,0,0,-7.49,-7.56,5.25,0.96,0.24,-0.03

-9.475586,-0.08670108,-0.08544021,0.048929363,0.98,0.24,-0.04,68471,10040.90,0,0,0,-7.35,-7.21,6.30,0.98,0.24,-0.04

-9.175781,0.061298914,-0.015440213,-0.02107064,0.96,0.22,-0.03,68524,10041.20,0,0,0,3.01,-2.31,1.40,0.96,0.22,-0.03

-9.276367,0.021298913,-0.028440213,0.0039293617,0.97,0.24,-0.03,68575,10041.10,0,0,0,0.21,-3.22,3.15,0.97,0.24,-0.03

-9.175781,-0.09070109,-0.09844021,0.034929365,0.97,0.22,-0.02,68628,10041.20,0,0,0,-7.63,-8.12,5.32,0.97,0.22,-0.02

-8.875977,0.017298913,-0.05244021,-0.02407064,0.96,0.24,-0.03,68689,10041.50,0,0,0,-0.07,-4.90,1.19,0.96,0.24,-0.03

-8.276367,0.08829892,0.013559787,-0.01907064,0.96,0.24,-0.02,68741,10042.10,0,0,0,4.90,-0.28,1.54,0.96,0.24,-0.02

-8.175781,-0.020701088,-0.049440213,-0.04007064,0.96,0.24,-0.01,68793,10042.20,0,0,0,-2.73,-4.69,0.07,0.96,0.24,-0.01

-7.576172,0.008298913,-0.05144021,-0.03207064,0.95,0.24,-0.03,68846,10042.80,0,0,0,-0.70,-4.83,0.63,0.95,0.24,-0.03

-7.276367,-0.0017010868,-0.027440215,-0.06407064,0.94,0.22,-0.04,68907,10043.10,0,0,0,-1.40,-3.15,-1.61,0.94,0.22,-0.04

-7.3759766,0.06729892,0.033559788,-0.11307064,0.95,0.23,-0.05,68958,10043.00,0,0,0,3.43,1.12,-5.04,0.95,0.23,-0.05

-7.076172,0.095298916,0.04855979,-0.106070645,0.97,0.24,-0.03,69011,10043.30,0,0,0,5.39,2.17,-4.55,0.97,0.24,-0.03

-7.1757812,0.010298912,-0.012440212,-0.10107064,0.98,0.26,-0.03,69071,10043.20,0,0,0,-0.56,-2.10,-4.20,0.98,0.26,-0.03

-6.8759766,0.07429892,0.021559788,-0.06807064,0.98,0.26,-0.03,69124,10043.50,0,0,0,3.92,0.28,-1.89,0.98,0.26,-0.03

-6.776367,0.053298913,-0.011440212,-0.03907064,0.97,0.26,-0.01,69176,10043.60,0,0,0,2.45,-2.03,0.14,0.97,0.26,-0.01

-6.776367,-0.053701084,-0.09644021,0.0069293566,0.97,0.25,-0.02,69228,10043.60,0,0,0,-5.04,-7.98,3.36,0.97,0.25,-0.02

-6.475586,0.002298912,-0.06244021,-7.064268E-5,0.96,0.24,-0.05,69289,10043.90,0,0,0,-1.12,-5.60,2.87,0.96,0.24,-0.05

-6.576172,0.073298916,-0.0044402126,-0.04107064,0.95,0.25,-0.05,69341,10043.80,0,0,0,3.85,-1.54,0.00,0.95,0.25,-0.05

-6.576172,0.026298914,-0.026440213,-0.0030706376,0.96,0.25,-0.03,69393,10043.80,0,0,0,0.56,-3.08,2.66,0.96,0.25,-0.03

-6.8759766,-0.071701095,-0.101440206,0.0029293597,0.96,0.25,-0.02,69453,10043.50,0,0,0,-6.30,-8.33,3.08,0.96,0.25,-0.02

-6.3759766,-0.011701087,-0.072440214,-0.001070641,0.96,0.27,-0.02,69506,10044.00,0,0,0,-2.10,-6.30,2.80,0.96,0.27,-0.02

-6.8759766,-0.026701089,-0.047440216,0.025929362,0.96,0.25,-0.03,69559,10043.50,0,0,0,-3.15,-4.55,4.69,0.96,0.25,-0.03

-6.3759766,-0.025701087,-0.021440214,0.016929358,0.96,0.24,-0.04,69611,10044.00,0,0,0,-3.08,-2.73,4.06,0.96,0.24,-0.04

-6.576172,0.095298916,0.044559788,-0.02407064,0.95,0.24,-0.04,69671,10043.80,0,0,0,5.39,1.89,1.19,0.95,0.24,-0.04

-6.576172,0.049298912,0.026559787,-0.00807064,0.96,0.24,-0.04,69724,10043.80,0,0,0,2.17,0.63,2.31,0.96,0.24,-0.04

-6.3759766,-0.032701086,-0.0034402125,0.0029293597,0.96,0.23,-0.04,69776,10044.00,0,0,0,-3.57,-1.47,3.08,0.96,0.23,-0.04

-6.576172,0.117298916,0.08655979,-0.05907064,0.97,0.23,-0.03,69828,10043.80,0,0,0,6.93,4.83,-1.26,0.97,0.23,-0.03

-6.576172,0.2002989,0.13255979,-0.06707064,0.98,0.23,-0.02,69881,10043.80,0,0,0,12.74,8.05,-1.82,0.98,0.23,-0.02

-6.475586,0.10629891,0.04855979,-0.062070638,0.97,0.23,-0.0,69941,10043.90,0,0,0,6.16,2.17,-1.47,0.97,0.23,-0.00

-6.3759766,0.018298913,-0.043440215,-7.064268E-5,0.97,0.23,-0.02,69993,10044.00,0,0,0,0.00,-4.27,2.87,0.97,0.23,-0.02

-6.576172,-0.07270108,-0.10044021,-0.0040706396,0.96,0.21,-0.03,70046,10043.80,0,0,0,-6.37,-8.26,2.59,0.96,0.21,-0.03

-6.475586,0.018298913,-0.04144021,-0.01907064,0.96,0.24,-0.04,70099,10043.90,0,0,0,0.00,-4.13,1.54,0.96,0.24,-0.04

-7.1757812,0.036298912,-0.028440213,-0.02407064,0.97,0.25,-0.02,70158,10043.20,0,0,0,1.26,-3.22,1.19,0.97,0.25,-0.02

-6.8759766,-0.06970109,-0.10544021,0.011929359,0.96,0.26,-0.01,70211,10043.50,0,0,0,-6.16,-8.61,3.71,0.96,0.26,-0.01

-7.475586,-0.1397011,-0.14244021,0.07392936,0.96,0.23,-0.01,70263,10042.90,0,0,0,-11.06,-11.20,8.05,0.96,0.23,-0.01

-7.475586,-0.11970109,-0.12944022,0.03292936,0.97,0.21,-0.03,70316,10042.90,0,0,0,-9.66,-10.29,5.18,0.97,0.21,-0.03

-7.776367,0.040298913,-0.001440214,-0.03807064,0.97,0.21,-0.05,70375,10042.60,0,0,0,1.54,-1.33,0.21,0.97,0.21,-0.05

-7.975586,0.1692989,0.11755979,-0.08607064,0.97,0.23,-0.04,70428,10042.40,0,0,0,10.57,7.00,-3.15,0.97,0.23,-0.04

-8.776367,0.12929891,0.08355979,-0.082070634,0.96,0.24,-0.01,70481,10041.60,0,0,0,7.77,4.62,-2.87,0.96,0.24,-0.01

-9.076172,0.043298915,0.0015597865,-0.05007064,0.96,0.24,-0.01,70540,10041.30,0,0,0,1.75,-1.12,-0.63,0.96,0.24,-0.01

-9.276367,0.07529891,0.021559788,-0.08607064,0.96,0.23,-0.02,70593,10041.10,0,0,0,3.99,0.28,-3.15,0.96,0.23,-0.02

-9.675781,0.1562989,0.05755979,-0.08107064,0.97,0.23,-0.02,70646,10040.70,0,0,0,9.66,2.80,-2.80,0.97,0.23,-0.02

-9.576172,-0.027701087,-0.07744021,-0.03407064,0.97,0.22,-0.02,70698,10040.80,0,0,0,-3.22,-6.65,0.49,0.97,0.22,-0.02

-9.975586,-0.13470109,-0.13444023,0.016929358,0.97,0.22,-0.04,70758,10040.40,0,0,0,-10.71,-10.64,4.06,0.97,0.22,-0.04

-10.175781,0.27029893,-0.046440214,-0.04107064,0.97,0.24,-0.03,70811,10040.20,0,0,0,17.64,-4.48,0.00,0.97,0.24,-0.03

-10.276367,0.053298913,-0.02344021,-0.03507064,0.97,0.26,-0.01,70864,10040.10,0,0,0,2.45,-2.87,0.42,0.97,0.26,-0.01

-10.175781,-0.041701086,-0.09644021,-0.02407064,0.96,0.26,-0.01,70924,10040.20,0,0,0,-4.20,-7.98,1.19,0.96,0.26,-0.01

-10.475586,-0.04570109,-0.0994402,0.01592936,0.95,0.25,-0.03,70976,10039.90,0,0,0,-4.48,-8.19,3.99,0.95,0.25,-0.03

-10.475586,-0.05970109,-0.08644021,0.012929361,0.96,0.22,-0.05,71028,10039.90,0,0,0,-5.46,-7.28,3.78,0.96,0.22,-0.05

-10.576172,0.019298913,-0.011440212,-0.03807064,0.97,0.22,-0.06,71081,10039.80,0,0,0,0.07,-2.03,0.21,0.97,0.22,-0.06

-10.776367,0.1852989,0.09455979,-0.11507064,0.96,0.23,-0.04,71141,10039.60,0,0,0,11.69,5.39,-5.18,0.96,0.23,-0.04

-10.875977,0.14329891,0.08755979,-0.087070644,0.97,0.25,-0.02,71193,10039.50,0,0,0,8.75,4.90,-3.22,0.97,0.25,-0.02

-10.975586,0.056298915,0.026559787,-0.06807064,0.97,0.25,-0.01,71246,10039.40,0,0,0,2.66,0.63,-1.89,0.97,0.25,-0.01

-10.875977,0.073298916,0.011559788,-0.03807064,0.96,0.25,-0.02,71306,10039.50,0,0,0,3.85,-0.42,0.21,0.96,0.25,-0.02

-10.675781,-0.009701088,-0.042440213,-0.01607064,0.95,0.23,-0.03,71359,10039.70,0,0,0,-1.96,-4.20,1.75,0.95,0.23,-0.03

-10.975586,0.011298913,-0.025440214,-0.029070642,0.95,0.24,-0.05,71410,10039.40,0,0,0,-0.49,-3.01,0.84,0.95,0.24,-0.05

-10.576172,0.07529891,-0.0044402126,-0.014070639,0.97,0.25,-0.03,71464,10039.80,0,0,0,3.99,-1.54,1.89,0.97,0.25,-0.03

-10.875977,-0.079701096,-0.12844022,-7.064268E-5,0.97,0.25,-0.02,71516,10039.50,0,0,0,-6.86,-10.22,2.87,0.97,0.25,-0.02

-10.576172,-0.1027011,-0.13944021,0.02492936,0.95,0.24,-0.02,71576,10039.80,0,0,0,-8.47,-10.99,4.62,0.95,0.24,-0.02

-10.475586,-0.012701089,-0.07744021,0.010929361,0.95,0.23,-0.03,71628,10039.90,0,0,0,-2.17,-6.65,3.64,0.95,0.23,-0.03

-10.475586,-0.0047010873,-0.047440216,-0.0030706376,0.97,0.23,-0.04,71680,10039.90,0,0,0,-1.61,-4.55,2.66,0.97,0.23,-0.04

-10.475586,0.04129891,5.5978633E-4,-0.04107064,0.98,0.24,-0.06,71734,10039.90,0,0,0,1.61,-1.19,0.00,0.98,0.24,-0.06

-10.475586,0.10429892,0.056559786,-0.07007064,0.97,0.24,-0.06,71793,10039.90,0,0,0,6.02,2.73,-2.03,0.97,0.24,-0.06

-10.175781,0.08529891,0.063559785,-0.07007064,0.96,0.23,-0.03,71846,10040.20,0,0,0,4.69,3.22,-2.03,0.96,0.23,-0.03

-9.576172,0.06729892,0.049559787,-0.04307064,0.96,0.23,-0.01,71898,10040.80,0,0,0,3.43,2.24,-0.14,0.96,0.23,-0.01

-9.475586,0.072298914,0.034559786,-0.05807064,0.97,0.24,-0.01,71958,10040.90,0,0,0,3.78,1.19,-1.19,0.97,0.24,-0.01

-9.076172,0.095298916,0.037559785,-0.04707064,0.97,0.25,-0.02,72011,10041.30,0,0,0,5.39,1.40,-0.42,0.97,0.25,-0.02

-8.875977,0.012298914,-0.028440213,-0.009070639,0.96,0.24,-0.02,72064,10041.50,0,0,0,-0.42,-3.22,2.24,0.96,0.24,-0.02

-9.175781,-0.081701085,-0.116440214,0.0059293583,0.96,0.23,-0.03,72115,10041.20,0,0,0,-7.00,-9.38,3.29,0.96,0.23,-0.03

-8.875977,-0.03370109,-0.08444021,0.025929362,0.96,0.23,-0.04,72168,10041.50,0,0,0,-3.64,-7.14,4.69,0.96,0.23,-0.04

-8.375977,0.002298912,-0.046440214,-0.022070639,0.97,0.25,-0.03,72229,10042.00,0,0,0,-1.12,-4.48,1.33,0.97,0.25,-0.03

-8.475586,0.0052989125,-0.05244021,-0.0020706393,0.97,0.25,-0.01,72281,10041.90,0,0,0,-0.91,-4.90,2.73,0.97,0.25,-0.01

-8.375977,-0.10170108,-0.12644021,-0.001070641,0.96,0.23,-0.02,72333,10042.00,0,0,0,-8.40,-10.08,2.80,0.96,0.23,-0.02

-8.475586,-0.054701086,-0.069440216,-0.011070641,0.96,0.22,-0.05,72386,10041.90,0,0,0,-5.11,-6.09,2.10,0.96,0.22,-0.05

-7.475586,0.09629892,0.05455979,-0.06107064,0.97,0.23,-0.05,72438,10042.90,0,0,0,5.46,2.59,-1.40,0.97,0.23,-0.05

-7.076172,0.13229892,0.08455979,-0.08407064,0.97,0.23,-0.03,72491,10043.30,0,0,0,7.98,4.69,-3.01,0.97,0.23,-0.03

-8.475586,0.05929891,0.031559788,-0.07207064,0.97,0.24,-0.02,72536,10041.90,0,0,0,2.87,0.98,-2.17,0.97,0.24,-0.02

-8.576172,0.036298912,0.005559788,-0.05807064,0.96,0.24,-0.02,72588,10041.80,0,0,0,1.26,-0.84,-1.19,0.96,0.24,-0.02

-7.475586,0.05929891,0.022559788,-0.06307064,0.95,0.25,-0.02,72633,10042.90,0,0,0,2.87,0.35,-1.54,0.95,0.25,-0.02

-7.1757812,0.056298915,0.004559787,-0.04107064,0.97,0.25,-0.02,72685,10043.20,0,0,0,2.66,-0.91,0.00,0.97,0.25,-0.02

-7.3759766,-0.034701087,-0.07044021,-0.03807064,0.96,0.23,-0.02,72745,10043.00,0,0,0,-3.71,-6.16,0.21,0.96,0.23,-0.02

-7.276367,0.0052989125,-0.06244021,-0.03607064,0.95,0.24,-0.04,72798,10043.10,0,0,0,-0.91,-5.60,0.35,0.95,0.24,-0.04

-7.276367,-0.036701087,-0.07644021,0.016929358,0.96,0.24,-0.03,72851,10043.10,0,0,0,-3.85,-6.58,4.06,0.96,0.24,-0.03

-7.076172,-0.12370108,-0.12544023,0.022929363,0.97,0.24,-0.03,72910,10043.30,0,0,0,-9.94,-10.01,4.48,0.97,0.24,-0.03

-7.475586,0.022298913,-0.046440214,-0.057070643,0.98,0.25,-0.04,72963,10042.90,0,0,0,0.28,-4.48,-1.12,0.98,0.25,-0.04

-6.8759766,0.12229891,0.019559788,-0.06507064,0.96,0.25,-0.03,73016,10043.50,0,0,0,7.28,0.14,-1.68,0.96,0.25,-0.03

-7.3759766,-0.06270109,-0.06744021,-7.064268E-5,0.95,0.23,-0.02,73068,10043.00,0,0,0,-5.67,-5.95,2.87,0.95,0.23,-0.02

-7.1757812,-0.04570109,-0.05244021,-0.02807064,0.96,0.22,-0.04,73121,10043.20,0,0,0,-4.48,-4.90,0.91,0.96,0.22,-0.04

-7.276367,0.1472989,0.074559785,-0.09907064,0.97,0.24,-0.06,73181,10043.10,0,0,0,9.03,3.99,-4.06,0.97,0.24,-0.06

-7.475586,0.1412989,0.09655979,-0.11507064,0.97,0.25,-0.04,73233,10042.90,0,0,0,8.61,5.53,-5.18,0.97,0.25,-0.04

-7.475586,0.08429891,0.045559786,-0.07507064,0.96,0.25,-0.01,73285,10042.90,0,0,0,4.62,1.96,-2.38,0.96,0.25,-0.01

-7.3759766,-0.010701086,-0.05144021,-0.03207064,0.96,0.24,-0.0,73338,10043.00,0,0,0,-2.03,-4.83,0.63,0.96,0.24,-0.00

-7.8759766,-0.05670109,-0.089440204,-0.0050706416,0.95,0.25,-0.02,73398,10042.50,0,0,0,-5.25,-7.49,2.52,0.95,0.25,-0.02

-7.776367,0.028298913,-0.032440215,-0.009070639,0.96,0.25,-0.03,73451,10042.60,0,0,0,0.70,-3.50,2.24,0.96,0.25,-0.03

-7.975586,0.009298913,-0.05944021,-0.017070642,0.97,0.25,-0.03,73504,10042.40,0,0,0,-0.63,-5.39,1.68,0.97,0.25,-0.03

-7.576172,-0.079701096,-0.12844022,-0.02107064,0.96,0.25,-0.04,73556,10042.80,0,0,0,-6.86,-10.22,1.40,0.96,0.25,-0.04

-7.975586,-0.041701086,-0.079440214,0.0019293614,0.96,0.24,-0.05,73616,10042.40,0,0,0,-4.20,-6.79,3.01,0.96,0.24,-0.05

-7.8759766,0.012298914,-0.020440215,-0.03707064,0.96,0.24,-0.03,73669,10042.50,0,0,0,-0.42,-2.66,0.28,0.96,0.24,-0.03

-8.276367,0.06629891,0.009559787,-0.04507064,0.97,0.26,-0.03,73721,10042.10,0,0,0,3.36,-0.56,-0.28,0.97,0.26,-0.03

-8.576172,0.0042989124,-0.020440215,-0.02307064,0.97,0.25,-0.03,73773,10041.80,0,0,0,-0.98,-2.66,1.26,0.97,0.25,-0.03

-8.875977,0.012298914,0.009559787,-0.05607064,0.95,0.25,-0.06,73833,10041.50,0,0,0,-0.42,-0.56,-1.05,0.95,0.25,-0.06

-8.975586,0.15529892,0.09655979,-0.05207064,0.95,0.25,-0.05,73879,10041.40,0,0,0,9.59,5.53,-0.77,0.95,0.25,-0.05

-10.175781,0.06829891,0.033559788,-0.03907064,0.96,0.25,-0.03,73930,10040.20,0,0,0,3.50,1.12,0.14,0.96,0.25,-0.03

-8.875977,-0.04570109,-0.050440215,-0.02307064,0.97,0.26,-0.03,73976,10041.50,0,0,0,-4.48,-4.76,1.26,0.97,0.26,-0.03

-9.576172,0.039298914,-0.010440214,-0.02507064,0.95,0.23,-0.02,74028,10040.80,0,0,0,1.47,-1.96,1.12,0.95,0.23,-0.02

-10.175781,0.065298915,0.0035597868,-0.009070639,0.96,0.25,-0.02,74080,10040.20,0,0,0,3.29,-0.98,2.24,0.96,0.25,-0.02

-10.576172,-0.054701086,-0.07144021,0.018929359,0.97,0.24,-0.02,74133,10039.80,0,0,0,-5.11,-6.23,4.20,0.97,0.24,-0.02

-11.175781,-0.024701089,-0.06544021,0.0039293617,0.98,0.26,-0.05,74193,10039.20,0,0,0,-3.01,-5.81,3.15,0.98,0.26,-0.05

-11.475586,0.038298912,-4.4021197E-4,-0.02007064,0.96,0.24,-0.05,74246,10038.90,0,0,0,1.40,-1.26,1.47,0.96,0.24,-0.05

-11.375977,0.019298913,5.5978633E-4,-0.01507064,0.94,0.25,-0.03,74298,10039.00,0,0,0,0.07,-1.19,1.82,0.94,0.25,-0.03

-11.776367,-0.061701085,-0.050440215,0.048929363,0.97,0.24,-0.01,74350,10038.60,0,0,0,-5.60,-4.76,6.30,0.97,0.24,-0.01

-12.076172,-0.071701095,-0.07044021,-0.00807064,0.97,0.23,-0.02,74411,10038.30,0,0,0,-6.30,-6.16,2.31,0.97,0.23,-0.02

-12.276367,0.11429891,0.041559786,-0.051070638,0.97,0.24,-0.03,74464,10038.10,0,0,0,6.72,1.68,-0.70,0.97,0.24,-0.03

-12.475586,0.062298913,0.030559788,-0.022070639,0.97,0.21,-0.02,74515,10037.90,0,0,0,3.08,0.91,1.33,0.97,0.21,-0.02

-12.576172,0.0052989125,-0.024440212,-0.051070638,0.97,0.22,-0.03,74576,10037.80,0,0,0,-0.91,-2.94,-0.70,0.97,0.22,-0.03

-12.776367,0.15729891,0.058559783,-0.04107064,0.95,0.25,-0.03,74629,10037.60,0,0,0,9.73,2.87,0.00,0.95,0.25,-0.03

-12.576172,-0.002701087,-0.031440213,-0.0040706396,0.96,0.26,-0.01,74681,10037.80,0,0,0,-1.47,-3.43,2.59,0.96,0.26,-0.01

-12.475586,-0.06370108,-0.07444021,-0.017070642,0.96,0.24,-0.02,74734,10037.90,0,0,0,-5.74,-6.44,1.68,0.96,0.24,-0.02

-12.276367,0.10729891,0.0075597875,-0.080070645,0.96,0.23,-0.02,74786,10038.10,0,0,0,6.23,-0.70,-2.73,0.96,0.23,-0.02

-12.375977,0.010298912,-0.032440215,-0.04007064,0.96,0.22,-0.02,74846,10038.00,0,0,0,-0.56,-3.50,0.07,0.96,0.22,-0.02

-12.576172,-0.1027011,-0.09244021,0.014929362,0.97,0.23,-0.02,74898,10037.80,0,0,0,-8.47,-7.70,3.92,0.97,0.23,-0.02

-12.475586,0.008298913,-0.046440214,-0.03207064,0.97,0.23,-0.03,74951,10037.90,0,0,0,-0.70,-4.48,0.63,0.97,0.23,-0.03

-12.076172,0.08229892,-0.0044402126,-0.082070634,0.96,0.26,-0.04,75003,10038.30,0,0,0,4.48,-1.54,-2.87,0.96,0.26,-0.04

-12.375977,0.032298915,-0.016440215,-0.03307064,0.95,0.26,-0.03,75066,10038.00,0,0,0,0.98,-2.38,0.56,0.95,0.26,-0.03

-12.475586,0.011298913,-0.045440212,-0.03807064,0.95,0.25,-0.02,75116,10037.90,0,0,0,-0.49,-4.41,0.21,0.95,0.25,-0.02

-11.975586,0.037298914,-0.045440212,-0.02707064,0.96,0.25,-0.03,75168,10038.40,0,0,0,1.33,-4.41,0.98,0.96,0.25,-0.03

-11.375977,-0.008701088,-0.05144021,-0.012070641,0.97,0.24,-0.04,75220,10039.00,0,0,0,-1.89,-4.83,2.03,0.97,0.24,-0.04

-11.875977,0.052298915,-0.0024402123,-0.05007064,0.98,0.24,-0.04,75273,10038.50,0,0,0,2.38,-1.40,-0.63,0.98,0.24,-0.04

-12.175781,0.13629891,0.045559786,-0.06907064,0.97,0.24,-0.03,75326,10038.20,0,0,0,8.26,1.96,-1.96,0.97,0.24,-0.03

-11.675781,0.051298913,5.5978633E-4,-0.04607064,0.96,0.24,-0.02,75378,10038.70,0,0,0,2.31,-1.19,-0.35,0.96,0.24,-0.02

-11.576172,-0.003701087,-0.027440215,-0.01507064,0.97,0.26,-0.03,75423,10038.80,0,0,0,-1.54,-3.15,1.82,0.97,0.26,-0.03

-10.776367,0.038298912,-0.001440214,-0.03307064,0.97,0.25,-0.03,75476,10039.60,0,0,0,1.40,-1.33,0.56,0.97,0.25,-0.03

-10.475586,0.044298913,-0.007440213,-0.04307064,0.95,0.24,-0.02,75528,10039.90,0,0,0,1.82,-1.75,-0.14,0.95,0.24,-0.02

-10.375977,-0.008701088,-0.043440215,-0.017070642,0.95,0.23,-0.03,75580,10040.00,0,0,0,-1.89,-4.27,1.68,0.95,0.23,-0.03

-9.776367,-0.0057010856,-0.04844021,-0.011070641,0.96,0.24,-0.03,75641,10040.60,0,0,0,-1.68,-4.62,2.10,0.96,0.24,-0.03

-9.675781,0.027298912,-0.04044021,-0.029070642,0.96,0.24,-0.03,75693,10040.70,0,0,0,0.63,-4.06,0.84,0.96,0.24,-0.03

-9.675781,0.0052989125,-0.05244021,-0.013070639,0.96,0.25,-0.03,75747,10040.70,0,0,0,-0.91,-4.90,1.96,0.96,0.25,-0.03

-9.375977,-0.0067010876,-0.058440216,-0.01507064,0.96,0.25,-0.04,75806,10041.00,0,0,0,-1.75,-5.32,1.82,0.96,0.25,-0.04

-9.375977,0.062298913,-0.015440213,-0.04107064,0.95,0.25,-0.04,75858,10041.00,0,0,0,3.08,-2.31,0.00,0.95,0.25,-0.04

-8.675781,0.043298915,-0.02344021,-0.014070639,0.96,0.24,-0.03,75910,10041.70,0,0,0,1.75,-2.87,1.89,0.96,0.24,-0.03

-8.175781,-0.036701087,-0.054440208,-0.0050706416,0.97,0.23,-0.04,75971,10042.20,0,0,0,-3.85,-5.04,2.52,0.97,0.23,-0.04

-8.276367,0.08229892,0.022559788,-0.05407064,0.98,0.24,-0.04,76023,10042.10,0,0,0,4.48,0.35,-0.91,0.98,0.24,-0.04

-8.175781,0.13029891,0.058559783,-0.06907064,0.97,0.24,-0.03,76076,10042.20,0,0,0,7.84,2.87,-1.96,0.97,0.24,-0.03

-7.8759766,0.014298912,-0.008440213,-0.04007064,0.95,0.24,-0.02,76128,10042.50,0,0,0,-0.28,-1.82,0.07,0.95,0.24,-0.02

-7.6757812,0.011298913,-0.024440212,-0.03407064,0.95,0.25,-0.03,76189,10042.70,0,0,0,-0.49,-2.94,0.49,0.95,0.25,-0.03

-7.6757812,0.039298914,-0.008440213,-0.03707064,0.96,0.25,-0.04,76240,10042.70,0,0,0,1.47,-1.82,0.28,0.96,0.25,-0.04

-7.576172,0.013298913,-0.019440213,-0.04107064,0.96,0.24,-0.04,76294,10042.80,0,0,0,-0.35,-2.59,0.00,0.96,0.24,-0.04

-7.1757812,0.035298914,-0.02344021,-0.029070642,0.96,0.24,-0.03,76345,10043.20,0,0,0,1.19,-2.87,0.84,0.96,0.24,-0.03

-7.475586,-0.016701087,-0.072440214,-0.02007064,0.96,0.24,-0.03,76398,10042.90,0,0,0,-2.45,-6.30,1.47,0.96,0.24,-0.03

-7.3759766,-0.032701086,-0.078440204,-0.0030706376,0.95,0.24,-0.03,76458,10043.00,0,0,0,-3.57,-6.72,2.66,0.95,0.24,-0.03

-7.1757812,0.027298912,-0.038440213,-0.009070639,0.96,0.25,-0.03,76511,10043.20,0,0,0,0.63,-3.92,2.24,0.96,0.25,-0.03

-7.3759766,0.027298912,-0.038440213,-0.02107064,0.97,0.25,-0.04,76563,10043.00,0,0,0,0.63,-3.92,1.40,0.97,0.25,-0.04

-7.276367,0.021298913,-0.03744021,-0.04207064,0.96,0.26,-0.04,76608,10043.10,0,0,0,0.21,-3.85,-0.07,0.96,0.26,-0.04

-7.276367,0.050298914,-0.005440213,-0.03307064,0.96,0.25,-0.05,76661,10043.10,0,0,0,2.24,-1.61,0.56,0.96,0.25,-0.05

-7.1757812,0.015298913,-0.013440214,-0.02307064,0.96,0.25,-0.03,76706,10043.20,0,0,0,-0.21,-2.17,1.26,0.96,0.25,-0.03

-7.576172,-0.002701087,-0.02344021,-0.03007064,0.97,0.24,-0.03,76766,10042.80,0,0,0,-1.47,-2.87,0.77,0.97,0.24,-0.03

-7.276367,0.05429891,0.021559788,-0.05907064,0.97,0.24,-0.04,76818,10043.10,0,0,0,2.52,0.28,-1.26,0.97,0.24,-0.04

-6.8759766,0.090298906,0.049559787,-0.07007064,0.96,0.24,-0.04,76871,10043.50,0,0,0,5.04,2.24,-2.03,0.96,0.24,-0.04

-7.276367,0.032298915,0.011559788,-0.03107064,0.96,0.25,-0.03,76931,10043.10,0,0,0,0.98,-0.42,0.70,0.96,0.25,-0.03

-7.475586,-0.04970109,-0.06244021,-0.0020706393,0.96,0.24,-0.04,76983,10042.90,0,0,0,-4.76,-5.60,2.73,0.96,0.24,-0.04

-7.8759766,-0.002701087,-0.039440215,-0.04307064,0.96,0.24,-0.05,77036,10042.50,0,0,0,-1.47,-3.99,-0.14,0.96,0.24,-0.05

-7.776367,0.089298904,0.026559787,-0.04707064,0.95,0.24,-0.04,77096,10042.60,0,0,0,4.97,0.63,-0.42,0.95,0.24,-0.04

-7.6757812,-0.010701086,-0.04044021,-0.011070641,0.96,0.24,-0.01,77148,10042.70,0,0,0,-2.03,-4.06,2.10,0.96,0.24,-0.01

-7.8759766,-0.06070109,-0.0994402,0.010929361,0.97,0.25,-0.03,77200,10042.50,0,0,0,-5.53,-8.19,3.64,0.97,0.25,-0.03

