Pressure_Rel,GyroX_Rel,GyroY_Rel,GyroZ_Rel,AccX_Rel,AccY_Rel,AccZ_Rel,Timestamp,Pressure_abs,HeartRate,Oxygen,Status,GyroX,GyroY,GyroZ,AccX,AccY,AccZ
0.0,0.0,0.0,0.0,0.0,0.0,0.0,2190,9891.70,0,0,165,-0.35,-0.35,0.28,0.38,0.93,-0.14
0.0,0.0,0.0,0.0,0.0,0.0,0.0,2199,9891.70,0,0,0,-0.14,-0.35,0.21,0.38,0.93,-0.14
0.0,0.0,0.0,0.0,0.0,0.0,0.0,2213,9892.60,0,0,165,0.00,-0.42,0.28,0.38,0.92,-0.14
0.0,0.0,0.0,0.0,0.0,0.0,0.0,2228,9891.70,0,0,0,-0.28,-0.35,0.56,0.38,0.92,-0.13
0.0,0.0,0.0,0.0,0.0,0.0,0.0,2235,9892.60,0,0,165,-0.63,-0.28,0.77,0.38,0.92,-0.13
0.0,0.0,0.0,0.0,0.0,0.0,0.0,2250,9892.60,0,0,0,-0.42,-0.21,0.84,0.38,0.93,-0.14
0.0,0.0,0.0,0.0,0.0,0.0,0.0,2265,9892.60,0,0,165,-0.21,-0.35,0.49,0.38,0.93,-0.14
0.0,0.0,0.0,0.0,0.0,0.0,0.0,2272,9892.60,0,0,0,-0.07,-0.35,0.28,0.38,0.92,-0.14
0.0,0.0,0.0,0.0,0.0,0.0,0.0,2287,9891.70,0,0,165,-0.28,-0.49,0.07,0.38,0.92,-0.14
0.0,0.0,0.0,0.0,0.0,0.0,0.0,2302,9891.70,0,0,0,-0.42,-0.35,0.00,0.38,0.92,-0.14
0.0,0.0,0.0,0.0,0.0,0.0,0.0,2310,9891.70,0,0,165,-0.28,-0.28,0.56,0.38,0.93,-0.14
0.0,0.0,0.0,0.0,0.0,0.0,0.0,2325,9891.70,0,0,0,-0.42,-0.21,0.98,0.38,0.92,-0.14
0.0,0.0,0.0,0.0,0.0,0.0,0.0,2340,9891.70,0,0,165,-0.42,-0.28,0.84,0.38,0.92,-0.13
0.0,0.0,0.0,0.0,0.0,0.0,0.0,2347,9891.70,0,0,0,-0.42,-0.28,0.49,0.38,0.92,-0.13
0.0,0.0,0.0,0.0,0.0,0.0,0.0,2363,9891.70,0,0,165,-0.21,-0.42,0.07,0.38,0.92,-0.13
0.0,0.0,0.0,0.0,0.0,0.0,0.0,2378,9890.70,0,0,0,-0.07,-0.56,-0.07,0.38,0.92,-0.13
0.0,0.0,0.0,0.0,0.0,0.0,0.0,2385,9893.00,0,0,165,-0.07,-0.42,0.07,0.38,0.92,-0.13
0.0,0.0,0.0,0.0,0.0,0.0,0.0,2400,9891.70,0,0,0,-0.35,-0.35,0.28,0.38,0.92,-0.14
0.0,0.0,0.0,0.0,0.0,0.0,0.0,2416,9891.70,0,0,165,-0.35,-0.07,0.84,0.38,0.92,-0.14
0.0,0.0,0.0,0.0,0.0,0.0,0.0,2422,9890.70,0,0,0,-0.42,-0.21,1.12,0.38,0.92,-0.14
0.0,0.0,0.0,0.0,0.0,0.0,0.0,2437,9890.70,0,0,165,-0.49,-0.28,0.84,0.38,0.92,-0.13
0.0,0.0,0.0,0.0,0.0,0.0,0.0,2452,9891.70,0,0,0,-0.42,-0.28,0.28,0.38,0.93,-0.14
0.0,0.0,0.0,0.0,0.0,0.0,0.0,2459,9891.70,0,0,165,-0.21,-0.35,0.21,0.38,0.93,-0.14
0.0,0.0,0.0,0.0,0.0,0.0,0.0,2475,9891.70,0,0,0,-0.14,-0.35,0.42,0.38,0.92,-0.13
0.0,0.0,0.0,0.0,0.0,0.0,0.0,2491,9892.60,0,0,165,-0.28,-0.35,0.70,0.38,0.92,-0.13
0.0,0.0,0.0,0.0,0.0,0.0,0.0,2498,9892.60,0,0,0,-0.42,-0.35,0.56,0.38,0.93,-0.13
0.0,0.0,0.0,0.0,0.0,0.0,0.0,2513,9891.70,0,0,165,-0.21,-0.42,0.35,0.38,0.92,-0.13
0.0,0.0,0.0,0.0,0.0,0.0,0.0,2528,9891.70,0,0,0,0.07,-0.42,0.28,0.38,0.93,-0.13
0.0,0.0,0.0,0.0,0.0,0.0,0.0,2535,9891.70,0,0,165,0.07,-0.56,0.07,0.38,0.92,-0.13
0.0,0.0,0.0,0.0,0.0,0.0,0.0,2550,9892.60,0,0,0,-0.14,-0.49,0.14,0.38,0.92,-0.13
0.0,0.0,0.0,0.0,0.0,0.0,0.0,2565,9892.00,0,0,165,-0.28,-0.42,0.21,0.38,0.93,-0.14
0.0,0.0,0.0,0.0,0.0,0.0,0.0,2572,9892.60,0,0,0,-0.21,-0.35,0.49,0.38,0.93,-0.13
0.0,0.0,0.0,0.0,0.0,0.0,0.0,2588,9891.70,0,0,165,-0.21,-0.35,0.70,0.38,0.92,-0.13
0.0,0.0,0.0,0.0,0.0,0.0,0.0,2603,9891.70,0,0,0,-0.42,-0.35,0.70,0.38,0.92,-0.13
0.0,0.0,0.0,0.0,0.0,0.0,0.0,2613,9893.90,0,0,165,-0.21,-0.35,0.35,0.38,0.92,-0.13
0.0,0.0,0.0,0.0,0.0,0.0,0.0,2626,9891.70,0,0,0,-0.07,-0.42,0.14,0.37,0.93,-0.13
0.0,0.0,0.0,0.0,0.0,0.0,0.0,2640,9891.10,0,0,165,0.14,-0.42,0.00,0.38,0.92,-0.14
0.0,0.0,0.0,0.0,0.0,0.0,0.0,2647,9891.70,0,0,0,0.00,-0.42,0.28,0.38,0.92,-0.13
0.0,0.0,0.0,0.0,0.0,0.0,0.0,2663,9891.70,0,0,165,-0.28,-0.35,0.35,0.38,0.92,-0.13
0.0,0.0,0.0,0.0,0.0,0.0,0.0,2678,9893.00,0,0,0,-0.70,-0.21,0.84,0.37,0.93,-0.14
0.0,0.0,0.0,0.0,0.0,0.0,0.0,2685,9891.70,0,0,165,-0.63,-0.21,1.19,0.38,0.93,-0.13
0.0,0.0,0.0,0.0,0.0,0.0,0.0,2700,9893.00,0,0,0,-0.42,-0.21,1.05,0.38,0.93,-0.13
0.0,0.0,0.0,0.0,0.0,0.0,0.0,2716,9892.60,0,0,165,-0.35,-0.28,0.70,0.38,0.93,-0.14
0.0,0.0,0.0,0.0,0.0,0.0,0.0,2723,9891.70,0,0,0,-0.35,-0.49,0.28,0.38,0.93,-0.13
0.0,0.0,0.0,0.0,0.0,0.0,0.0,2738,9891.70,0,0,165,-0.07,-0.42,0.07,0.38,0.93,-0.14
0.0,0.0,0.0,0.0,0.0,0.0,0.0,2752,9890.70,0,0,0,0.35,-0.56,-0.07,0.38,0.93,-0.13
0.0,0.0,0.0,0.0,0.0,0.0,0.0,2761,9891.70,0,0,165,0.21,-0.49,0.07,0.37,0.92,-0.14
0.0,0.0,0.0,0.0,0.0,0.0,0.0,2775,9893.00,0,0,0,-0.21,-0.35,0.14,0.37,0.92,-0.13
0.0,0.0,0.0,0.0,0.0,0.0,0.0,2790,9892.00,0,0,165,-0.56,-0.21,0.56,0.38,0.92,-0.13
0.0,0.0,0.0,0.0,0.0,0.0,0.0,2797,9892.00,0,0,0,-0.91,-0.07,1.12,0.38,0.93,-0.14
0.0,0.0,0.0,0.0,0.0,0.0,0.0,2812,9891.70,0,0,165,-0.84,0.00,1.33,0.38,0.93,-0.14
0.0,0.0,0.0,0.0,0.0,0.0,0.0,2828,9892.00,0,0,0,-0.63,0.00,1.40,0.38,0.92,-0.14
0.0,0.0,0.0,0.0,0.0,0.0,0.0,2834,9891.70,0,0,165,-0.63,-0.21,0.98,0.38,0.92,-0.13
0.0,0.0,0.0,0.0,0.0,0.0,0.0,2849,9892.00,0,0,0,-0.42,-0.28,0.21,0.38,0.93,-0.13
0.0,0.0,0.0,0.0,0.0,0.0,0.0,2864,9893.00,0,0,165,-0.14,-0.56,-0.14,0.38,0.93,-0.13
0.0,0.0,0.0,0.0,0.0,0.0,0.0,2872,9892.00,0,0,0,0.28,-0.49,-0.35,0.38,0.92,-0.13
0.0,0.0,0.0,0.0,0.0,0.0,0.0,2886,9892.00,0,0,165,-0.14,-0.42,0.00,0.38,0.92,-0.14
0.0,0.0,0.0,0.0,0.0,0.0,0.0,2902,9892.00,0,0,0,-0.70,-0.21,0.56,0.37,0.92,-0.14
0.0,0.0,0.0,0.0,0.0,0.0,0.0,2910,9892.00,0,0,165,-0.84,-0.07,1.19,0.38,0.93,-0.13
0.0,0.0,0.0,0.0,0.0,0.0,0.0,2925,9893.00,0,0,0,-0.49,-0.07,1.40,0.38,0.93,-0.14
0.0,0.0,0.0,0.0,0.0,0.0,0.0,2941,9891.70,0,0,165,-0.42,-0.21,1.05,0.38,0.92,-0.13
0.0,0.0,0.0,0.0,0.0,0.0,0.0,2948,9891.70,0,0,0,-0.35,-0.35,0.28,0.38,0.92,-0.13
0.0,0.0,0.0,0.0,0.0,0.0,0.0,2964,9891.70,0,0,165,0.00,-0.49,-0.21,0.38,0.93,-0.13
0.0,0.0,0.0,0.0,0.0,0.0,0.0,2977,9892.00,0,0,0,0.49,-0.70,-0.49,0.38,0.92,-0.13
0.0,0.0,0.0,0.0,0.0,0.0,0.0,2984,9891.70,0,0,165,0.56,-0.70,-0.49,0.38,0.92,-0.13
0.0,0.0,0.0,0.0,0.0,0.0,0.0,2999,9892.60,0,0,0,0.21,-0.63,-0.49,0.37,0.92,-0.14
0.0,0.0,0.0,0.0,0.0,0.0,0.0,3016,9893.00,0,0,165,-0.14,-0.42,-0.07,0.38,0.92,-0.14
0.0,0.0,0.0,0.0,0.0,0.0,0.0,3022,9893.00,0,0,0,-0.21,-0.28,0.63,0.37,0.92,-0.13
0.0,0.0,0.0,0.0,0.0,0.0,0.0,3037,9892.00,0,0,165,-0.28,-0.21,1.26,0.38,0.92,-0.14
0.0,0.0,0.0,0.0,0.0,0.0,0.0,3052,9892.60,0,0,0,-0.56,-0.14,1.54,0.38,0.92,-0.13
0.0,0.0,0.0,0.0,0.0,0.0,0.0,3061,9892.00,0,0,165,-0.77,-0.14,1.33,0.38,0.92,-0.13
0.0,0.0,0.0,0.0,0.0,0.0,0.0,3076,9892.00,0,0,0,-0.42,-0.42,0.70,0.38,0.93,-0.13
0.0,0.0,0.0,0.0,0.0,0.0,0.0,3091,9892.00,0,0,165,0.14,-0.49,-0.07,0.38,0.93,-0.13
0.0,0.0,0.0,0.0,0.0,0.0,0.0,3100,9893.00,0,0,0,0.42,-0.77,-0.63,0.38,0.92,-0.14
0.0,0.0,0.0,0.0,0.0,0.0,0.0,3113,9893.00,0,0,165,0.28,-0.70,-0.77,0.38,0.92,-0.13
0.0,0.0,0.0,0.0,0.0,0.0,0.0,3127,9893.00,0,0,0,17.85,-0.56,-0.35,0.38,0.93,-0.13
0.0,0.0,0.0,0.0,0.0,0.0,0.0,3134,9891.70,0,0,165,-0.14,-0.28,0.49,0.38,0.92,-0.14
0.0,0.0,0.0,0.0,0.0,0.0,0.0,3151,9893.00,0,0,0,-0.42,-0.07,1.47,0.38,0.92,-0.14
0.0,0.0,0.0,0.0,0.0,0.0,0.0,3165,9892.00,0,0,165,-0.91,-0.07,1.61,0.38,0.92,-0.14
0.0,0.0,0.0,0.0,0.0,0.0,0.0,3172,9893.00,0,0,0,-0.91,-0.07,1.05,0.38,0.92,-0.13
0.0,0.0,0.0,0.0,0.0,0.0,0.0,3188,9892.00,0,0,165,-0.42,-0.28,0.49,0.38,0.92,-0.13
0.0,0.0,0.0,0.0,0.0,0.0,0.0,3203,9892.00,0,0,0,0.07,-0.49,-0.07,0.38,0.92,-0.14
0.0,0.0,0.0,0.0,0.0,0.0,0.0,3210,9892.00,0,0,165,0.00,-0.56,-0.63,0.38,0.92,-0.13
0.0,0.0,0.0,0.0,0.0,0.0,0.0,3225,9892.00,0,0,0,-0.07,-0.56,-0.28,0.38,0.92,-0.14
0.0,0.0,0.0,0.0,0.0,0.0,0.0,3244,9891.70,0,0,165,-0.14,-0.35,0.35,0.37,0.93,-0.13
0.0,0.0,0.0,0.0,0.0,0.0,0.0,3248,9893.00,0,0,0,-0.21,-0.21,0.91,0.38,0.92,-0.14
0.0,0.0,0.0,0.0,0.0,0.0,0.0,3262,9892.00,0,0,165,-0.63,-0.14,1.12,0.38,0.92,-0.13
0.0,0.0,0.0,0.0,0.0,0.0,0.0,3278,9892.00,0,0,0,-0.77,-0.14,0.84,0.38,0.93,-0.14
0.0,0.0,0.0,0.0,0.0,0.0,0.0,3284,9892.00,0,0,165,-0.35,-0.21,0.70,0.38,0.92,-0.13
0.0,0.0,0.0,0.0,0.0,0.0,0.0,3299,9891.70,0,0,0,0.07,-0.42,0.14,0.38,0.92,-0.13
0.0,0.0,0.0,0.0,0.0,0.0,0.0,3315,9892.00,0,0,165,0.07,-0.42,-0.07,0.38,0.92,-0.13
0.0,0.0,0.0,0.0,0.0,0.0,0.0,3323,9892.00,0,0,0,0.00,-0.49,-0.07,0.38,0.92,-0.14
0.0,0.0,0.0,0.0,0.0,0.0,0.0,3337,9892.00,0,0,165,-0.07,-0.42,0.14,0.38,0.92,-0.14
0.0,0.0,0.0,0.0,0.0,0.0,0.0,3352,9892.00,0,0,0,-0.28,-0.28,0.70,0.38,0.92,-0.14
0.0,0.0,0.0,0.0,0.0,0.0,0.0,3359,9892.00,0,0,165,-0.56,-0.21,1.12,0.38,0.92,-0.14
0.0,0.0,0.0,0.0,0.0,0.0,0.0,3374,9891.70,0,0,0,-0.98,-0.14,1.40,0.38,0.93,-0.13
0.0,0.0,0.0,0.0,0.0,0.0,0.0,3389,9892.00,0,0,165,-0.77,-0.07,1.26,0.38,0.93,-0.13
0.0,0.0,0.0,0.0,0.0,0.0,0.0,3397,9892.60,0,0,0,0.00,-0.28,0.70,0.38,0.93,-0.13
0.0,0.0,0.0,0.0,0.0,0.0,0.0,3412,9893.00,0,0,165,0.42,-0.56,-0.14,0.38,0.92,-0.13
0.0,0.0,0.0,0.0,0.0,0.0,0.0,3428,9893.00,0,0,0,0.49,-0.77,-0.98,0.38,0.92,-0.13
0.0,0.0,0.0,0.0,0.0,0.0,0.0,3435,9892.00,0,0,165,0.63,-0.77,-1.19,0.38,0.93,-0.14
0.0,0.0,0.0,0.0,0.0,0.0,0.0,3450,9893.00,0,0,0,0.42,-0.56,-0.07,0.38,0.92,-0.14
0.0,0.0,0.0,0.0,0.0,0.0,0.0,3465,9893.00,0,0,165,-0.07,-0.28,0.70,0.38,0.92,-0.14
0.0,0.0,0.0,0.0,0.0,0.0,0.0,3472,9891.70,0,0,0,-0.63,-0.07,1.40,0.38,0.92,-0.14
0.0,0.0,0.0,0.0,0.0,0.0,0.0,3487,9891.70,0,0,165,-0.77,-0.07,1.33,0.38,0.92,-0.14
0.0,0.0,0.0,0.0,0.0,0.0,0.0,3502,9892.00,0,0,0,-0.42,-0.14,0.77,0.38,0.92,-0.13
0.0,0.0,0.0,0.0,0.0,0.0,0.0,3509,9892.00,0,0,165,0.28,-0.49,-0.07,0.38,0.92,-0.13
0.0,0.0,0.0,0.0,0.0,0.0,0.0,3526,9892.00,0,0,0,0.14,-0.63,-0.56,0.38,0.92,-0.14
0.0,0.0,0.0,0.0,0.0,0.0,0.0,3540,9892.00,0,0,165,-0.14,-0.56,-0.42,0.38,0.92,-0.14
0.0,0.0,0.0,0.0,0.0,0.0,0.0,3549,9892.00,0,0,0,-0.28,-0.35,0.21,0.38,0.92,-0.14
0.0,0.0,0.0,0.0,0.0,0.0,0.0,3563,9892.00,0,0,165,-0.35,-0.21,0.77,0.38,0.92,-0.13
0.0,0.0,0.0,0.0,0.0,0.0,0.0,3577,9892.00,0,0,0,-0.77,-0.14,0.98,0.38,0.92,-0.14
0.0,0.0,0.0,0.0,0.0,0.0,0.0,3584,9892.00,0,0,165,-1.05,0.00,0.98,0.38,0.92,-0.13
0.0,0.0,0.0,0.0,0.0,0.0,0.0,3600,9892.00,0,0,0,-0.91,0.00,0.84,0.38,0.93,-0.14
0.0,0.0,0.0,0.0,0.0,0.0,0.0,3614,9891.10,0,0,165,-0.49,-0.14,0.84,0.38,0.93,-0.13
0.0,0.0,0.0,0.0,0.0,0.0,0.0,3622,9893.00,0,0,0,-0.49,-0.21,0.63,0.38,0.92,-0.13
0.0,0.0,0.0,0.0,0.0,0.0,0.0,3637,9892.00,0,0,165,-0.63,-0.28,0.28,0.38,0.92,-0.13
0.0,0.0,0.0,0.0,0.0,0.0,0.0,3653,9892.00,0,0,0,-0.35,-0.35,0.14,0.38,0.92,-0.13
0.0,0.0,0.0,0.0,0.0,0.0,0.0,3659,9892.00,0,0,165,-0.42,-0.35,0.21,0.38,0.93,-0.13
0.0,0.0,0.0,0.0,0.0,0.0,0.0,3674,9892.00,0,0,0,-0.14,-0.35,0.42,0.38,0.92,-0.13
0.0,0.0,0.0,0.0,0.0,0.0,0.0,3689,9892.00,0,0,165,-0.42,-0.28,0.56,0.38,0.92,-0.13
0.0,0.0,0.0,0.0,0.0,0.0,0.0,3698,9893.00,0,0,0,-0.42,-0.14,0.77,0.38,0.92,-0.13
0.0,0.0,0.0,0.0,0.0,0.0,0.0,3712,9893.00,0,0,165,-0.35,-0.14,0.63,0.38,0.92,-0.14
0.0,0.0,0.0,0.0,0.0,0.0,0.0,3727,9893.00,0,0,0,-0.49,-0.35,0.14,0.38,0.93,-0.13
0.0,0.0,0.0,0.0,0.0,0.0,0.0,3735,9892.00,0,0,165,-0.35,-0.42,0.28,0.38,0.93,-0.13
0.0,0.0,0.0,0.0,0.0,0.0,0.0,3749,9892.00,0,0,0,0.00,-0.42,0.21,0.38,0.93,-0.13
0.0,0.0,0.0,0.0,0.0,0.0,0.0,3765,9892.00,0,0,165,0.00,-0.49,0.35,0.38,0.92,-0.13
0.6015625,-4.953288E-4,9.003072E-4,0.0038255448,0.38,0.92,-0.13,7784,9893.00,0,0,165,-0.28,-0.28,0.70,0.38,0.92,-0.13
-0.3984375,-0.0014953285,9.003072E-4,0.0038255448,0.38,0.92,-0.13,7799,9892.00,0,0,0,-0.35,-0.28,0.70,0.38,0.92,-0.13
-0.3984375,-4.953288E-4,9.003072E-4,0.0018255454,0.38,0.92,-0.13,7814,9892.00,0,0,165,-0.28,-0.28,0.56,0.38,0.92,-0.13
-0.3984375,5.046716E-4,-9.9692494E-5,-0.0021744547,0.38,0.93,-0.13,7821,9892.00,0,0,0,-0.21,-0.35,0.28,0.38,0.93,-0.13
0.6015625,0.0015046713,-0.0010996922,-0.004174455,0.38,0.92,-0.13,7838,9893.00,0,0,165,-0.14,-0.42,0.14,0.38,0.92,-0.13
-1.2988281,5.046716E-4,-0.0010996922,-0.0021744547,0.38,0.93,-0.14,7851,9891.10,0,0,0,-0.21,-0.42,0.28,0.38,0.93,-0.14
-0.3984375,-4.953288E-4,-9.9692494E-5,8.255453E-4,0.38,0.92,-0.13,7859,9892.00,0,0,165,-0.28,-0.35,0.49,0.38,0.92,-0.13
0.6015625,0.0015046713,-9.9692494E-5,0.0038255448,0.38,0.92,-0.13,7874,9893.00,0,0,0,-0.14,-0.35,0.70,0.38,0.92,-0.13
-0.3984375,5.046716E-4,0.0019003076,0.0028255447,0.38,0.92,-0.13,7889,9892.00,0,0,165,-0.21,-0.21,0.63,0.38,0.92,-0.13
-0.3984375,-0.0024953282,-0.0010996922,8.255453E-4,0.38,0.93,-0.13,7897,9892.00,0,0,0,-0.42,-0.42,0.49,0.38,0.93,-0.13
0.6015625,5.046716E-4,-9.9692494E-5,-0.001174455,0.38,0.93,-0.13,7914,9893.00,0,0,165,-0.21,-0.35,0.35,0.38,0.93,-0.13
1.5019531,0.0045046713,-0.0020996928,-0.0031744551,0.38,0.93,-0.13,7928,9893.90,0,0,0,0.07,-0.49,0.21,0.38,0.93,-0.13
0.6015625,0.0055046715,-0.0010996922,-0.0031744551,0.38,0.92,-0.14,7935,9893.00,0,0,165,0.14,-0.42,0.21,0.38,0.92,-0.14
-0.3984375,0.0015046713,-0.0010996922,-0.0021744547,0.38,0.92,-0.13,7949,9892.00,0,0,0,-0.14,-0.42,0.28,0.38,0.92,-0.13
0.6015625,-0.0014953285,-0.0010996922,-0.001174455,0.38,0.93,-0.13,7975,9893.00,0,0,165,-0.35,-0.42,0.35,0.38,0.93,-0.13
-0.3984375,-0.0024953282,9.003072E-4,0.0038255448,0.38,0.92,-0.14,7981,9892.00,0,0,0,-0.42,-0.28,0.70,0.38,0.92,-0.14
-0.3984375,-0.0024953282,0.0029003073,0.0058255442,0.38,0.92,-0.13,7987,9892.00,0,0,165,-0.42,-0.14,0.84,0.38,0.92,-0.13
0.6015625,-0.004495329,0.0019003076,0.0038255448,0.38,0.92,-0.13,8002,9893.00,0,0,0,-0.56,-0.21,0.70,0.38,0.92,-0.13
0.6015625,-0.004495329,9.003072E-4,0.0028255447,0.38,0.92,-0.13,8012,9893.00,0,0,165,-0.56,-0.28,0.63,0.38,0.92,-0.13
0.9013672,-4.953288E-4,9.003072E-4,-0.001174455,0.38,0.93,-0.13,8025,9893.30,0,0,0,-0.28,-0.28,0.35,0.38,0.93,-0.13
0.6015625,0.0025046715,-0.0010996922,-0.0031744551,0.38,0.93,-0.13,8039,9893.00,0,0,165,-0.07,-0.42,0.21,0.38,0.93,-0.13
0.6015625,0.0035046714,-9.9692494E-5,-0.004174455,0.38,0.92,-0.13,8047,9893.00,0,0,0,0.00,-0.35,0.14,0.38,0.92,-0.13
0.6015625,-4.953288E-4,-9.9692494E-5,-1.7445534E-4,0.38,0.93,-0.13,8064,9893.00,0,0,165,-0.28,-0.35,0.42,0.38,0.93,-0.13
0.6015625,-0.0024953282,9.003072E-4,0.0058255442,0.38,0.93,-0.14,8081,9893.00,0,0,0,-0.42,-0.28,0.84,0.38,0.93,-0.14
-0.3984375,-0.0024953282,0.0019003076,0.007825546,0.38,0.92,-0.13,8086,9892.00,0,0,165,-0.42,-0.21,0.98,0.38,0.92,-0.13
0.9013672,-0.0014953285,0.0019003076,0.0018255454,0.38,0.93,-0.13,8100,9893.30,0,0,0,-0.35,-0.21,0.56,0.38,0.93,-0.13
0.6015625,0.0015046713,-9.9692494E-5,-1.7445534E-4,0.38,0.93,-0.13,8115,9893.00,0,0,165,-0.14,-0.35,0.42,0.38,0.93,-0.13
0.6015625,0.0025046715,-0.0020996928,-0.26217446,0.38,0.93,-0.13,8122,9893.00,0,0,0,-0.07,-0.49,-17.92,0.38,0.93,-0.13
-0.3984375,0.0025046715,-0.003099693,-0.008174455,0.38,0.93,-0.13,8137,9892.00,0,0,165,-0.07,-0.56,-0.14,0.38,0.93,-0.13
0.6015625,-0.25249535,-0.003099693,-0.006174455,0.38,0.92,-0.13,8152,9893.00,0,0,0,-17.92,-0.56,0.00,0.38,0.92,-0.13
0.6015625,0.0015046713,-0.0020996928,-0.001174455,0.38,0.92,-0.14,8159,9893.00,0,0,165,-0.14,-0.49,0.35,0.38,0.92,-0.14
-0.3984375,5.046716E-4,-0.0010996922,0.004825545,0.38,0.92,-0.13,8174,9892.00,0,0,0,-0.21,-0.42,0.77,0.38,0.92,-0.13
-0.3984375,-0.0014953285,9.003072E-4,0.008825544,0.38,0.92,-0.13,8189,9892.00,0,0,165,-0.35,-0.28,1.05,0.38,0.92,-0.13
-0.3984375,-0.004495329,0.0019003076,0.007825546,0.38,0.92,-0.13,8198,9892.00,0,0,0,-0.56,-0.21,0.98,0.38,0.92,-0.13
0.6015625,-0.004495329,9.003072E-4,0.0018255454,0.38,0.93,-0.13,8212,9893.00,0,0,165,-0.56,-0.28,0.56,0.38,0.93,-0.13
-0.3984375,0.0025046715,-0.0020996928,-0.0031744551,0.38,0.93,-0.13,8226,9892.00,0,0,0,-0.07,-0.49,0.21,0.38,0.93,-0.13
0.6015625,0.0055046715,-0.003099693,-0.010174455,0.38,0.93,-0.13,8234,9893.00,0,0,165,0.14,-0.56,-0.28,0.38,0.93,-0.13
-0.3984375,0.0055046715,-0.0020996928,-0.010174455,0.38,0.92,-0.13,8250,9892.00,0,0,0,0.14,-0.49,-0.28,0.38,0.92,-0.13
-0.3984375,0.0025046715,-0.0020996928,-0.007174455,0.38,0.92,-0.14,8265,9892.00,0,0,165,-0.07,-0.49,-0.07,0.38,0.92,-0.14
0.6015625,-4.953288E-4,9.003072E-4,0.0028255447,0.38,0.92,-0.14,8272,9893.00,0,0,0,-0.28,-0.28,0.63,0.38,0.92,-0.14
-0.3984375,-0.0034953288,0.0019003076,0.010825546,0.38,0.93,-0.13,8287,9892.00,0,0,165,-0.49,-0.21,1.19,0.38,0.93,-0.13
0.6015625,-0.004495329,0.0029003073,0.010825546,0.38,0.93,-0.13,8302,9893.00,0,0,0,-0.56,-0.14,1.19,0.38,0.93,-0.13
-0.3984375,-0.0034953288,0.0019003076,0.0038255448,0.38,0.92,-0.13,8314,9892.00,0,0,165,-0.49,-0.21,0.70,0.38,0.92,-0.13
0.9013672,-0.0014953285,-0.0010996922,-0.0021744547,0.38,0.92,-0.14,8324,9893.30,0,0,0,-0.35,-0.42,0.28,0.38,0.92,-0.14
0.6015625,0.0025046715,-0.0020996928,-0.008174455,0.38,0.93,-0.13,8340,9893.00,0,0,165,-0.07,-0.49,-0.14,0.38,0.93,-0.13
0.6015625,0.0035046714,-0.0020996928,-0.008174455,0.38,0.92,-0.14,8347,9893.00,0,0,0,0.00,-0.49,-0.14,0.38,0.92,-0.14
-0.3984375,5.046716E-4,-0.0010996922,-0.001174455,0.38,0.92,-0.14,8362,9892.00,0,0,165,-0.21,-0.42,0.35,0.38,0.92,-0.14
0.6015625,-0.0034953288,0.0019003076,0.004825545,0.38,0.93,-0.14,8376,9893.00,0,0,0,-0.49,-0.21,0.77,0.38,0.93,-0.14
-0.3984375,-0.004495329,0.0039003072,0.007825546,0.38,0.92,-0.14,8385,9892.00,0,0,165,-0.56,-0.07,0.98,0.38,0.92,-0.14
0.6015625,-0.0024953282,0.0019003076,0.004825545,0.38,0.93,-0.13,8399,9893.00,0,0,0,-0.42,-0.21,0.77,0.38,0.93,-0.13
-0.3984375,-0.0024953282,9.003072E-4,-0.001174455,0.38,0.92,-0.13,8415,9892.00,0,0,165,-0.42,-0.28,0.35,0.38,0.92,-0.13
0.6015625,0.0015046713,-0.0020996928,-0.005174455,0.38,0.93,-0.13,8422,9893.00,0,0,0,-0.14,-0.49,0.07,0.38,0.93,-0.13
-0.3984375,0.0035046714,-0.0020996928,-0.008174455,0.38,0.93,-0.14,8436,9892.00,0,0,165,0.00,-0.49,-0.14,0.38,0.93,-0.14
0.6015625,0.0015046713,-9.9692494E-5,-0.005174455,0.38,0.92,-0.13,8452,9893.00,0,0,0,-0.14,-0.35,0.07,0.38,0.92,-0.13
-0.3984375,-0.0014953285,9.003072E-4,0.0038255448,0.38,0.92,-0.13,8459,9892.00,0,0,165,-0.35,-0.28,0.70,0.38,0.92,-0.13
0.6015625,-0.004495329,0.0019003076,0.0058255442,0.38,0.92,-0.13,8475,9893.00,0,0,0,-0.56,-0.21,0.84,0.38,0.92,-0.13
0.6015625,-0.0054953285,0.0019003076,0.009825546,0.38,0.93,-0.13,8489,9893.00,0,0,165,-0.63,-0.21,1.12,0.38,0.93,-0.13
0.6015625,-0.0034953288,0.0019003076,0.0068255453,0.38,0.92,-0.13,8497,9893.00,0,0,0,-0.49,-0.21,0.91,0.38,0.92,-0.13
0.6015625,-4.953288E-4,9.003072E-4,-1.7445534E-4,0.38,0.92,-0.13,8512,9893.00,0,0,165,-0.28,-0.28,0.42,0.38,0.92,-0.13
1.5019531,0.0015046713,-0.0020996928,-0.006174455,0.38,0.92,-0.14,8527,9893.90,0,0,0,-0.14,-0.49,0.00,0.38,0.92,-0.14
-0.3984375,0.0045046713,-0.0020996928,-0.005174455,0.38,0.93,-0.13,8534,9892.00,0,0,165,0.07,-0.49,0.07,0.38,0.93,-0.13
0.6015625,0.0035046714,-0.0010996922,-0.004174455,0.38,0.92,-0.13,8550,9893.00,0,0,0,0.00,-0.42,0.14,0.38,0.92,-0.13
0.6015625,-4.953288E-4,9.003072E-4,8.255453E-4,0.38,0.93,-0.13,8564,9893.00,0,0,165,-0.28,-0.28,0.49,0.38,0.93,-0.13
0.6015625,-0.0034953288,0.0019003076,0.0058255442,0.38,0.92,-0.13,8571,9893.00,0,0,0,-0.49,-0.21,0.84,0.38,0.92,-0.13
0.6015625,-0.004495329,0.0019003076,0.007825546,0.38,0.93,-0.13,8586,9893.00,0,0,165,-0.56,-0.21,0.98,0.38,0.93,-0.13
-0.3984375,-0.0024953282,0.0019003076,0.0038255448,0.38,0.93,-0.13,8601,9892.00,0,0,0,-0.42,-0.21,0.70,0.38,0.93,-0.13
0.9013672,5.046716E-4,-9.9692494E-5,-0.001174455,0.38,0.93,-0.13,8609,9893.30,0,0,165,-0.21,-0.35,0.35,0.38,0.93,-0.13
0.6015625,0.0045046713,-0.003099693,-0.006174455,0.38,0.93,-0.13,8625,9893.00,0,0,0,0.07,-0.56,0.00,0.38,0.93,-0.13
-0.3984375,0.007504672,-0.004099692,-0.010174455,0.38,0.92,-0.13,8639,9892.00,0,0,165,0.28,-0.63,-0.28,0.38,0.92,-0.13
0.6015625,0.0055046715,-0.0020996928,-0.009174455,0.37,0.92,-0.14,8648,9893.00,0,0,0,0.14,-0.49,-0.21,0.37,0.92,-0.14
0.6015625,0.0015046713,-9.9692494E-5,-0.005174455,0.38,0.92,-0.14,8662,9893.00,0,0,165,-0.14,-0.35,0.07,0.38,0.92,-0.14
-0.3984375,-0.0034953288,9.003072E-4,0.0018255454,0.38,0.93,-0.14,8677,9892.00,0,0,0,-0.49,-0.28,0.56,0.38,0.93,-0.14
0.6015625,-0.004495329,0.0049003074,0.007825546,0.38,0.93,-0.13,8684,9893.00,0,0,165,-0.56,0.00,0.98,0.38,0.93,-0.13
-0.3984375,-0.004495329,0.0039003072,0.009825546,0.38,0.93,-0.13,8699,9892.00,0,0,0,-0.56,-0.07,1.12,0.38,0.93,-0.13
0.6015625,-0.0014953285,0.0029003073,0.0068255453,0.38,0.93,-0.13,8715,9893.00,0,0,165,-0.35,-0.14,0.91,0.38,0.93,-0.13
0.6015625,0.0045046713,-0.0010996922,-0.004174455,0.38,0.92,-0.13,8723,9893.00,0,0,0,0.07,-0.42,0.14,0.38,0.92,-0.13
0.6015625,0.009504671,-0.0050996924,-0.013174456,0.38,0.92,-0.14,8737,9893.00,0,0,165,0.42,-0.70,-0.49,0.38,0.92,-0.14
-0.3984375,0.010504671,-0.0060996925,-0.018174455,0.38,0.92,-0.13,8752,9892.00,0,0,0,0.49,-0.77,-0.84,0.38,0.92,-0.13
0.6015625,0.0025046715,-0.0010996922,-0.014174456,0.38,0.92,-0.14,8758,9893.00,0,0,165,-0.07,-0.42,-0.56,0.38,0.92,-0.14
0.9013672,5.046716E-4,0.0039003072,0.007825546,0.38,0.92,-0.14,8774,9893.30,0,0,0,-0.21,-0.07,0.98,0.38,0.92,-0.14
-0.3984375,-0.007495329,0.0069003077,0.018825546,0.38,0.92,-0.14,8789,9892.00,0,0,165,-0.77,0.14,1.75,0.38,0.92,-0.14
0.6015625,-0.019495329,0.008900307,0.023825545,0.38,0.92,-0.13,8797,9893.00,0,0,0,-1.61,0.28,2.10,0.38,0.92,-0.13
-0.3984375,-0.02149533,0.008900307,0.023825545,0.38,0.93,-0.13,8812,9892.00,0,0,165,-1.75,0.28,2.10,0.38,0.93,-0.13
-0.3984375,-0.016495328,0.0069003077,0.019825546,0.38,0.93,-0.13,8827,9892.00,0,0,0,-1.40,0.14,1.82,0.38,0.93,-0.13
-0.3984375,-0.0054953285,0.0019003076,0.008825544,0.39,0.93,-0.13,8834,9892.00,0,0,165,-0.63,-0.21,1.05,0.39,0.93,-0.13
0.6015625,-0.0014953285,-0.003099693,-0.004174455,0.38,0.93,-0.13,8849,9893.00,0,0,0,-0.35,-0.56,0.14,0.38,0.93,-0.13
-0.3984375,-0.0024953282,-0.0050996924,-0.015174454,0.38,0.93,-0.13,8863,9892.00,0,0,165,-0.42,-0.70,-0.63,0.38,0.93,-0.13
0.6015625,-0.0024953282,-0.0050996924,-0.016174454,0.38,0.93,-0.13,8871,9893.00,0,0,0,-0.42,-0.70,-0.70,0.38,0.93,-0.13
0.6015625,0.0045046713,-0.003099693,-0.005174455,0.38,0.93,-0.13,8886,9893.00,0,0,165,0.07,-0.56,0.07,0.38,0.93,-0.13
0.6015625,0.0025046715,-9.9692494E-5,0.004825545,0.38,0.93,-0.13,8901,9893.00,0,0,0,-0.07,-0.35,0.77,0.38,0.93,-0.13
0.6015625,-0.0054953285,0.0029003073,0.008825544,0.38,0.92,-0.13,8909,9893.00,0,0,165,-0.63,-0.14,1.05,0.38,0.92,-0.13
-0.3984375,-0.0064953286,0.0029003073,0.0068255453,0.38,0.93,-0.13,8924,9892.00,0,0,0,-0.70,-0.14,0.91,0.38,0.93,-0.13
-0.3984375,0.0025046715,-0.0010996922,-1.7445534E-4,0.38,0.93,-0.13,8939,9892.00,0,0,165,-0.07,-0.42,0.42,0.38,0.93,-0.13
0.6015625,0.016504671,-0.0050996924,-0.007174455,0.38,0.93,-0.13,8947,9893.00,0,0,0,0.91,-0.70,-0.07,0.38,0.93,-0.13
-0.3984375,0.020504672,-0.008099693,-0.020174455,0.38,0.92,-0.13,8961,9892.00,0,0,165,1.19,-0.91,-0.98,0.38,0.92,-0.13
-0.3984375,0.016504671,-0.009099693,-0.023174455,0.38,0.92,-0.13,8976,9892.00,0,0,0,0.91,-0.98,-1.19,0.38,0.92,-0.13
0.6015625,0.01550467,-0.009099693,-0.020174455,0.38,0.92,-0.13,8983,9893.00,0,0,165,0.84,-0.98,-0.98,0.38,0.92,-0.13
0.6015625,0.013504671,-0.007099692,-0.006174455,0.37,0.92,-0.14,8999,9893.00,0,0,0,0.70,-0.84,0.00,0.37,0.92,-0.14
-0.3984375,0.009504671,-0.0020996928,0.004825545,0.37,0.92,-0.14,9014,9892.00,0,0,165,0.42,-0.49,0.77,0.37,0.92,-0.14
0.6015625,0.0015046713,-9.9692494E-5,0.010825546,0.38,0.92,-0.14,9021,9893.00,0,0,0,-0.14,-0.35,1.19,0.38,0.92,-0.14
0.6015625,-0.0034953288,9.003072E-4,0.010825546,0.38,0.93,-0.14,9037,9893.00,0,0,165,-0.49,-0.28,1.19,0.38,0.93,-0.14
0.6015625,-4.953288E-4,-9.9692494E-5,0.0068255453,0.38,0.93,-0.13,9052,9893.00,0,0,0,-0.28,-0.35,0.91,0.38,0.93,-0.13
0.6015625,0.007504672,-0.003099693,0.0018255454,0.38,0.93,-0.14,9059,9893.00,0,0,165,0.28,-0.56,0.56,0.38,0.93,-0.14
-0.3984375,0.008504671,-0.004099692,-0.010174455,0.38,0.93,-0.14,9073,9892.00,0,0,0,0.35,-0.63,-0.28,0.38,0.93,-0.14
0.6015625,0.009504671,-0.0050996924,-0.013174456,0.38,0.92,-0.14,9089,9893.00,0,0,165,0.42,-0.70,-0.49,0.38,0.92,-0.14
0.9013672,0.010504671,-0.0050996924,-0.010174455,0.38,0.93,-0.13,9096,9893.30,0,0,0,0.49,-0.70,-0.28,0.38,0.93,-0.13
0.6015625,0.009504671,-0.0050996924,-0.009174455,0.38,0.92,-0.14,9111,9893.00,0,0,165,0.42,-0.70,-0.21,0.38,0.92,-0.14
-0.3984375,0.007504672,-0.0020996928,0.0018255454,0.38,0.92,-0.14,9127,9892.00,0,0,0,0.28,-0.49,0.56,0.38,0.92,-0.14
0.6015625,0.0025046715,-9.9692494E-5,0.0018255454,0.38,0.92,-0.14,9134,9893.00,0,0,165,-0.07,-0.35,0.56,0.38,0.92,-0.14
1.5019531,-0.0014953285,-9.9692494E-5,-0.001174455,0.38,0.92,-0.14,9149,9893.90,0,0,0,-0.35,-0.35,0.35,0.38,0.92,-0.14
0.6015625,5.046716E-4,-0.0010996922,-0.0021744547,0.38,0.92,-0.14,9164,9893.00,0,0,165,-0.21,-0.42,0.28,0.38,0.92,-0.14
0.001953125,0.0035046714,-0.0010996922,-0.006174455,0.38,0.93,-0.14,9172,9892.40,0,0,0,0.00,-0.42,0.00,0.38,0.93,-0.14
0.6015625,0.0025046715,-0.0010996922,-0.004174455,0.38,0.92,-0.14,9187,9893.00,0,0,165,-0.07,-0.42,0.14,0.38,0.92,-0.14
-0.3984375,5.046716E-4,-9.9692494E-5,-0.004174455,0.38,0.92,-0.14,9202,9892.00,0,0,0,-0.21,-0.35,0.14,0.38,0.92,-0.14
0.6015625,-4.953288E-4,9.003072E-4,-1.7445534E-4,0.38,0.92,-0.14,9209,9893.00,0,0,165,-0.28,-0.28,0.42,0.38,0.92,-0.14
-0.3984375,-0.0024953282,0.0019003076,-1.7445534E-4,0.38,0.92,-0.14,9224,9892.00,0,0,0,-0.42,-0.21,0.42,0.38,0.92,-0.14
0.6015625,-0.004495329,0.0019003076,-0.001174455,0.38,0.92,-0.14,9239,9893.00,0,0,165,-0.56,-0.21,0.35,0.38,0.92,-0.14
0.6015625,-0.0064953286,0.0029003073,0.0028255447,0.38,0.92,-0.14,9247,9893.00,0,0,0,-0.70,-0.14,0.63,0.38,0.92,-0.14
0.6015625,-0.007495329,0.0039003072,0.0068255453,0.38,0.92,-0.13,9261,9893.00,0,0,165,-0.77,-0.07,0.91,0.38,0.92,-0.13
0.6015625,-0.008495328,0.0049003074,0.012825547,0.38,0.93,-0.13,9277,9893.00,0,0,0,-0.84,0.00,1.33,0.38,0.93,-0.13
0.9013672,-0.009495329,0.0059003076,0.010825546,0.38,0.93,-0.13,9283,9893.30,0,0,165,-0.91,0.07,1.19,0.38,0.93,-0.13
0.6015625,-0.0054953285,0.0029003073,0.0038255448,0.38,0.93,-0.14,9299,9893.00,0,0,0,-0.63,-0.14,0.70,0.38,0.93,-0.14
-0.3984375,-0.0024953282,9.003072E-4,-0.0021744547,0.38,0.92,-0.13,9314,9892.00,0,0,165,-0.42,-0.28,0.28,0.38,0.92,-0.13
0.9013672,5.046716E-4,-9.9692494E-5,-0.008174455,0.38,0.92,-0.13,9322,9893.30,0,0,0,-0.21,-0.35,-0.14,0.38,0.92,-0.13
1.5019531,-0.0014953285,-9.9692494E-5,-0.008174455,0.38,0.92,-0.14,9337,9893.90,0,0,165,-0.35,-0.35,-0.14,0.38,0.92,-0.14
-1.2988281,-0.0034953288,9.003072E-4,-1.7445534E-4,0.38,0.93,-0.14,9354,9891.10,0,0,0,-0.49,-0.28,0.42,0.38,0.93,-0.14
0.6015625,-0.007495329,0.0049003074,0.008825544,0.38,0.93,-0.14,9360,9893.00,0,0,165,-0.77,0.00,1.05,0.38,0.93,-0.14
0.6015625,-0.008495328,0.0049003074,0.016825546,0.38,0.92,-0.14,9374,9893.00,0,0,0,-0.84,0.00,1.61,0.38,0.92,-0.14
0.6015625,-0.010495329,0.0059003076,0.012825547,0.38,0.92,-0.13,9389,9893.00,0,0,165,-0.98,0.07,1.33,0.38,0.92,-0.13
0.6015625,-0.007495329,0.0019003076,0.0038255448,0.38,0.92,-0.13,9397,9893.00,0,0,0,-0.77,-0.21,0.70,0.38,0.92,-0.13
0.6015625,-4.953288E-4,-0.0010996922,-0.0031744551,0.38,0.93,-0.13,9411,9893.00,0,0,165,-0.28,-0.42,0.21,0.38,0.93,-0.13
-0.3984375,0.0055046715,-0.0020996928,-0.013174456,0.38,0.92,-0.13,9426,9892.00,0,0,0,0.14,-0.49,-0.49,0.38,0.92,-0.13
0.6015625,0.006504671,-0.003099693,-0.013174456,0.38,0.92,-0.13,9434,9893.00,0,0,165,0.21,-0.56,-0.49,0.38,0.92,-0.13
-0.3984375,0.0015046713,-0.0010996922,-0.006174455,0.37,0.93,-0.13,9450,9892.00,0,0,0,-0.14,-0.42,0.00,0.37,0.93,-0.13
0.6015625,-0.0024953282,-9.9692494E-5,0.0038255448,0.38,0.93,-0.13,9463,9893.00,0,0,165,-0.42,-0.35,0.70,0.38,0.93,-0.13
0.6015625,-0.0054953285,0.0029003073,0.012825547,0.38,0.92,-0.13,9471,9893.00,0,0,0,-0.63,-0.14,1.33,0.38,0.92,-0.13
-0.3984375,-0.0064953286,0.0039003072,0.012825547,0.38,0.92,-0.13,9486,9892.00,0,0,165,-0.70,-0.07,1.33,0.38,0.92,-0.13
-0.3984375,-0.004495329,0.0029003073,0.009825546,0.38,0.92,-0.13,9501,9892.00,0,0,0,-0.56,-0.14,1.12,0.38,0.92,-0.13
0.6015625,-0.0014953285,9.003072E-4,8.255453E-4,0.38,0.93,-0.13,9509,9893.00,0,0,165,-0.35,-0.28,0.49,0.38,0.93,-0.13
0.6015625,0.008504671,-0.004099692,-0.009174455,0.38,0.93,-0.13,9524,9893.00,0,0,0,0.35,-0.63,-0.21,0.38,0.93,-0.13
-0.3984375,0.012504671,-0.0050996924,-0.0121744545,0.38,0.92,-0.13,9538,9892.00,0,0,165,0.63,-0.70,-0.42,0.38,0.92,-0.13
0.6015625,0.008504671,-0.0050996924,-0.013174456,0.38,0.92,-0.14,9546,9893.00,0,0,0,0.35,-0.70,-0.49,0.38,0.92,-0.14
0.6015625,0.0035046714,-0.003099693,-0.008174455,0.38,0.92,-0.14,9562,9893.00,0,0,165,0.00,-0.56,-0.14,0.38,0.92,-0.14
1.5019531,5.046716E-4,9.003072E-4,0.0028255447,0.38,0.93,-0.14,9580,9893.90,0,0,0,-0.21,-0.28,0.63,0.38,0.93,-0.14
0.6015625,-0.0024953282,0.0019003076,0.009825546,0.38,0.93,-0.13,9584,9893.00,0,0,165,-0.42,-0.21,1.12,0.38,0.93,-0.13
0.6015625,-4.953288E-4,0.0019003076,0.012825547,0.38,0.92,-0.14,9599,9893.00,0,0,0,-0.28,-0.21,1.33,0.38,0.92,-0.14
-0.3984375,5.046716E-4,9.003072E-4,0.0068255453,0.38,0.92,-0.14,9614,9892.00,0,0,165,-0.21,-0.28,0.91,0.38,0.92,-0.14
0.6015625,0.0025046715,-0.0020996928,-0.006174455,0.38,0.92,-0.13,9621,9893.00,0,0,0,-0.07,-0.49,0.00,0.38,0.92,-0.13
-0.3984375,0.007504672,-0.0050996924,-0.015174454,0.38,0.93,-0.13,9636,9892.00,0,0,165,0.28,-0.70,-0.63,0.38,0.93,-0.13
0.6015625,0.010504671,-0.0050996924,-0.013174456,0.38,0.93,-0.13,9651,9893.00,0,0,0,0.49,-0.70,-0.49,0.38,0.93,-0.13
0.9013672,0.011504672,-0.003099693,-0.009174455,0.38,0.92,-0.13,9659,9893.30,0,0,165,0.56,-0.56,-0.21,0.38,0.92,-0.13
-0.3984375,0.0035046714,-0.0010996922,-1.7445534E-4,0.38,0.92,-0.13,9674,9892.00,0,0,0,0.00,-0.42,0.42,0.38,0.92,-0.13
0.6015625,-0.0014953285,-9.9692494E-5,0.0058255442,0.38,0.92,-0.14,9700,9893.00,0,0,165,-0.35,-0.35,0.84,0.38,0.92,-0.14
0.6015625,-0.004495329,0.0019003076,0.007825546,0.38,0.92,-0.13,9701,9893.00,0,0,0,-0.56,-0.21,0.98,0.38,0.92,-0.13
0.001953125,-0.0034953288,0.0029003073,0.008825544,0.38,0.93,-0.13,9712,9892.40,0,0,165,-0.49,-0.14,1.05,0.38,0.93,-0.13
-1.2988281,-0.0024953282,9.003072E-4,0.0028255447,0.38,0.92,-0.13,9728,9891.10,0,0,0,-0.42,-0.28,0.63,0.38,0.92,-0.13
0.6015625,-0.0024953282,-9.9692494E-5,-1.7445534E-4,0.38,0.92,-0.13,9734,9893.00,0,0,165,-0.42,-0.35,0.42,0.38,0.92,-0.13
-0.3984375,5.046716E-4,-0.0010996922,-0.005174455,0.38,0.93,-0.13,9750,9892.00,0,0,0,-0.21,-0.42,0.07,0.38,0.93,-0.13
0.6015625,0.0035046714,-0.0020996928,-0.006174455,0.38,0.93,-0.13,9764,9893.00,0,0,165,0.00,-0.49,0.00,0.38,0.93,-0.13
0.6015625,0.0055046715,-0.0010996922,-0.0031744551,0.38,0.92,-0.13,9771,9893.00,0,0,0,0.14,-0.42,0.21,0.38,0.92,-0.13
0.6015625,0.0015046713,-9.9692494E-5,-0.001174455,0.38,0.92,-0.14,9786,9893.00,0,0,165,-0.14,-0.35,0.35,0.38,0.92,-0.14
0.001953125,-0.0034953288,9.003072E-4,0.0018255454,0.38,0.92,-0.14,9806,9892.40,0,0,0,-0.49,-0.28,0.56,0.38,0.92,-0.14
0.6015625,-0.004495329,0.0029003073,0.008825544,0.38,0.92,-0.13,9811,9893.00,0,0,165,-0.56,-0.14,1.05,0.38,0.92,-0.13
-0.3984375,-0.0014953285,0.0019003076,0.0058255442,0.38,0.93,-0.14,9823,9892.00,0,0,0,-0.35,-0.21,0.84,0.38,0.93,-0.14
0.6015625,5.046716E-4,-9.9692494E-5,0.0018255454,0.38,0.92,-0.13,9839,9893.00,0,0,165,-0.21,-0.35,0.56,0.38,0.92,-0.13
0.6015625,5.046716E-4,-0.0010996922,-0.004174455,0.38,0.92,-0.14,9846,9893.00,0,0,0,-0.21,-0.42,0.14,0.38,0.92,-0.14
0.6015625,0.25850466,-0.0020996928,-0.011174455,0.38,0.92,-0.13,9863,9893.00,0,0,165,17.85,-0.49,-0.35,0.38,0.92,-0.13
-0.3984375,0.007504672,-0.003099693,-0.0121744545,0.38,0.92,-0.13,9877,9892.00,0,0,0,0.28,-0.56,-0.42,0.38,0.92,-0.13
0.6015625,0.0035046714,-0.003099693,-0.006174455,0.38,0.92,-0.14,9884,9893.00,0,0,165,0.00,-0.56,0.00,0.38,0.92,-0.14
0.6015625,-0.0014953285,-9.9692494E-5,-0.001174455,0.38,0.92,-0.14,9899,9893.00,0,0,0,-0.35,-0.35,0.35,0.38,0.92,-0.14
1.5019531,-0.0024953282,0.0029003073,0.008825544,0.38,0.92,-0.14,9914,9893.90,0,0,165,-0.42,-0.14,1.05,0.38,0.92,-0.14
-0.3984375,-0.0034953288,0.0029003073,0.009825546,0.38,0.92,-0.14,9921,9892.00,0,0,0,-0.49,-0.14,1.12,0.38,0.92,-0.14
-0.3984375,-0.0054953285,0.0019003076,0.007825546,0.38,0.92,-0.13,9936,9892.00,0,0,165,-0.63,-0.21,0.98,0.38,0.92,-0.13
1.5019531,-0.0034953288,9.003072E-4,-1.7445534E-4,0.38,0.92,-0.13,9952,9893.90,0,0,0,-0.49,-0.28,0.42,0.38,0.92,-0.13
-0.3984375,0.0015046713,-9.9692494E-5,-0.005174455,0.38,0.93,-0.13,9959,9892.00,0,0,165,-0.14,-0.35,0.07,0.38,0.93,-0.13
0.6015625,0.0045046713,-0.0010996922,-0.007174455,0.38,0.92,-0.13,9973,9893.00,0,0,0,0.07,-0.42,-0.07,0.38,0.92,-0.13
0.6015625,0.0035046714,-0.0020996928,-0.005174455,0.37,0.92,-0.14,9989,9893.00,0,0,165,0.00,-0.49,0.07,0.37,0.92,-0.14
0.6015625,-4.953288E-4,-9.9692494E-5,-1.7445534E-4,0.38,0.92,-0.13,9997,9893.00,0,0,0,-0.28,-0.35,0.42,0.38,0.92,-0.13
0.6015625,-0.0014953285,9.003072E-4,0.004825545,0.38,0.93,-0.14,10011,9893.00,0,0,165,-0.35,-0.28,0.77,0.38,0.93,-0.14
1.5019531,-0.0034953288,0.0019003076,0.0068255453,0.38,0.92,-0.14,10032,9893.90,0,0,0,-0.49,-0.21,0.91,0.38,0.92,-0.14
0.6015625,-0.0034953288,9.003072E-4,0.0058255442,0.38,0.92,-0.14,10037,9893.00,0,0,165,-0.49,-0.28,0.84,0.38,0.92,-0.14
0.6015625,-0.0024953282,9.003072E-4,8.255453E-4,0.38,0.93,-0.14,10049,9893.00,0,0,0,-0.42,-0.28,0.49,0.38,0.93,-0.14
0.6015625,5.046716E-4,-0.0010996922,-0.004174455,0.38,0.93,-0.13,10064,9893.00,0,0,165,-0.21,-0.42,0.14,0.38,0.93,-0.13
0.6015625,0.0015046713,-0.0010996922,-0.006174455,0.38,0.93,-0.14,10071,9893.00,0,0,0,-0.14,-0.42,0.00,0.38,0.93,-0.14
-0.3984375,0.0025046715,-0.0010996922,-0.006174455,0.38,0.92,-0.13,10086,9892.00,0,0,165,-0.07,-0.42,0.00,0.38,0.92,-0.13
-0.3984375,0.0025046715,-0.0020996928,-0.004174455,0.38,0.92,-0.13,10101,9892.00,0,0,0,-0.07,-0.49,0.14,0.38,0.92,-0.13
-0.3984375,0.0015046713,-9.9692494E-5,8.255453E-4,0.38,0.92,-0.13,10109,9892.00,0,0,165,-0.14,-0.35,0.49,0.38,0.92,-0.13
0.6015625,-4.953288E-4,9.003072E-4,0.004825545,0.37,0.92,-0.13,10124,9893.00,0,0,0,-0.28,-0.28,0.77,0.37,0.92,-0.13
0.6015625,5.046716E-4,9.003072E-4,0.0038255448,0.38,0.92,-0.14,10139,9893.00,0,0,165,-0.21,-0.28,0.70,0.38,0.92,-0.14
0.6015625,-0.0024953282,-9.9692494E-5,0.004825545,0.38,0.93,-0.13,10146,9893.00,0,0,0,-0.42,-0.35,0.77,0.38,0.93,-0.13
0.6015625,-4.953288E-4,9.003072E-4,0.0018255454,0.38,0.93,-0.13,10162,9893.00,0,0,165,-0.28,-0.28,0.56,0.38,0.93,-0.13
-1.2988281,0.0035046714,-9.9692494E-5,-0.0031744551,0.38,0.93,-0.14,10176,9891.10,0,0,0,0.00,-0.35,0.21,0.38,0.93,-0.14
0.6015625,0.0055046715,-0.003099693,-0.008174455,0.38,0.92,-0.14,10184,9893.00,0,0,165,0.14,-0.56,-0.14,0.38,0.92,-0.14
0.6015625,0.0035046714,-0.003099693,-0.008174455,0.38,0.92,-0.14,10200,9893.00,0,0,0,0.00,-0.56,-0.14,0.38,0.92,-0.14
0.6015625,0.0015046713,-0.0020996928,-0.007174455,0.38,0.92,-0.14,10214,9893.00,0,0,165,-0.14,-0.49,-0.07,0.38,0.92,-0.14
0.6015625,-4.953288E-4,9.003072E-4,-0.001174455,0.38,0.92,-0.14,10221,9893.00,0,0,0,-0.28,-0.28,0.35,0.38,0.92,-0.14
0.6015625,-0.0024953282,0.0019003076,0.007825546,0.38,0.92,-0.14,10236,9893.00,0,0,165,-0.42,-0.21,0.98,0.38,0.92,-0.14
0.6015625,-0.0054953285,0.0029003073,0.009825546,0.38,0.92,-0.13,10252,9893.00,0,0,0,-0.63,-0.14,1.12,0.38,0.92,-0.13
0.6015625,-0.0054953285,0.0019003076,0.004825545,0.38,0.92,-0.14,10259,9893.00,0,0,165,-0.63,-0.21,0.77,0.38,0.92,-0.14
0.6015625,5.046716E-4,-9.9692494E-5,-0.0021744547,0.38,0.93,-0.14,10274,9893.00,0,0,0,-0.21,-0.35,0.28,0.38,0.93,-0.14
-0.3984375,0.0025046715,-0.0010996922,-0.005174455,0.38,0.93,-0.14,10289,9892.00,0,0,165,-0.07,-0.42,0.07,0.38,0.93,-0.14
1.5019531,0.0035046714,-0.003099693,-0.006174455,0.38,0.92,-0.14,10296,9893.90,0,0,0,0.00,-0.56,0.00,0.38,0.92,-0.14
-0.3984375,0.0035046714,-0.0020996928,-0.006174455,0.38,0.92,-0.13,10311,9892.00,0,0,165,0.00,-0.49,0.00,0.38,0.92,-0.13
0.001953125,0.0035046714,-9.9692494E-5,-0.0031744551,0.38,0.92,-0.14,10326,9892.40,0,0,0,0.00,-0.35,0.21,0.38,0.92,-0.14
0.6015625,5.046716E-4,9.003072E-4,0.0028255447,0.38,0.92,-0.13,10334,9893.00,0,0,165,-0.21,-0.28,0.63,0.38,0.92,-0.13
0.6015625,-0.0024953282,0.0019003076,0.0068255453,0.38,0.92,-0.13,10349,9893.00,0,0,0,-0.42,-0.21,0.91,0.38,0.92,-0.13
1.5019531,-0.0054953285,0.0029003073,0.0068255453,0.38,0.92,-0.13,10364,9893.90,0,0,165,-0.63,-0.14,0.91,0.38,0.92,-0.13
0.6015625,-0.004495329,0.0019003076,0.0028255447,0.38,0.93,-0.13,10371,9893.00,0,0,0,-0.56,-0.21,0.63,0.38,0.93,-0.13
0.6015625,-4.953288E-4,0.0019003076,-0.0021744547,0.38,0.93,-0.14,10386,9893.00,0,0,165,-0.28,-0.21,0.28,0.38,0.93,-0.14
0.6015625,0.0025046715,-0.0010996922,-0.006174455,0.38,0.93,-0.13,10402,9893.00,0,0,0,-0.07,-0.42,0.00,0.38,0.93,-0.13
-0.3984375,0.0015046713,-0.0010996922,-0.006174455,0.38,0.92,-0.14,10410,9892.00,0,0,165,-0.14,-0.42,0.00,0.38,0.92,-0.14
0.6015625,0.0015046713,-9.9692494E-5,-0.0031744551,0.37,0.93,-0.14,10424,9893.00,0,0,0,-0.14,-0.35,0.21,0.37,0.93,-0.14
0.6015625,-4.953288E-4,-9.9692494E-5,0.0018255454,0.38,0.92,-0.14,10439,9893.00,0,0,165,-0.28,-0.35,0.56,0.38,0.92,-0.14
0.6015625,-0.0014953285,0.0019003076,0.0058255442,0.38,0.92,-0.14,10446,9893.00,0,0,0,-0.35,-0.21,0.84,0.38,0.92,-0.14
0.6015625,-0.0034953288,0.0029003073,0.0058255442,0.38,0.93,-0.13,10462,9893.00,0,0,165,-0.49,-0.14,0.84,0.38,0.93,-0.13
-0.3984375,-0.0034953288,0.0019003076,0.0028255447,0.38,0.92,-0.14,10477,9892.00,0,0,0,-0.49,-0.21,0.63,0.38,0.92,-0.14
0.6015625,-0.0034953288,-9.9692494E-5,0.0018255454,0.38,0.93,-0.13,10485,9893.00,0,0,165,-0.49,-0.35,0.56,0.38,0.93,-0.13
0.6015625,-4.953288E-4,9.003072E-4,-0.0021744547,0.38,0.93,-0.14,10499,9893.00,0,0,0,-0.28,-0.28,0.28,0.38,0.93,-0.14
0.9013672,0.0025046715,-0.0010996922,-0.0031744551,0.38,0.92,-0.13,10514,9893.30,0,0,165,-0.07,-0.42,0.21,0.38,0.92,-0.13
-0.3984375,0.0045046713,-0.0010996922,-0.006174455,0.38,0.92,-0.14,10522,9892.00,0,0,0,0.07,-0.42,0.00,0.38,0.92,-0.14
0.9013672,0.0015046713,-0.0010996922,-0.005174455,0.38,0.93,-0.14,10536,9893.30,0,0,165,-0.14,-0.42,0.07,0.38,0.93,-0.14
-0.3984375,0.0025046715,9.003072E-4,-0.001174455,0.38,0.92,-0.14,10551,9892.00,0,0,0,-0.07,-0.28,0.35,0.38,0.92,-0.14
0.6015625,-0.0014953285,-9.9692494E-5,0.0018255454,0.38,0.93,-0.14,10558,9893.00,0,0,165,-0.35,-0.35,0.56,0.38,0.93,-0.14
0.6015625,-4.953288E-4,-9.9692494E-5,0.004825545,0.38,0.92,-0.14,10574,9893.00,0,0,0,-0.28,-0.35,0.77,0.38,0.92,-0.14
1.5019531,-4.953288E-4,0.0019003076,0.0038255448,0.38,0.92,-0.14,10588,9893.90,0,0,165,-0.28,-0.21,0.70,0.38,0.92,-0.14
-0.3984375,-0.0034953288,9.003072E-4,0.0028255447,0.38,0.92,-0.13,10596,9892.00,0,0,0,-0.49,-0.28,0.63,0.38,0.92,-0.13
0.6015625,-4.953288E-4,-9.9692494E-5,-1.7445534E-4,0.38,0.92,-0.14,10611,9893.00,0,0,165,-0.28,-0.35,0.42,0.38,0.92,-0.14
0.6015625,-4.953288E-4,-0.0010996922,-0.0021744547,0.38,0.92,-0.13,10626,9893.00,0,0,0,-0.28,-0.42,0.28,0.38,0.92,-0.13
0.6015625,0.0025046715,-0.0010996922,-0.005174455,0.38,0.92,-0.13,10633,9893.00,0,0,165,-0.07,-0.42,0.07,0.38,0.92,-0.13
0.6015625,0.0025046715,-0.0020996928,-0.006174455,0.38,0.92,-0.13,10649,9893.00,0,0,0,-0.07,-0.49,0.00,0.38,0.92,-0.13
0.6015625,5.046716E-4,-0.0010996922,-0.005174455,0.38,0.92,-0.13,10664,9893.00,0,0,165,-0.21,-0.42,0.07,0.38,0.92,-0.13
0.6015625,-4.953288E-4,9.003072E-4,0.004825545,0.38,0.92,-0.14,10671,9893.00,0,0,0,-0.28,-0.28,0.77,0.38,0.92,-0.14
-0.3984375,-0.0034953288,0.0019003076,0.009825546,0.38,0.93,-0.13,10686,9892.00,0,0,165,-0.49,-0.21,1.12,0.38,0.93,-0.13
0.6015625,-0.004495329,0.0029003073,0.011825545,0.38,0.93,-0.13,10701,9893.00,0,0,0,-0.56,-0.14,1.26,0.38,0.93,-0.13
0.6015625,-0.0024953282,9.003072E-4,0.007825546,0.38,0.93,-0.13,10709,9893.00,0,0,165,-0.42,-0.28,0.98,0.38,0.93,-0.13
-0.3984375,0.0025046715,-0.0010996922,-0.0021744547,0.38,0.93,-0.13,10724,9892.00,0,0,0,-0.07,-0.42,0.28,0.38,0.93,-0.13
0.6015625,0.007504672,-0.004099692,-0.010174455,0.38,0.92,-0.14,10739,9893.00,0,0,165,0.28,-0.63,-0.28,0.38,0.92,-0.14
0.9013672,0.009504671,-0.004099692,-0.013174456,0.38,0.92,-0.14,10746,9893.30,0,0,0,0.42,-0.63,-0.49,0.38,0.92,-0.14
0.6015625,0.007504672,-0.004099692,-0.014174456,0.38,0.92,-0.13,10762,9893.00,0,0,165,0.28,-0.63,-0.56,0.38,0.92,-0.13
0.6015625,0.0035046714,-0.0020996928,-0.006174455,0.37,0.92,-0.14,10776,9893.00,0,0,0,0.00,-0.49,0.00,0.37,0.92,-0.14
0.6015625,5.046716E-4,-9.9692494E-5,0.0038255448,0.37,0.93,-0.14,10784,9893.00,0,0,165,-0.21,-0.35,0.70,0.37,0.93,-0.14
0.6015625,-0.0014953285,0.0019003076,0.011825545,0.37,0.92,-0.13,10799,9893.00,0,0,0,-0.35,-0.21,1.26,0.37,0.92,-0.13
0.6015625,-0.0024953282,0.0019003076,0.010825546,0.38,0.92,-0.14,10814,9893.00,0,0,165,-0.42,-0.21,1.19,0.38,0.92,-0.14
0.6015625,-0.004495329,-9.9692494E-5,-1.7445534E-4,0.38,0.93,-0.14,10822,9893.00,0,0,0,-0.56,-0.35,0.42,0.38,0.93,-0.14
0.9013672,0.0015046713,-0.003099693,-0.006174455,0.38,0.93,-0.13,10837,9893.30,0,0,165,-0.14,-0.56,0.00,0.38,0.93,-0.13
0.6015625,0.008504671,-0.003099693,-0.0121744545,0.38,0.93,-0.14,10851,9893.00,0,0,0,0.35,-0.56,-0.42,0.38,0.93,-0.14
0.6015625,0.009504671,-0.003099693,-0.013174456,0.38,0.92,-0.14,10862,9893.00,0,0,165,0.42,-0.56,-0.49,0.38,0.92,-0.14
0.6015625,0.0035046714,-0.0020996928,-0.007174455,0.37,0.92,-0.14,10874,9893.00,0,0,0,0.00,-0.49,-0.07,0.37,0.92,-0.14
0.6015625,-4.953288E-4,-0.0010996922,-0.0021744547,0.38,0.93,-0.13,10889,9893.00,0,0,165,-0.28,-0.42,0.28,0.38,0.93,-0.13
0.6015625,-0.0024953282,0.0019003076,0.007825546,0.38,0.93,-0.14,10897,9893.00,0,0,0,-0.42,-0.21,0.98,0.38,0.93,-0.14
0.6015625,-0.0024953282,0.0039003072,0.009825546,0.38,0.92,-0.14,10913,9893.00,0,0,165,-0.42,-0.07,1.12,0.38,0.92,-0.14
-0.3984375,-0.0064953286,0.0029003073,0.0068255453,0.38,0.92,-0.14,10926,9892.00,0,0,0,-0.70,-0.14,0.91,0.38,0.92,-0.14
0.6015625,-0.0034953288,9.003072E-4,-0.0021744547,0.38,0.92,-0.13,10934,9893.00,0,0,165,-0.49,-0.28,0.28,0.38,0.92,-0.13
-0.3984375,0.0015046713,-0.0010996922,-0.008174455,0.38,0.93,-0.14,10949,9892.00,0,0,0,-0.14,-0.42,-0.14,0.38,0.93,-0.14
0.6015625,0.0045046713,-0.003099693,-0.010174455,0.37,0.92,-0.13,10964,9893.00,0,0,165,0.07,-0.56,-0.28,0.37,0.92,-0.13
0.6015625,5.046716E-4,-0.0010996922,-0.005174455,0.38,0.92,-0.14,10972,9893.00,0,0,0,-0.21,-0.42,0.07,0.38,0.92,-0.14
0.6015625,-0.0034953288,0.0019003076,-0.001174455,0.37,0.92,-0.14,10987,9893.00,0,0,165,-0.49,-0.21,0.35,0.37,0.92,-0.14
0.6015625,-0.0054953285,0.0029003073,0.007825546,0.38,0.93,-0.14,11002,9893.00,0,0,0,-0.63,-0.14,0.98,0.38,0.93,-0.14
-0.3984375,-0.0054953285,0.0039003072,0.010825546,0.38,0.92,-0.13,11011,9892.00,0,0,165,-0.63,-0.07,1.19,0.38,0.92,-0.13
0.6015625,-0.007495329,0.0039003072,0.010825546,0.38,0.92,-0.13,11024,9893.00,0,0,0,-0.77,-0.07,1.19,0.38,0.92,-0.13
-0.3984375,-0.0064953286,0.0019003076,0.004825545,0.38,0.92,-0.14,11039,9892.00,0,0,165,-0.70,-0.21,0.77,0.38,0.92,-0.14
-0.3984375,-0.0024953282,9.003072E-4,-0.0021744547,0.38,0.92,-0.14,11047,9892.00,0,0,0,-0.42,-0.28,0.28,0.38,0.92,-0.14
0.6015625,0.0015046713,-0.0010996922,-0.008174455,0.38,0.93,-0.13,11062,9893.00,0,0,165,-0.14,-0.42,-0.14,0.38,0.93,-0.13
1.5019531,0.0025046715,-0.0020996928,-0.005174455,0.38,0.92,-0.13,11076,9893.90,0,0,0,-0.07,-0.49,0.07,0.38,0.92,-0.13
0.6015625,-4.953288E-4,-9.9692494E-5,-0.0021744547,0.38,0.92,-0.14,11083,9893.00,0,0,165,-0.28,-0.35,0.28,0.38,0.92,-0.14
0.6015625,-0.0024953282,9.003072E-4,0.0018255454,0.37,0.92,-0.13,11099,9893.00,0,0,0,-0.42,-0.28,0.56,0.37,0.92,-0.13
1.8017578,-0.0034953288,0.0019003076,0.0068255453,0.38,0.92,-0.14,11114,9894.20,0,0,165,-0.49,-0.21,0.91,0.38,0.92,-0.14
0.6015625,-0.0034953288,0.0019003076,0.007825546,0.38,0.93,-0.13,11121,9893.00,0,0,0,-0.49,-0.21,0.98,0.38,0.93,-0.13
1.8017578,-0.004495329,0.0019003076,0.0068255453,0.38,0.92,-0.13,11136,9894.20,0,0,165,-0.56,-0.21,0.91,0.38,0.92,-0.13
0.6015625,-0.0024953282,0.0019003076,0.0018255454,0.38,0.92,-0.13,11151,9893.00,0,0,0,-0.42,-0.21,0.56,0.38,0.92,-0.13
0.6015625,-4.953288E-4,-9.9692494E-5,-1.7445534E-4,0.38,0.93,-0.13,11158,9893.00,0,0,165,-0.28,-0.35,0.42,0.38,0.93,-0.13
-0.3984375,0.0015046713,-0.0010996922,-0.0021744547,0.38,0.93,-0.13,11173,9892.00,0,0,0,-0.14,-0.42,0.28,0.38,0.93,-0.13
0.6015625,0.0015046713,-9.9692494E-5,-0.004174455,0.38,0.93,-0.13,11188,9893.00,0,0,165,-0.14,-0.35,0.14,0.38,0.93,-0.13
0.6015625,0.0015046713,-0.0010996922,-0.0031744551,0.38,0.93,-0.13,11196,9893.00,0,0,0,-0.14,-0.42,0.21,0.38,0.93,-0.13
0.6015625,0.0025046715,-9.9692494E-5,-1.7445534E-4,0.38,0.92,-0.13,11212,9893.00,0,0,165,-0.07,-0.35,0.42,0.38,0.92,-0.13
-1.2988281,5.046716E-4,9.003072E-4,0.0028255447,0.37,0.92,-0.14,11227,9891.10,0,0,0,-0.21,-0.28,0.63,0.37,0.92,-0.14
1.5019531,-0.0014953285,9.003072E-4,0.0028255447,0.38,0.92,-0.14,11234,9893.90,0,0,165,-0.35,-0.28,0.63,0.38,0.92,-0.14
0.6015625,-0.0034953288,-9.9692494E-5,0.0038255448,0.38,0.93,-0.14,11249,9893.00,0,0,0,-0.49,-0.35,0.70,0.38,0.93,-0.14
0.6015625,-0.0014953285,-0.0010996922,0.0028255447,0.38,0.93,-0.14,11263,9893.00,0,0,165,-0.35,-0.42,0.63,0.38,0.93,-0.14
0.6015625,0.0025046715,-0.0010996922,-0.0021744547,0.38,0.93,-0.13,11271,9893.00,0,0,0,-0.07,-0.42,0.28,0.38,0.93,-0.13
0.6015625,0.0055046715,-0.003099693,-0.008174455,0.38,0.92,-0.13,11286,9893.00,0,0,165,0.14,-0.56,-0.14,0.38,0.92,-0.13
-1.2988281,0.006504671,-0.004099692,-0.011174455,0.38,0.92,-0.14,11301,9891.10,0,0,0,0.21,-0.63,-0.35,0.38,0.92,-0.14
0.6015625,0.0055046715,-0.003099693,-0.010174455,0.38,0.92,-0.13,11311,9893.00,0,0,165,0.14,-0.56,-0.28,0.38,0.92,-0.13
0.6015625,0.0025046715,-0.0010996922,-1.7445534E-4,0.38,0.92,-0.14,11324,9893.00,0,0,0,-0.07,-0.42,0.42,0.38,0.92,-0.14
0.6015625,-4.953288E-4,9.003072E-4,0.004825545,0.38,0.92,-0.14,11339,9893.00,0,0,165,-0.28,-0.28,0.77,0.38,0.92,-0.14
0.6015625,-0.0024953282,0.0019003076,0.010825546,0.38,0.92,-0.13,11347,9893.00,0,0,0,-0.42,-0.21,1.19,0.38,0.92,-0.13
0.001953125,-0.004495329,9.003072E-4,0.007825546,0.38,0.92,-0.14,11361,9892.40,0,0,165,-0.56,-0.28,0.98,0.38,0.92,-0.14
0.6015625,-0.0014953285,9.003072E-4,-1.7445534E-4,0.38,0.92,-0.13,11376,9893.00,0,0,0,-0.35,-0.28,0.42,0.38,0.92,-0.13
0.6015625,0.0035046714,-0.0020996928,-0.007174455,0.38,0.92,-0.13,11383,9893.00,0,0,165,0.00,-0.49,-0.07,0.38,0.92,-0.13
0.6015625,0.0055046715,-0.003099693,-0.010174455,0.38,0.92,-0.14,11398,9893.00,0,0,0,0.14,-0.56,-0.28,0.38,0.92,-0.14
0.6015625,0.0045046713,-0.003099693,-0.010174455,0.38,0.92,-0.14,11413,9893.00,0,0,165,0.07,-0.56,-0.28,0.38,0.92,-0.14
0.6015625,5.046716E-4,-9.9692494E-5,-0.0031744551,0.37,0.92,-0.14,11421,9893.00,0,0,0,-0.21,-0.35,0.21,0.37,0.92,-0.14
0.6015625,-0.004495329,9.003072E-4,0.0058255442,0.38,0.92,-0.14,11435,9893.00,0,0,165,-0.56,-0.28,0.84,0.38,0.92,-0.14
0.6015625,-0.007495329,0.0039003072,0.013825545,0.38,0.92,-0.13,11451,9893.00,0,0,0,-0.77,-0.07,1.40,0.38,0.92,-0.13
0.6015625,-0.0054953285,0.0039003072,0.011825545,0.38,0.93,-0.14,11459,9893.00,0,0,165,-0.63,-0.07,1.26,0.38,0.93,-0.14
1.5019531,-0.0034953288,0.0019003076,0.0068255453,0.38,0.92,-0.13,11474,9893.90,0,0,0,-0.49,-0.21,0.91,0.38,0.92,-0.13
0.6015625,-0.0014953285,-9.9692494E-5,-0.001174455,0.38,0.92,-0.13,11489,9893.00,0,0,165,-0.35,-0.35,0.35,0.38,0.92,-0.13
0.6015625,0.0055046715,-0.004099692,-0.009174455,0.38,0.93,-0.13,11497,9893.00,0,0,0,0.14,-0.63,-0.21,0.38,0.93,-0.13
1.5019531,0.008504671,-0.003099693,-0.015174454,0.38,0.92,-0.13,11511,9893.90,0,0,165,0.35,-0.56,-0.63,0.38,0.92,-0.13
0.6015625,0.006504671,-0.003099693,-0.0121744545,0.38,0.92,-0.13,11527,9893.00,0,0,0,0.21,-0.56,-0.42,0.38,0.92,-0.13
1.5019531,5.046716E-4,-0.0020996928,-0.004174455,0.38,0.92,-0.14,11534,9893.90,0,0,165,-0.21,-0.49,0.14,0.38,0.92,-0.14
0.6015625,-0.0034953288,0.0029003073,0.0058255442,0.37,0.93,-0.14,11549,9893.00,0,0,0,-0.49,-0.14,0.84,0.37,0.93,-0.14
0.6015625,-0.0034953288,0.0019003076,0.010825546,0.38,0.93,-0.14,11564,9893.00,0,0,165,-0.49,-0.21,1.19,0.38,0.93,-0.14
1.5019531,-0.0024953282,9.003072E-4,0.007825546,0.38,0.92,-0.13,11572,9893.90,0,0,0,-0.42,-0.28,0.98,0.38,0.92,-0.13
0.6015625,5.046716E-4,9.003072E-4,0.0038255448,0.38,0.92,-0.13,11586,9893.00,0,0,165,-0.21,-0.28,0.70,0.38,0.92,-0.13
-0.3984375,-0.0014953285,-0.0010996922,-0.006174455,0.38,0.93,-0.14,11601,9892.00,0,0,0,-0.35,-0.42,0.00,0.38,0.93,-0.14
-0.3984375,0.0015046713,-0.0020996928,-0.007174455,0.38,0.93,-0.13,11608,9892.00,0,0,165,-0.14,-0.49,-0.07,0.38,0.93,-0.13
0.6015625,0.0045046713,-0.0020996928,-0.005174455,0.38,0.93,-0.13,11623,9893.00,0,0,0,0.07,-0.49,0.07,0.38,0.93,-0.13
0.6015625,0.0025046715,-0.0010996922,-0.001174455,0.38,0.92,-0.14,11638,9893.00,0,0,165,-0.07,-0.42,0.35,0.38,0.92,-0.14
-0.3984375,-0.0034953288,9.003072E-4,0.0028255447,0.38,0.93,-0.14,11646,9892.00,0,0,0,-0.49,-0.28,0.63,0.38,0.93,-0.14
-0.3984375,-0.0024953282,0.0019003076,0.0068255453,0.38,0.93,-0.14,11661,9892.00,0,0,165,-0.42,-0.21,0.91,0.38,0.93,-0.14
0.6015625,-0.0014953285,0.0019003076,0.0068255453,0.38,0.92,-0.13,11675,9893.00,0,0,0,-0.35,-0.21,0.91,0.38,0.92,-0.13
-0.3984375,-4.953288E-4,0.0019003076,0.0028255447,0.38,0.92,-0.14,11683,9892.00,0,0,165,-0.28,-0.21,0.63,0.38,0.92,-0.14
0.6015625,-0.0024953282,-9.9692494E-5,-0.0031744551,0.38,0.93,-0.14,11698,9893.00,0,0,0,-0.42,-0.35,0.21,0.38,0.93,-0.14
1.5019531,-0.0014953285,-9.9692494E-5,-0.0031744551,0.38,0.93,-0.14,11713,9893.90,0,0,165,-0.35,-0.35,0.21,0.38,0.93,-0.14
1.5019531,0.0035046714,-9.9692494E-5,-0.0021744547,0.38,0.93,-0.14,11720,9893.90,0,0,0,0.00,-0.35,0.28,0.38,0.93,-0.14
1.5019531,5.046716E-4,-0.0010996922,-0.0021744547,0.38,0.92,-0.14,11736,9893.90,0,0,165,-0.21,-0.42,0.28,0.38,0.92,-0.14
0.6015625,-0.0014953285,-9.9692494E-5,-0.0021744547,0.38,0.92,-0.14,11752,9893.00,0,0,0,-0.35,-0.35,0.28,0.38,0.92,-0.14
0.6015625,-0.0024953282,-9.9692494E-5,8.255453E-4,0.38,0.92,-0.13,11761,9893.00,0,0,165,-0.42,-0.35,0.49,0.38,0.92,-0.13
0.6015625,5.046716E-4,9.003072E-4,0.0018255454,0.38,0.92,-0.13,11773,9893.00,0,0,0,-0.21,-0.28,0.56,0.38,0.92,-0.13
0.6015625,0.0015046713,9.003072E-4,-0.0021744547,0.38,0.92,-0.14,11789,9893.00,0,0,165,-0.14,-0.28,0.28,0.38,0.92,-0.14
0.6015625,-4.953288E-4,0.0019003076,-0.001174455,0.38,0.92,-0.14,11795,9893.00,0,0,0,-0.28,-0.21,0.35,0.38,0.92,-0.14
-0.3984375,-4.953288E-4,-9.9692494E-5,-0.004174455,0.38,0.92,-0.13,11811,9892.00,0,0,165,-0.28,-0.35,0.14,0.38,0.92,-0.13
-0.3984375,0.0015046713,-9.9692494E-5,-0.0021744547,0.38,0.93,-0.13,11826,9892.00,0,0,0,-0.14,-0.35,0.28,0.38,0.93,-0.13
1.5019531,0.0015046713,-9.9692494E-5,8.255453E-4,0.38,0.92,-0.13,11834,9893.90,0,0,165,-0.14,-0.35,0.49,0.38,0.92,-0.13
0.6015625,-0.0014953285,-9.9692494E-5,8.255453E-4,0.38,0.92,-0.13,11849,9893.00,0,0,0,-0.35,-0.35,0.49,0.38,0.92,-0.13
0.6015625,-0.0014953285,9.003072E-4,-1.7445534E-4,0.37,0.92,-0.14,11863,9893.00,0,0,165,-0.35,-0.28,0.42,0.37,0.92,-0.14
0.6015625,5.046716E-4,-9.9692494E-5,0.0018255454,0.38,0.93,-0.13,11871,9893.00,0,0,0,-0.21,-0.35,0.56,0.38,0.93,-0.13
0.6015625,5.046716E-4,-9.9692494E-5,8.255453E-4,0.38,0.92,-0.14,11886,9893.00,0,0,165,-0.21,-0.35,0.49,0.38,0.92,-0.14
0.6015625,-0.0024953282,-9.9692494E-5,0.0018255454,0.38,0.92,-0.14,11901,9893.00,0,0,0,-0.42,-0.35,0.56,0.38,0.92,-0.14
0.6015625,-4.953288E-4,9.003072E-4,0.0018255454,0.38,0.92,-0.14,11911,9893.00,0,0,165,-0.28,-0.28,0.56,0.38,0.92,-0.14
0.6015625,-4.953288E-4,-9.9692494E-5,0.0028255447,0.38,0.92,-0.13,11924,9893.00,0,0,0,-0.28,-0.35,0.63,0.38,0.92,-0.13
-0.3984375,5.046716E-4,-9.9692494E-5,-1.7445534E-4,0.38,0.93,-0.13,11938,9892.00,0,0,165,-0.21,-0.35,0.42,0.38,0.93,-0.13
0.6015625,5.046716E-4,9.003072E-4,-0.001174455,0.38,0.93,-0.14,11946,9893.00,0,0,0,-0.21,-0.28,0.35,0.38,0.93,-0.14
0.6015625,0.0015046713,-0.0010996922,8.255453E-4,0.38,0.92,-0.13,11966,9893.00,0,0,165,-0.14,-0.42,0.49,0.38,0.92,-0.13
0.6015625,0.0015046713,-0.0010996922,-1.7445534E-4,0.38,0.92,-0.13,11977,9893.00,0,0,0,-0.14,-0.42,0.42,0.38,0.92,-0.13
0.6015625,0.0015046713,-0.0020996928,-0.0021744547,0.38,0.92,-0.14,11984,9893.00,0,0,165,-0.14,-0.49,0.28,0.38,0.92,-0.14
1.5019531,0.0015046713,-0.0010996922,-0.001174455,0.38,0.92,-0.14,11998,9893.90,0,0,0,-0.14,-0.42,0.35,0.38,0.92,-0.14
0.6015625,5.046716E-4,-0.0010996922,-0.004174455,0.38,0.93,-0.14,12013,9893.00,0,0,165,-0.21,-0.42,0.14,0.38,0.93,-0.14
0.6015625,-0.0024953282,-0.0010996922,-0.0021744547,0.38,0.93,-0.13,12022,9893.00,0,0,0,-0.42,-0.42,0.28,0.38,0.93,-0.13
0.6015625,-4.953288E-4,-0.0010996922,-0.001174455,0.38,0.93,-0.14,12036,9893.00,0,0,165,-0.28,-0.42,0.35,0.38,0.93,-0.14
0.6015625,5.046716E-4,9.003072E-4,0.0028255447,0.38,0.93,-0.13,12051,9893.00,0,0,0,-0.21,-0.28,0.63,0.38,0.93,-0.13
0.6015625,0.0015046713,-9.9692494E-5,0.0038255448,0.38,0.92,-0.13,12058,9893.00,0,0,165,-0.14,-0.35,0.70,0.38,0.92,-0.13
0.6015625,0.0015046713,-0.0010996922,-1.7445534E-4,0.38,0.92,-0.13,12073,9893.00,0,0,0,-0.14,-0.42,0.42,0.38,0.92,-0.13
0.6015625,0.0015046713,-0.0020996928,-0.006174455,0.38,0.92,-0.14,12088,9893.00,0,0,165,-0.14,-0.49,0.00,0.38,0.92,-0.14
0.6015625,0.0025046715,-0.0020996928,-0.005174455,0.38,0.93,-0.13,12096,9893.00,0,0,0,-0.07,-0.49,0.07,0.38,0.93,-0.13
0.6015625,0.0045046713,-0.0020996928,-0.005174455,0.38,0.93,-0.14,12111,9893.00,0,0,165,0.07,-0.49,0.07,0.38,0.93,-0.14
0.9013672,5.046716E-4,-9.9692494E-5,8.255453E-4,0.38,0.92,-0.14,12128,9893.30,0,0,0,-0.21,-0.35,0.49,0.38,0.92,-0.14
0.6015625,-0.0014953285,9.003072E-4,0.0038255448,0.37,0.92,-0.13,12133,9893.00,0,0,165,-0.35,-0.28,0.70,0.37,0.92,-0.13
0.6015625,-0.0024953282,9.003072E-4,0.0018255454,0.38,0.93,-0.14,12148,9893.00,0,0,0,-0.42,-0.28,0.56,0.38,0.93,-0.14
0.6015625,-0.0024953282,9.003072E-4,0.0038255448,0.38,0.92,-0.14,12164,9893.00,0,0,165,-0.42,-0.28,0.70,0.38,0.92,-0.14
0.6015625,-4.953288E-4,-9.9692494E-5,0.0038255448,0.38,0.92,-0.13,12171,9893.00,0,0,0,-0.28,-0.35,0.70,0.38,0.92,-0.13
0.6015625,-0.0014953285,-9.9692494E-5,-0.0031744551,0.38,0.92,-0.14,12186,9893.00,0,0,165,-0.35,-0.35,0.21,0.38,0.92,-0.14
0.6015625,-0.0014953285,-0.0010996922,-0.0031744551,0.38,0.93,-0.14,12201,9893.00,0,0,0,-0.35,-0.42,0.21,0.38,0.93,-0.14
0.6015625,5.046716E-4,-0.0010996922,-0.0031744551,0.38,0.93,-0.13,12209,9893.00,0,0,165,-0.21,-0.42,0.21,0.38,0.93,-0.13
0.6015625,0.0035046714,-0.0020996928,-0.0031744551,0.38,0.93,-0.13,12223,9893.00,0,0,0,0.00,-0.49,0.21,0.38,0.93,-0.13
0.6015625,5.046716E-4,-9.9692494E-5,0.0018255454,0.38,0.92,-0.13,12239,9893.00,0,0,165,-0.21,-0.35,0.56,0.38,0.92,-0.13
0.6015625,-0.004495329,0.0029003073,0.0038255448,0.38,0.92,-0.14,12246,9893.00,0,0,0,-0.56,-0.14,0.70,0.38,0.92,-0.14
1.5019531,-0.007495329,0.0029003073,0.007825546,0.38,0.92,-0.14,12261,9893.90,0,0,165,-0.77,-0.14,0.98,0.38,0.92,-0.14
0.6015625,-0.0034953288,0.0029003073,0.007825546,0.38,0.93,-0.13,12279,9893.00,0,0,0,-0.49,-0.14,0.98,0.38,0.93,-0.13
0.6015625,5.046716E-4,0.0019003076,0.0018255454,0.38,0.92,-0.13,12283,9893.00,0,0,165,-0.21,-0.21,0.56,0.38,0.92,-0.13
0.6015625,0.0045046713,-0.0020996928,-0.006174455,0.38,0.92,-0.13,12299,9893.00,0,0,0,0.07,-0.49,0.00,0.38,0.92,-0.13
0.6015625,0.0045046713,-0.004099692,-0.0121744545,0.38,0.92,-0.13,12313,9893.00,0,0,165,0.07,-0.63,-0.42,0.38,0.92,-0.13
0.6015625,0.0045046713,-0.003099693,-0.011174455,0.38,0.93,-0.14,12321,9893.00,0,0,0,0.07,-0.56,-0.35,0.38,0.93,-0.14
0.6015625,0.0035046714,-0.0010996922,-0.005174455,0.38,0.92,-0.14,12336,9893.00,0,0,165,0.00,-0.42,0.07,0.38,0.92,-0.14
-0.3984375,5.046716E-4,9.003072E-4,0.0038255448,0.38,0.92,-0.14,12351,9892.00,0,0,0,-0.21,-0.28,0.70,0.38,0.92,-0.14
0.6015625,-0.0034953288,0.0029003073,0.008825544,0.38,0.92,-0.14,12360,9893.00,0,0,165,-0.49,-0.14,1.05,0.38,0.92,-0.14
0.6015625,-0.0054953285,0.0029003073,0.007825546,0.38,0.93,-0.13,12373,9893.00,0,0,0,-0.63,-0.14,0.98,0.38,0.93,-0.13
1.5019531,-0.0024953282,9.003072E-4,0.004825545,0.38,0.93,-0.13,12388,9893.90,0,0,165,-0.42,-0.28,0.77,0.38,0.93,-0.13
0.6015625,0.0025046715,-9.9692494E-5,-0.0021744547,0.38,0.93,-0.14,12396,9893.00,0,0,0,-0.07,-0.35,0.28,0.38,0.93,-0.14
1.5019531,0.0035046714,-0.0020996928,-0.005174455,0.38,0.93,-0.14,12412,9893.90,0,0,165,0.00,-0.49,0.07,0.38,0.93,-0.14
-0.3984375,0.0035046714,-0.0020996928,-0.009174455,0.38,0.92,-0.13,12425,9892.00,0,0,0,0.00,-0.49,-0.21,0.38,0.92,-0.13
0.6015625,0.0035046714,-0.0020996928,-0.005174455,0.38,0.93,-0.14,12433,9893.00,0,0,165,0.00,-0.49,0.07,0.38,0.93,-0.14
1.5019531,0.0025046715,-9.9692494E-5,-1.7445534E-4,0.38,0.92,-0.13,12449,9893.90,0,0,0,-0.07,-0.35,0.42,0.38,0.92,-0.13
0.6015625,-4.953288E-4,-9.9692494E-5,0.0038255448,0.37,0.92,-0.14,12464,9893.00,0,0,165,-0.28,-0.35,0.70,0.37,0.92,-0.14
1.5019531,-0.004495329,0.0029003073,0.007825546,0.38,0.92,-0.14,12470,9893.90,0,0,0,-0.56,-0.14,0.98,0.38,0.92,-0.14
1.5019531,-0.004495329,9.003072E-4,0.0068255453,0.38,0.93,-0.13,12486,9893.90,0,0,165,-0.56,-0.28,0.91,0.38,0.93,-0.13
1.5019531,-0.0034953288,9.003072E-4,0.0028255447,0.38,0.92,-0.13,12501,9893.90,0,0,0,-0.49,-0.28,0.63,0.38,0.92,-0.13
0.6015625,-4.953288E-4,-9.9692494E-5,-0.0021744547,0.38,0.93,-0.13,12508,9893.00,0,0,165,-0.28,-0.35,0.28,0.38,0.93,-0.13
0.6015625,5.046716E-4,-0.0020996928,-0.004174455,0.38,0.92,-0.13,12523,9893.00,0,0,0,-0.21,-0.49,0.14,0.38,0.92,-0.13
1.5019531,0.0015046713,-0.0020996928,-0.006174455,0.38,0.92,-0.14,12538,9893.90,0,0,165,-0.14,-0.49,0.00,0.38,0.92,-0.14
0.6015625,0.0015046713,-0.0010996922,-0.004174455,0.38,0.92,-0.14,12546,9893.00,0,0,0,-0.14,-0.42,0.14,0.38,0.92,-0.14
0.6015625,0.0015046713,-9.9692494E-5,0.0018255454,0.38,0.92,-0.14,12561,9893.00,0,0,165,-0.14,-0.35,0.56,0.38,0.92,-0.14
1.8017578,-0.0024953282,9.003072E-4,0.0038255448,0.38,0.92,-0.14,12576,9894.20,0,0,0,-0.42,-0.28,0.70,0.38,0.92,-0.14
0.6015625,-0.0054953285,-9.9692494E-5,0.0058255442,0.38,0.93,-0.13,12583,9893.00,0,0,165,-0.63,-0.35,0.84,0.38,0.93,-0.13
0.20117188,-0.0034953288,0.0019003076,0.0068255453,0.38,0.93,-0.13,12598,9892.60,0,0,0,-0.49,-0.21,0.91,0.38,0.93,-0.13
1.5019531,-0.0014953285,9.003072E-4,0.004825545,0.38,0.92,-0.13,12613,9893.90,0,0,165,-0.35,-0.28,0.77,0.38,0.92,-0.13
1.5019531,-4.953288E-4,-9.9692494E-5,8.255453E-4,0.38,0.92,-0.14,12621,9893.90,0,0,0,-0.28,-0.35,0.49,0.38,0.92,-0.14
0.9013672,-4.953288E-4,-0.0010996922,-0.006174455,0.38,0.92,-0.13,12636,9893.30,0,0,165,-0.28,-0.42,0.00,0.38,0.92,-0.13
1.5019531,5.046716E-4,-0.0020996928,-0.005174455,0.38,0.92,-0.14,12651,9893.90,0,0,0,-0.21,-0.49,0.07,0.38,0.92,-0.14
0.6015625,0.0025046715,-0.0020996928,-0.0021744547,0.38,0.93,-0.13,12658,9893.00,0,0,165,-0.07,-0.49,0.28,0.38,0.93,-0.13
0.6015625,-0.0014953285,-0.0010996922,8.255453E-4,0.38,0.92,-0.13,12673,9893.00,0,0,0,-0.35,-0.42,0.49,0.38,0.92,-0.13
0.6015625,-4.953288E-4,9.003072E-4,0.009825546,0.38,0.93,-0.13,12688,9893.00,0,0,165,-0.28,-0.28,1.12,0.38,0.93,-0.13
0.6015625,-0.004495329,-0.0020996928,0.011825545,0.38,0.93,-0.13,12696,9893.00,0,0,0,-0.56,-0.49,1.26,0.38,0.93,-0.13
0.6015625,0.0035046714,-0.0020996928,0.008825544,0.38,0.93,-0.14,12710,9893.00,0,0,165,0.00,-0.49,1.05,0.38,0.93,-0.14
-0.3984375,0.007504672,-0.0010996922,8.255453E-4,0.38,0.93,-0.13,12725,9892.00,0,0,0,0.28,-0.42,0.49,0.38,0.93,-0.13
0.6015625,0.006504671,-0.003099693,-0.007174455,0.38,0.92,-0.13,12733,9893.00,0,0,165,0.21,-0.56,-0.07,0.38,0.92,-0.13
0.6015625,0.0025046715,-0.008099693,-0.019174455,0.37,0.92,-0.12,12749,9893.00,0,0,0,-0.07,-0.91,-0.91,0.37,0.92,-0.12
0.6015625,0.02350467,-0.008099693,-0.016174454,0.37,0.93,-0.13,12763,9893.00,0,0,165,1.40,-0.91,-0.70,0.37,0.93,-0.13
1.5019531,0.03850467,-0.010099692,-0.033174455,0.37,0.92,-0.14,12771,9893.90,0,0,0,2.45,-1.05,-1.89,0.37,0.92,-0.14
0.6015625,0.026504671,-0.011099693,-0.038174458,0.37,0.91,-0.14,12785,9893.00,0,0,165,1.61,-1.12,-2.24,0.37,0.91,-0.14
0.6015625,0.006504671,-0.003099693,-0.029174455,0.37,0.92,-0.14,12801,9893.00,0,0,0,0.21,-0.56,-1.61,0.37,0.92,-0.14
0.9013672,-0.0064953286,-0.0010996922,-0.011174455,0.37,0.93,-0.14,12808,9893.30,0,0,165,-0.70,-0.42,-0.35,0.37,0.93,-0.14
1.5019531,0.0045046713,0.0049003074,0.022825545,0.37,0.92,-0.14,12823,9893.90,0,0,0,0.07,0.00,2.03,0.37,0.92,-0.14
0.6015625,0.0035046714,0.007900307,0.025825547,0.38,0.92,-0.14,12838,9893.00,0,0,165,0.00,0.21,2.24,0.38,0.92,-0.14
0.6015625,-0.014495328,0.0039003072,0.011825545,0.38,0.92,-0.14,12846,9893.00,0,0,0,-1.26,-0.07,1.26,0.38,0.92,-0.14
0.6015625,-0.014495328,0.0029003073,0.0018255454,0.38,0.92,-0.14,12861,9893.00,0,0,165,-1.26,-0.14,0.56,0.38,0.92,-0.14
0.6015625,0.0015046713,-0.0020996928,-0.005174455,0.38,0.93,-0.14,12875,9893.00,0,0,0,-0.14,-0.49,0.07,0.38,0.93,-0.14
1.5019531,0.016504671,-0.0060996925,-0.022174455,0.38,0.92,-0.14,12883,9893.90,0,0,165,0.91,-0.77,-1.12,0.38,0.92,-0.14
0.6015625,0.020504672,-0.011099693,-0.04017446,0.37,0.92,-0.14,12898,9893.00,0,0,0,1.19,-1.12,-2.38,0.37,0.92,-0.14
0.6015625,0.014504671,-0.011099693,-0.047174454,0.37,0.92,-0.14,12913,9893.00,0,0,165,0.77,-1.12,-2.87,0.37,0.92,-0.14
0.6015625,0.017504672,-0.007099692,-0.041174456,0.36,0.91,-0.14,12920,9893.00,0,0,0,0.98,-0.84,-2.45,0.36,0.91,-0.14
0.6015625,0.009504671,9.003072E-4,-0.013174456,0.36,0.9,-0.15,12935,9893.00,0,0,165,0.42,-0.28,-0.49,0.36,0.90,-0.15
0.6015625,-0.02249533,0.012900308,0.009825546,0.36,0.9,-0.15,12950,9893.00,0,0,0,-1.82,0.56,1.12,0.36,0.90,-0.15
0.6015625,-0.06349533,0.026900306,0.040825542,0.36,0.9,-0.15,12958,9893.00,0,0,165,-4.69,1.54,3.29,0.36,0.90,-0.15
0.6015625,-0.09249532,0.041900307,0.08082555,0.36,0.91,-0.14,12973,9893.00,0,0,0,-6.72,2.59,6.09,0.36,0.91,-0.14
-0.3984375,-0.09549533,0.04990031,0.10282555,0.36,0.91,-0.14,12988,9892.00,0,0,165,-6.93,3.15,7.63,0.36,0.91,-0.14
0.6015625,-0.08649533,0.044900306,0.10882555,0.37,0.91,-0.14,12996,9893.00,0,0,0,-6.30,2.80,8.05,0.37,0.91,-0.14
1.5019531,-0.11049533,0.025900308,0.12982555,0.37,0.92,-0.14,13011,9893.90,0,0,165,-7.98,1.47,9.52,0.37,0.92,-0.14
0.6015625,-0.10349532,0.06390031,0.124825545,0.39,0.93,-0.13,13025,9893.00,0,0,0,-7.49,4.13,9.17,0.39,0.93,-0.13
1.5019531,-0.15649532,0.054900307,0.13282554,0.39,0.93,-0.12,13040,9893.90,0,0,165,-11.20,3.50,9.73,0.39,0.93,-0.12
1.5019531,-0.17449532,0.054900307,0.16682553,0.39,0.94,-0.11,13048,9893.90,0,0,0,-12.46,3.50,12.11,0.39,0.94,-0.11
1.5019531,-0.17149532,0.06690031,0.20682554,0.39,0.95,-0.1,13064,9893.90,0,0,165,-12.25,4.34,14.91,0.39,0.95,-0.10
0.6015625,-0.15749533,0.07190031,0.21882553,0.4,0.95,-0.1,13071,9893.00,0,0,0,-11.27,4.69,15.75,0.40,0.95,-0.10
1.5019531,-0.13949533,0.056900308,0.20082554,0.4,0.93,-0.1,13085,9893.90,0,0,165,-10.01,3.64,14.49,0.40,0.93,-0.10
0.6015625,-0.12649533,0.047900308,0.19282554,0.4,0.93,-0.1,13101,9893.00,0,0,0,-9.10,3.01,13.93,0.40,0.93,-0.10
0.6015625,-0.10749533,0.05390031,0.17182554,0.41,0.93,-0.1,13108,9893.00,0,0,165,-7.77,3.43,12.46,0.41,0.93,-0.10
0.6015625,-0.09249532,0.03890031,0.12182555,0.41,0.93,-0.11,13123,9893.00,0,0,0,-6.72,2.38,8.96,0.41,0.93,-0.11
1.5019531,-0.06249533,0.02090031,0.08982554,0.41,0.92,-0.1,13139,9893.90,0,0,165,-4.62,1.12,6.72,0.41,0.92,-0.10
1.5019531,-0.03549533,0.011900308,0.05882555,0.41,0.92,-0.1,13146,9893.90,0,0,0,-2.73,0.49,4.55,0.41,0.92,-0.10
0.6015625,-0.018495329,0.0059003076,0.018825546,0.42,0.93,-0.11,13161,9893.00,0,0,165,-1.54,0.07,1.75,0.42,0.93,-0.11
0.6015625,-0.008495328,-0.0020996928,-0.014174456,0.41,0.92,-0.11,13176,9893.00,0,0,0,-0.84,-0.49,-0.56,0.41,0.92,-0.11
0.6015625,-4.953288E-4,-0.0060996925,-0.030174453,0.41,0.92,-0.1,13183,9893.00,0,0,165,-0.28,-0.77,-1.68,0.41,0.92,-0.10
0.6015625,0.006504671,-0.009099693,-0.032174457,0.4,0.93,-0.1,13198,9893.00,0,0,0,0.21,-0.98,-1.82,0.40,0.93,-0.10
0.6015625,0.020504672,-0.011099693,-0.023174455,0.4,0.93,-0.1,13213,9893.00,0,0,165,1.19,-1.12,-1.19,0.40,0.93,-0.10
0.6015625,0.04950467,-0.013099692,-0.0031744551,0.4,0.92,-0.11,13221,9893.00,0,0,0,3.22,-1.26,0.21,0.40,0.92,-0.11
0.6015625,0.057504673,-0.016099691,-0.0121744545,0.41,0.9,-0.12,13235,9893.00,0,0,165,3.78,-1.47,-0.42,0.41,0.90,-0.12
1.5019531,0.035504673,-0.015099692,-0.024174454,0.41,0.9,-0.12,13251,9893.90,0,0,0,2.24,-1.40,-1.26,0.41,0.90,-0.12
0.6015625,-0.009495329,-0.007099692,-0.018174455,0.41,0.93,-0.12,13258,9893.00,0,0,165,-0.91,-0.84,-0.84,0.41,0.93,-0.12
1.5019531,-0.03449533,0.0029003073,0.012825547,0.42,0.95,-0.1,13273,9893.90,0,0,0,-2.66,-0.14,1.33,0.42,0.95,-0.10
0.6015625,-0.036495328,0.009900307,0.05882555,0.41,0.95,-0.09,13290,9893.00,0,0,165,-2.80,0.35,4.55,0.41,0.95,-0.09
1.5019531,-0.019495329,0.008900307,0.08582555,0.41,0.95,-0.08,13296,9893.90,0,0,0,-1.61,0.28,6.44,0.41,0.95,-0.08
0.6015625,0.014504671,-0.0010996922,0.06482554,0.41,0.93,-0.09,13311,9893.00,0,0,165,0.77,-0.42,4.97,0.41,0.93,-0.09
0.6015625,0.025504671,-0.013099692,0.004825545,0.42,0.93,-0.1,13327,9893.00,0,0,0,1.54,-1.26,0.77,0.42,0.93,-0.10
1.5019531,0.074504666,-0.044099696,-0.046174455,0.42,0.94,-0.1,13334,9893.90,0,0,165,4.97,-3.43,-2.80,0.42,0.94,-0.10
0.6015625,0.12650467,-0.06709969,-0.12917446,0.41,0.91,-0.1,13348,9893.00,0,0,0,8.61,-5.04,-8.61,0.41,0.91,-0.10
0.6015625,0.16350468,-0.0850997,-0.16117446,0.4,0.88,-0.11,13364,9893.00,0,0,165,11.20,-6.30,-10.85,0.40,0.88,-0.11
0.6015625,0.15150468,-0.08609969,-0.20217447,0.39,0.89,-0.14,13371,9893.00,0,0,0,10.36,-6.37,-13.72,0.39,0.89,-0.14
0.6015625,0.17450468,-0.09409969,-0.24417445,0.38,0.91,-0.16,13386,9893.00,0,0,165,11.97,-6.93,-16.66,0.38,0.91,-0.16
0.6015625,0.17750469,-0.09109969,-0.27917445,0.37,0.9,-0.15,13401,9893.00,0,0,0,12.18,-6.72,-19.11,0.37,0.90,-0.15
1.5019531,0.14250468,-0.07909969,-0.23617446,0.36,0.9,-0.15,13416,9893.90,0,0,165,9.73,-5.88,-16.10,0.36,0.90,-0.15
0.6015625,0.059504673,-0.039099693,-0.13417447,0.37,0.93,-0.14,13423,9893.00,0,0,0,3.92,-3.08,-8.96,0.37,0.93,-0.14
0.6015625,-0.017495329,0.0059003076,0.0028255447,0.37,0.94,-0.13,13438,9893.00,0,0,165,-1.47,0.07,0.63,0.37,0.94,-0.13
0.6015625,-0.06449533,0.041900307,0.13982554,0.38,0.94,-0.12,13446,9893.00,0,0,0,-4.76,2.59,10.22,0.38,0.94,-0.12
0.6015625,-0.090495326,0.06390031,0.21582554,0.39,0.94,-0.12,13461,9893.00,0,0,165,-6.58,4.13,15.54,0.39,0.94,-0.12
0.9013672,-0.10449533,0.062900305,0.21282554,0.41,0.93,-0.11,13476,9893.30,0,0,0,-7.56,4.06,15.33,0.41,0.93,-0.11
0.6015625,-0.08249533,0.045900304,0.15682554,0.41,0.93,-0.11,13483,9893.00,0,0,165,-6.02,2.87,11.41,0.41,0.93,-0.11
0.6015625,-0.02249533,0.015900306,0.07282555,0.41,0.93,-0.1,13498,9893.00,0,0,0,-1.82,0.77,5.53,0.41,0.93,-0.10
1.5019531,0.04350467,-0.021099694,-0.026174454,0.41,0.93,-0.1,13513,9893.90,0,0,165,2.80,-1.82,-1.40,0.41,0.93,-0.10
-0.3984375,0.115504675,-0.059099697,-0.13217446,0.41,0.94,-0.11,13521,9892.00,0,0,0,7.84,-4.48,-8.82,0.41,0.94,-0.11
0.6015625,0.18550467,-0.0850997,-0.21817446,0.41,0.93,-0.12,13536,9893.00,0,0,165,12.74,-6.30,-14.84,0.41,0.93,-0.12
1.5019531,0.22450468,-0.10209969,-0.28817445,0.4,0.92,-0.13,13551,9893.90,0,0,0,15.47,-7.49,-19.74,0.40,0.92,-0.13
0.6015625,0.23750466,-0.11409969,-0.32317445,0.39,0.92,-0.14,13559,9893.00,0,0,165,16.38,-8.33,-22.19,0.39,0.92,-0.14
0.6015625,0.22150469,-0.11809969,-0.34117445,0.36,0.91,-0.15,13574,9893.00,0,0,0,15.26,-8.61,-23.45,0.36,0.91,-0.15
1.5019531,0.19750468,-0.1040997,-0.33217445,0.34,0.88,-0.13,13589,9893.90,0,0,165,13.58,-7.63,-22.82,0.34,0.88,-0.13
0.6015625,0.16550468,-0.080099694,-0.20517446,0.37,0.92,-0.17,13596,9893.00,0,0,0,11.34,-5.95,-13.93,0.37,0.92,-0.17
0.9013672,0.14050469,-0.055099692,-0.11917445,0.39,0.96,-0.18,13612,9893.30,0,0,165,9.59,-4.20,-7.91,0.39,0.96,-0.18
0.6015625,0.033504672,-0.025099691,-0.035174455,0.38,0.94,-0.16,13626,9893.00,0,0,0,2.10,-2.10,-2.03,0.38,0.94,-0.16
0.6015625,-0.018495329,0.011900308,0.056825545,0.37,0.92,-0.14,13634,9893.00,0,0,165,-1.54,0.49,4.41,0.37,0.92,-0.14
0.6015625,-0.03149533,0.013900307,0.09382555,0.37,0.94,-0.14,13649,9893.00,0,0,0,-2.45,0.63,7.00,0.37,0.94,-0.14
0.6015625,0.0025046715,-9.9692494E-5,0.048825543,0.38,0.95,-0.14,13663,9893.00,0,0,165,-0.07,-0.35,3.85,0.38,0.95,-0.14
0.6015625,0.04550467,-0.024099693,-0.029174455,0.38,0.93,-0.14,13670,9893.00,0,0,0,2.94,-2.03,-1.61,0.38,0.93,-0.14
0.6015625,0.100504674,-0.049099695,-0.10417446,0.37,0.91,-0.14,13685,9893.00,0,0,165,6.79,-3.78,-6.86,0.37,0.91,-0.14
0.6015625,0.12650467,-0.0630997,-0.15817447,0.37,0.91,-0.15,13701,9893.00,0,0,0,8.61,-4.76,-10.64,0.37,0.91,-0.15
1.5019531,0.12550467,-0.07209969,-0.21117446,0.36,0.92,-0.16,13708,9893.90,0,0,165,8.54,-5.39,-14.35,0.36,0.92,-0.16
0.6015625,0.10350467,-0.076099694,-0.23017447,0.35,0.92,-0.16,13724,9893.00,0,0,0,7.00,-5.67,-15.68,0.35,0.92,-0.16
0.6015625,0.10550467,-0.069099694,-0.20317446,0.34,0.93,-0.16,13738,9893.00,0,0,165,7.14,-5.18,-13.79,0.34,0.93,-0.16
1.5019531,0.085504666,-0.050099693,-0.14217447,0.35,0.93,-0.16,13746,9893.90,0,0,0,5.74,-3.85,-9.52,0.35,0.93,-0.16
0.6015625,0.052504674,-0.026099693,-0.07117446,0.34,0.94,-0.16,13761,9893.00,0,0,165,3.43,-2.17,-4.55,0.34,0.94,-0.16
0.6015625,0.030504672,-0.011099693,-0.009174455,0.35,0.94,-0.16,13776,9893.00,0,0,0,1.89,-1.12,-0.21,0.35,0.94,-0.16
0.6015625,0.014504671,-9.9692494E-5,0.023825545,0.36,0.93,-0.16,13783,9893.00,0,0,165,0.77,-0.35,2.10,0.36,0.93,-0.16
1.5019531,0.010504671,-0.004099692,0.012825547,0.36,0.94,-0.16,13798,9893.90,0,0,0,0.49,-0.63,1.33,0.36,0.94,-0.16
0.6015625,0.03250467,-0.014099694,-0.017174454,0.35,0.93,-0.15,13813,9893.00,0,0,165,2.03,-1.33,-0.77,0.35,0.93,-0.15
0.6015625,0.059504673,-0.026099693,-0.052174456,0.35,0.93,-0.15,13820,9893.00,0,0,0,3.92,-2.17,-3.22,0.35,0.93,-0.15
0.6015625,0.09450467,-0.045099694,-0.092174456,0.35,0.93,-0.16,13835,9893.00,0,0,165,6.37,-3.50,-6.02,0.35,0.93,-0.16
0.6015625,0.11750467,-0.0600997,-0.13717446,0.35,0.92,-0.17,13851,9893.00,0,0,0,7.98,-4.55,-9.17,0.35,0.92,-0.17
0.6015625,0.12750468,-0.069099694,-0.17017445,0.34,0.92,-0.17,13858,9893.00,0,0,165,8.68,-5.18,-11.48,0.34,0.92,-0.17
0.6015625,0.11850467,-0.06809969,-0.18517445,0.34,0.92,-0.17,13873,9893.00,0,0,0,8.05,-5.11,-12.53,0.34,0.92,-0.17
0.9013672,0.10650467,-0.06609969,-0.17517446,0.34,0.93,-0.17,13888,9893.30,0,0,165,7.21,-4.97,-11.83,0.34,0.93,-0.17
0.9013672,0.089504674,-0.058099695,-0.14517446,0.33,0.94,-0.17,13895,9893.30,0,0,0,6.02,-4.41,-9.73,0.33,0.94,-0.17
0.6015625,0.08150467,-0.048099693,-0.107174456,0.33,0.94,-0.17,13911,9893.00,0,0,165,5.46,-3.71,-7.07,0.33,0.94,-0.17
0.6015625,0.07350467,-0.038099695,-0.066174455,0.33,0.94,-0.17,13925,9893.00,0,0,0,4.90,-3.01,-4.20,0.33,0.94,-0.17
0.6015625,0.07050467,-0.029099695,-0.038174458,0.33,0.94,-0.17,13934,9893.00,0,0,165,4.69,-2.38,-2.24,0.33,0.94,-0.17
1.5019531,0.064504676,-0.025099691,-0.023174455,0.34,0.94,-0.18,13948,9893.90,0,0,0,4.27,-2.10,-1.19,0.34,0.94,-0.18
0.6015625,0.064504676,-0.025099691,-0.026174454,0.34,0.93,-0.18,13965,9893.00,0,0,165,4.27,-2.10,-1.40,0.34,0.93,-0.18
0.6015625,0.07050467,-0.031099692,-0.04417446,0.34,0.93,-0.18,13970,9893.00,0,0,0,4.69,-2.52,-2.66,0.34,0.93,-0.18
0.6015625,0.074504666,-0.037099693,-0.066174455,0.34,0.93,-0.19,13986,9893.00,0,0,165,4.97,-2.94,-4.20,0.34,0.93,-0.19
1.5019531,0.07750467,-0.047099695,-0.08717445,0.33,0.93,-0.19,14001,9893.90,0,0,0,5.18,-3.64,-5.67,0.33,0.93,-0.19
1.5019531,0.082504675,-0.049099695,-0.110174455,0.33,0.93,-0.19,14009,9893.90,0,0,165,5.53,-3.78,-7.28,0.33,0.93,-0.19
0.6015625,0.07550467,-0.049099695,-0.118174456,0.33,0.93,-0.19,14023,9893.00,0,0,0,5.04,-3.78,-7.84,0.33,0.93,-0.19
-0.3984375,0.064504676,-0.042099692,-0.11217445,0.33,0.93,-0.19,14039,9892.00,0,0,165,4.27,-3.29,-7.42,0.33,0.93,-0.19
1.5019531,0.055504672,-0.037099693,-0.095174454,0.33,0.93,-0.19,14047,9893.90,0,0,0,3.64,-2.94,-6.23,0.33,0.93,-0.19
0.6015625,0.04550467,-0.030099694,-0.06717446,0.32,0.94,-0.19,14060,9893.00,0,0,165,2.94,-2.45,-4.27,0.32,0.94,-0.19
0.6015625,0.041504674,-0.023099694,-0.048174456,0.32,0.94,-0.19,14077,9893.00,0,0,0,2.66,-1.96,-2.94,0.32,0.94,-0.19
1.5019531,0.037504673,-0.018099692,-0.034174457,0.32,0.94,-0.19,14083,9893.90,0,0,165,2.38,-1.61,-1.96,0.32,0.94,-0.19
0.6015625,0.03250467,-0.016099691,-0.030174453,0.32,0.94,-0.19,14098,9893.00,0,0,0,2.03,-1.47,-1.68,0.32,0.94,-0.19
0.6015625,0.035504673,-0.016099691,-0.028174454,0.32,0.94,-0.19,14113,9893.00,0,0,165,2.24,-1.47,-1.54,0.32,0.94,-0.19
1.5019531,0.04050467,-0.018099692,-0.038174458,0.32,0.94,-0.19,14120,9893.90,0,0,0,2.59,-1.61,-2.24,0.32,0.94,-0.19
0.6015625,0.04350467,-0.026099693,-0.05517446,0.33,0.93,-0.19,14135,9893.00,0,0,165,2.80,-2.17,-3.43,0.33,0.93,-0.19
0.6015625,0.04750467,-0.028099693,-0.070174456,0.32,0.93,-0.2,14150,9893.00,0,0,0,3.08,-2.31,-4.48,0.32,0.93,-0.20
1.5019531,0.04750467,-0.033099696,-0.08317445,0.31,0.93,-0.2,14158,9893.90,0,0,165,3.08,-2.66,-5.39,0.31,0.93,-0.20
0.6015625,0.048504673,-0.032099694,-0.08717445,0.31,0.93,-0.2,14173,9893.00,0,0,0,3.15,-2.59,-5.67,0.31,0.93,-0.20
1.5019531,0.04950467,-0.035099693,-0.08717445,0.31,0.93,-0.2,14188,9893.90,0,0,165,3.22,-2.80,-5.67,0.31,0.93,-0.20
0.6015625,0.053504672,-0.031099692,-0.07917445,0.31,0.93,-0.2,14195,9893.00,0,0,0,3.50,-2.52,-5.11,0.31,0.93,-0.20
0.6015625,0.04950467,-0.028099693,-0.06417445,0.31,0.93,-0.2,14210,9893.00,0,0,165,3.22,-2.31,-4.06,0.31,0.93,-0.20
1.5019531,0.042504672,-0.021099694,-0.049174458,0.31,0.93,-0.21,14226,9893.90,0,0,0,2.73,-1.82,-3.01,0.31,0.93,-0.21
1.5019531,0.02750467,-0.017099693,-0.036174454,0.31,0.93,-0.2,14233,9893.90,0,0,165,1.68,-1.54,-2.10,0.31,0.93,-0.20
0.6015625,0.017504672,-0.010099692,-0.023174455,0.31,0.93,-0.2,14248,9893.00,0,0,0,0.98,-1.05,-1.19,0.31,0.93,-0.20
0.9013672,0.016504671,-0.008099693,-0.011174455,0.31,0.94,-0.2,14263,9893.30,0,0,165,0.91,-0.91,-0.35,0.31,0.94,-0.20
0.6015625,0.014504671,-0.004099692,-0.006174455,0.31,0.94,-0.2,14270,9893.00,0,0,0,0.77,-0.63,0.00,0.31,0.94,-0.20
1.8017578,0.012504671,-0.003099693,-0.0031744551,0.31,0.93,-0.2,14285,9894.20,0,0,165,0.63,-0.56,0.21,0.31,0.93,-0.20
1.5019531,0.012504671,-0.004099692,-0.006174455,0.31,0.94,-0.2,14300,9893.90,0,0,0,0.63,-0.63,0.00,0.31,0.94,-0.20
0.6015625,0.014504671,-0.007099692,-0.014174456,0.31,0.94,-0.2,14309,9893.00,0,0,165,0.77,-0.84,-0.56,0.31,0.94,-0.20
0.6015625,0.017504672,-0.011099693,-0.025174456,0.31,0.94,-0.2,14323,9893.00,0,0,0,0.98,-1.12,-1.33,0.31,0.94,-0.20
0.6015625,0.02150467,-0.0120996935,-0.033174455,0.31,0.94,-0.2,14338,9893.00,0,0,165,1.26,-1.19,-1.89,0.31,0.94,-0.20
0.6015625,0.020504672,-0.0120996935,-0.035174455,0.31,0.93,-0.2,14345,9893.00,0,0,0,1.19,-1.19,-2.03,0.31,0.93,-0.20
0.6015625,0.017504672,-0.010099692,-0.030174453,0.31,0.94,-0.21,14360,9893.00,0,0,165,0.98,-1.05,-1.68,0.31,0.94,-0.21
0.6015625,0.010504671,-0.0050996924,-0.017174454,0.31,0.93,-0.21,14376,9893.00,0,0,0,0.49,-0.70,-0.77,0.31,0.93,-0.21
1.5019531,0.0025046715,-0.0020996928,-0.004174455,0.31,0.94,-0.21,14384,9893.90,0,0,165,-0.07,-0.49,0.14,0.31,0.94,-0.21
0.6015625,-4.953288E-4,-9.9692494E-5,0.0038255448,0.31,0.94,-0.2,14398,9893.00,0,0,0,-0.28,-0.35,0.70,0.31,0.94,-0.20
1.5019531,0.006504671,-0.0010996922,-0.001174455,0.31,0.94,-0.2,14413,9893.90,0,0,165,0.21,-0.42,0.35,0.31,0.94,-0.20
0.6015625,0.011504672,-0.0060996925,-0.013174456,0.31,0.94,-0.2,14421,9893.00,0,0,0,0.56,-0.77,-0.49,0.31,0.94,-0.20
0.6015625,0.014504671,-0.008099693,-0.029174455,0.31,0.94,-0.21,14436,9893.00,0,0,165,0.77,-0.91,-1.61,0.31,0.94,-0.21
0.6015625,0.016504671,-0.010099692,-0.032174457,0.31,0.94,-0.2,14451,9893.00,0,0,0,0.91,-1.05,-1.82,0.31,0.94,-0.20
0.6015625,0.01550467,-0.008099693,-0.025174456,0.31,0.93,-0.2,14459,9893.00,0,0,165,0.84,-0.91,-1.33,0.31,0.93,-0.20
1.5019531,0.0045046713,-0.003099693,-0.011174455,0.3,0.93,-0.2,14474,9893.90,0,0,0,0.07,-0.56,-0.35,0.30,0.93,-0.20
0.6015625,5.046716E-4,9.003072E-4,0.0028255447,0.31,0.94,-0.2,14488,9893.00,0,0,165,-0.21,-0.28,0.63,0.31,0.94,-0.20
1.5019531,-0.0014953285,0.0029003073,0.0068255453,0.31,0.94,-0.2,14496,9893.90,0,0,0,-0.35,-0.14,0.91,0.31,0.94,-0.20
1.5019531,-0.0014953285,9.003072E-4,-1.7445534E-4,0.31,0.94,-0.2,14511,9893.90,0,0,165,-0.35,-0.28,0.42,0.31,0.94,-0.20
0.6015625,0.0025046715,-0.003099693,-0.0121744545,0.31,0.94,-0.2,14526,9893.00,0,0,0,-0.07,-0.56,-0.42,0.31,0.94,-0.20
1.8017578,0.007504672,-0.0060996925,-0.019174455,0.31,0.94,-0.2,14533,9894.20,0,0,165,0.28,-0.77,-0.91,0.31,0.94,-0.20
0.6015625,0.010504671,-0.007099692,-0.020174455,0.31,0.94,-0.2,14548,9893.00,0,0,0,0.49,-0.84,-0.98,0.31,0.94,-0.20
1.5019531,0.010504671,-0.0060996925,-0.017174454,0.31,0.94,-0.2,14563,9893.90,0,0,165,0.49,-0.77,-0.77,0.31,0.94,-0.20
0.6015625,0.010504671,-0.0050996924,-0.011174455,0.3,0.94,-0.2,14571,9893.00,0,0,0,0.49,-0.70,-0.35,0.30,0.94,-0.20
0.6015625,0.010504671,-0.003099693,-0.006174455,0.3,0.93,-0.21,14586,9893.00,0,0,165,0.49,-0.56,0.00,0.30,0.93,-0.21
0.6015625,0.008504671,-0.0010996922,-0.0021744547,0.3,0.94,-0.21,14601,9893.00,0,0,0,0.35,-0.42,0.28,0.30,0.94,-0.21
1.5019531,0.0025046715,-9.9692494E-5,-0.0021744547,0.3,0.93,-0.2,14609,9893.90,0,0,165,-0.07,-0.35,0.28,0.30,0.93,-0.20
0.6015625,0.0025046715,-0.0010996922,-0.001174455,0.31,0.94,-0.2,14623,9893.00,0,0,0,-0.07,-0.42,0.35,0.31,0.94,-0.20
0.6015625,0.0025046715,-9.9692494E-5,-1.7445534E-4,0.31,0.94,-0.2,14639,9893.00,0,0,165,-0.07,-0.35,0.42,0.31,0.94,-0.20
1.5019531,0.007504672,-0.0010996922,-0.0031744551,0.31,0.94,-0.2,14646,9893.90,0,0,0,0.28,-0.42,0.21,0.31,0.94,-0.20
1.5019531,0.0015046713,-0.003099693,-0.0021744547,0.31,0.94,-0.21,14662,9893.90,0,0,165,-0.14,-0.56,0.28,0.31,0.94,-0.21
0.6015625,0.011504672,-0.0020996928,-0.004174455,0.31,0.94,-0.2,14675,9893.00,0,0,0,0.56,-0.49,0.14,0.31,0.94,-0.20
0.6015625,0.007504672,-0.0060996925,-0.014174456,0.31,0.95,-0.2,14683,9893.00,0,0,165,0.28,-0.77,-0.56,0.31,0.95,-0.20
-0.3984375,0.02150467,-0.011099693,-0.021174455,0.3,0.94,-0.2,14698,9892.00,0,0,0,1.26,-1.12,-1.05,0.30,0.94,-0.20
1.5019531,0.02350467,-0.009099693,-0.031174455,0.3,0.94,-0.21,14714,9893.90,0,0,165,1.40,-0.98,-1.75,0.30,0.94,-0.21
0.6015625,0.02150467,-0.011099693,-0.033174455,0.3,0.94,-0.21,14721,9893.00,0,0,0,1.26,-1.12,-1.89,0.30,0.94,-0.21
0.6015625,0.019504672,-0.011099693,-0.029174455,0.31,0.94,-0.21,14736,9893.00,0,0,165,1.12,-1.12,-1.61,0.31,0.94,-0.21
1.5019531,0.020504672,-0.008099693,-0.022174455,0.3,0.93,-0.21,14751,9893.90,0,0,0,1.19,-0.91,-1.12,0.30,0.93,-0.21
1.8017578,0.014504671,-0.0050996924,-0.017174454,0.3,0.93,-0.21,14759,9894.20,0,0,165,0.77,-0.70,-0.77,0.30,0.93,-0.21
0.6015625,0.006504671,-0.0050996924,-0.013174456,0.3,0.94,-0.21,14773,9893.00,0,0,0,0.21,-0.70,-0.49,0.30,0.94,-0.21
0.6015625,0.0035046714,-0.003099693,-0.011174455,0.3,0.94,-0.21,14788,9893.00,0,0,165,0.00,-0.56,-0.35,0.30,0.94,-0.21
-0.3984375,0.0025046715,-0.003099693,-0.006174455,0.3,0.94,-0.21,14796,9892.00,0,0,0,-0.07,-0.56,0.00,0.30,0.94,-0.21
0.6015625,0.007504672,-0.0020996928,-0.0021744547,0.3,0.94,-0.21,14811,9893.00,0,0,165,0.28,-0.49,0.28,0.30,0.94,-0.21
0.6015625,0.011504672,-0.004099692,-0.0021744547,0.3,0.94,-0.21,14826,9893.00,0,0,0,0.56,-0.63,0.28,0.30,0.94,-0.21
1.5019531,0.012504671,-0.004099692,-0.009174455,0.3,0.94,-0.21,14833,9893.90,0,0,165,0.63,-0.63,-0.21,0.30,0.94,-0.21
0.6015625,0.014504671,-0.008099693,-0.022174455,0.3,0.94,-0.21,14848,9893.00,0,0,0,0.77,-0.91,-1.12,0.30,0.94,-0.21
0.6015625,0.01550467,-0.009099693,-0.030174453,0.3,0.94,-0.21,14863,9893.00,0,0,165,0.84,-0.98,-1.68,0.30,0.94,-0.21
1.5019531,0.013504671,-0.010099692,-0.027174454,0.3,0.94,-0.21,14870,9893.90,0,0,0,0.70,-1.05,-1.47,0.30,0.94,-0.21
0.6015625,0.011504672,-0.007099692,-0.020174455,0.3,0.94,-0.21,14885,9893.00,0,0,165,0.56,-0.84,-0.98,0.30,0.94,-0.21
0.6015625,0.009504671,-0.0050996924,-0.008174455,0.3,0.94,-0.21,14901,9893.00,0,0,0,0.42,-0.70,-0.14,0.30,0.94,-0.21
0.6015625,0.008504671,-0.003099693,-0.004174455,0.3,0.94,-0.21,14908,9893.00,0,0,165,0.35,-0.56,0.14,0.30,0.94,-0.21
0.6015625,0.007504672,-0.003099693,-0.004174455,0.3,0.94,-0.21,14923,9893.00,0,0,0,0.28,-0.56,0.14,0.30,0.94,-0.21
0.6015625,0.009504671,-0.003099693,-0.010174455,0.3,0.94,-0.21,14938,9893.00,0,0,165,0.42,-0.56,-0.28,0.30,0.94,-0.21
0.6015625,0.010504671,-0.0050996924,-0.013174456,0.3,0.94,-0.21,14946,9893.00,0,0,0,0.49,-0.70,-0.49,0.30,0.94,-0.21
0.6015625,0.010504671,-0.007099692,-0.019174455,0.3,0.94,-0.21,14961,9893.00,0,0,165,0.49,-0.84,-0.91,0.30,0.94,-0.21
1.5019531,0.010504671,-0.008099693,-0.019174455,0.3,0.94,-0.21,14976,9893.90,0,0,0,0.49,-0.91,-0.91,0.30,0.94,-0.21
0.6015625,0.012504671,-0.0060996925,-0.017174454,0.3,0.94,-0.21,14983,9893.00,0,0,165,0.63,-0.77,-0.77,0.30,0.94,-0.21
0.6015625,0.012504671,-0.0050996924,-0.0121744545,0.3,0.94,-0.21,14998,9893.00,0,0,0,0.63,-0.70,-0.42,0.30,0.94,-0.21
1.5019531,0.011504672,-0.004099692,-0.005174455,0.3,0.94,-0.21,15013,9893.90,0,0,165,0.56,-0.63,0.07,0.30,0.94,-0.21
0.6015625,0.007504672,-0.0020996928,-0.004174455,0.3,0.94,-0.21,15020,9893.00,0,0,0,0.28,-0.49,0.14,0.30,0.94,-0.21
0.6015625,5.046716E-4,-0.0010996922,-0.0031744551,0.3,0.94,-0.21,15035,9893.00,0,0,165,-0.21,-0.42,0.21,0.30,0.94,-0.21
1.5019531,-0.0024953282,-0.0010996922,-0.001174455,0.3,0.94,-0.21,15051,9893.90,0,0,0,-0.42,-0.42,0.35,0.30,0.94,-0.21
1.5019531,0.0055046715,-0.003099693,-0.004174455,0.3,0.95,-0.21,15058,9893.90,0,0,165,0.14,-0.56,0.14,0.30,0.95,-0.21
1.5019531,0.012504671,-0.004099692,-0.009174455,0.3,0.94,-0.21,15073,9893.90,0,0,0,0.63,-0.63,-0.21,0.30,0.94,-0.21
1.5019531,0.01550467,-0.008099693,-0.017174454,0.3,0.94,-0.21,15088,9893.90,0,0,165,0.84,-0.91,-0.77,0.30,0.94,-0.21
0.6015625,0.020504672,-0.010099692,-0.023174455,0.3,0.94,-0.21,15096,9893.00,0,0,0,1.19,-1.05,-1.19,0.30,0.94,-0.21
1.5019531,0.02150467,-0.0120996935,-0.028174454,0.3,0.94,-0.21,15111,9893.90,0,0,165,1.26,-1.19,-1.54,0.30,0.94,-0.21
1.5019531,0.020504672,-0.009099693,-0.028174454,0.3,0.94,-0.21,15126,9893.90,0,0,0,1.19,-0.98,-1.54,0.30,0.94,-0.21
0.6015625,0.017504672,-0.008099693,-0.024174454,0.3,0.94,-0.21,15133,9893.00,0,0,165,0.98,-0.91,-1.26,0.30,0.94,-0.21
0.6015625,0.011504672,-0.007099692,-0.018174455,0.3,0.94,-0.22,15148,9893.00,0,0,0,0.56,-0.84,-0.84,0.30,0.94,-0.22
0.6015625,0.007504672,-0.0050996924,-0.013174456,0.3,0.94,-0.21,15163,9893.00,0,0,165,0.28,-0.70,-0.49,0.30,0.94,-0.21
1.5019531,0.006504671,-0.004099692,-0.008174455,0.3,0.94,-0.21,15171,9893.90,0,0,0,0.21,-0.63,-0.14,0.30,0.94,-0.21
0.6015625,0.008504671,-0.004099692,-0.007174455,0.29,0.94,-0.21,15185,9893.00,0,0,165,0.35,-0.63,-0.07,0.29,0.94,-0.21
0.6015625,0.008504671,-0.004099692,-0.008174455,0.3,0.94,-0.21,15200,9893.00,0,0,0,0.35,-0.63,-0.14,0.30,0.94,-0.21
0.6015625,0.008504671,-0.004099692,-0.011174455,0.3,0.94,-0.21,15208,9893.00,0,0,165,0.35,-0.63,-0.35,0.30,0.94,-0.21
0.6015625,0.008504671,-0.0050996924,-0.0121744545,0.3,0.94,-0.21,15223,9893.00,0,0,0,0.35,-0.70,-0.42,0.30,0.94,-0.21
1.5019531,0.009504671,-0.0050996924,-0.014174456,0.29,0.94,-0.21,15238,9893.90,0,0,165,0.42,-0.70,-0.56,0.29,0.94,-0.21
0.6015625,0.011504672,-0.0050996924,-0.014174456,0.29,0.94,-0.21,15246,9893.00,0,0,0,0.56,-0.70,-0.56,0.29,0.94,-0.21
0.6015625,0.011504672,-0.0060996925,-0.015174454,0.29,0.94,-0.21,15261,9893.00,0,0,165,0.56,-0.77,-0.63,0.29,0.94,-0.21
1.5019531,0.012504671,-0.007099692,-0.016174454,0.3,0.94,-0.22,15275,9893.90,0,0,0,0.63,-0.84,-0.70,0.30,0.94,-0.22
0.6015625,0.008504671,-0.007099692,-0.018174455,0.29,0.94,-0.21,15283,9893.00,0,0,165,0.35,-0.84,-0.84,0.29,0.94,-0.21
1.5019531,0.012504671,-0.0050996924,-0.017174454,0.3,0.94,-0.21,15298,9893.90,0,0,0,0.63,-0.70,-0.77,0.30,0.94,-0.21
0.6015625,0.0045046713,-0.004099692,-0.0121744545,0.3,0.94,-0.22,15313,9893.00,0,0,165,0.07,-0.63,-0.42,0.30,0.94,-0.22
0.6015625,0.008504671,-0.0050996924,-0.0121744545,0.29,0.94,-0.22,15320,9893.00,0,0,0,0.35,-0.70,-0.42,0.29,0.94,-0.22
0.9013672,0.010504671,-0.0050996924,-0.010174455,0.3,0.94,-0.22,15336,9893.30,0,0,165,0.49,-0.70,-0.28,0.30,0.94,-0.22
1.5019531,0.010504671,-0.0050996924,-0.017174454,0.29,0.94,-0.22,15352,9893.90,0,0,0,0.49,-0.70,-0.77,0.29,0.94,-0.22
0.6015625,0.012504671,-0.0050996924,-0.018174455,0.29,0.94,-0.22,15366,9893.00,0,0,165,0.63,-0.70,-0.84,0.29,0.94,-0.22
0.6015625,0.01550467,-0.008099693,-0.022174455,0.29,0.94,-0.22,15373,9893.00,0,0,0,0.84,-0.91,-1.12,0.29,0.94,-0.22
1.5019531,0.017504672,-0.007099692,-0.022174455,0.29,0.94,-0.22,15388,9893.90,0,0,165,0.98,-0.84,-1.12,0.29,0.94,-0.22
1.5019531,0.016504671,-0.008099693,-0.023174455,0.29,0.93,-0.22,15397,9893.90,0,0,0,0.91,-0.91,-1.19,0.29,0.93,-0.22
1.5019531,0.01550467,-0.0060996925,-0.021174455,0.29,0.94,-0.22,15411,9893.90,0,0,165,0.84,-0.77,-1.05,0.29,0.94,-0.22
0.6015625,0.007504672,-0.0060996925,-0.019174455,0.29,0.94,-0.22,15425,9893.00,0,0,0,0.28,-0.77,-0.91,0.29,0.94,-0.22
0.6015625,0.0055046715,-0.004099692,-0.013174456,0.29,0.94,-0.22,15433,9893.00,0,0,165,0.14,-0.63,-0.49,0.29,0.94,-0.22
1.5019531,0.007504672,-0.004099692,-0.007174455,0.29,0.94,-0.22,15448,9893.90,0,0,0,0.28,-0.63,-0.07,0.29,0.94,-0.22
0.6015625,0.011504672,-0.0050996924,-0.008174455,0.29,0.94,-0.22,15463,9893.00,0,0,165,0.56,-0.70,-0.14,0.29,0.94,-0.22
0.6015625,0.012504671,-0.0050996924,-0.008174455,0.29,0.94,-0.22,15471,9893.00,0,0,0,0.63,-0.70,-0.14,0.29,0.94,-0.22
1.5019531,0.010504671,-0.007099692,-0.011174455,0.29,0.94,-0.22,15486,9893.90,0,0,165,0.49,-0.84,-0.35,0.29,0.94,-0.22
1.5019531,0.009504671,-0.008099693,-0.016174454,0.29,0.94,-0.22,15501,9893.90,0,0,0,0.42,-0.91,-0.70,0.29,0.94,-0.22
1.5019531,0.009504671,-0.007099692,-0.018174455,0.29,0.94,-0.22,15509,9893.90,0,0,165,0.42,-0.84,-0.84,0.29,0.94,-0.22
0.6015625,0.012504671,-0.009099693,-0.019174455,0.29,0.94,-0.22,15523,9893.00,0,0,0,0.63,-0.98,-0.91,0.29,0.94,-0.22
0.6015625,0.012504671,-0.009099693,-0.018174455,0.29,0.94,-0.22,15538,9893.00,0,0,165,0.63,-0.98,-0.84,0.29,0.94,-0.22
1.5019531,0.012504671,-0.009099693,-0.016174454,0.29,0.94,-0.22,15546,9893.90,0,0,0,0.63,-0.98,-0.70,0.29,0.94,-0.22
0.6015625,0.011504672,-0.007099692,-0.016174454,0.29,0.94,-0.22,15561,9893.00,0,0,165,0.56,-0.84,-0.70,0.29,0.94,-0.22
2.5019531,0.011504672,-0.007099692,-0.013174456,0.29,0.94,-0.22,15576,9894.90,0,0,0,0.56,-0.84,-0.49,0.29,0.94,-0.22
1.5019531,0.009504671,-0.0060996925,-0.014174456,0.29,0.94,-0.22,15583,9893.90,0,0,165,0.42,-0.77,-0.56,0.29,0.94,-0.22
0.6015625,0.0055046715,-0.004099692,-0.009174455,0.29,0.94,-0.22,15599,9893.00,0,0,0,0.14,-0.63,-0.21,0.29,0.94,-0.22
1.5019531,0.0045046713,-0.004099692,-0.007174455,0.29,0.94,-0.22,15614,9893.90,0,0,165,0.07,-0.63,-0.07,0.29,0.94,-0.22
0.6015625,0.0045046713,-0.0050996924,-0.0031744551,0.29,0.94,-0.22,15621,9893.00,0,0,0,0.07,-0.70,0.21,0.29,0.94,-0.22
0.6015625,0.008504671,-0.0060996925,-0.005174455,0.29,0.94,-0.22,15636,9893.00,0,0,165,0.35,-0.77,0.07,0.29,0.94,-0.22
0.6015625,0.010504671,-0.007099692,-0.0121744545,0.29,0.94,-0.22,15651,9893.00,0,0,0,0.49,-0.84,-0.42,0.29,0.94,-0.22
0.6015625,0.014504671,-0.011099693,-0.020174455,0.29,0.94,-0.22,15659,9893.00,0,0,165,0.77,-1.12,-0.98,0.29,0.94,-0.22
0.6015625,0.01550467,-0.013099692,-0.029174455,0.29,0.94,-0.22,15673,9893.00,0,0,0,0.84,-1.26,-1.61,0.29,0.94,-0.22
1.5019531,0.013504671,-0.011099693,-0.026174454,0.29,0.94,-0.22,15688,9893.90,0,0,165,0.70,-1.12,-1.40,0.29,0.94,-0.22
1.5019531,0.010504671,-0.008099693,-0.016174454,0.29,0.94,-0.22,15695,9893.90,0,0,0,0.49,-0.91,-0.70,0.29,0.94,-0.22
0.6015625,0.011504672,-0.007099692,-0.007174455,0.28,0.94,-0.22,15711,9893.00,0,0,165,0.56,-0.84,-0.07,0.28,0.94,-0.22
1.5019531,0.009504671,-0.0050996924,-0.0031744551,0.28,0.94,-0.22,15725,9893.90,0,0,0,0.42,-0.70,0.21,0.28,0.94,-0.22
0.6015625,0.0055046715,-0.0050996924,-0.007174455,0.29,0.94,-0.22,15733,9893.00,0,0,165,0.14,-0.70,-0.07,0.29,0.94,-0.22
0.6015625,0.0055046715,-0.0060996925,-0.009174455,0.29,0.94,-0.22,15748,9893.00,0,0,0,0.14,-0.77,-0.21,0.29,0.94,-0.22
0.6015625,0.007504672,-0.0060996925,-0.0121744545,0.28,0.94,-0.22,15764,9893.00,0,0,165,0.28,-0.77,-0.42,0.28,0.94,-0.22
0.6015625,0.007504672,-0.0050996924,-0.013174456,0.29,0.94,-0.22,15771,9893.00,0,0,0,0.28,-0.70,-0.49,0.29,0.94,-0.22
1.5019531,0.008504671,-0.007099692,-0.011174455,0.28,0.94,-0.22,15786,9893.90,0,0,165,0.35,-0.84,-0.35,0.28,0.94,-0.22
-0.3984375,0.009504671,-0.0060996925,-0.011174455,0.29,0.94,-0.22,15800,9892.00,0,0,0,0.42,-0.77,-0.35,0.29,0.94,-0.22
0.6015625,0.007504672,-0.0060996925,-0.014174456,0.29,0.94,-0.22,15808,9893.00,0,0,165,0.28,-0.77,-0.56,0.29,0.94,-0.22
1.5019531,0.006504671,-0.0050996924,-0.013174456,0.28,0.94,-0.22,15823,9893.90,0,0,0,0.21,-0.70,-0.49,0.28,0.94,-0.22
1.5019531,0.009504671,-0.004099692,-0.007174455,0.28,0.94,-0.22,15838,9893.90,0,0,165,0.42,-0.63,-0.07,0.28,0.94,-0.22
0.6015625,0.007504672,-0.0060996925,-0.005174455,0.28,0.94,-0.22,15845,9893.00,0,0,0,0.28,-0.77,0.07,0.28,0.94,-0.22
1.5019531,0.007504672,-0.0050996924,-0.005174455,0.28,0.94,-0.22,15861,9893.90,0,0,165,0.28,-0.70,0.07,0.28,0.94,-0.22
0.6015625,0.008504671,-0.004099692,-0.007174455,0.28,0.94,-0.22,15876,9893.00,0,0,0,0.35,-0.63,-0.07,0.28,0.94,-0.22
1.5019531,0.008504671,-0.0050996924,-0.010174455,0.29,0.94,-0.22,15883,9893.90,0,0,165,0.35,-0.70,-0.28,0.29,0.94,-0.22
0.6015625,0.010504671,-0.0060996925,-0.0121744545,0.28,0.94,-0.23,15899,9893.00,0,0,0,0.49,-0.77,-0.42,0.28,0.94,-0.23
1.5019531,0.008504671,-0.0060996925,-0.0121744545,0.28,0.94,-0.22,15913,9893.90,0,0,165,0.35,-0.77,-0.42,0.28,0.94,-0.22
0.6015625,0.007504672,-0.0060996925,-0.0121744545,0.28,0.94,-0.22,15920,9893.00,0,0,0,0.28,-0.77,-0.42,0.28,0.94,-0.22
0.6015625,0.008504671,-0.004099692,-0.008174455,0.28,0.94,-0.22,15936,9893.00,0,0,165,0.35,-0.63,-0.14,0.28,0.94,-0.22
2.5019531,0.008504671,-0.003099693,-0.009174455,0.28,0.94,-0.22,15950,9894.90,0,0,0,0.35,-0.56,-0.21,0.28,0.94,-0.22
0.20117188,0.006504671,-0.003099693,-0.007174455,0.28,0.94,-0.22,15958,9892.60,0,0,165,0.21,-0.56,-0.07,0.28,0.94,-0.22
1.2011719,0.007504672,-0.0020996928,-0.008174455,0.28,0.94,-0.22,15973,9893.60,0,0,0,0.28,-0.49,-0.14,0.28,0.94,-0.22
0.6015625,0.007504672,-0.0020996928,-0.007174455,0.28,0.94,-0.23,15988,9893.00,0,0,165,0.28,-0.49,-0.07,0.28,0.94,-0.23
1.5019531,0.0025046715,-0.003099693,-0.005174455,0.28,0.94,-0.22,15996,9893.90,0,0,0,-0.07,-0.56,0.07,0.28,0.94,-0.22
0.6015625,-4.953288E-4,-0.0010996922,-0.004174455,0.28,0.94,-0.22,16011,9893.00,0,0,165,-0.28,-0.42,0.14,0.28,0.94,-0.22
0.6015625,0.0035046714,-9.9692494E-5,-0.0031744551,0.29,0.94,-0.22,16026,9893.00,0,0,0,0.00,-0.35,0.21,0.29,0.94,-0.22
1.5019531,0.0055046715,-0.0020996928,-1.7445534E-4,0.28,0.94,-0.22,16033,9893.90,0,0,165,0.14,-0.49,0.42,0.28,0.94,-0.22
0.6015625,0.0055046715,-0.0010996922,-0.004174455,0.28,0.94,-0.22,16048,9893.00,0,0,0,0.14,-0.42,0.14,0.28,0.94,-0.22
1.5019531,0.0045046713,-0.0020996928,-0.009174455,0.28,0.94,-0.22,16062,9893.90,0,0,165,0.07,-0.49,-0.21,0.28,0.94,-0.22
0.6015625,0.011504672,-0.0050996924,-0.010174455,0.28,0.94,-0.22,16071,9893.00,0,0,0,0.56,-0.70,-0.28,0.28,0.94,-0.22
0.6015625,0.007504672,-0.0050996924,-0.015174454,0.28,0.94,-0.22,16086,9893.00,0,0,165,0.28,-0.70,-0.63,0.28,0.94,-0.22
1.5019531,0.0035046714,-0.004099692,-0.009174455,0.29,0.94,-0.23,16100,9893.90,0,0,0,0.00,-0.63,-0.21,0.29,0.94,-0.23
0.6015625,0.0025046715,-0.003099693,-0.009174455,0.29,0.94,-0.22,16108,9893.00,0,0,165,-0.07,-0.56,-0.21,0.29,0.94,-0.22
1.5019531,0.008504671,-0.0010996922,-0.004174455,0.28,0.94,-0.22,16123,9893.90,0,0,0,0.35,-0.42,0.14,0.28,0.94,-0.22
1.5019531,0.008504671,-0.003099693,-0.006174455,0.28,0.94,-0.23,16138,9893.90,0,0,165,0.35,-0.56,0.00,0.28,0.94,-0.23
0.6015625,0.0045046713,-0.004099692,-0.0121744545,0.28,0.94,-0.22,16146,9893.00,0,0,0,0.07,-0.63,-0.42,0.28,0.94,-0.22
1.5019531,0.0055046715,-0.003099693,-0.010174455,0.28,0.94,-0.23,16161,9893.90,0,0,165,0.14,-0.56,-0.28,0.28,0.94,-0.23
0.6015625,0.0055046715,-0.003099693,-0.009174455,0.28,0.94,-0.23,16176,9893.00,0,0,0,0.14,-0.56,-0.21,0.28,0.94,-0.23
1.5019531,0.0045046713,-0.0010996922,-0.004174455,0.28,0.94,-0.23,16183,9893.90,0,0,165,0.07,-0.42,0.14,0.28,0.94,-0.23
0.6015625,0.0025046715,-0.0010996922,0.0028255447,0.28,0.94,-0.23,16199,9893.00,0,0,0,-0.07,-0.42,0.63,0.28,0.94,-0.23
1.2011719,-0.0014953285,9.003072E-4,0.0018255454,0.28,0.94,-0.22,16214,9893.60,0,0,165,-0.35,-0.28,0.56,0.28,0.94,-0.22
1.5019531,-0.0014953285,9.003072E-4,8.255453E-4,0.28,0.94,-0.23,16221,9893.90,0,0,0,-0.35,-0.28,0.49,0.28,0.94,-0.23
0.6015625,-4.953288E-4,-9.9692494E-5,-1.7445534E-4,0.28,0.94,-0.22,16236,9893.00,0,0,165,-0.28,-0.35,0.42,0.28,0.94,-0.22
1.5019531,5.046716E-4,-0.0010996922,-0.004174455,0.28,0.94,-0.22,16250,9893.90,0,0,0,-0.21,-0.42,0.14,0.28,0.94,-0.22
1.5019531,0.0015046713,-0.0020996928,-0.004174455,0.28,0.94,-0.23,16258,9893.90,0,0,165,-0.14,-0.49,0.14,0.28,0.94,-0.23
0.6015625,0.0035046714,-0.0020996928,-0.004174455,0.28,0.94,-0.22,16273,9893.00,0,0,0,0.00,-0.49,0.14,0.28,0.94,-0.22
1.5019531,0.0055046715,-0.0020996928,-0.006174455,0.28,0.94,-0.22,16288,9893.90,0,0,165,0.14,-0.49,0.00,0.28,0.94,-0.22
1.5019531,0.0045046713,-0.0010996922,-0.006174455,0.28,0.94,-0.22,16296,9893.90,0,0,0,0.07,-0.42,0.00,0.28,0.94,-0.22
1.5019531,0.0055046715,-0.0020996928,-0.004174455,0.28,0.94,-0.23,16311,9893.90,0,0,165,0.14,-0.49,0.14,0.28,0.94,-0.23
0.6015625,0.0035046714,-9.9692494E-5,-0.0031744551,0.28,0.94,-0.23,16325,9893.00,0,0,0,0.00,-0.35,0.21,0.28,0.94,-0.23
0.6015625,0.25850466,9.003072E-4,-0.001174455,0.28,0.94,-0.22,16333,9893.00,0,0,165,17.85,-0.28,0.35,0.28,0.94,-0.22
0.6015625,0.0015046713,-0.0010996922,-0.004174455,0.28,0.94,-0.22,16348,9893.00,0,0,0,-0.14,-0.42,0.14,0.28,0.94,-0.22
1.5019531,0.0045046713,-0.0010996922,-0.0021744547,0.28,0.94,-0.22,16363,9893.90,0,0,165,0.07,-0.42,0.28,0.28,0.94,-0.22
1.5019531,0.0045046713,-0.0020996928,-0.005174455,0.28,0.94,-0.22,16370,9893.90,0,0,0,0.07,-0.49,0.07,0.28,0.94,-0.22
0.9013672,0.0035046714,-0.0020996928,-0.006174455,0.28,0.94,-0.23,16386,9893.30,0,0,165,0.00,-0.49,0.00,0.28,0.94,-0.23
1.5019531,0.0045046713,-0.0020996928,-0.005174455,0.28,0.94,-0.23,16401,9893.90,0,0,0,0.07,-0.49,0.07,0.28,0.94,-0.23
0.6015625,0.0035046714,-0.0020996928,-0.005174455,0.28,0.94,-0.23,16408,9893.00,0,0,165,0.00,-0.49,0.07,0.28,0.94,-0.23
0.6015625,0.0035046714,-0.0020996928,-0.007174455,0.28,0.94,-0.23,16423,9893.00,0,0,0,0.00,-0.49,-0.07,0.28,0.94,-0.23
1.5019531,0.0045046713,-9.9692494E-5,-0.004174455,0.28,0.94,-0.23,16438,9893.90,0,0,165,0.07,-0.35,0.14,0.28,0.94,-0.23
1.5019531,0.0015046713,-0.0010996922,-0.001174455,0.28,0.94,-0.23,16446,9893.90,0,0,0,-0.14,-0.42,0.35,0.28,0.94,-0.23
0.6015625,0.0025046715,-9.9692494E-5,-0.0021744547,0.28,0.94,-0.23,16461,9893.00,0,0,165,-0.07,-0.35,0.28,0.28,0.94,-0.23
2.5019531,5.046716E-4,9.003072E-4,0.0018255454,0.28,0.94,-0.23,16476,9894.90,0,0,0,-0.21,-0.28,0.56,0.28,0.94,-0.23
1.5019531,-4.953288E-4,-9.9692494E-5,-1.7445534E-4,0.28,0.94,-0.23,16483,9893.90,0,0,165,-0.28,-0.35,0.42,0.28,0.94,-0.23
0.6015625,-0.0014953285,-9.9692494E-5,-0.0021744547,0.28,0.94,-0.23,16498,9893.00,0,0,0,-0.35,-0.35,0.28,0.28,0.94,-0.23
1.5019531,0.0035046714,-0.0010996922,-0.005174455,0.28,0.94,-0.23,16513,9893.90,0,0,165,0.00,-0.42,0.07,0.28,0.94,-0.23
1.5019531,0.006504671,-0.003099693,-0.006174455,0.28,0.94,-0.23,16520,9893.90,0,0,0,0.21,-0.56,0.00,0.28,0.94,-0.23
0.6015625,0.006504671,-0.003099693,-0.006174455,0.28,0.94,-0.23,16536,9893.00,0,0,165,0.21,-0.56,0.00,0.28,0.94,-0.23
1.5019531,0.0045046713,-0.0020996928,-0.008174455,0.28,0.94,-0.22,16551,9893.90,0,0,0,0.07,-0.49,-0.14,0.28,0.94,-0.22
0.6015625,0.0035046714,-0.0010996922,-0.005174455,0.28,0.94,-0.23,16559,9893.00,0,0,165,0.00,-0.42,0.07,0.28,0.94,-0.23
1.5019531,0.0045046713,-0.0020996928,-0.006174455,0.28,0.94,-0.23,16572,9893.90,0,0,0,0.07,-0.49,0.00,0.28,0.94,-0.23
0.6015625,0.0045046713,-0.0010996922,-0.004174455,0.28,0.94,-0.23,16587,9893.00,0,0,165,0.07,-0.42,0.14,0.28,0.94,-0.23
1.5019531,-4.953288E-4,9.003072E-4,0.0018255454,0.28,0.94,-0.23,16595,9893.90,0,0,0,-0.28,-0.28,0.56,0.28,0.94,-0.23
1.5019531,-0.0014953285,9.003072E-4,-1.7445534E-4,0.28,0.94,-0.23,16610,9893.90,0,0,165,-0.35,-0.28,0.42,0.28,0.94,-0.23
0.6015625,5.046716E-4,-9.9692494E-5,-0.001174455,0.28,0.94,-0.23,16626,9893.00,0,0,0,-0.21,-0.35,0.35,0.28,0.94,-0.23
1.5019531,0.0025046715,-0.0010996922,-0.005174455,0.28,0.94,-0.22,16632,9893.90,0,0,165,-0.07,-0.42,0.07,0.28,0.94,-0.22
0.6015625,0.0025046715,-0.0010996922,-0.004174455,0.28,0.94,-0.23,16648,9893.00,0,0,0,-0.07,-0.42,0.14,0.28,0.94,-0.23
0.6015625,0.0025046715,-0.0020996928,-0.004174455,0.28,0.94,-0.23,16663,9893.00,0,0,165,-0.07,-0.49,0.14,0.28,0.94,-0.23
1.5019531,5.046716E-4,-0.0010996922,-0.0021744547,0.28,0.94,-0.23,16671,9893.90,0,0,0,-0.21,-0.42,0.28,0.28,0.94,-0.23
0.6015625,0.0025046715,-9.9692494E-5,-0.0031744551,0.28,0.94,-0.23,16686,9893.00,0,0,165,-0.07,-0.35,0.21,0.28,0.94,-0.23
0.6015625,0.0025046715,-9.9692494E-5,8.255453E-4,0.28,0.94,-0.23,16701,9893.00,0,0,0,-0.07,-0.35,0.49,0.28,0.94,-0.23
1.5019531,0.0025046715,-0.0010996922,0.0028255447,0.28,0.94,-0.23,16711,9893.90,0,0,165,-0.07,-0.42,0.63,0.28,0.94,-0.23
0.6015625,0.0015046713,-0.0010996922,-0.001174455,0.28,0.94,-0.23,16723,9893.00,0,0,0,-0.14,-0.42,0.35,0.28,0.94,-0.23
0.6015625,0.0025046715,-0.0010996922,-0.0021744547,0.28,0.94,-0.23,16738,9893.00,0,0,165,-0.07,-0.42,0.28,0.28,0.94,-0.23
1.5019531,0.0055046715,-0.0020996928,-0.007174455,0.28,0.94,-0.23,16746,9893.90,0,0,0,0.14,-0.49,-0.07,0.28,0.94,-0.23
0.6015625,0.006504671,-0.004099692,-0.007174455,0.28,0.94,-0.23,16761,9893.00,0,0,165,0.21,-0.63,-0.07,0.28,0.94,-0.23
1.5019531,0.0045046713,-0.003099693,-0.007174455,0.28,0.94,-0.23,16775,9893.90,0,0,0,0.07,-0.56,-0.07,0.28,0.94,-0.23
1.5019531,0.006504671,-0.0020996928,-0.005174455,0.28,0.94,-0.23,16783,9893.90,0,0,165,0.21,-0.49,0.07,0.28,0.94,-0.23
0.6015625,0.0045046713,-0.003099693,-0.006174455,0.28,0.94,-0.23,16798,9893.00,0,0,0,0.07,-0.56,0.00,0.28,0.94,-0.23
1.2011719,0.0045046713,-0.0020996928,-0.005174455,0.28,0.94,-0.23,16813,9893.60,0,0,165,0.07,-0.49,0.07,0.28,0.94,-0.23
-0.3984375,0.0035046714,-0.0020996928,-0.006174455,0.28,0.94,-0.23,16820,9892.00,0,0,0,0.00,-0.49,0.00,0.28,0.94,-0.23
0.6015625,0.0045046713,-0.003099693,-0.005174455,0.28,0.94,-0.23,16836,9893.00,0,0,165,0.07,-0.56,0.07,0.28,0.94,-0.23
2.5019531,0.007504672,-0.004099692,-0.009174455,0.28,0.94,-0.23,16850,9894.90,0,0,0,0.28,-0.63,-0.21,0.28,0.94,-0.23
1.5019531,0.007504672,-0.004099692,-0.011174455,0.28,0.94,-0.23,16860,9893.90,0,0,165,0.28,-0.63,-0.35,0.28,0.94,-0.23
0.6015625,0.009504671,-0.003099693,-0.0121744545,0.28,0.94,-0.23,16872,9893.00,0,0,0,0.42,-0.56,-0.42,0.28,0.94,-0.23
1.5019531,0.0045046713,-0.003099693,-0.014174456,0.28,0.94,-0.23,16887,9893.90,0,0,165,0.07,-0.56,-0.56,0.28,0.94,-0.23
0.6015625,0.0045046713,-0.003099693,-0.007174455,0.28,0.94,-0.23,16895,9893.00,0,0,0,0.07,-0.56,-0.07,0.28,0.94,-0.23
0.6015625,0.007504672,-0.003099693,-0.0031744551,0.28,0.94,-0.23,16910,9893.00,0,0,165,0.28,-0.56,0.21,0.28,0.94,-0.23
0.6015625,0.0015046713,-0.0020996928,-0.006174455,0.28,0.94,-0.23,16925,9893.00,0,0,0,-0.14,-0.49,0.00,0.28,0.94,-0.23
0.6015625,0.0045046713,-0.0020996928,-0.006174455,0.28,0.94,-0.23,16932,9893.00,0,0,165,0.07,-0.49,0.00,0.28,0.94,-0.23
1.5019531,0.007504672,-0.004099692,-0.006174455,0.28,0.94,-0.23,16948,9893.90,0,0,0,0.28,-0.63,0.00,0.28,0.94,-0.23
0.6015625,0.0045046713,-0.0020996928,-0.0121744545,0.28,0.94,-0.23,16964,9893.00,0,0,165,0.07,-0.49,-0.42,0.28,0.94,-0.23
0.6015625,0.0055046715,-0.003099693,-0.006174455,0.28,0.94,-0.23,16970,9893.00,0,0,0,0.14,-0.56,0.00,0.28,0.94,-0.23
0.6015625,0.0045046713,-0.0020996928,-0.005174455,0.28,0.94,-0.23,16985,9893.00,0,0,165,0.07,-0.49,0.07,0.28,0.94,-0.23
1.5019531,0.0025046715,-0.0020996928,-0.004174455,0.28,0.94,-0.23,17001,9893.90,0,0,0,-0.07,-0.49,0.14,0.28,0.94,-0.23
0.6015625,0.006504671,-0.0020996928,-0.0031744551,0.28,0.94,-0.23,17008,9893.00,0,0,165,0.21,-0.49,0.21,0.28,0.94,-0.23
0.6015625,0.007504672,-0.003099693,-0.008174455,0.28,0.94,-0.23,17023,9893.00,0,0,0,0.28,-0.56,-0.14,0.28,0.94,-0.23
-0.3984375,0.006504671,-0.004099692,-0.0121744545,0.28,0.94,-0.23,17038,9892.00,0,0,165,0.21,-0.63,-0.42,0.28,0.94,-0.23
1.5019531,0.006504671,-0.0060996925,-0.015174454,0.28,0.94,-0.23,17046,9893.90,0,0,0,0.21,-0.77,-0.63,0.28,0.94,-0.23
0.6015625,0.006504671,-0.0060996925,-0.014174456,0.27,0.94,-0.23,17061,9893.00,0,0,165,0.21,-0.77,-0.56,0.27,0.94,-0.23
1.5019531,0.006504671,-0.004099692,-0.007174455,0.28,0.94,-0.23,17075,9893.90,0,0,0,0.21,-0.63,-0.07,0.28,0.94,-0.23
1.5019531,0.0045046713,-0.004099692,-0.005174455,0.28,0.94,-0.23,17083,9893.90,0,0,165,0.07,-0.63,0.07,0.28,0.94,-0.23
1.5019531,0.007504672,-0.004099692,-0.0031744551,0.28,0.94,-0.23,17098,9893.90,0,0,0,0.28,-0.63,0.21,0.28,0.94,-0.23
0.6015625,0.006504671,-0.004099692,-0.007174455,0.27,0.94,-0.23,17113,9893.00,0,0,165,0.21,-0.63,-0.07,0.27,0.94,-0.23
0.9013672,0.006504671,-0.004099692,-0.008174455,0.28,0.94,-0.23,17120,9893.30,0,0,0,0.21,-0.63,-0.14,0.28,0.94,-0.23
1.5019531,0.007504672,-0.0050996924,-0.008174455,0.28,0.94,-0.23,17136,9893.90,0,0,165,0.28,-0.70,-0.14,0.28,0.94,-0.23
1.5019531,0.0045046713,-0.0050996924,-0.010174455,0.27,0.94,-0.23,17151,9893.90,0,0,0,0.07,-0.70,-0.28,0.27,0.94,-0.23
0.6015625,0.0015046713,-0.003099693,-0.010174455,0.27,0.94,-0.23,17157,9893.00,0,0,165,-0.14,-0.56,-0.28,0.27,0.94,-0.23
0.6015625,0.0045046713,-0.003099693,-0.009174455,0.27,0.94,-0.23,17172,9893.00,0,0,0,0.07,-0.56,-0.21,0.27,0.94,-0.23
1.5019531,0.006504671,-0.004099692,-0.005174455,0.27,0.94,-0.23,17188,9893.90,0,0,165,0.21,-0.63,0.07,0.27,0.94,-0.23
1.5019531,0.0055046715,-0.003099693,-0.0031744551,0.28,0.94,-0.23,17195,9893.90,0,0,0,0.14,-0.56,0.21,0.28,0.94,-0.23
1.5019531,5.046716E-4,-0.0020996928,-0.0031744551,0.28,0.94,-0.23,17210,9893.90,0,0,165,-0.21,-0.49,0.21,0.28,0.94,-0.23
2.5019531,0.0015046713,-0.0020996928,-0.004174455,0.28,0.95,-0.23,17225,9894.90,0,0,0,-0.14,-0.49,0.14,0.28,0.95,-0.23
0.6015625,0.0035046714,-0.003099693,-0.006174455,0.28,0.94,-0.23,17233,9893.00,0,0,165,0.00,-0.56,0.00,0.28,0.94,-0.23
1.5019531,0.007504672,-0.0050996924,-0.009174455,0.27,0.94,-0.23,17248,9893.90,0,0,0,0.28,-0.70,-0.21,0.27,0.94,-0.23
1.5019531,0.007504672,-0.004099692,-0.014174456,0.27,0.94,-0.23,17263,9893.90,0,0,165,0.28,-0.63,-0.56,0.27,0.94,-0.23
1.5019531,0.0015046713,-0.004099692,-0.0121744545,0.27,0.94,-0.23,17270,9893.90,0,0,0,-0.14,-0.63,-0.42,0.27,0.94,-0.23
0.6015625,0.0015046713,-0.003099693,-0.007174455,0.27,0.94,-0.23,17285,9893.00,0,0,165,-0.14,-0.56,-0.07,0.27,0.94,-0.23
0.6015625,0.0045046713,-0.003099693,-1.7445534E-4,0.27,0.94,-0.23,17300,9893.00,0,0,0,0.07,-0.56,0.42,0.27,0.94,-0.23
0.6015625,0.0055046715,-0.0020996928,-1.7445534E-4,0.27,0.94,-0.23,17308,9893.00,0,0,165,0.14,-0.49,0.42,0.27,0.94,-0.23
0.6015625,0.0025046715,-0.003099693,-0.006174455,0.27,0.94,-0.23,17323,9893.00,0,0,0,-0.07,-0.56,0.00,0.27,0.94,-0.23
1.5019531,0.0035046714,-0.003099693,-0.014174456,0.27,0.95,-0.23,17338,9893.90,0,0,165,0.00,-0.56,-0.56,0.27,0.95,-0.23
1.5019531,0.008504671,-0.007099692,-0.016174454,0.27,0.94,-0.23,17346,9893.90,0,0,0,0.35,-0.84,-0.70,0.27,0.94,-0.23
1.5019531,0.008504671,-0.0060996925,-0.015174454,0.27,0.94,-0.23,17361,9893.90,0,0,165,0.35,-0.77,-0.63,0.27,0.94,-0.23
1.5019531,0.006504671,-0.004099692,-0.009174455,0.27,0.94,-0.23,17376,9893.90,0,0,0,0.21,-0.63,-0.21,0.27,0.94,-0.23
0.6015625,5.046716E-4,-0.0010996922,-0.0021744547,0.27,0.94,-0.23,17383,9893.00,0,0,165,-0.21,-0.42,0.28,0.27,0.94,-0.23
1.5019531,0.0015046713,9.003072E-4,0.009825546,0.27,0.94,-0.23,17398,9893.90,0,0,0,-0.14,-0.28,1.12,0.27,0.94,-0.23
1.5019531,0.0015046713,0.0019003076,0.007825546,0.27,0.94,-0.23,17413,9893.90,0,0,165,-0.14,-0.21,0.98,0.27,0.94,-0.23
1.5019531,0.0025046715,0.0029003073,-0.004174455,0.27,0.94,-0.23,17420,9893.90,0,0,0,-0.07,-0.14,0.14,0.27,0.94,-0.23
0.6015625,0.0045046713,-0.0010996922,-0.0021744547,0.27,0.94,-0.24,17435,9893.00,0,0,165,0.07,-0.42,0.28,0.27,0.94,-0.24
1.5019531,-0.004495329,-9.9692494E-5,-0.0031744551,0.28,0.94,-0.23,17450,9893.90,0,0,0,-0.56,-0.35,0.21,0.28,0.94,-0.23
0.6015625,-0.0114953285,0.0039003072,0.007825546,0.28,0.95,-0.23,17457,9893.00,0,0,165,-1.05,-0.07,0.98,0.28,0.95,-0.23
1.5019531,-0.0064953286,0.0019003076,0.009825546,0.28,0.95,-0.23,17473,9893.90,0,0,0,-0.70,-0.21,1.12,0.28,0.95,-0.23
0.6015625,0.010504671,-9.9692494E-5,-0.001174455,0.27,0.93,-0.22,17488,9893.00,0,0,165,0.49,-0.35,0.35,0.27,0.93,-0.22
1.5019531,0.007504672,-0.0050996924,-0.015174454,0.27,0.93,-0.23,17495,9893.90,0,0,0,0.28,-0.70,-0.63,0.27,0.93,-0.23
1.5019531,-0.0024953282,-0.0050996924,-0.020174455,0.27,0.94,-0.24,17511,9893.90,0,0,165,-0.42,-0.70,-0.98,0.27,0.94,-0.24
0.9013672,-0.007495329,-0.0010996922,-0.0021744547,0.27,0.95,-0.23,17528,9893.30,0,0,0,-0.77,-0.42,0.28,0.27,0.95,-0.23
1.5019531,-0.008495328,0.0039003072,0.023825545,0.28,0.95,-0.23,17533,9893.90,0,0,165,-0.84,-0.07,2.10,0.28,0.95,-0.23
1.5019531,-4.953288E-4,0.0069003077,0.03482554,0.28,0.95,-0.23,17548,9893.90,0,0,0,-0.28,0.14,2.87,0.28,0.95,-0.23
1.5019531,0.011504672,9.003072E-4,0.011825545,0.28,0.95,-0.23,17562,9893.90,0,0,165,0.56,-0.28,1.26,0.28,0.95,-0.23
0.6015625,0.016504671,-0.011099693,-0.029174455,0.28,0.95,-0.23,17570,9893.00,0,0,0,0.91,-1.12,-1.61,0.28,0.95,-0.23
1.5019531,0.025504671,-0.020099692,-0.058174457,0.28,0.95,-0.23,17585,9893.90,0,0,165,1.54,-1.75,-3.64,0.28,0.95,-0.23
2.5019531,0.02750467,-0.023099694,-0.060174458,0.27,0.94,-0.23,17600,9894.90,0,0,0,1.68,-1.96,-3.78,0.27,0.94,-0.23
0.6015625,0.025504671,-0.015099692,-0.04017446,0.27,0.94,-0.23,17608,9893.00,0,0,165,1.54,-1.40,-2.38,0.27,0.94,-0.23
1.5019531,0.017504672,-0.011099693,-0.013174456,0.27,0.94,-0.24,17623,9893.90,0,0,0,0.98,-1.12,-0.49,0.27,0.94,-0.24
0.6015625,0.014504671,-0.0060996925,-0.0021744547,0.27,0.94,-0.24,17638,9893.00,0,0,165,0.77,-0.77,0.28,0.27,0.94,-0.24
1.5019531,0.010504671,-0.004099692,-1.7445534E-4,0.27,0.94,-0.24,17646,9893.90,0,0,0,0.49,-0.63,0.42,0.27,0.94,-0.24
0.6015625,0.011504672,-0.0050996924,-0.005174455,0.27,0.94,-0.24,17661,9893.00,0,0,165,0.56,-0.70,0.07,0.27,0.94,-0.24
0.6015625,0.010504671,-0.004099692,-0.019174455,0.27,0.94,-0.24,17677,9893.00,0,0,0,0.49,-0.63,-0.91,0.27,0.94,-0.24
1.5019531,0.007504672,-0.007099692,-0.021174455,0.27,0.94,-0.24,17683,9893.90,0,0,165,0.28,-0.84,-1.05,0.27,0.94,-0.24
1.5019531,0.0045046713,-0.007099692,-0.022174455,0.27,0.94,-0.24,17698,9893.90,0,0,0,0.07,-0.84,-1.12,0.27,0.94,-0.24
1.5019531,0.0045046713,-0.004099692,-0.019174455,0.27,0.93,-0.24,17713,9893.90,0,0,165,0.07,-0.63,-0.91,0.27,0.93,-0.24
1.5019531,0.0015046713,-0.0010996922,-0.010174455,0.26,0.94,-0.24,17721,9893.90,0,0,0,-0.14,-0.42,-0.28,0.26,0.94,-0.24
-0.3984375,-0.008495328,9.003072E-4,-0.0021744547,0.27,0.94,-0.23,17735,9892.00,0,0,165,-0.84,-0.28,0.28,0.27,0.94,-0.23
1.5019531,-0.010495329,0.0049003074,0.013825545,0.27,0.94,-0.23,17750,9893.90,0,0,0,-0.98,0.00,1.40,0.27,0.94,-0.23
0.6015625,-0.008495328,0.0059003076,0.014825545,0.27,0.94,-0.23,17758,9893.00,0,0,165,-0.84,0.07,1.47,0.27,0.94,-0.23
1.5019531,-0.0114953285,0.0049003074,0.009825546,0.27,0.94,-0.23,17773,9893.90,0,0,0,-1.05,0.00,1.12,0.27,0.94,-0.23
1.5019531,-0.004495329,0.0039003072,0.007825546,0.27,0.94,-0.23,17788,9893.90,0,0,165,-0.56,-0.07,0.98,0.27,0.94,-0.23
1.5019531,-0.0034953288,9.003072E-4,-0.001174455,0.27,0.94,-0.23,17795,9893.90,0,0,0,-0.49,-0.28,0.35,0.27,0.94,-0.23
1.5019531,-0.0014953285,-9.9692494E-5,-0.0021744547,0.27,0.94,-0.23,17810,9893.90,0,0,165,-0.35,-0.35,0.28,0.27,0.94,-0.23
1.5019531,0.0055046715,-0.0020996928,-1.7445534E-4,0.27,0.95,-0.23,17825,9893.90,0,0,0,0.14,-0.49,0.42,0.27,0.95,-0.23
1.5019531,0.0055046715,-0.0010996922,8.255453E-4,0.27,0.94,-0.24,17833,9893.90,0,0,165,0.14,-0.42,0.49,0.27,0.94,-0.24
0.6015625,0.007504672,-0.0010996922,-1.7445534E-4,0.27,0.94,-0.24,17847,9893.00,0,0,0,0.28,-0.42,0.42,0.27,0.94,-0.24
1.5019531,0.0015046713,-0.0010996922,8.255453E-4,0.27,0.94,-0.24,17862,9893.90,0,0,165,-0.14,-0.42,0.49,0.27,0.94,-0.24
0.6015625,-0.0024953282,9.003072E-4,-1.7445534E-4,0.27,0.94,-0.24,17870,9893.00,0,0,0,-0.42,-0.28,0.42,0.27,0.94,-0.24
0.6015625,-0.0024953282,0.0029003073,8.255453E-4,0.27,0.94,-0.24,17885,9893.00,0,0,165,-0.42,-0.14,0.49,0.27,0.94,-0.24
0.6015625,-0.0034953288,0.0019003076,0.0038255448,0.27,0.95,-0.24,17900,9893.00,0,0,0,-0.49,-0.21,0.70,0.27,0.95,-0.24
1.5019531,-0.0054953285,0.0019003076,8.255453E-4,0.27,0.94,-0.23,17907,9893.90,0,0,165,-0.63,-0.21,0.49,0.27,0.94,-0.23
1.5019531,-0.0024953282,0.0019003076,0.0038255448,0.27,0.94,-0.23,17923,9893.90,0,0,0,-0.42,-0.21,0.70,0.27,0.94,-0.23
1.5019531,-0.0024953282,-9.9692494E-5,0.0018255454,0.27,0.95,-0.23,17938,9893.90,0,0,165,-0.42,-0.35,0.56,0.27,0.95,-0.23
1.5019531,-4.953288E-4,0.0019003076,-0.0021744547,0.27,0.95,-0.23,17945,9893.90,0,0,0,-0.28,-0.21,0.28,0.27,0.95,-0.23
0.6015625,0.0045046713,-9.9692494E-5,-1.7445534E-4,0.27,0.95,-0.23,17961,9893.00,0,0,165,0.07,-0.35,0.42,0.27,0.95,-0.23
2.5019531,0.008504671,-0.0020996928,-0.0021744547,0.27,0.94,-0.24,17975,9894.90,0,0,0,0.35,-0.49,0.28,0.27,0.94,-0.24
1.5019531,0.006504671,-0.0020996928,-0.009174455,0.27,0.94,-0.24,17983,9893.90,0,0,165,0.21,-0.49,-0.21,0.27,0.94,-0.24
0.6015625,0.0035046714,-0.003099693,-0.0121744545,0.27,0.94,-0.24,17998,9893.00,0,0,0,0.00,-0.56,-0.42,0.27,0.94,-0.24
0.6015625,0.0035046714,-0.004099692,-0.015174454,0.27,0.94,-0.23,18013,9893.00,0,0,165,0.00,-0.63,-0.63,0.27,0.94,-0.23
0.6015625,0.0025046715,-0.003099693,-0.0121744545,0.27,0.94,-0.23,18020,9893.00,0,0,0,-0.07,-0.56,-0.42,0.27,0.94,-0.23
1.8017578,5.046716E-4,-9.9692494E-5,-0.0021744547,0.27,0.94,-0.23,18036,9894.20,0,0,165,-0.21,-0.35,0.28,0.27,0.94,-0.23
0.6015625,-0.0034953288,0.0019003076,0.0038255448,0.27,0.94,-0.23,18050,9893.00,0,0,0,-0.49,-0.21,0.70,0.27,0.94,-0.23
1.5019531,-0.0024953282,0.0039003072,0.008825544,0.27,0.94,-0.23,18058,9893.90,0,0,165,-0.42,-0.07,1.05,0.27,0.94,-0.23
1.5019531,5.046716E-4,9.003072E-4,0.0038255448,0.27,0.94,-0.23,18072,9893.90,0,0,0,-0.21,-0.28,0.70,0.27,0.94,-0.23
0.6015625,0.0015046713,-0.0010996922,-1.7445534E-4,0.27,0.94,-0.23,18087,9893.00,0,0,165,-0.14,-0.42,0.42,0.27,0.94,-0.23
1.5019531,0.0035046714,-0.003099693,-0.006174455,0.27,0.94,-0.23,18095,9893.90,0,0,0,0.00,-0.56,0.00,0.27,0.94,-0.23
1.5019531,0.0035046714,-0.003099693,-0.005174455,0.27,0.94,-0.23,18110,9893.90,0,0,165,0.00,-0.56,0.07,0.27,0.94,-0.23
1.5019531,0.0045046713,-0.0010996922,-0.001174455,0.27,0.94,-0.24,18125,9893.90,0,0,0,0.07,-0.42,0.35,0.27,0.94,-0.24
1.5019531,0.0035046714,-0.0010996922,-1.7445534E-4,0.27,0.94,-0.24,18132,9893.90,0,0,165,0.00,-0.42,0.42,0.27,0.94,-0.24
1.5019531,0.0015046713,-0.0010996922,-0.001174455,0.27,0.94,-0.24,18147,9893.90,0,0,0,-0.14,-0.42,0.35,0.27,0.94,-0.24
1.5019531,0.0045046713,-0.0010996922,-0.005174455,0.27,0.94,-0.24,18162,9893.90,0,0,165,0.07,-0.42,0.07,0.27,0.94,-0.24
1.5019531,0.0055046715,-0.003099693,-0.007174455,0.27,0.94,-0.24,18170,9893.90,0,0,0,0.14,-0.56,-0.07,0.27,0.94,-0.24
1.5019531,0.0055046715,-0.003099693,-0.008174455,0.27,0.94,-0.23,18185,9893.90,0,0,165,0.14,-0.56,-0.14,0.27,0.94,-0.23
0.6015625,0.0025046715,-0.0020996928,-0.006174455,0.27,0.94,-0.24,18200,9893.00,0,0,0,-0.07,-0.49,0.00,0.27,0.94,-0.24
1.5019531,0.0015046713,-0.0020996928,-0.0031744551,0.27,0.94,-0.23,18208,9893.90,0,0,165,-0.14,-0.49,0.21,0.27,0.94,-0.23
1.5019531,0.0025046715,-9.9692494E-5,0.0018255454,0.27,0.94,-0.24,18222,9893.90,0,0,0,-0.07,-0.35,0.56,0.27,0.94,-0.24
1.5019531,0.0025046715,-9.9692494E-5,0.0028255447,0.27,0.94,-0.23,18238,9893.90,0,0,165,-0.07,-0.35,0.63,0.27,0.94,-0.23
0.6015625,5.046716E-4,-0.0010996922,8.255453E-4,0.27,0.94,-0.24,18245,9893.00,0,0,0,-0.21,-0.42,0.49,0.27,0.94,-0.24
1.5019531,0.0015046713,-0.0010996922,-0.006174455,0.27,0.94,-0.24,18260,9893.90,0,0,165,-0.14,-0.42,0.00,0.27,0.94,-0.24
0.6015625,0.0045046713,-0.004099692,-0.0121744545,0.27,0.94,-0.23,18275,9893.00,0,0,0,0.07,-0.63,-0.42,0.27,0.94,-0.23
1.5019531,0.006504671,-0.004099692,-0.011174455,0.27,0.94,-0.24,18283,9893.90,0,0,165,0.21,-0.63,-0.35,0.27,0.94,-0.24
0.6015625,0.0035046714,-0.003099693,-0.007174455,0.27,0.94,-0.23,18297,9893.00,0,0,0,0.00,-0.56,-0.07,0.27,0.94,-0.23
1.5019531,0.0035046714,-0.003099693,-0.0021744547,0.27,0.94,-0.23,18312,9893.90,0,0,165,0.00,-0.56,0.28,0.27,0.94,-0.23
1.5019531,0.0045046713,-0.0010996922,0.0018255454,0.27,0.94,-0.24,18320,9893.90,0,0,0,0.07,-0.42,0.56,0.27,0.94,-0.24
-0.3984375,0.008504671,-0.003099693,-0.0031744551,0.27,0.94,-0.23,18335,9892.00,0,0,165,0.35,-0.56,0.21,0.27,0.94,-0.23
2.5019531,0.008504671,-0.004099692,-0.009174455,0.27,0.94,-0.23,18350,9894.90,0,0,0,0.35,-0.63,-0.21,0.27,0.94,-0.23
1.5019531,0.009504671,-0.0060996925,-0.0121744545,0.27,0.94,-0.24,18357,9893.90,0,0,165,0.42,-0.77,-0.42,0.27,0.94,-0.24
1.5019531,0.011504672,-0.0060996925,-0.017174454,0.27,0.94,-0.23,18372,9893.90,0,0,0,0.56,-0.77,-0.77,0.27,0.94,-0.23
0.6015625,0.012504671,-0.008099693,-0.018174455,0.27,0.94,-0.24,18387,9893.00,0,0,165,0.63,-0.91,-0.84,0.27,0.94,-0.24
0.6015625,0.012504671,-0.008099693,-0.018174455,0.27,0.94,-0.24,18395,9893.00,0,0,0,0.63,-0.91,-0.84,0.27,0.94,-0.24
1.8017578,0.011504672,-0.008099693,-0.019174455,0.27,0.94,-0.24,18410,9894.20,0,0,165,0.56,-0.91,-0.91,0.27,0.94,-0.24
0.6015625,0.012504671,-0.008099693,-0.018174455,0.27,0.94,-0.24,18425,9893.00,0,0,0,0.63,-0.91,-0.84,0.27,0.94,-0.24
1.5019531,0.010504671,-0.008099693,-0.016174454,0.27,0.94,-0.23,18432,9893.90,0,0,165,0.49,-0.91,-0.70,0.27,0.94,-0.23
0.6015625,0.010504671,-0.009099693,-0.019174455,0.27,0.94,-0.24,18448,9893.00,0,0,0,0.49,-0.98,-0.91,0.27,0.94,-0.24
2.5019531,0.014504671,-0.009099693,-0.018174455,0.27,0.94,-0.24,18463,9894.90,0,0,165,0.77,-0.98,-0.84,0.27,0.94,-0.24
0.6015625,0.01550467,-0.009099693,-0.020174455,0.27,0.94,-0.24,18470,9893.00,0,0,0,0.84,-0.98,-0.98,0.27,0.94,-0.24
1.5019531,0.014504671,-0.010099692,-0.017174454,0.26,0.94,-0.24,18485,9893.90,0,0,165,0.77,-1.05,-0.77,0.26,0.94,-0.24
1.5019531,0.012504671,-0.009099693,-0.015174454,0.27,0.94,-0.24,18500,9893.90,0,0,0,0.63,-0.98,-0.63,0.27,0.94,-0.24
2.5019531,0.007504672,-0.008099693,-0.016174454,0.27,0.94,-0.24,18508,9894.90,0,0,165,0.28,-0.91,-0.70,0.27,0.94,-0.24
1.5019531,0.011504672,-0.009099693,-0.022174455,0.26,0.94,-0.24,18522,9893.90,0,0,0,0.56,-0.98,-1.12,0.26,0.94,-0.24
1.5019531,0.017504672,-0.0060996925,-0.015174454,0.26,0.94,-0.24,18538,9893.90,0,0,165,0.98,-0.77,-0.63,0.26,0.94,-0.24
1.5019531,0.01550467,-0.0050996924,-1.7445534E-4,0.27,0.94,-0.25,18546,9893.90,0,0,0,0.84,-0.70,0.42,0.27,0.94,-0.25
0.6015625,-0.0024953282,-0.0050996924,-0.014174456,0.26,0.94,-0.24,18562,9893.00,0,0,165,-0.42,-0.70,-0.56,0.26,0.94,-0.24
1.5019531,5.046716E-4,-0.004099692,-0.008174455,0.26,0.94,-0.23,18575,9893.90,0,0,0,-0.21,-0.63,-0.14,0.26,0.94,-0.23
1.5019531,0.009504671,-0.003099693,-0.0121744545,0.27,0.95,-0.24,18582,9893.90,0,0,165,0.42,-0.56,-0.42,0.27,0.95,-0.24
1.5019531,0.0055046715,-0.004099692,-0.011174455,0.26,0.94,-0.24,18597,9893.90,0,0,0,0.14,-0.63,-0.35,0.26,0.94,-0.24
1.5019531,0.014504671,-0.0010996922,0.004825545,0.26,0.94,-0.24,18612,9893.90,0,0,165,0.77,-0.42,0.77,0.26,0.94,-0.24
1.5019531,0.0025046715,-9.9692494E-5,0.0058255442,0.27,0.95,-0.24,18620,9893.90,0,0,0,-0.07,-0.35,0.84,0.27,0.95,-0.24
2.5019531,-0.0014953285,-0.0020996928,-0.004174455,0.27,0.94,-0.24,18635,9894.90,0,0,165,-0.35,-0.49,0.14,0.27,0.94,-0.24
-0.3984375,0.007504672,-0.0060996925,-0.021174455,0.26,0.94,-0.24,18650,9892.00,0,0,0,0.28,-0.77,-1.05,0.26,0.94,-0.24
1.5019531,0.02450467,-0.014099694,-0.028174454,0.26,0.94,-0.23,18658,9893.90,0,0,165,1.47,-1.33,-1.54,0.26,0.94,-0.23
0.6015625,0.016504671,-0.011099693,-0.025174456,0.26,0.94,-0.24,18673,9893.00,0,0,0,0.91,-1.12,-1.33,0.26,0.94,-0.24
1.5019531,0.007504672,-0.008099693,-0.018174455,0.26,0.94,-0.24,18688,9893.90,0,0,165,0.28,-0.91,-0.84,0.26,0.94,-0.24
1.5019531,0.006504671,-0.0050996924,-0.010174455,0.26,0.94,-0.24,18696,9893.90,0,0,0,0.21,-0.70,-0.28,0.26,0.94,-0.24
0.6015625,0.017504672,-0.007099692,-0.005174455,0.26,0.94,-0.24,18711,9893.00,0,0,165,0.98,-0.84,0.07,0.26,0.94,-0.24
1.5019531,0.011504672,-0.0050996924,-1.7445534E-4,0.26,0.93,-0.24,18726,9893.90,0,0,0,0.56,-0.70,0.42,0.26,0.93,-0.24
0.6015625,5.046716E-4,-0.0050996924,0.0038255448,0.26,0.94,-0.25,18733,9893.00,0,0,165,-0.21,-0.70,0.70,0.26,0.94,-0.25
0.6015625,-0.016495328,-0.0020996928,0.015825545,0.27,0.94,-0.25,18748,9893.00,0,0,0,-1.40,-0.49,1.54,0.27,0.94,-0.25
0.6015625,-0.014495328,0.010900307,0.013825545,0.27,0.94,-0.24,18763,9893.00,0,0,165,-1.26,0.42,1.40,0.27,0.94,-0.24
1.5019531,0.0035046714,0.0059003076,0.008825544,0.26,0.94,-0.24,18770,9893.90,0,0,0,0.00,0.07,1.05,0.26,0.94,-0.24
0.6015625,-0.007495329,0.0049003074,0.015825545,0.26,0.95,-0.24,18785,9893.00,0,0,165,-0.77,0.00,1.54,0.26,0.95,-0.24
1.5019531,-0.016495328,-0.0010996922,0.0058255442,0.26,0.95,-0.24,18800,9893.90,0,0,0,-1.40,-0.42,0.84,0.26,0.95,-0.24
1.5019531,0.0035046714,9.003072E-4,0.008825544,0.26,0.95,-0.24,18808,9893.90,0,0,165,0.00,-0.28,1.05,0.26,0.95,-0.24
1.5019531,0.010504671,9.003072E-4,0.0018255454,0.27,0.94,-0.24,18822,9893.90,0,0,0,0.49,-0.28,0.56,0.27,0.94,-0.24
2.5019531,-0.0054953285,-0.0010996922,-0.0021744547,0.26,0.94,-0.24,18837,9894.90,0,0,165,-0.63,-0.42,0.28,0.26,0.94,-0.24
0.6015625,-0.0024953282,9.003072E-4,0.009825546,0.26,0.95,-0.24,18845,9893.00,0,0,0,-0.42,-0.28,1.12,0.26,0.95,-0.24
1.5019531,0.0025046715,-0.0010996922,0.014825545,0.26,0.95,-0.24,18861,9893.90,0,0,165,-0.07,-0.42,1.47,0.26,0.95,-0.24
1.5019531,0.0035046714,0.0019003076,0.017825544,0.26,0.94,-0.24,18875,9893.90,0,0,0,0.00,-0.21,1.68,0.26,0.94,-0.24
0.6015625,-0.0024953282,0.0029003073,0.008825544,0.27,0.94,-0.24,18883,9893.00,0,0,165,-0.42,-0.14,1.05,0.27,0.94,-0.24
1.5019531,-0.004495329,-9.9692494E-5,-0.005174455,0.27,0.94,-0.24,18897,9893.90,0,0,0,-0.56,-0.35,0.07,0.27,0.94,-0.24
0.6015625,-0.0014953285,-0.0010996922,-0.009174455,0.27,0.95,-0.24,18913,9893.00,0,0,165,-0.35,-0.42,-0.21,0.27,0.95,-0.24
1.5019531,-0.0034953288,-0.0010996922,-1.7445534E-4,0.26,0.94,-0.24,18920,9893.90,0,0,0,-0.49,-0.42,0.42,0.26,0.94,-0.24
0.6015625,-4.953288E-4,9.003072E-4,0.010825546,0.26,0.94,-0.24,18935,9893.00,0,0,165,-0.28,-0.28,1.19,0.26,0.94,-0.24
1.5019531,-0.0054953285,0.0069003077,0.010825546,0.26,0.94,-0.24,18950,9893.90,0,0,0,-0.63,0.14,1.19,0.26,0.94,-0.24
1.5019531,-0.0024953282,0.0019003076,0.011825545,0.26,0.94,-0.24,18958,9893.90,0,0,165,-0.42,-0.21,1.26,0.26,0.94,-0.24
0.6015625,-4.953288E-4,-9.9692494E-5,0.0018255454,0.26,0.94,-0.24,18973,9893.00,0,0,0,-0.28,-0.35,0.56,0.26,0.94,-0.24
1.5019531,-0.0014953285,9.003072E-4,-0.001174455,0.26,0.94,-0.24,18988,9893.90,0,0,165,-0.35,-0.28,0.35,0.26,0.94,-0.24
0.6015625,-4.953288E-4,0.0019003076,0.0038255448,0.26,0.94,-0.24,18995,9893.00,0,0,0,-0.28,-0.21,0.70,0.26,0.94,-0.24
0.6015625,-0.007495329,0.0039003072,0.008825544,0.26,0.94,-0.24,19010,9893.00,0,0,165,-0.77,-0.07,1.05,0.26,0.94,-0.24
0.6015625,-0.010495329,0.0029003073,0.015825545,0.26,0.94,-0.24,19025,9893.00,0,0,0,-0.98,-0.14,1.54,0.26,0.94,-0.24
1.5019531,-0.008495328,0.0039003072,0.022825545,0.27,0.94,-0.24,19032,9893.90,0,0,165,-0.84,-0.07,2.03,0.27,0.94,-0.24
1.5019531,-0.0014953285,0.0059003076,0.017825544,0.27,0.94,-0.24,19047,9893.90,0,0,0,-0.35,0.07,1.68,0.27,0.94,-0.24
1.5019531,-0.004495329,0.0029003073,0.007825546,0.26,0.94,-0.24,19062,9893.90,0,0,165,-0.56,-0.14,0.98,0.26,0.94,-0.24
0.6015625,-0.004495329,9.003072E-4,0.0068255453,0.26,0.94,-0.24,19070,9893.00,0,0,0,-0.56,-0.28,0.91,0.26,0.94,-0.24
1.5019531,-0.004495329,0.0019003076,0.008825544,0.26,0.95,-0.24,19085,9893.90,0,0,165,-0.56,-0.21,1.05,0.26,0.95,-0.24
2.5019531,-0.004495329,0.0049003074,0.014825545,0.26,0.94,-0.24,19100,9894.90,0,0,0,-0.56,0.00,1.47,0.26,0.94,-0.24
1.5019531,-0.0014953285,0.0059003076,0.023825545,0.26,0.93,-0.24,19108,9893.90,0,0,165,-0.35,0.07,2.10,0.26,0.93,-0.24
1.5019531,-0.008495328,0.009900307,0.032825544,0.26,0.93,-0.24,19123,9893.90,0,0,0,-0.84,0.35,2.73,0.26,0.93,-0.24
0.6015625,-0.01549533,0.011900308,0.04182554,0.26,0.93,-0.24,19138,9893.00,0,0,165,-1.33,0.49,3.36,0.26,0.93,-0.24
2.5019531,-0.02149533,0.015900306,0.045825545,0.26,0.92,-0.24,19145,9894.90,0,0,0,-1.75,0.77,3.64,0.26,0.92,-0.24
1.5019531,-0.03049533,0.021900307,0.054825544,0.26,0.91,-0.24,19161,9893.90,0,0,165,-2.38,1.19,4.27,0.26,0.91,-0.24
0.6015625,-0.043495327,0.03190031,0.07582554,0.26,0.91,-0.25,19175,9893.00,0,0,0,-3.29,1.89,5.74,0.26,0.91,-0.25
1.5019531,-0.07049533,0.04290031,0.098825544,0.26,0.91,-0.25,19182,9893.90,0,0,165,-5.18,2.66,7.35,0.26,0.91,-0.25
1.5019531,-0.117495336,0.052900303,0.12682554,0.28,0.94,-0.25,19197,9893.90,0,0,0,-8.47,3.36,9.31,0.28,0.94,-0.25
1.5019531,-0.14049532,0.061900306,0.15482555,0.29,0.96,-0.24,19213,9893.90,0,0,165,-10.08,3.99,11.27,0.29,0.96,-0.24
1.5019531,-0.14149532,0.06090031,0.16782555,0.3,0.99,-0.23,19220,9893.90,0,0,0,-10.15,3.92,12.18,0.30,0.99,-0.23
1.5019531,-0.11049533,0.05390031,0.15582554,0.31,1.0,-0.21,19235,9893.90,0,0,165,-7.98,3.43,11.34,0.31,1.00,-0.21
1.5019531,-0.04949533,0.034900308,0.11182555,0.3,0.99,-0.21,19250,9893.90,0,0,0,-3.71,2.10,8.26,0.30,0.99,-0.21
1.5019531,0.011504672,0.0049003074,0.045825545,0.3,0.96,-0.21,19258,9893.90,0,0,165,0.56,0.00,3.64,0.30,0.96,-0.21
2.5019531,0.05050467,-0.018099692,-0.043174457,0.29,0.93,-0.23,19273,9894.90,0,0,0,3.29,-1.61,-2.59,0.29,0.93,-0.23
1.5019531,0.037504673,-0.033099696,-0.11917445,0.28,0.92,-0.23,19288,9893.90,0,0,165,2.38,-2.66,-7.91,0.28,0.92,-0.23
1.5019531,0.019504672,-0.030099694,-0.123174444,0.27,0.92,-0.24,19295,9893.90,0,0,0,1.12,-2.45,-8.19,0.27,0.92,-0.24
0.6015625,0.0025046715,-0.008099693,-0.060174458,0.26,0.92,-0.24,19310,9893.00,0,0,165,-0.07,-0.91,-3.78,0.26,0.92,-0.24
2.5019531,-0.04649533,0.017900307,0.031825546,0.26,0.92,-0.24,19325,9894.90,0,0,0,-3.50,0.91,2.66,0.26,0.92,-0.24
