Pressure_Rel,GyroX_Rel,GyroY_Rel,GyroZ_Rel,AccX_Rel,AccY_Rel,AccZ_Rel,Timestamp,Pressure_abs,HeartRate,Oxygen,Status,GyroX,GyroY,GyroZ,AccX,AccY,AccZ
0.0,0.0,0.0,0.0,0.0,0.0,0.0,3387,10148.90,0,0,165,0.21,-3.50,1.26,0.34,0.95,0.07
0.0,0.0,0.0,0.0,0.0,0.0,0.0,3402,10150.30,0,0,0,0.42,-2.45,1.96,0.35,0.95,0.07
0.0,0.0,0.0,0.0,0.0,0.0,0.0,3418,10150.30,0,0,165,-0.14,-2.24,2.17,0.36,0.94,0.07
0.0,0.0,0.0,0.0,0.0,0.0,0.0,3425,10148.30,0,0,0,0.07,-2.17,2.17,0.36,0.95,0.07
0.0,0.0,0.0,0.0,0.0,0.0,0.0,3440,10149.30,0,0,165,0.56,-1.89,2.38,0.36,0.95,0.07
0.0,0.0,0.0,0.0,0.0,0.0,0.0,3456,10150.30,0,0,0,0.56,-2.59,2.45,0.36,0.94,0.08
0.0,0.0,0.0,0.0,0.0,0.0,0.0,3464,10149.30,0,0,165,0.14,-3.22,2.10,0.37,0.94,0.07
0.0,0.0,0.0,0.0,0.0,0.0,0.0,3478,10150.30,0,0,0,0.42,-3.43,1.68,0.37,0.94,0.07
0.0,0.0,0.0,0.0,0.0,0.0,0.0,3493,10149.60,0,0,165,0.91,-2.94,1.61,0.38,0.95,0.06
0.0,0.0,0.0,0.0,0.0,0.0,0.0,3500,10149.30,0,0,0,0.91,-1.89,1.82,0.37,0.95,0.05
0.0,0.0,0.0,0.0,0.0,0.0,0.0,3514,10149.30,0,0,165,-0.49,-1.68,1.26,0.37,0.94,0.06
0.0,0.0,0.0,0.0,0.0,0.0,0.0,3529,10149.30,0,0,0,0.49,-0.84,1.19,0.36,0.95,0.07
0.0,0.0,0.0,0.0,0.0,0.0,0.0,3537,10149.30,0,0,165,1.19,-0.91,1.26,0.35,0.94,0.08
0.0,0.0,0.0,0.0,0.0,0.0,0.0,3553,10149.30,0,0,0,0.70,-2.87,0.77,0.35,0.95,0.06
0.0,0.0,0.0,0.0,0.0,0.0,0.0,3568,10149.30,0,0,165,1.19,-3.01,2.31,0.35,0.96,0.05
0.0,0.0,0.0,0.0,0.0,0.0,0.0,3574,10149.30,0,0,0,0.56,-2.17,3.71,0.36,0.96,0.06
0.0,0.0,0.0,0.0,0.0,0.0,0.0,3590,10151.20,0,0,165,-0.07,-2.73,3.01,0.37,0.94,0.07
0.0,0.0,0.0,0.0,0.0,0.0,0.0,3604,10149.30,0,0,0,0.42,-3.57,1.75,0.37,0.95,0.07
0.0,0.0,0.0,0.0,0.0,0.0,0.0,3612,10149.30,0,0,165,0.56,-3.36,1.26,0.37,0.96,0.06
0.0,0.0,0.0,0.0,0.0,0.0,0.0,3627,10148.30,0,0,0,0.77,-2.87,0.77,0.36,0.96,0.07
0.0,0.0,0.0,0.0,0.0,0.0,0.0,3642,10149.30,0,0,165,0.28,-2.94,0.07,0.36,0.96,0.08
0.0,0.0,0.0,0.0,0.0,0.0,0.0,3650,10149.60,0,0,0,0.56,-3.50,-0.14,0.35,0.96,0.07
0.0,0.0,0.0,0.0,0.0,0.0,0.0,3665,10149.60,0,0,165,0.56,-3.99,-0.14,0.35,0.96,0.07
0.0,0.0,0.0,0.0,0.0,0.0,0.0,3680,10149.30,0,0,0,-0.28,-5.60,-0.56,0.35,0.96,0.07
0.0,0.0,0.0,0.0,0.0,0.0,0.0,3687,10149.30,0,0,165,-0.07,-5.53,0.00,0.35,0.96,0.07
0.0,0.0,0.0,0.0,0.0,0.0,0.0,3702,10149.30,0,0,0,0.21,-4.69,0.21,0.36,0.96,0.07
0.0,0.0,0.0,0.0,0.0,0.0,0.0,3717,10148.30,0,0,165,0.49,-3.64,0.56,0.36,0.95,0.07
0.0,0.0,0.0,0.0,0.0,0.0,0.0,3724,10149.30,0,0,0,0.56,-2.87,0.63,0.36,0.95,0.08
0.0,0.0,0.0,0.0,0.0,0.0,0.0,3740,10149.30,0,0,165,0.42,-2.52,0.77,0.36,0.94,0.08
0.0,0.0,0.0,0.0,0.0,0.0,0.0,3754,10149.30,0,0,0,1.33,-2.87,0.42,0.36,0.94,0.09
0.0,0.0,0.0,0.0,0.0,0.0,0.0,3762,10149.30,0,0,165,0.98,-3.78,-0.42,0.36,0.94,0.08
0.0,0.0,0.0,0.0,0.0,0.0,0.0,3777,10150.60,0,0,0,1.33,-3.78,-0.42,0.36,0.94,0.08
0.0,0.0,0.0,0.0,0.0,0.0,0.0,3792,10149.60,0,0,165,0.91,-4.13,-0.77,0.36,0.93,0.09
0.0,0.0,0.0,0.0,0.0,0.0,0.0,3799,10149.60,0,0,0,1.05,-4.13,-0.56,0.36,0.94,0.08
0.0,0.0,0.0,0.0,0.0,0.0,0.0,3815,10149.30,0,0,165,1.12,-3.71,-0.07,0.37,0.94,0.08
0.0,0.0,0.0,0.0,0.0,0.0,0.0,3830,10149.30,0,0,0,0.77,-3.43,-0.49,0.36,0.95,0.07
0.0,0.0,0.0,0.0,0.0,0.0,0.0,3837,10149.30,0,0,165,0.91,-2.59,0.07,0.36,0.95,0.07
0.0,0.0,0.0,0.0,0.0,0.0,0.0,3853,10149.60,0,0,0,1.05,-2.17,0.07,0.37,0.94,0.07
0.0,0.0,0.0,0.0,0.0,0.0,0.0,3867,10148.60,0,0,165,0.84,-2.66,-0.77,0.37,0.95,0.07
0.0,0.0,0.0,0.0,0.0,0.0,0.0,3875,10149.30,0,0,0,1.12,-2.17,-0.70,0.37,0.96,0.06
0.0,0.0,0.0,0.0,0.0,0.0,0.0,3890,10148.30,0,0,165,0.98,-1.47,-0.28,0.36,0.96,0.06
0.0,0.0,0.0,0.0,0.0,0.0,0.0,3904,10149.30,0,0,0,1.05,-1.61,0.07,0.36,0.96,0.06
0.0,0.0,0.0,0.0,0.0,0.0,0.0,3912,10148.30,0,0,165,0.35,-1.54,0.07,0.36,0.96,0.06
0.0,0.0,0.0,0.0,0.0,0.0,0.0,3933,10149.30,0,0,0,-0.42,-1.68,-0.21,0.36,0.95,0.07
0.0,0.0,0.0,0.0,0.0,0.0,0.0,3943,10148.30,0,0,165,0.07,-2.17,-0.70,0.36,0.96,0.06
0.0,0.0,0.0,0.0,0.0,0.0,0.0,3951,10148.30,0,0,0,0.56,-1.47,0.14,0.36,0.96,0.06
0.0,0.0,0.0,0.0,0.0,0.0,0.0,3965,10150.30,0,0,165,-0.84,-1.68,-0.42,0.37,0.94,0.09
0.0,0.0,0.0,0.0,0.0,0.0,0.0,3980,10149.30,0,0,0,-0.63,-2.38,-1.33,0.36,0.96,0.07
0.0,0.0,0.0,0.0,0.0,0.0,0.0,3987,10149.30,0,0,165,0.07,-1.40,-0.56,0.36,0.95,0.08
0.0,0.0,0.0,0.0,0.0,0.0,0.0,4002,10149.30,0,0,0,0.00,-2.59,-1.47,0.35,0.94,0.08
0.0,0.0,0.0,0.0,0.0,0.0,0.0,4017,10149.60,0,0,165,0.56,-2.31,-0.70,0.35,0.95,0.07
0.0,0.0,0.0,0.0,0.0,0.0,0.0,4025,10147.30,0,0,0,0.70,-1.82,-0.21,0.36,0.94,0.08
0.0,0.0,0.0,0.0,0.0,0.0,0.0,4039,10149.60,0,0,165,0.21,-1.89,-0.77,0.36,0.94,0.07
0.0,0.0,0.0,0.0,0.0,0.0,0.0,4054,10148.30,0,0,0,0.42,-2.10,-0.84,0.36,0.94,0.07
0.0,0.0,0.0,0.0,0.0,0.0,0.0,4062,10149.30,0,0,165,-0.07,-2.52,-0.70,0.35,0.95,0.07
0.0,0.0,0.0,0.0,0.0,0.0,0.0,4077,10149.30,0,0,0,0.14,-2.31,0.14,0.35,0.95,0.07
0.0,0.0,0.0,0.0,0.0,0.0,0.0,4092,10148.30,0,0,165,0.35,-2.10,0.42,0.35,0.94,0.08
0.0,0.0,0.0,0.0,0.0,0.0,0.0,4099,10148.30,0,0,0,0.70,-1.89,0.70,0.36,0.95,0.07
0.0,0.0,0.0,0.0,0.0,0.0,0.0,4115,10149.30,0,0,165,0.91,-1.33,1.05,0.35,0.94,0.07
0.0,0.0,0.0,0.0,0.0,0.0,0.0,4130,10149.30,0,0,0,0.35,-2.38,0.56,0.35,0.94,0.07
0.0,0.0,0.0,0.0,0.0,0.0,0.0,4137,10149.30,0,0,165,0.91,-2.94,0.98,0.35,0.95,0.06
0.0,0.0,0.0,0.0,0.0,0.0,0.0,4152,10149.30,0,0,0,0.07,-3.78,1.33,0.35,0.95,0.07
0.0,0.0,0.0,0.0,0.0,0.0,0.0,4167,10149.30,0,0,165,-0.14,-4.34,1.19,0.36,0.95,0.07
0.0,0.0,0.0,0.0,0.0,0.0,0.0,4175,10150.30,0,0,0,0.35,-3.57,1.33,0.36,0.95,0.06
0.0,0.0,0.0,0.0,0.0,0.0,0.0,4191,10148.30,0,0,165,0.63,-3.22,1.54,0.36,0.95,0.06
0.0,0.0,0.0,0.0,0.0,0.0,0.0,4205,10149.30,0,0,0,0.42,-3.15,1.54,0.37,0.95,0.07
0.0,0.0,0.0,0.0,0.0,0.0,0.0,4213,10149.30,0,0,165,0.35,-3.85,0.42,0.38,0.95,0.07
0.0,0.0,0.0,0.0,0.0,0.0,0.0,4228,10148.90,0,0,0,0.84,-4.27,-0.77,0.37,0.95,0.07
0.0,0.0,0.0,0.0,0.0,0.0,0.0,4243,10148.30,0,0,165,1.19,-4.34,-0.63,0.35,0.95,0.07
0.0,0.0,0.0,0.0,0.0,0.0,0.0,4250,10149.30,0,0,0,1.19,-3.64,0.00,0.35,0.96,0.06
0.0,0.0,0.0,0.0,0.0,0.0,0.0,4265,10149.30,0,0,165,1.47,-2.24,1.12,0.35,0.95,0.07
0.0,0.0,0.0,0.0,0.0,0.0,0.0,4280,10148.30,0,0,0,0.63,-2.31,0.49,0.36,0.95,0.08
0.0,0.0,0.0,0.0,0.0,0.0,0.0,4288,10149.30,0,0,165,1.33,-2.17,-0.07,0.36,0.95,0.07
0.0,0.0,0.0,0.0,0.0,0.0,0.0,4302,10149.30,0,0,0,1.68,-2.59,0.21,0.34,0.95,0.07
0.0,0.0,0.0,0.0,0.0,0.0,0.0,4317,10148.30,0,0,165,2.10,-3.08,0.70,0.34,0.95,0.07
0.0,0.0,0.0,0.0,0.0,0.0,0.0,4325,10149.30,0,0,0,1.19,-4.41,0.56,0.35,0.94,0.08
0.0,0.0,0.0,0.0,0.0,0.0,0.0,4341,10148.30,0,0,165,1.40,-4.69,0.84,0.36,0.95,0.07
0.0,0.0,0.0,0.0,0.0,0.0,0.0,4355,10149.30,0,0,0,1.47,-4.41,0.91,0.36,0.95,0.06
0.0,0.0,0.0,0.0,0.0,0.0,0.0,4363,10150.30,0,0,165,0.91,-4.20,1.19,0.36,0.95,0.06
0.0,0.0,0.0,0.0,0.0,0.0,0.0,4378,10148.30,0,0,0,0.35,-3.36,2.03,0.37,0.95,0.06
0.0,0.0,0.0,0.0,0.0,0.0,0.0,4393,10148.30,0,0,165,0.07,-2.94,1.47,0.38,0.94,0.07
0.0,0.0,0.0,0.0,0.0,0.0,0.0,4400,10149.30,0,0,0,0.63,-3.78,-0.07,0.38,0.95,0.06
0.0,0.0,0.0,0.0,0.0,0.0,0.0,4415,10149.30,0,0,165,0.35,-3.99,-0.42,0.37,0.95,0.05
0.0,0.0,0.0,0.0,0.0,0.0,0.0,4431,10147.30,0,0,0,-0.49,-4.13,-0.70,0.37,0.96,0.05
0.0,0.0,0.0,0.0,0.0,0.0,0.0,4437,10148.30,0,0,165,-0.84,-3.50,-0.77,0.36,0.95,0.05
0.0,0.0,0.0,0.0,0.0,0.0,0.0,4452,10148.30,0,0,0,-1.75,-2.59,0.07,0.35,0.95,0.07
0.0,0.0,0.0,0.0,0.0,0.0,0.0,4468,10148.30,0,0,165,-2.17,-2.24,0.35,0.36,0.94,0.08
0.0,0.0,0.0,0.0,0.0,0.0,0.0,4476,10148.30,0,0,0,-2.38,-3.36,-0.56,0.35,0.94,0.08
0.0,0.0,0.0,0.0,0.0,0.0,0.0,4491,10149.30,0,0,165,-1.61,-3.78,-0.91,0.35,0.94,0.08
0.0,0.0,0.0,0.0,0.0,0.0,0.0,4505,10149.30,0,0,0,-0.91,-3.92,-0.77,0.34,0.94,0.07
0.0,0.0,0.0,0.0,0.0,0.0,0.0,4520,10149.60,0,0,165,-1.12,-3.57,-0.28,0.34,0.94,0.08
0.0,0.0,0.0,0.0,0.0,0.0,0.0,4528,10149.30,0,0,0,-1.26,-3.92,0.07,0.34,0.94,0.08
0.0,0.0,0.0,0.0,0.0,0.0,0.0,4542,10149.30,0,0,165,-1.33,-3.71,0.84,0.34,0.95,0.07
0.0,0.0,0.0,0.0,0.0,0.0,0.0,4550,10148.60,0,0,0,-1.61,-3.64,1.33,0.35,0.95,0.08
0.0,0.0,0.0,0.0,0.0,0.0,0.0,4565,10148.30,0,0,165,-1.12,-3.29,1.82,0.35,0.95,0.07
0.0,0.0,0.0,0.0,0.0,0.0,0.0,4580,10149.30,0,0,0,-0.70,-3.22,1.82,0.36,0.94,0.08
0.0,0.0,0.0,0.0,0.0,0.0,0.0,4587,10147.30,0,0,165,-0.42,-3.57,1.26,0.37,0.94,0.09
0.0,0.0,0.0,0.0,0.0,0.0,0.0,4602,10149.30,0,0,0,-0.42,-4.34,-0.07,0.36,0.94,0.08
-1.3818359,0.021565218,-0.080633536,-0.045596275,0.45,0.9,0.14,8637,10146.70,0,0,165,2.38,-6.37,-1.82,0.45,0.90,0.14
0.5175781,0.027565215,-0.10363354,-0.049596272,0.43,0.91,0.14,8652,10148.60,0,0,0,2.80,-7.98,-2.10,0.43,0.91,0.14
-0.48242188,0.024565216,-0.12663355,-0.049596272,0.44,0.9,0.14,8659,10147.60,0,0,165,2.59,-9.59,-2.10,0.44,0.90,0.14
-1.3818359,0.039565217,-0.15263355,-0.051596276,0.45,0.91,0.14,8676,10146.70,0,0,0,3.64,-11.41,-2.24,0.45,0.91,0.14
-1.3818359,0.045565214,-0.16063355,-0.038596276,0.45,0.92,0.12,8689,10146.70,0,0,165,4.06,-11.97,-1.33,0.45,0.92,0.12
-1.3818359,0.020565215,-0.18163353,-0.055596273,0.48,0.92,0.1,8697,10146.70,0,0,0,2.31,-13.44,-2.52,0.48,0.92,0.10
-1.3818359,-0.012434784,-0.20663354,-0.07859628,0.49,0.91,0.09,8712,10146.70,0,0,165,0.00,-15.19,-4.13,0.49,0.91,0.09
-0.48242188,-0.021434784,-0.24463354,-0.115596265,0.5,0.92,0.1,8727,10147.60,0,0,0,-0.63,-17.85,-6.72,0.50,0.92,0.10
-1.0820312,-0.0024347845,-0.26363355,-0.17259628,0.52,0.92,0.07,8734,10147.00,0,0,165,0.70,-19.18,-10.71,0.52,0.92,0.07
-0.48242188,0.0035652164,-0.26763353,-0.18659627,0.5,0.92,0.07,8750,10147.60,0,0,0,1.12,-19.46,-11.69,0.50,0.92,0.07
-1.3818359,-0.010434784,-0.27063352,-0.21659628,0.5,0.95,0.04,8765,10146.70,0,0,165,0.14,-19.67,-13.79,0.50,0.95,0.04
-1.3818359,-0.035434783,-0.25663355,-0.21859628,0.48,0.93,0.04,8772,10146.70,0,0,0,-1.61,-18.69,-13.93,0.48,0.93,0.04
-3.381836,-0.07043478,-0.26763353,-0.22059627,0.46,0.93,0.04,8787,10144.70,0,0,165,-4.06,-19.46,-14.07,0.46,0.93,0.04
-1.0820312,-0.09843479,-0.28263354,-0.21859628,0.47,0.93,0.04,8802,10147.00,0,0,0,-6.02,-20.51,-13.93,0.47,0.93,0.04
-1.3818359,-0.10843478,-0.29563352,-0.23659627,0.47,0.92,0.04,8818,10146.70,0,0,165,-6.72,-21.42,-15.19,0.47,0.92,0.04
-1.3818359,-0.12243478,-0.32063353,-0.26759627,0.45,0.91,0.04,8835,10146.70,0,0,0,-7.70,-23.17,-17.36,0.45,0.91,0.04
-1.3818359,-0.13343479,-0.35163352,-0.28859627,0.44,0.92,0.04,8840,10146.70,0,0,165,-8.47,-25.34,-18.83,0.44,0.92,0.04
-1.3818359,-0.15443477,-0.35863352,-0.29459628,0.42,0.93,0.03,8847,10146.70,0,0,0,-9.94,-25.83,-19.25,0.42,0.93,0.03
-0.48242188,-0.16043478,-0.34663352,-0.26859626,0.4,0.91,0.04,8869,10147.60,0,0,165,-10.36,-24.99,-17.43,0.40,0.91,0.04
-1.3818359,-0.16943477,-0.33963352,-0.26259628,0.39,0.9,0.06,8877,10146.70,0,0,0,-10.99,-24.50,-17.01,0.39,0.90,0.06
-1.3818359,-0.23243478,-0.35663354,-0.26959628,0.37,0.91,0.04,8884,10146.70,0,0,165,-15.40,-25.69,-17.50,0.37,0.91,0.04
-1.3818359,-0.15743478,-0.30563354,-0.20659629,0.35,0.92,0.05,8899,10146.70,0,0,0,-10.15,-22.12,-13.09,0.35,0.92,0.05
-1.3818359,-0.18843478,-0.28563353,-0.15759628,0.32,0.91,0.06,8914,10146.70,0,0,165,-12.32,-20.72,-9.66,0.32,0.91,0.06
-0.48242188,-0.19843479,-0.30263352,-0.11759628,0.32,0.91,0.08,8922,10147.60,0,0,0,-13.02,-21.91,-6.86,0.32,0.91,0.08
-1.3818359,-0.19843479,-0.29163352,-0.069596276,0.33,0.92,0.08,8937,10146.70,0,0,165,-13.02,-21.14,-3.50,0.33,0.92,0.08
-1.3818359,-0.20243478,-0.29363355,-0.043596275,0.36,0.92,0.11,8952,10146.70,0,0,0,-13.30,-21.28,-1.68,0.36,0.92,0.11
-1.3818359,-0.21743478,-0.30963352,-0.055596273,0.37,0.92,0.11,8968,10146.70,0,0,165,-14.35,-22.40,-2.52,0.37,0.92,0.11
-1.3818359,-0.19943479,-0.28863353,-0.040596277,0.37,0.93,0.12,8975,10146.70,0,0,0,-13.09,-20.93,-1.47,0.37,0.93,0.12
-0.78222656,-0.19043478,-0.26163355,-0.046596274,0.39,0.92,0.14,8990,10147.30,0,0,165,-12.46,-19.04,-1.89,0.39,0.92,0.14
-0.48242188,-0.17843477,-0.24263354,-0.058596276,0.37,0.92,0.15,9004,10147.60,0,0,0,-11.62,-17.71,-2.73,0.37,0.92,0.15
-1.7822266,-0.15943478,-0.22863354,-0.059596274,0.36,0.92,0.16,9012,10146.30,0,0,165,-10.29,-16.73,-2.80,0.36,0.92,0.16
-0.48242188,-0.12943478,-0.21963355,-0.061596274,0.35,0.91,0.17,9028,10147.60,0,0,0,-8.19,-16.10,-2.94,0.35,0.91,0.17
-1.3818359,-0.13943478,-0.18663354,-0.029596275,0.35,0.94,0.16,9065,10146.70,0,0,165,-8.89,-13.79,-0.70,0.35,0.94,0.16
-1.3818359,-0.12343478,-0.19063354,-0.036596276,0.35,0.93,0.19,9067,10146.70,0,0,0,-7.77,-14.07,-1.19,0.35,0.93,0.19
-1.3818359,-0.10843478,-0.18163353,-0.032596275,0.36,0.94,0.18,9067,10146.70,0,0,165,-6.72,-13.44,-0.91,0.36,0.94,0.18
-1.3818359,-0.09343478,-0.16463354,-0.028596275,0.37,0.94,0.19,9072,10146.70,0,0,0,-5.67,-12.25,-0.63,0.37,0.94,0.19
-1.3818359,-0.08243479,-0.15163355,-0.038596276,0.38,0.93,0.19,9087,10146.70,0,0,165,-4.90,-11.34,-1.33,0.38,0.93,0.19
-1.3818359,-0.06443478,-0.13163354,-0.045596275,0.38,0.94,0.18,9102,10146.70,0,0,0,-3.64,-9.94,-1.82,0.38,0.94,0.18
-1.3818359,-0.06443478,-0.11163354,-0.054596275,0.39,0.94,0.18,9109,10146.70,0,0,165,-3.64,-8.54,-2.45,0.39,0.94,0.18
-0.48242188,-0.050434787,-0.07863354,-0.043596275,0.39,0.95,0.17,9124,10147.60,0,0,0,-2.66,-6.23,-1.68,0.39,0.95,0.17
-2.381836,-0.054434784,-0.06263354,-0.053596277,0.4,0.94,0.17,9140,10145.70,0,0,165,-2.94,-5.11,-2.38,0.40,0.94,0.17
-1.3818359,-0.049434785,-0.04263354,-0.06359628,0.41,0.94,0.16,9147,10146.70,0,0,0,-2.59,-3.71,-3.08,0.41,0.94,0.16
-2.381836,-0.051434785,-0.02563354,-0.07859628,0.4,0.94,0.16,9162,10145.70,0,0,165,-2.73,-2.52,-4.13,0.40,0.94,0.16
-1.7822266,-0.040434785,-0.00963354,-0.083596274,0.38,0.93,0.16,9177,10146.30,0,0,0,-1.96,-1.40,-4.48,0.38,0.93,0.16
-1.3818359,-0.038434785,3.664596E-4,-0.083596274,0.37,0.94,0.15,9184,10146.70,0,0,165,-1.82,-0.70,-4.48,0.37,0.94,0.15
-1.3818359,-0.04243478,0.01836646,-0.06759627,0.37,0.94,0.15,9199,10146.70,0,0,0,-2.10,0.56,-3.36,0.37,0.94,0.15
-1.3818359,-0.035434783,0.025366459,-0.059596274,0.36,0.93,0.16,9215,10146.70,0,0,165,-1.61,1.05,-2.80,0.36,0.93,0.16
-1.0820312,-0.029434785,0.013366459,-0.06459628,0.36,0.92,0.16,9222,10147.00,0,0,0,-1.19,0.21,-3.15,0.36,0.92,0.16
-1.7822266,-0.021434784,0.0033664592,-0.069596276,0.35,0.93,0.15,9240,10146.30,0,0,165,-0.63,-0.49,-3.50,0.35,0.93,0.15
-0.48242188,-0.0074347844,0.008366459,-0.048596274,0.35,0.94,0.14,9252,10147.60,0,0,0,0.35,-0.14,-2.03,0.35,0.94,0.14
-0.48242188,0.0025652153,0.01836646,-0.034596276,0.35,0.93,0.14,9260,10147.60,0,0,165,1.05,0.56,-1.05,0.35,0.93,0.14
-1.3818359,0.006565217,0.022366459,-0.026596274,0.37,0.93,0.14,9275,10146.70,0,0,0,1.33,0.84,-0.49,0.37,0.93,0.14
-1.3818359,0.023565214,0.021366458,-0.026596274,0.37,0.93,0.14,9289,10146.70,0,0,165,2.52,0.77,-0.49,0.37,0.93,0.14
-1.3818359,0.025565218,0.002366459,-0.036596276,0.37,0.92,0.14,9301,10146.70,0,0,0,2.66,-0.56,-1.19,0.37,0.92,0.14
-1.7822266,0.020565215,-0.03363354,-0.057596277,0.37,0.94,0.12,9312,10146.30,0,0,165,2.31,-3.08,-2.66,0.37,0.94,0.12
-1.0820312,0.036565218,-0.027633544,-0.043596275,0.38,0.95,0.11,9327,10147.00,0,0,0,3.43,-2.66,-1.68,0.38,0.95,0.11
-1.3818359,0.030565217,-0.02963354,-0.052596275,0.39,0.94,0.12,9342,10146.70,0,0,165,3.01,-2.80,-2.31,0.39,0.94,0.12
-1.3818359,0.034565214,-0.021633543,-0.053596277,0.39,0.94,0.11,9349,10146.70,0,0,0,3.29,-2.24,-2.38,0.39,0.94,0.11
-0.48242188,0.028565213,-0.013633539,-0.048596274,0.39,0.94,0.11,9367,10147.60,0,0,165,2.87,-1.68,-2.03,0.39,0.94,0.11
-1.3818359,0.018565217,-0.01663354,-0.052596275,0.38,0.94,0.12,9372,10146.70,0,0,0,2.17,-1.89,-2.31,0.38,0.94,0.12
-1.3818359,0.019565217,-0.022633541,-0.050596274,0.37,0.94,0.11,9387,10146.70,0,0,165,2.24,-2.31,-2.17,0.37,0.94,0.11
-1.3818359,0.014565216,-0.01863354,-0.030596275,0.36,0.94,0.12,9410,10146.70,0,0,0,1.89,-2.03,-0.77,0.36,0.94,0.12
-1.3818359,0.006565217,-0.026633542,-0.027596276,0.38,0.93,0.12,9411,10146.70,0,0,165,1.33,-2.59,-0.56,0.38,0.93,0.12
-1.3818359,0.0025652153,-0.045633543,-0.043596275,0.39,0.93,0.13,9425,10146.70,0,0,0,1.05,-3.92,-1.68,0.39,0.93,0.13
-1.3818359,-0.004434784,-0.056633543,-0.054596275,0.38,0.93,0.12,9439,10146.70,0,0,165,0.56,-4.69,-2.45,0.38,0.93,0.12
-1.3818359,0.0025652153,-0.050633542,-0.050596274,0.37,0.93,0.12,9447,10146.70,0,0,0,1.05,-4.27,-2.17,0.37,0.93,0.12
-1.7822266,0.0025652153,-0.038633544,-0.040596277,0.37,0.93,0.13,9469,10146.30,0,0,165,1.05,-3.43,-1.47,0.37,0.93,0.13
-1.3818359,0.0015652161,-0.039633542,-0.039596274,0.36,0.93,0.13,9477,10146.70,0,0,0,0.98,-3.50,-1.40,0.36,0.93,0.13
-1.3818359,0.007565215,-0.03163354,-0.028596275,0.37,0.93,0.13,9485,10146.70,0,0,165,1.40,-2.94,-0.63,0.37,0.93,0.13
-1.7822266,0.011565214,-0.026633542,-0.028596275,0.37,0.93,0.14,9500,10146.30,0,0,0,1.68,-2.59,-0.63,0.37,0.93,0.14
-1.3818359,0.024565216,-0.03563354,-0.033596277,0.35,0.92,0.14,9507,10146.70,0,0,165,2.59,-3.22,-0.98,0.35,0.92,0.14
-0.48242188,0.027565215,-0.057633545,-0.035596274,0.34,0.92,0.13,9522,10147.60,0,0,0,2.80,-4.76,-1.12,0.34,0.92,0.13
-0.48242188,0.030565217,-0.06663354,-0.024596274,0.34,0.93,0.13,9537,10147.60,0,0,165,3.01,-5.39,-0.35,0.34,0.93,0.13
-1.3818359,0.021565218,-0.07163353,-0.011596275,0.34,0.94,0.12,9545,10146.70,0,0,0,2.38,-5.74,0.56,0.34,0.94,0.12
-0.48242188,0.020565215,-0.07063354,0.003403725,0.35,0.94,0.12,9567,10147.60,0,0,165,2.31,-5.67,1.61,0.35,0.94,0.12
-1.3818359,0.017565215,-0.06363354,0.012403727,0.36,0.94,0.12,9575,10146.70,0,0,0,2.10,-5.18,2.24,0.36,0.94,0.12
-1.3818359,0.013565216,-0.056633543,0.015403725,0.37,0.94,0.12,9582,10146.70,0,0,165,1.82,-4.69,2.45,0.37,0.94,0.12
-0.48242188,0.006565217,-0.050633542,0.008403726,0.39,0.94,0.12,9601,10147.60,0,0,0,1.33,-4.27,1.96,0.39,0.94,0.12
-0.48242188,0.007565215,-0.04463354,-5.962737E-4,0.39,0.94,0.13,9612,10147.60,0,0,165,1.40,-3.85,1.33,0.39,0.94,0.13
-1.3818359,0.0045652166,-0.04663354,-0.014596275,0.39,0.94,0.13,9619,10146.70,0,0,0,1.19,-3.99,0.35,0.39,0.94,0.13
-1.3818359,0.009565216,-0.04463354,-0.029596275,0.39,0.94,0.13,9634,10146.70,0,0,165,1.54,-3.85,-0.70,0.39,0.94,0.13
-0.78222656,0.010565216,-0.04263354,-0.035596274,0.38,0.94,0.12,9649,10147.30,0,0,0,1.61,-3.71,-1.12,0.38,0.94,0.12
-1.3818359,0.0045652166,-0.030633539,-0.026596274,0.37,0.95,0.12,9657,10146.70,0,0,165,1.19,-2.87,-0.49,0.37,0.95,0.12
-1.7822266,-0.0024347845,-0.017633542,-0.023596276,0.37,0.94,0.13,9673,10146.30,0,0,0,0.70,-1.96,-0.28,0.37,0.94,0.13
-0.78222656,-0.0024347845,-0.017633542,-0.026596274,0.37,0.94,0.13,9687,10147.30,0,0,165,0.70,-1.96,-0.49,0.37,0.94,0.13
-1.3818359,5.6521595E-4,-0.01063354,-0.022596275,0.37,0.94,0.13,9695,10146.70,0,0,0,0.91,-1.47,-0.21,0.37,0.94,0.13
-1.3818359,5.6521595E-4,-0.0056335414,-0.017596275,0.37,0.94,0.13,9709,10146.70,0,0,165,0.91,-1.12,0.14,0.37,0.94,0.13
-1.3818359,-0.0014347844,-6.3354056E-4,-0.018596275,0.38,0.94,0.13,9726,10146.70,0,0,0,0.77,-0.77,0.07,0.38,0.94,0.13
-1.3818359,-0.0014347844,0.008366459,-0.019596275,0.38,0.94,0.13,9732,10146.70,0,0,165,0.77,-0.14,0.00,0.38,0.94,0.13
-1.3818359,-0.0014347844,0.0053664595,-0.026596274,0.38,0.94,0.12,9747,10146.70,0,0,0,0.77,-0.35,-0.49,0.38,0.94,0.12
-1.3818359,0.0015652161,0.0033664592,-0.030596275,0.38,0.93,0.13,9762,10146.70,0,0,165,0.98,-0.49,-0.77,0.38,0.93,0.13
-1.3818359,0.0035652164,3.664596E-4,-0.037596274,0.37,0.93,0.13,9769,10146.70,0,0,0,1.12,-0.70,-1.26,0.37,0.93,0.13
-1.3818359,0.0035652164,0.00736646,-0.040596277,0.37,0.94,0.12,9784,10146.70,0,0,165,1.12,-0.21,-1.47,0.37,0.94,0.12
-1.3818359,0.010565216,0.02736646,-0.022596275,0.36,0.94,0.11,9799,10146.70,0,0,0,1.61,1.19,-0.21,0.36,0.94,0.11
-1.3818359,0.011565214,0.03736646,-0.0065962747,0.35,0.94,0.12,9809,10146.70,0,0,165,1.68,1.89,0.91,0.35,0.94,0.12
-1.3818359,-0.0014347844,0.03336646,0.0044037234,0.37,0.93,0.12,9822,10146.70,0,0,0,0.77,1.61,1.68,0.37,0.93,0.12
-1.3818359,0.0045652166,0.01736646,-0.002596274,0.37,0.94,0.12,9837,10146.70,0,0,165,1.19,0.49,1.19,0.37,0.94,0.12
-0.48242188,0.005565215,0.0033664592,-0.011596275,0.38,0.94,0.11,9844,10147.60,0,0,0,1.26,-0.49,0.56,0.38,0.94,0.11
-1.3818359,-0.0024347845,-0.01663354,-0.031596273,0.37,0.94,0.11,9859,10146.70,0,0,165,0.70,-1.89,-0.84,0.37,0.94,0.11
-2.381836,0.0025652153,-0.0116335405,-0.024596274,0.37,0.94,0.1,9875,10145.70,0,0,0,1.05,-1.54,-0.35,0.37,0.94,0.10
-2.381836,0.010565216,-0.002633541,-0.012596275,0.37,0.94,0.1,9888,10145.70,0,0,165,1.61,-0.91,0.49,0.37,0.94,0.10
-0.48242188,-4.3478515E-4,-0.0056335414,-0.009596275,0.37,0.94,0.1,9896,10147.60,0,0,0,0.84,-1.12,0.70,0.37,0.94,0.10
-0.48242188,-0.0064347847,-0.020633541,-0.015596274,0.38,0.94,0.1,9912,10147.60,0,0,165,0.42,-2.17,0.28,0.38,0.94,0.10
-1.3818359,-0.010434784,-0.028633542,-0.018596275,0.38,0.94,0.1,9919,10146.70,0,0,0,0.14,-2.73,0.07,0.38,0.94,0.10
-1.7822266,-0.0074347844,-0.03763354,-0.021596275,0.38,0.94,0.11,9934,10146.30,0,0,165,0.35,-3.36,-0.14,0.38,0.94,0.11
-2.7822266,-0.004434784,-0.050633542,-0.029596275,0.37,0.94,0.11,9949,10145.30,0,0,0,0.56,-4.27,-0.70,0.37,0.94,0.11
-1.3818359,5.6521595E-4,-0.050633542,-0.023596276,0.38,0.94,0.11,9958,10146.70,0,0,165,0.91,-4.27,-0.28,0.38,0.94,0.11
-1.3818359,-4.3478515E-4,-0.050633542,-0.022596275,0.38,0.95,0.1,9972,10146.70,0,0,0,0.84,-4.27,-0.21,0.38,0.95,0.10
-1.3818359,-0.004434784,-0.050633542,-0.020596275,0.38,0.94,0.1,9987,10146.70,0,0,165,0.56,-4.27,-0.07,0.38,0.94,0.10
-0.48242188,-0.0024347845,-0.045633543,-0.015596274,0.38,0.95,0.1,9994,10147.60,0,0,0,0.70,-3.92,0.28,0.38,0.95,0.10
-1.3818359,0.0015652161,-0.04063354,-0.012596275,0.38,0.94,0.11,10009,10146.70,0,0,165,0.98,-3.57,0.49,0.38,0.94,0.11
-2.7822266,5.6521595E-4,-0.04763354,-0.021596275,0.39,0.94,0.11,10024,10145.30,0,0,0,0.91,-4.06,-0.14,0.39,0.94,0.11
-1.7822266,-0.0064347847,-0.06363354,-0.040596277,0.38,0.94,0.11,10032,10146.30,0,0,165,0.42,-5.18,-1.47,0.38,0.94,0.11
-1.7822266,0.0015652161,-0.060633536,-0.049596272,0.38,0.94,0.12,10047,10146.30,0,0,0,0.98,-4.97,-2.10,0.38,0.94,0.12
-1.3818359,0.0025652153,-0.06263354,-0.052596275,0.37,0.94,0.12,10062,10146.70,0,0,165,1.05,-5.11,-2.31,0.37,0.94,0.12
-2.381836,0.0015652161,-0.05563354,-0.042596273,0.36,0.95,0.11,10069,10145.70,0,0,0,0.98,-4.62,-1.61,0.36,0.95,0.11
-0.48242188,5.6521595E-4,-0.04763354,-0.033596277,0.36,0.94,0.12,10084,10147.60,0,0,165,0.91,-4.06,-0.98,0.36,0.94,0.12
-1.3818359,0.0025652153,-0.050633542,-0.032596275,0.36,0.93,0.13,10099,10146.70,0,0,0,1.05,-4.27,-0.91,0.36,0.93,0.13
-1.7822266,0.0035652164,-0.057633545,-0.036596276,0.35,0.92,0.13,10107,10146.30,0,0,165,1.12,-4.76,-1.19,0.35,0.92,0.13
-1.3818359,-0.0034347847,-0.07363354,-0.036596276,0.35,0.92,0.13,10122,10146.70,0,0,0,0.63,-5.88,-1.19,0.35,0.92,0.13
-1.7822266,-0.009434785,-0.08963354,-0.040596277,0.35,0.92,0.13,10137,10146.30,0,0,165,0.21,-7.00,-1.47,0.35,0.92,0.13
-2.381836,-0.0014347844,-0.07863354,-0.017596275,0.35,0.93,0.12,10144,10145.70,0,0,0,0.77,-6.23,0.14,0.35,0.93,0.12
-1.3818359,5.6521595E-4,-0.05963354,0.0044037234,0.36,0.93,0.12,10160,10146.70,0,0,165,0.91,-4.90,1.68,0.36,0.93,0.12
-1.3818359,5.6521595E-4,-0.041633543,0.014403727,0.37,0.93,0.12,10176,10146.70,0,0,0,0.91,-3.64,2.38,0.37,0.93,0.12
-1.7822266,-0.004434784,-0.038633544,0.010403724,0.38,0.94,0.12,10182,10146.30,0,0,165,0.56,-3.43,2.10,0.38,0.94,0.12
-1.3818359,-0.004434784,-0.048633542,-0.0035962742,0.37,0.94,0.12,10197,10146.70,0,0,0,0.56,-4.13,1.12,0.37,0.94,0.12
-1.7822266,-0.016434785,-0.05963354,-0.009596275,0.38,0.94,0.12,10217,10146.30,0,0,165,-0.28,-4.90,0.70,0.38,0.94,0.12
-1.7822266,-0.014434785,-0.054633547,-0.0045962753,0.38,0.95,0.11,10219,10146.30,0,0,0,-0.14,-4.55,1.05,0.38,0.95,0.11
-1.3818359,-0.014434785,-0.03663354,0.009403724,0.39,0.95,0.12,10234,10146.70,0,0,165,-0.14,-3.29,2.03,0.39,0.95,0.12
-2.7822266,-0.022434784,-0.02563354,0.0044037234,0.4,0.95,0.12,10249,10145.30,0,0,0,-0.70,-2.52,1.68,0.40,0.95,0.12
-1.3818359,-0.022434784,-0.0056335414,-0.0045962753,0.4,0.95,0.12,10258,10146.70,0,0,165,-0.70,-1.12,1.05,0.40,0.95,0.12
-0.78222656,-0.019434784,0.002366459,-0.024596274,0.39,0.94,0.12,10272,10147.30,0,0,0,-0.49,-0.56,-0.35,0.39,0.94,0.12
-1.7822266,-0.019434784,0.002366459,-0.033596277,0.37,0.94,0.13,10287,10146.30,0,0,165,-0.49,-0.56,-0.98,0.37,0.94,0.13
-1.3818359,-0.018434783,0.0013664598,-0.040596277,0.37,0.94,0.13,10294,10146.70,0,0,0,-0.42,-0.63,-1.47,0.37,0.94,0.13
-1.3818359,-0.008434784,0.0013664598,-0.048596274,0.36,0.94,0.12,10309,10146.70,0,0,165,0.28,-0.63,-2.03,0.36,0.94,0.12
-2.7822266,-0.0034347847,0.01636646,-0.035596274,0.34,0.94,0.12,10324,10145.30,0,0,0,0.63,0.42,-1.12,0.34,0.94,0.12
-2.381836,-0.011434784,0.014366459,-0.028596275,0.33,0.93,0.12,10332,10145.70,0,0,165,0.07,0.28,-0.63,0.33,0.93,0.12
-1.3818359,-0.011434784,-0.002633541,-0.011596275,0.31,0.93,0.12,10346,10146.70,0,0,0,0.07,-0.91,0.56,0.31,0.93,0.12
-0.48242188,-0.011434784,-0.013633539,0.002403725,0.33,0.92,0.12,10364,10147.60,0,0,165,0.07,-1.68,1.54,0.33,0.92,0.12
-2.7822266,-0.015434784,-0.028633542,-0.0015962757,0.33,0.92,0.11,10369,10145.30,0,0,0,-0.21,-2.73,1.26,0.33,0.92,0.11
-2.7822266,-4.3478515E-4,-0.014633541,0.027403723,0.33,0.93,0.1,10385,10145.30,0,0,165,0.84,-1.75,3.29,0.33,0.93,0.10
-1.7822266,-0.0074347844,3.664596E-4,0.050403725,0.35,0.92,0.11,10399,10146.30,0,0,0,0.35,-0.70,4.90,0.35,0.92,0.11
-1.7822266,-0.010434784,0.0053664595,0.061403725,0.35,0.92,0.13,10409,10146.30,0,0,165,0.14,-0.35,5.67,0.35,0.92,0.13
-1.7822266,0.005565215,0.019366458,0.07440372,0.36,0.93,0.13,10422,10146.30,0,0,0,1.26,0.63,6.58,0.36,0.93,0.13
-1.3818359,0.013565216,0.025366459,0.08340372,0.36,0.93,0.14,10444,10146.70,0,0,165,1.82,1.05,7.21,0.36,0.93,0.14
-1.7822266,0.007565215,0.008366459,0.07940373,0.36,0.93,0.16,10446,10146.30,0,0,0,1.40,-0.14,6.93,0.36,0.93,0.16
-1.7822266,0.011565214,-0.0066335415,0.07440372,0.38,0.95,0.15,10460,10146.30,0,0,165,1.68,-1.19,6.58,0.38,0.95,0.15
-1.7822266,0.027565215,0.006366459,0.08640373,0.39,0.94,0.16,10475,10146.30,0,0,0,2.80,-0.28,7.42,0.39,0.94,0.16
-2.7822266,0.020565215,3.664596E-4,0.061403725,0.41,0.94,0.15,10482,10145.30,0,0,165,2.31,-0.70,5.67,0.41,0.94,0.15
-1.3818359,0.031565215,0.01736646,0.058403727,0.42,0.96,0.14,10497,10146.70,0,0,0,3.08,0.49,5.46,0.42,0.96,0.14
-1.3818359,0.036565218,0.03636646,0.049403723,0.43,0.95,0.15,10512,10146.70,0,0,165,3.43,1.82,4.83,0.43,0.95,0.15
-1.7822266,0.047565214,0.04236646,0.035403725,0.44,0.95,0.14,10519,10146.30,0,0,0,4.20,2.24,3.85,0.44,0.95,0.14
-1.7822266,0.043565217,0.04236646,0.015403725,0.45,0.95,0.14,10534,10146.30,0,0,165,3.92,2.24,2.45,0.45,0.95,0.14
-2.7822266,0.045565214,0.04436646,-0.020596275,0.46,0.95,0.13,10550,10145.30,0,0,0,4.06,2.38,-0.07,0.46,0.95,0.13
-1.7822266,0.05556522,0.05436646,-0.042596273,0.45,0.96,0.12,10557,10146.30,0,0,165,4.76,3.08,-1.61,0.45,0.96,0.12
-1.7822266,0.048565216,0.05436646,-0.069596276,0.43,0.95,0.11,10573,10146.30,0,0,0,4.27,3.08,-3.50,0.43,0.95,0.11
-2.7822266,0.05556522,0.07036646,-0.06759627,0.42,0.96,0.1,10587,10145.30,0,0,165,4.76,4.20,-3.36,0.42,0.96,0.10
-1.7822266,0.045565214,0.08036646,-0.065596275,0.41,0.95,0.11,10595,10146.30,0,0,0,4.06,4.90,-3.22,0.41,0.95,0.11
-1.7822266,0.038565215,0.07236646,-0.07859628,0.4,0.94,0.11,10609,10146.30,0,0,165,3.57,4.34,-4.13,0.40,0.94,0.11
-2.7822266,0.044565216,0.07036646,-0.07759628,0.39,0.93,0.11,10625,10145.30,0,0,0,3.99,4.20,-4.06,0.39,0.93,0.11
-1.7822266,0.031565215,0.052366458,-0.08259627,0.37,0.93,0.1,10632,10146.30,0,0,165,3.08,2.94,-4.41,0.37,0.93,0.10
-2.7822266,0.029565215,0.04836646,-0.07359628,0.37,0.94,0.1,10647,10145.30,0,0,0,2.94,2.66,-3.78,0.37,0.94,0.10
-1.7822266,0.016565215,0.046366457,-0.06759627,0.37,0.93,0.1,10662,10146.30,0,0,165,2.03,2.52,-3.36,0.37,0.93,0.10
-1.3818359,0.014565216,0.03636646,-0.065596275,0.37,0.93,0.09,10670,10146.70,0,0,0,1.89,1.82,-3.22,0.37,0.93,0.09
-2.381836,0.012565216,0.03836646,-0.056596275,0.37,0.94,0.09,10688,10145.70,0,0,165,1.75,1.96,-2.59,0.37,0.94,0.09
-2.381836,0.008565215,0.03236646,-0.050596274,0.36,0.93,0.1,10700,10145.70,0,0,0,1.47,1.54,-2.17,0.36,0.93,0.10
-2.381836,0.007565215,0.023366459,-0.042596273,0.35,0.93,0.1,10709,10145.70,0,0,165,1.40,0.91,-1.61,0.35,0.93,0.10
-1.7822266,-4.3478515E-4,0.008366459,-0.038596276,0.35,0.93,0.1,10722,10146.30,0,0,0,0.84,-0.14,-1.33,0.35,0.93,0.10
-2.7822266,-0.005434784,3.664596E-4,-0.030596275,0.35,0.93,0.11,10737,10145.30,0,0,165,0.49,-0.70,-0.77,0.35,0.93,0.11
-1.7822266,-4.3478515E-4,-0.0116335405,-0.022596275,0.35,0.93,0.11,10745,10146.30,0,0,0,0.84,-1.54,-0.21,0.35,0.93,0.11
-1.7822266,-0.0024347845,-0.022633541,-0.013596276,0.35,0.93,0.12,10759,10146.30,0,0,165,0.70,-2.31,0.42,0.35,0.93,0.12
-2.7822266,-0.0034347847,-0.03563354,-0.013596276,0.36,0.92,0.12,10782,10145.30,0,0,0,0.63,-3.22,0.42,0.36,0.92,0.12
-1.7822266,5.6521595E-4,-0.04463354,-0.013596276,0.36,0.92,0.13,10783,10146.30,0,0,165,0.91,-3.85,0.42,0.36,0.92,0.13
-2.7822266,0.0045652166,-0.045633543,-0.0055962745,0.36,0.92,0.13,10797,10145.30,0,0,0,1.19,-3.92,0.98,0.36,0.92,0.13
-1.7822266,0.012565216,-0.043633543,0.0044037234,0.36,0.93,0.12,10804,10146.30,0,0,165,1.75,-3.78,1.68,0.36,0.93,0.12
-1.3818359,0.013565216,-0.03663354,0.013403725,0.38,0.93,0.12,10819,10146.70,0,0,0,1.82,-3.29,2.31,0.38,0.93,0.12
-1.7822266,0.009565216,-0.03363354,0.012403727,0.38,0.93,0.13,10834,10146.30,0,0,165,1.54,-3.08,2.24,0.38,0.93,0.13
-1.7822266,0.014565216,-0.032633543,0.008403726,0.39,0.93,0.12,10842,10146.30,0,0,0,1.89,-3.01,1.96,0.39,0.93,0.12
-2.7822266,0.020565215,-0.032633543,0.010403724,0.39,0.93,0.12,10857,10145.30,0,0,165,2.31,-3.01,2.10,0.39,0.93,0.12
-1.7822266,0.014565216,-0.043633543,-0.0045962753,0.39,0.93,0.11,10880,10146.30,0,0,0,1.89,-3.78,1.05,0.39,0.93,0.11
-2.7822266,0.006565217,-0.043633543,-0.007596276,0.39,0.94,0.1,10881,10145.30,0,0,165,1.33,-3.78,0.84,0.39,0.94,0.10
-1.3818359,5.6521595E-4,-0.02563354,4.037246E-4,0.38,0.94,0.11,10895,10146.70,0,0,0,0.91,-2.52,1.40,0.38,0.94,0.11
-1.7822266,-0.005434784,-0.023633543,0.002403725,0.38,0.94,0.11,10910,10146.30,0,0,165,0.49,-2.38,1.54,0.38,0.94,0.11
-2.381836,-0.011434784,-0.021633543,0.008403726,0.38,0.95,0.1,10917,10145.70,0,0,0,0.07,-2.24,1.96,0.38,0.95,0.10
-0.78222656,-0.026434785,-0.03163354,0.008403726,0.39,0.95,0.11,10932,10147.30,0,0,165,-0.98,-2.94,1.96,0.39,0.95,0.11
-2.7822266,-0.022434784,-0.04663354,-0.007596276,0.39,0.94,0.12,10947,10145.30,0,0,0,-0.70,-3.99,0.84,0.39,0.94,0.12
-1.7822266,-0.025434785,-0.06363354,-0.027596276,0.39,0.94,0.12,10954,10146.30,0,0,165,-0.91,-5.18,-0.56,0.39,0.94,0.12
-2.7822266,-0.018434783,-0.05563354,-0.032596275,0.39,0.95,0.1,10971,10145.30,0,0,0,-0.42,-4.62,-0.91,0.39,0.95,0.10
-1.7822266,-0.017434783,-0.038633544,-0.020596275,0.38,0.95,0.11,10984,10146.30,0,0,165,-0.35,-3.43,-0.07,0.38,0.95,0.11
-2.381836,-0.029434785,-0.038633544,-0.022596275,0.39,0.94,0.12,10992,10145.70,0,0,0,-1.19,-3.43,-0.21,0.39,0.94,0.12
-1.7822266,-0.021434784,-0.034633543,-0.023596276,0.39,0.94,0.13,11008,10146.30,0,0,165,-0.63,-3.15,-0.28,0.39,0.94,0.13
-2.7822266,-0.021434784,-0.051633544,-0.040596277,0.39,0.93,0.13,11022,10145.30,0,0,0,-0.63,-4.34,-1.47,0.39,0.93,0.13
-1.7822266,-0.0134347845,-0.056633543,-0.049596272,0.39,0.94,0.12,11029,10146.30,0,0,165,-0.07,-4.69,-2.10,0.39,0.94,0.12
-1.7822266,-0.009434785,-0.053633545,-0.053596277,0.38,0.94,0.12,11045,10146.30,0,0,0,0.21,-4.48,-2.38,0.38,0.94,0.12
-2.7822266,-0.004434784,-0.04463354,-0.054596275,0.37,0.93,0.13,11060,10145.30,0,0,165,0.56,-3.85,-2.45,0.37,0.93,0.13
-1.7822266,0.010565216,-0.03563354,-0.046596274,0.37,0.93,0.13,11067,10146.30,0,0,0,1.61,-3.22,-1.89,0.37,0.93,0.13
-2.7822266,0.009565216,-0.030633539,-0.029596275,0.36,0.94,0.12,11082,10145.30,0,0,165,1.54,-2.87,-0.70,0.36,0.94,0.12
-1.7822266,-0.0034347847,-0.03663354,-0.022596275,0.36,0.93,0.13,11097,10146.30,0,0,0,0.63,-3.29,-0.21,0.36,0.93,0.13
-2.7822266,-0.0024347845,-0.04063354,-0.013596276,0.37,0.93,0.13,11105,10145.30,0,0,165,0.70,-3.57,0.42,0.37,0.93,0.13
-1.7822266,-0.004434784,-0.052633543,-0.020596275,0.37,0.93,0.12,11121,10146.30,0,0,0,0.56,-4.41,-0.07,0.37,0.93,0.12
-1.7822266,0.0045652166,-0.04763354,-0.019596275,0.37,0.93,0.12,11135,10146.30,0,0,165,1.19,-4.06,0.00,0.37,0.93,0.12
-1.7822266,0.006565217,-0.034633543,-0.013596276,0.37,0.93,0.12,11143,10146.30,0,0,0,1.33,-3.15,0.42,0.37,0.93,0.12
-2.7822266,0.0035652164,-0.026633542,-0.014596275,0.37,0.94,0.12,11165,10145.30,0,0,165,1.12,-2.59,0.35,0.37,0.94,0.12
-1.7822266,0.0025652153,-0.019633539,-0.018596275,0.38,0.93,0.12,11172,10146.30,0,0,0,1.05,-2.10,0.07,0.38,0.93,0.12
-1.7822266,0.0035652164,-0.01663354,-0.022596275,0.37,0.93,0.12,11187,10146.30,0,0,165,1.12,-1.89,-0.21,0.37,0.93,0.12
-1.7822266,0.007565215,-0.015633542,-0.017596275,0.36,0.94,0.12,11195,10146.30,0,0,0,1.40,-1.82,0.14,0.36,0.94,0.12
-1.7822266,-0.0024347845,-0.027633544,-0.021596275,0.36,0.94,0.13,11210,10146.30,0,0,165,0.70,-2.66,-0.14,0.36,0.94,0.13
-1.7822266,5.6521595E-4,-0.024633542,-0.009596275,0.36,0.94,0.13,11217,10146.30,0,0,0,0.91,-2.45,0.70,0.36,0.94,0.13
-1.7822266,0.012565216,-0.012633541,0.008403726,0.37,0.94,0.12,11232,10146.30,0,0,165,1.75,-1.61,1.96,0.37,0.94,0.12
-1.7822266,0.0035652164,-0.014633541,0.008403726,0.37,0.94,0.13,11240,10146.30,0,0,0,1.12,-1.75,1.96,0.37,0.94,0.13
-2.7822266,0.0015652161,-0.017633542,0.0064037256,0.38,0.93,0.13,11255,10145.30,0,0,165,0.98,-1.96,1.82,0.38,0.93,0.13
-1.7822266,0.0035652164,-0.02563354,-0.0015962757,0.38,0.94,0.12,11269,10146.30,0,0,0,1.12,-2.52,1.26,0.38,0.94,0.12
-1.7822266,0.010565216,-0.01663354,-0.0035962742,0.39,0.94,0.12,11277,10146.30,0,0,165,1.61,-1.89,1.12,0.39,0.94,0.12
-2.7822266,0.007565215,-0.01863354,-0.017596275,0.39,0.94,0.12,11292,10145.30,0,0,0,1.40,-2.03,0.14,0.39,0.94,0.12
-3.0820312,0.012565216,-0.00963354,-0.019596275,0.38,0.94,0.11,11308,10145.00,0,0,165,1.75,-1.40,0.00,0.38,0.94,0.11
-1.7822266,0.0035652164,-0.0056335414,-0.022596275,0.38,0.95,0.11,11315,10146.30,0,0,0,1.12,-1.12,-0.21,0.38,0.95,0.11
-1.7822266,0.0025652153,-0.0066335415,-0.018596275,0.38,0.94,0.11,11330,10146.30,0,0,165,1.05,-1.19,0.07,0.38,0.94,0.11
-2.7822266,-0.0074347844,-0.0066335415,-0.014596275,0.38,0.95,0.1,11344,10145.30,0,0,0,0.35,-1.19,0.35,0.38,0.95,0.10
-1.7822266,-0.011434784,-0.008633542,-0.017596275,0.39,0.94,0.11,11352,10146.30,0,0,165,0.07,-1.33,0.14,0.39,0.94,0.11
-2.7822266,-0.017434783,-0.01063354,-0.022596275,0.39,0.93,0.12,11367,10145.30,0,0,0,-0.35,-1.47,-0.21,0.39,0.93,0.12
-2.7822266,-0.019434784,-0.01863354,-0.031596273,0.38,0.94,0.12,11382,10145.30,0,0,165,-0.49,-2.03,-0.84,0.38,0.94,0.12
-1.7822266,-0.010434784,-0.015633542,-0.033596277,0.38,0.94,0.12,11390,10146.30,0,0,0,0.14,-1.82,-0.98,0.38,0.94,0.12
-1.7822266,-0.015434784,-0.01863354,-0.032596275,0.37,0.94,0.12,11405,10146.30,0,0,165,-0.21,-2.03,-0.91,0.37,0.94,0.12
-1.7822266,-0.012434784,-0.017633542,-0.018596275,0.37,0.94,0.12,11420,10146.30,0,0,0,0.00,-1.96,0.07,0.37,0.94,0.12
-1.7822266,-0.017434783,-0.014633541,-0.008596275,0.38,0.93,0.12,11435,10146.30,0,0,165,-0.35,-1.75,0.77,0.38,0.93,0.12
-2.7822266,-0.025434785,-0.024633542,-0.018596275,0.39,0.93,0.13,11442,10145.30,0,0,0,-0.91,-2.45,0.07,0.39,0.93,0.13
-1.7822266,-0.015434784,-0.02963354,-0.032596275,0.39,0.93,0.12,11457,10146.30,0,0,165,-0.21,-2.80,-0.91,0.39,0.93,0.12
-2.7822266,-0.008434784,-0.021633543,-0.033596277,0.38,0.94,0.12,11465,10145.30,0,0,0,0.28,-2.24,-0.98,0.38,0.94,0.12
-2.7822266,-0.0014347844,-0.0066335415,-0.019596275,0.37,0.94,0.12,11480,10145.30,0,0,165,0.77,-1.19,0.00,0.37,0.94,0.12
-2.7822266,0.0045652166,0.009366459,0.0074037258,0.37,0.95,0.13,11495,10145.30,0,0,0,1.19,-0.07,1.89,0.37,0.95,0.13
-1.7822266,-0.0074347844,0.01636646,0.040403724,0.37,0.96,0.17,11502,10146.30,0,0,165,0.35,0.42,4.20,0.37,0.96,0.17
-1.7822266,-0.039434783,3.664596E-4,0.054403726,0.42,0.95,0.22,11524,10146.30,0,0,0,-1.89,-0.70,5.18,0.42,0.95,0.22
-1.7822266,-0.0064347847,0.02036646,0.07240373,0.45,0.96,0.27,11532,10146.30,0,0,165,0.42,0.70,6.44,0.45,0.96,0.27
-1.7822266,0.009565216,0.06736646,0.11340372,0.48,0.96,0.31,11539,10146.30,0,0,0,1.54,3.99,9.31,0.48,0.96,0.31
-1.7822266,0.036565218,0.122366466,0.16040373,0.5,0.98,0.33,11554,10146.30,0,0,165,3.43,7.84,12.60,0.50,0.98,0.33
-1.7822266,0.043565217,0.22236645,0.25540373,0.53,1.02,0.48,11570,10146.30,0,0,0,3.92,14.84,19.25,0.53,1.02,0.48
-2.7822266,0.05556522,0.31136647,0.30940372,0.67,1.05,0.51,11577,10145.30,0,0,165,4.76,21.07,23.03,0.67,1.05,0.51
-3.0820312,0.28756523,0.5393664,0.40540373,0.62,1.0,0.55,11592,10145.00,0,0,0,21.00,37.03,29.75,0.62,1.00,0.55
-2.7822266,0.18956523,0.63036644,0.31740373,0.78,0.96,0.54,11607,10145.30,0,0,165,14.14,43.40,23.59,0.78,0.96,0.54
-1.7822266,0.3005652,0.81536645,0.24040374,0.81,0.99,0.45,11615,10146.30,0,0,0,21.91,56.35,18.20,0.81,0.99,0.45
-2.7822266,0.39456522,1.0743665,0.18640372,0.86,0.96,0.38,11629,10145.30,0,0,165,28.49,74.48,14.42,0.86,0.96,0.38
-1.7822266,0.46056524,1.2783664,0.016403724,0.83,0.95,0.27,11645,10146.30,0,0,0,33.11,88.76,2.52,0.83,0.95,0.27
-1.7822266,0.5295652,1.3763665,-0.12859628,0.74,0.96,0.14,11652,10146.30,0,0,165,37.94,95.62,-7.63,0.74,0.96,0.14
-1.7822266,0.4745652,1.4153664,-0.21459627,0.53,1.0,0.0,11667,10146.30,0,0,0,34.09,98.35,-13.65,0.53,1.00,0.00
-2.7822266,0.30256522,1.4293665,-0.18459629,0.41,0.97,-0.03,11682,10145.30,0,0,165,22.05,99.33,-11.55,0.41,0.97,-0.03
-2.7822266,0.19456522,1.3933665,-0.14159627,0.32,0.92,-0.02,11689,10145.30,0,0,0,14.49,96.81,-8.54,0.32,0.92,-0.02
-1.7822266,0.09156522,1.3103664,-0.12759627,0.28,0.86,0.01,11704,10146.30,0,0,165,7.28,91.00,-7.56,0.28,0.86,0.01
-1.7822266,0.08756521,1.2643664,-0.09359628,0.24,0.79,0.04,11720,10146.30,0,0,0,7.00,87.78,-5.18,0.24,0.79,0.04
-0.78222656,0.13656522,1.2163664,-0.09059627,0.24,0.75,0.05,11728,10147.30,0,0,165,10.43,84.42,-4.97,0.24,0.75,0.05
-1.7822266,0.17256522,1.1563665,-0.09559628,0.14,0.79,0.02,11743,10146.30,0,0,0,12.95,80.22,-5.32,0.14,0.79,0.02
-1.7822266,0.2565652,1.1473664,-0.012596275,0.13,0.82,-0.05,11757,10146.30,0,0,165,18.83,79.59,0.49,0.13,0.82,-0.05
-3.0820312,0.27656522,1.0973663,0.10340372,0.08,0.89,-0.12,11764,10145.00,0,0,0,20.23,76.09,8.61,0.08,0.89,-0.12
-1.7822266,0.21956521,1.0533664,0.29040372,0.07,0.93,-0.12,11780,10146.30,0,0,165,16.24,73.01,21.70,0.07,0.93,-0.12
-0.78222656,0.103565216,0.98636645,0.3954037,0.13,0.9,-0.06,11794,10147.30,0,0,0,8.12,68.32,29.05,0.13,0.90,-0.06
-1.7822266,0.17656521,0.9033664,0.47140372,0.14,0.86,0.03,11802,10146.30,0,0,165,13.23,62.51,34.37,0.14,0.86,0.03
-1.7822266,0.11756523,0.73136646,0.49440372,0.18,0.85,0.05,11825,10146.30,0,0,0,9.10,50.47,35.98,0.18,0.85,0.05
-2.7822266,0.15956523,0.6663664,0.52140373,0.23,0.86,0.07,11832,10145.30,0,0,165,12.04,45.92,37.87,0.23,0.86,0.07
-2.7822266,0.15056522,0.62936646,0.5184037,0.31,0.88,0.09,11840,10145.30,0,0,0,11.41,43.33,37.66,0.31,0.88,0.09
-2.0820312,0.18056522,0.62036645,0.50040376,0.35,0.86,0.13,11855,10146.00,0,0,165,13.51,42.70,36.40,0.35,0.86,0.13
-3.6816406,0.18556522,0.58836645,0.45140374,0.37,0.88,0.13,11870,10144.40,0,0,0,13.86,40.46,32.97,0.37,0.88,0.13
-2.7822266,0.25856522,0.66836643,0.51440376,0.4,0.9,0.11,11877,10145.30,0,0,165,18.97,46.06,37.38,0.40,0.90,0.11
-2.7822266,0.24456522,0.69936645,0.5704037,0.4,0.92,0.1,11892,10145.30,0,0,0,17.99,48.23,41.30,0.40,0.92,0.10
-2.0820312,0.21156523,0.6603664,0.6014037,0.42,0.94,0.1,11908,10146.00,0,0,165,15.68,45.50,43.47,0.42,0.94,0.10
-1.7822266,0.108565226,0.66236645,0.66340375,0.47,0.95,0.09,11914,10146.30,0,0,0,8.47,45.64,47.81,0.47,0.95,0.09
-2.7822266,0.041565217,0.69436646,0.7314037,0.52,0.97,0.09,11931,10145.30,0,0,165,3.78,47.88,52.57,0.52,0.97,0.09
-1.7822266,-0.066434786,0.76036644,0.77540374,0.59,0.93,0.17,11944,10146.30,0,0,0,-3.78,52.50,55.65,0.59,0.93,0.17
-2.7822266,-0.11343479,0.74636644,0.6674037,0.7,0.85,0.25,11952,10145.30,0,0,165,-7.07,51.52,48.09,0.70,0.85,0.25
-2.0820312,-0.080434784,0.6543665,0.4254037,0.72,0.84,0.25,11967,10146.00,0,0,0,-4.76,45.08,31.15,0.72,0.84,0.25
-1.7822266,-0.056434784,0.6163664,0.2614037,0.69,0.86,0.24,11982,10146.30,0,0,165,-3.08,42.42,19.67,0.69,0.86,0.24
-2.0820312,-0.066434786,0.6373664,0.14040372,0.61,0.85,0.24,11990,10146.00,0,0,0,-3.78,43.89,11.20,0.61,0.85,0.24
-1.7822266,-0.032434784,0.6513664,0.12940373,0.55,0.87,0.23,12004,10146.30,0,0,165,-1.40,44.87,10.43,0.55,0.87,0.23
-2.0820312,-0.06743479,0.63536644,0.10640372,0.5,0.87,0.25,12020,10146.00,0,0,0,-3.85,43.75,8.82,0.50,0.87,0.25
-2.7822266,-0.09343478,0.59436643,0.039403725,0.5,0.85,0.26,12027,10145.30,0,0,165,-5.67,40.88,4.13,0.50,0.85,0.26
-2.7822266,-0.055434786,0.53336644,-0.048596274,0.46,0.86,0.23,12042,10145.30,0,0,0,-3.01,36.61,-2.03,0.46,0.86,0.23
-1.7822266,0.044565216,0.49736646,-0.060596272,0.38,0.89,0.21,12057,10146.30,0,0,165,3.99,34.09,-2.87,0.38,0.89,0.21
-3.381836,0.10656521,0.44236648,-0.09959628,0.33,0.84,0.23,12064,10144.70,0,0,0,8.33,30.24,-5.60,0.33,0.84,0.23
-2.0820312,0.13456522,0.35536647,-0.18159628,0.31,0.82,0.25,12079,10146.00,0,0,165,10.29,24.15,-11.34,0.31,0.82,0.25
-2.0820312,0.15756522,0.24436644,-0.27159628,0.26,0.84,0.23,12095,10146.00,0,0,0,11.90,16.38,-17.64,0.26,0.84,0.23
-3.0820312,0.19356522,0.10236646,-0.31859627,0.2,0.84,0.23,12102,10145.00,0,0,165,14.42,6.44,-20.93,0.20,0.84,0.23
-1.7822266,0.21356522,-0.050633542,-0.3355963,0.14,0.83,0.22,12117,10146.30,0,0,0,15.82,-4.27,-22.12,0.14,0.83,0.22
-1.7822266,0.23256521,-0.21963355,-0.2935963,0.12,0.83,0.22,12131,10146.30,0,0,165,17.15,-16.10,-19.18,0.12,0.83,0.22
-3.0820312,0.18456522,-0.41363353,-0.2485963,0.14,0.83,0.2,12140,10145.00,0,0,0,13.79,-29.68,-16.03,0.14,0.83,0.20
-2.0820312,0.19256522,-0.4356335,-0.08259627,0.21,0.85,0.17,12154,10146.00,0,0,165,14.35,-31.22,-4.41,0.21,0.85,0.17
-1.7822266,0.18156523,-0.38263354,0.055403728,0.31,0.85,0.17,12169,10146.30,0,0,0,13.58,-27.51,5.25,0.31,0.85,0.17
-2.0820312,0.17556521,-0.31963354,0.14540373,0.4,0.84,0.18,12177,10146.00,0,0,165,13.16,-23.10,11.55,0.40,0.84,0.18
-2.7822266,0.16556522,-0.26263353,0.16040373,0.47,0.84,0.18,12191,10145.30,0,0,0,12.46,-19.11,12.60,0.47,0.84,0.18
-2.7822266,0.18256521,-0.19863355,0.16640373,0.48,0.84,0.17,12206,10145.30,0,0,165,13.65,-14.63,13.02,0.48,0.84,0.17
-1.7822266,0.20256522,-0.13963355,0.19240372,0.49,0.85,0.16,12214,10146.30,0,0,0,15.05,-10.50,14.84,0.49,0.85,0.16
-2.0820312,0.18156523,-0.13263355,0.18740372,0.49,0.86,0.16,12229,10146.00,0,0,165,13.58,-10.01,14.49,0.49,0.86,0.16
-2.7822266,0.16956522,-0.14163356,0.18540372,0.5,0.89,0.16,12244,10145.30,0,0,0,12.74,-10.64,14.35,0.50,0.89,0.16
-1.7822266,0.14056522,-0.19263354,0.15640372,0.49,0.91,0.17,12251,10146.30,0,0,165,10.71,-14.21,12.32,0.49,0.91,0.17
-2.7822266,0.08256522,-0.23863354,0.114403725,0.49,0.91,0.18,12267,10145.30,0,0,0,6.65,-17.43,9.38,0.49,0.91,0.18
-2.0820312,0.054565217,-0.25663355,0.09640372,0.5,0.91,0.19,12282,10146.00,0,0,165,4.69,-18.69,8.12,0.50,0.91,0.19
-2.0820312,0.063565224,-0.20763355,0.11040373,0.51,0.94,0.18,12289,10146.00,0,0,0,5.32,-15.26,9.10,0.51,0.94,0.18
-3.0820312,0.061565217,-0.13363354,0.13340372,0.51,0.94,0.18,12304,10145.00,0,0,165,5.18,-10.08,10.71,0.51,0.94,0.18
-2.7822266,0.056565214,-0.07363354,0.11040373,0.52,0.92,0.22,12319,10145.30,0,0,0,4.83,-5.88,9.10,0.52,0.92,0.22
-3.0820312,0.083565205,-0.053633545,0.04840373,0.51,0.91,0.24,12327,10145.00,0,0,165,6.72,-4.48,4.76,0.51,0.91,0.24
-2.0820312,0.10756521,-0.048633542,-0.016596274,0.48,0.91,0.24,12342,10146.00,0,0,0,8.40,-4.13,0.21,0.48,0.91,0.24
-3.0820312,0.13956523,-0.052633543,-0.07859628,0.47,0.89,0.24,12357,10145.00,0,0,165,10.64,-4.41,-4.13,0.47,0.89,0.24
-3.0820312,0.19456522,-0.06763354,-0.13359627,0.41,0.86,0.24,12365,10145.00,0,0,0,14.49,-5.46,-7.98,0.41,0.86,0.24
-3.0820312,0.2575652,-0.07163353,-0.14959629,0.38,0.86,0.21,12379,10145.00,0,0,165,18.90,-5.74,-9.10,0.38,0.86,0.21
-3.0820312,0.2565652,-0.09063354,-0.13659626,0.35,0.88,0.19,12394,10145.00,0,0,0,18.83,-7.07,-8.19,0.35,0.88,0.19
-4.0820312,0.24356523,-0.109633535,-0.113596275,0.32,0.85,0.2,12402,10144.00,0,0,165,17.92,-8.40,-6.58,0.32,0.85,0.20
-2.7822266,0.24356523,-0.18763354,-0.09659627,0.32,0.84,0.18,12417,10145.30,0,0,0,17.92,-13.86,-5.39,0.32,0.84,0.18
-2.7822266,0.2755652,-0.23263355,0.023403727,0.28,0.86,0.16,12432,10145.30,0,0,165,20.16,-17.01,3.01,0.28,0.86,0.16
-1.7822266,0.24956521,-0.30563354,0.10340372,0.33,0.86,0.13,12440,10146.30,0,0,0,18.34,-22.12,8.61,0.33,0.86,0.13
-2.7822266,0.24356523,-0.33363354,0.18340372,0.36,0.87,0.12,12455,10145.30,0,0,165,17.92,-24.08,14.21,0.36,0.87,0.12
-3.0820312,0.21956521,-0.35663354,0.20840372,0.43,0.86,0.13,12470,10145.00,0,0,0,16.24,-25.69,15.96,0.43,0.86,0.13
-4.0820312,0.22856523,-0.36963353,0.21540374,0.46,0.88,0.12,12477,10144.00,0,0,165,16.87,-26.60,16.45,0.46,0.88,0.12
-2.7822266,0.22956523,-0.3036335,0.2754037,0.49,0.91,0.12,12492,10145.30,0,0,0,16.94,-21.98,20.65,0.49,0.91,0.12
-2.0820312,0.23556523,-0.22563355,0.33240372,0.53,0.91,0.13,12507,10146.00,0,0,165,17.36,-16.52,24.64,0.53,0.91,0.13
-3.0820312,0.19856523,-0.21063355,0.3124037,0.56,0.9,0.12,12514,10145.00,0,0,0,14.77,-15.47,23.24,0.56,0.90,0.12
-3.0820312,0.16856521,-0.22263354,0.2894037,0.58,0.93,0.1,12530,10145.00,0,0,165,12.67,-16.31,21.63,0.58,0.93,0.10
-1.7822266,0.14356522,-0.21863356,0.2984037,0.58,0.95,0.09,12544,10146.30,0,0,0,10.92,-16.03,22.26,0.58,0.95,0.09
-2.7822266,0.09956522,-0.22263354,0.27840373,0.61,0.93,0.11,12552,10145.30,0,0,165,7.84,-16.31,20.86,0.61,0.93,0.11
-3.0820312,0.045565214,-0.25063354,0.22740373,0.61,0.92,0.12,12566,10145.00,0,0,0,4.06,-18.27,17.29,0.61,0.92,0.12
-2.7822266,0.038565215,-0.23863354,0.19540372,0.61,0.92,0.12,12582,10145.30,0,0,165,3.57,-17.43,15.05,0.61,0.92,0.12
-3.0820312,0.020565215,-0.20863354,0.16540372,0.6,0.89,0.14,12590,10145.00,0,0,0,2.31,-15.33,12.95,0.60,0.89,0.14
-2.7822266,0.036565218,-0.15963355,0.15440373,0.59,0.89,0.13,12604,10145.30,0,0,165,3.43,-11.90,12.18,0.59,0.89,0.13
-3.0820312,0.043565217,-0.09363354,0.15240373,0.59,0.89,0.13,12619,10145.00,0,0,0,3.92,-7.28,12.04,0.59,0.89,0.13
-5.0820312,0.054565217,-0.07063354,0.13340372,0.59,0.88,0.14,12627,10143.00,0,0,165,4.69,-5.67,10.71,0.59,0.88,0.14
-3.0820312,0.063565224,-0.06463354,0.099403724,0.59,0.89,0.12,12642,10145.00,0,0,0,5.32,-5.25,8.33,0.59,0.89,0.12
-3.0820312,0.073565215,-0.060633536,0.08440372,0.59,0.9,0.1,12657,10145.00,0,0,165,6.02,-4.97,7.28,0.59,0.90,0.10
-3.0820312,0.053565215,-0.05863354,0.05140372,0.59,0.88,0.11,12665,10145.00,0,0,0,4.62,-4.83,4.97,0.59,0.88,0.11
-3.0820312,0.05256522,-0.06263354,0.014403727,0.6,0.87,0.11,12687,10145.00,0,0,165,4.55,-5.11,2.38,0.60,0.87,0.11
-1.7822266,0.06456521,-0.06663354,-0.020596275,0.58,0.87,0.1,12695,10146.30,0,0,0,5.39,-5.39,-0.07,0.58,0.87,0.10
-3.0820312,0.066565216,-0.05863354,-0.040596277,0.56,0.87,0.09,12702,10145.00,0,0,165,5.53,-4.83,-1.47,0.56,0.87,0.09
-3.0820312,0.07456522,-0.04063354,-0.049596272,0.53,0.87,0.1,12717,10145.00,0,0,0,6.09,-3.57,-2.10,0.53,0.87,0.10
-1.7822266,0.06456521,-0.026633542,-0.059596274,0.53,0.86,0.09,12724,10146.30,0,0,165,5.39,-2.59,-2.80,0.53,0.86,0.09
-2.7822266,0.073565215,-0.01663354,-0.058596276,0.51,0.85,0.1,12739,10145.30,0,0,0,6.02,-1.89,-2.73,0.51,0.85,0.10
-2.7822266,0.081565216,-0.0066335415,-0.051596276,0.5,0.84,0.09,12754,10145.30,0,0,165,6.58,-1.19,-2.24,0.50,0.84,0.09
-3.0820312,0.07256521,-0.00963354,-0.055596273,0.5,0.84,0.08,12762,10145.00,0,0,0,5.95,-1.40,-2.52,0.50,0.84,0.08
-4.0820312,0.07756522,-0.026633542,-0.06359628,0.51,0.83,0.08,12777,10144.00,0,0,165,6.30,-2.59,-3.08,0.51,0.83,0.08
-3.0820312,0.080565214,-0.03663354,-0.08259627,0.51,0.83,0.07,12792,10145.00,0,0,0,6.51,-3.29,-4.41,0.51,0.83,0.07
-2.0820312,0.09756522,-0.039633542,-0.09759627,0.5,0.84,0.08,12799,10146.00,0,0,165,7.70,-3.50,-5.46,0.50,0.84,0.08
-3.0820312,0.11456522,-0.02563354,-0.098596275,0.49,0.86,0.08,12814,10145.00,0,0,0,8.89,-2.52,-5.53,0.49,0.86,0.08
-3.0820312,0.13556522,-0.024633542,-0.101596266,0.5,0.85,0.07,12829,10145.00,0,0,165,10.36,-2.45,-5.74,0.50,0.85,0.07
-3.0820312,0.15256523,-0.02963354,-0.12259628,0.49,0.87,0.04,12837,10145.00,0,0,0,11.55,-2.80,-7.21,0.49,0.87,0.04
-2.0820312,0.13156521,-0.027633544,-0.09959628,0.47,0.91,0.03,12852,10146.00,0,0,165,10.08,-2.66,-5.60,0.47,0.91,0.03
-2.0820312,0.09456521,-0.034633543,-0.049596272,0.47,0.93,0.03,12875,10146.00,0,0,0,7.49,-3.15,-2.10,0.47,0.93,0.03
-3.0820312,0.054565217,-0.054633547,-5.962737E-4,0.48,0.95,0.03,12876,10145.00,0,0,165,4.69,-4.55,1.33,0.48,0.95,0.03
-2.0820312,-0.025434785,-0.11163354,0.018403728,0.51,0.93,0.06,12912,10146.00,0,0,0,-0.91,-8.54,2.66,0.51,0.93,0.06
-3.0820312,-0.07943478,-0.17563355,0.008403726,0.52,0.92,0.08,12913,10145.00,0,0,165,-4.69,-13.02,1.96,0.52,0.92,0.08
-2.7822266,-0.12643479,-0.22163354,-0.023596276,0.56,0.91,0.09,12915,10145.30,0,0,0,-7.98,-16.24,-0.28,0.56,0.91,0.09
-3.0820312,-0.12243478,-0.22063355,-0.029596275,0.57,0.92,0.09,12927,10145.00,0,0,165,-7.70,-16.17,-0.70,0.57,0.92,0.09
-2.7822266,-0.11543478,-0.18563356,-0.027596276,0.58,0.91,0.1,12950,10145.30,0,0,0,-7.21,-13.72,-0.56,0.58,0.91,0.10
-3.0820312,-0.12043479,-0.16863354,-0.045596275,0.58,0.9,0.11,12951,10145.00,0,0,165,-7.56,-12.53,-1.82,0.58,0.90,0.11
-3.0820312,-0.12143479,-0.15363353,-0.060596272,0.57,0.9,0.11,12964,10145.00,0,0,0,-7.63,-11.48,-2.87,0.57,0.90,0.11
-3.0820312,-0.117434785,-0.14363354,-0.07059628,0.57,0.89,0.12,12987,10145.00,0,0,165,-7.35,-10.78,-3.57,0.57,0.89,0.12
-3.0820312,-0.11343479,-0.14763355,-0.08859627,0.57,0.89,0.11,12989,10145.00,0,0,0,-7.07,-11.06,-4.83,0.57,0.89,0.11
-3.0820312,-0.11843479,-0.13363354,-0.09259628,0.56,0.89,0.11,13004,10145.00,0,0,165,-7.42,-10.08,-5.11,0.56,0.89,0.11
-4.0820312,-0.12943478,-0.10163354,-0.09459628,0.55,0.88,0.12,13017,10144.00,0,0,0,-8.19,-7.84,-5.25,0.55,0.88,0.12
-2.7822266,-0.13343479,-0.07463354,-0.09659627,0.54,0.88,0.13,13024,10145.30,0,0,165,-8.47,-5.95,-5.39,0.54,0.88,0.13
-4.0820312,-0.117434785,-0.048633542,-0.09259628,0.53,0.87,0.14,13040,10144.00,0,0,0,-7.35,-4.13,-5.11,0.53,0.87,0.14
-3.0820312,-0.09943479,-0.04463354,-0.08859627,0.53,0.86,0.13,13054,10145.00,0,0,165,-6.09,-3.85,-4.83,0.53,0.86,0.13
-3.0820312,-0.09443478,-0.06363354,-0.11259627,0.53,0.86,0.13,13076,10145.00,0,0,0,-5.74,-5.18,-6.51,0.53,0.86,0.13
-4.0820312,-0.07943478,-0.07763354,-0.12459627,0.52,0.86,0.13,13078,10144.00,0,0,165,-4.69,-6.16,-7.35,0.52,0.86,0.13
-3.0820312,-0.06443478,-0.07963354,-0.13059628,0.52,0.86,0.14,13085,10145.00,0,0,0,-3.64,-6.30,-7.77,0.52,0.86,0.14
-2.7822266,-0.052434783,-0.06563354,-0.13059628,0.51,0.86,0.14,13100,10145.30,0,0,165,-2.80,-5.32,-7.77,0.51,0.86,0.14
-3.0820312,-0.046434786,-0.050633542,-0.12159628,0.49,0.87,0.13,13114,10145.00,0,0,0,-2.38,-4.27,-7.14,0.49,0.87,0.13
-3.0820312,-0.030434784,-0.013633539,-0.08859627,0.48,0.87,0.13,13122,10145.00,0,0,165,-1.26,-1.68,-4.83,0.48,0.87,0.13
-3.0820312,-0.025434785,0.002366459,-0.07159628,0.48,0.86,0.14,13137,10145.00,0,0,0,-0.91,-0.56,-3.64,0.48,0.86,0.14
-3.0820312,-0.017434783,-0.00763354,-0.07159628,0.47,0.86,0.14,13152,10145.00,0,0,165,-0.35,-1.26,-3.64,0.47,0.86,0.14
-3.381836,-4.3478515E-4,-0.01063354,-0.06659627,0.48,0.87,0.13,13159,10144.70,0,0,0,0.84,-1.47,-3.29,0.48,0.87,0.13
-3.0820312,0.011565214,-0.00763354,-0.051596276,0.46,0.87,0.13,13175,10145.00,0,0,165,1.68,-1.26,-2.24,0.46,0.87,0.13
-3.381836,0.0025652153,-6.3354056E-4,-0.036596276,0.48,0.87,0.12,13191,10144.70,0,0,0,1.05,-0.77,-1.19,0.48,0.87,0.12
-3.0820312,0.007565215,3.664596E-4,-0.031596273,0.47,0.88,0.13,13196,10145.00,0,0,165,1.40,-0.70,-0.84,0.47,0.88,0.13
-3.0820312,0.005565215,-6.3354056E-4,-0.034596276,0.49,0.87,0.25,13212,10145.00,0,0,0,1.26,-0.77,-1.05,0.49,0.87,0.25
-3.0820312,5.6521595E-4,-0.019633539,-0.054596275,0.48,0.87,0.12,13226,10145.00,0,0,165,0.91,-2.10,-2.45,0.48,0.87,0.12
-2.0820312,0.011565214,-0.012633541,-0.051596276,0.48,0.89,0.11,13234,10146.00,0,0,0,1.68,-1.61,-2.24,0.48,0.89,0.11
-2.0820312,0.0025652153,-0.00963354,-0.042596273,0.46,0.88,0.11,13249,10146.00,0,0,165,1.05,-1.40,-1.61,0.46,0.88,0.11
-4.0820312,0.017565215,0.006366459,-0.018596275,0.47,0.89,0.1,13265,10144.00,0,0,0,2.10,-0.28,0.07,0.47,0.89,0.10
-3.0820312,0.0025652153,0.008366459,-0.0045962753,0.48,0.89,0.11,13272,10145.00,0,0,165,1.05,-0.14,1.05,0.48,0.89,0.11
-3.0820312,-0.012434784,-0.01663354,-0.026596274,0.49,0.88,0.12,13295,10145.00,0,0,0,0.00,-1.89,-0.49,0.49,0.88,0.12
-3.0820312,0.009565216,-0.021633543,-0.027596276,0.48,0.89,0.1,13302,10145.00,0,0,165,1.54,-2.24,-0.56,0.48,0.89,0.10
-2.0820312,0.006565217,-0.014633541,-0.008596275,0.48,0.89,0.1,13310,10146.00,0,0,0,1.33,-1.75,0.77,0.48,0.89,0.10
-3.6816406,0.0025652153,-0.00763354,0.011403726,0.49,0.89,0.1,13326,10144.40,0,0,165,1.05,-1.26,2.17,0.49,0.89,0.10
-3.0820312,-0.0034347847,-0.0046335403,0.0074037258,0.52,0.88,0.11,13347,10145.00,0,0,0,0.63,-1.05,1.89,0.52,0.88,0.11
-3.0820312,0.0015652161,3.664596E-4,-0.007596276,0.52,0.88,0.12,13349,10145.00,0,0,165,0.98,-0.70,0.84,0.52,0.88,0.12
-3.381836,0.010565216,3.664596E-4,-0.028596275,0.51,0.88,0.11,13370,10144.70,0,0,0,1.61,-0.70,-0.63,0.51,0.88,0.11
-3.0820312,0.008565215,0.010366459,-0.030596275,0.5,0.88,0.11,13378,10145.00,0,0,165,1.47,0.00,-0.77,0.50,0.88,0.11
-3.0820312,0.018565217,0.023366459,-0.023596276,0.49,0.89,0.11,13385,10145.00,0,0,0,2.17,0.91,-0.28,0.49,0.89,0.11
-3.0820312,0.014565216,0.021366458,-0.024596274,0.5,0.87,0.13,13400,10145.00,0,0,165,1.89,0.77,-0.35,0.50,0.87,0.13
-4.0820312,0.023565214,0.009366459,-0.041596275,0.5,0.87,0.13,13409,10144.00,0,0,0,2.52,-0.07,-1.54,0.50,0.87,0.13
-3.381836,0.029565215,0.0013664598,-0.043596275,0.48,0.88,0.12,13422,10144.70,0,0,165,2.94,-0.63,-1.68,0.48,0.88,0.12
-3.0820312,0.048565216,0.019366458,-0.025596274,0.48,0.88,0.11,13437,10145.00,0,0,0,4.27,0.63,-0.42,0.48,0.88,0.11
-3.0820312,0.034565214,0.02436646,-0.017596275,0.48,0.88,0.11,13444,10145.00,0,0,165,3.29,0.98,0.14,0.48,0.88,0.11
-3.0820312,0.038565215,0.02436646,-0.0055962745,0.48,0.89,0.11,13460,10145.00,0,0,0,3.57,0.98,0.98,0.48,0.89,0.11
-3.0820312,0.037565216,0.02736646,0.0044037234,0.5,0.88,0.12,13476,10145.00,0,0,165,3.50,1.19,1.68,0.50,0.88,0.12
-3.0820312,0.034565214,0.010366459,-0.0055962745,0.5,0.87,0.13,13482,10145.00,0,0,0,3.29,0.00,0.98,0.50,0.87,0.13
-4.0820312,0.048565216,0.009366459,-0.016596274,0.51,0.88,0.13,13497,10144.00,0,0,165,4.27,-0.07,0.21,0.51,0.88,0.13
-3.0820312,0.046565216,0.0013664598,-0.040596277,0.51,0.88,0.13,13512,10145.00,0,0,0,4.13,-0.63,-1.47,0.51,0.88,0.13
-4.0820312,0.06856522,0.01836646,-0.027596276,0.49,0.88,0.12,13527,10144.00,0,0,165,5.67,0.56,-0.56,0.49,0.88,0.12
-2.0820312,0.07656522,0.03336646,-0.011596275,0.5,0.87,0.11,13535,10146.00,0,0,0,6.23,1.61,0.56,0.50,0.87,0.11
-4.0820312,0.06956521,0.03636646,-0.0045962753,0.5,0.88,0.1,13550,10144.00,0,0,165,5.74,1.82,1.05,0.50,0.88,0.10
-3.0820312,0.061565217,0.03136646,-0.012596275,0.51,0.88,0.09,13557,10145.00,0,0,0,5.18,1.47,0.49,0.51,0.88,0.09
-3.0820312,0.057565216,0.02736646,-0.026596274,0.51,0.87,0.09,13572,10145.00,0,0,165,4.90,1.19,-0.49,0.51,0.87,0.09
-4.982422,0.05856521,0.01836646,-0.048596274,0.49,0.87,0.11,13587,10143.10,0,0,0,4.97,0.56,-2.03,0.49,0.87,0.11
-4.0820312,0.07256521,0.019366458,-0.047596276,0.48,0.87,0.1,13617,10144.00,0,0,165,5.95,0.63,-1.96,0.48,0.87,0.10
-4.0820312,0.06256522,0.01836646,-0.033596277,0.47,0.88,0.09,13618,10144.00,0,0,0,5.25,0.56,-0.98,0.47,0.88,0.09
-3.0820312,0.039565217,0.009366459,-0.018596275,0.47,0.89,0.08,13620,10145.00,0,0,165,3.64,-0.07,0.07,0.47,0.89,0.08
-3.0820312,0.030565217,0.00436646,-0.0015962757,0.49,0.89,0.08,13632,10145.00,0,0,0,3.01,-0.42,1.26,0.49,0.89,0.08
-3.0820312,0.020565215,-0.00963354,0.002403725,0.5,0.88,0.08,13647,10145.00,0,0,165,2.31,-1.40,1.54,0.50,0.88,0.08
-3.0820312,0.018565217,-0.0116335405,0.0054037254,0.51,0.89,0.08,13662,10145.00,0,0,0,2.17,-1.54,1.75,0.51,0.89,0.08
-3.381836,0.020565215,-0.0056335414,0.002403725,0.52,0.89,0.08,13669,10144.70,0,0,165,2.31,-1.12,1.54,0.52,0.89,0.08
-3.0820312,0.014565216,0.002366459,-0.0045962753,0.52,0.89,0.08,13684,10145.00,0,0,0,1.89,-0.56,1.05,0.52,0.89,0.08
-3.0820312,0.012565216,0.01136646,-0.017596275,0.52,0.88,0.09,13699,10145.00,0,0,165,1.75,0.07,0.14,0.52,0.88,0.09
-3.0820312,0.013565216,0.002366459,-0.027596276,0.5,0.88,0.09,13707,10145.00,0,0,0,1.82,-0.56,-0.56,0.50,0.88,0.09
-2.0820312,0.015565217,0.0013664598,-0.022596275,0.49,0.88,0.1,13730,10146.00,0,0,165,1.96,-0.63,-0.21,0.49,0.88,0.10
-4.0820312,0.016565215,-0.00763354,-0.024596274,0.5,0.87,0.11,13737,10144.00,0,0,0,2.03,-1.26,-0.35,0.50,0.87,0.11
-3.0820312,0.009565216,-0.026633542,-0.027596276,0.5,0.88,0.1,13744,10145.00,0,0,165,1.54,-2.59,-0.56,0.50,0.88,0.10
-3.0820312,0.016565215,-0.003633541,-0.0045962753,0.51,0.89,0.1,13760,10145.00,0,0,0,2.03,-0.98,1.05,0.51,0.89,0.10
-3.0820312,0.013565216,0.0053664595,-0.0045962753,0.52,0.88,0.12,13776,10145.00,0,0,165,1.82,-0.35,1.05,0.52,0.88,0.12
-4.0820312,0.014565216,0.00736646,-0.017596275,0.52,0.89,0.12,13782,10144.00,0,0,0,1.89,-0.21,0.14,0.52,0.89,0.12
-2.381836,0.028565213,0.015366459,-0.026596274,0.53,0.88,0.12,13797,10145.70,0,0,165,2.87,0.35,-0.49,0.53,0.88,0.12
-3.0820312,0.030565217,3.664596E-4,-0.054596275,0.53,0.87,0.12,13815,10145.00,0,0,0,3.01,-0.70,-2.45,0.53,0.87,0.12
-3.0820312,0.040565215,-0.012633541,-0.052596275,0.51,0.89,0.11,13819,10145.00,0,0,165,3.71,-1.61,-2.31,0.51,0.89,0.11
-4.381836,0.057565216,-0.03363354,-0.065596275,0.52,0.89,0.1,13834,10143.70,0,0,0,4.90,-3.08,-3.22,0.52,0.89,0.10
-3.0820312,0.09156522,-0.0056335414,-0.033596277,0.51,0.91,0.07,13849,10145.00,0,0,165,7.28,-1.12,-0.98,0.51,0.91,0.07
-3.0820312,0.080565214,-0.00963354,-0.051596276,0.51,0.89,0.08,13859,10145.00,0,0,0,6.51,-1.40,-2.24,0.51,0.89,0.08
-4.0820312,0.037565216,-0.022633541,-0.06659627,0.53,0.94,0.04,13871,10144.00,0,0,165,3.50,-2.31,-3.29,0.53,0.94,0.04
-2.0820312,0.028565213,-0.048633542,-0.14459628,0.5,0.94,0.03,13887,10146.00,0,0,0,2.87,-4.13,-8.75,0.50,0.94,0.03
-4.0820312,-0.044434786,-0.043633543,-0.17559628,0.48,0.96,-0.01,13894,10144.00,0,0,165,-2.24,-3.78,-10.92,0.48,0.96,-0.01
-2.381836,-0.07743479,-0.03163354,-0.21459627,0.44,0.92,0.02,13909,10145.70,0,0,0,-4.55,-2.94,-13.65,0.44,0.92,0.02
-3.0820312,-0.055434786,-0.05563354,-0.18859628,0.4,0.95,0.01,13926,10145.00,0,0,165,-3.01,-4.62,-11.83,0.40,0.95,0.01
-3.381836,-0.15943478,-0.08563353,-0.17059627,0.4,0.93,0.04,13932,10144.70,0,0,0,-10.29,-6.72,-10.57,0.40,0.93,0.04
-4.0820312,-0.15943478,-0.10663353,-0.14959629,0.39,0.93,0.04,13947,10144.00,0,0,165,-10.29,-8.19,-9.10,0.39,0.93,0.04
-3.381836,-0.17043479,-0.12763354,-0.11859627,0.41,0.9,0.08,13969,10144.70,0,0,0,-11.06,-9.66,-6.93,0.41,0.90,0.08
-3.0820312,-0.15143478,-0.15863355,-0.105596274,0.45,0.88,0.11,13970,10145.00,0,0,165,-9.73,-11.83,-6.02,0.45,0.88,0.11
-4.0820312,-0.13743478,-0.15163355,-0.08959627,0.45,0.88,0.12,13984,10144.00,0,0,0,-8.75,-11.34,-4.90,0.45,0.88,0.12
-3.0820312,-0.12843478,-0.14063354,-0.08659628,0.49,0.87,0.15,13992,10145.00,0,0,165,-8.12,-10.57,-4.69,0.49,0.87,0.15
-3.381836,-0.09943479,-0.11463354,-0.08159628,0.52,0.87,0.16,14007,10144.70,0,0,0,-6.09,-8.75,-4.34,0.52,0.87,0.16
-3.381836,-0.07243478,-0.07363354,-0.07759628,0.52,0.88,0.16,14022,10144.70,0,0,165,-4.20,-5.88,-4.06,0.52,0.88,0.16
-3.381836,-0.034434784,-0.008633542,-0.06359628,0.51,0.88,0.17,14029,10144.70,0,0,0,-1.54,-1.33,-3.08,0.51,0.88,0.17
-3.0820312,-0.014434785,0.04736646,-0.038596276,0.53,0.86,0.18,14045,10145.00,0,0,165,-0.14,2.59,-1.33,0.53,0.86,0.18
-3.0820312,-0.018434783,0.05436646,-0.061596274,0.52,0.86,0.2,14058,10145.00,0,0,0,-0.42,3.08,-2.94,0.52,0.86,0.20
-3.0820312,5.6521595E-4,0.077366464,-0.06359628,0.53,0.88,0.18,14067,10145.00,0,0,165,0.91,4.69,-3.08,0.53,0.88,0.18
-3.0820312,0.027565215,0.15436645,-0.022596275,0.52,0.9,0.18,14082,10145.00,0,0,0,2.80,10.08,-0.21,0.52,0.90,0.18
-4.0820312,0.05256522,0.24736646,0.019403726,0.53,0.89,0.19,14097,10144.00,0,0,165,4.55,16.59,2.73,0.53,0.89,0.19
-3.381836,0.06256522,0.29036647,0.031403724,0.54,0.89,0.2,14104,10144.70,0,0,0,5.25,19.60,3.57,0.54,0.89,0.20
-4.381836,0.066565216,0.33636647,0.030403726,0.56,0.9,0.19,14127,10143.70,0,0,165,5.53,22.82,3.50,0.56,0.90,0.19
-3.381836,0.07556522,0.38936648,0.030403726,0.57,0.91,0.2,14134,10144.70,0,0,0,6.16,26.53,3.50,0.57,0.91,0.20
-4.0820312,0.09256521,0.45536646,0.06640373,0.56,0.95,0.2,14142,10144.00,0,0,165,7.35,31.15,6.02,0.56,0.95,0.20
-3.0820312,0.09656522,0.5723664,0.15540372,0.58,0.96,0.21,14157,10145.00,0,0,0,7.63,39.34,12.25,0.58,0.96,0.21
-3.0820312,0.10556522,0.6533664,0.21240371,0.75,0.99,0.2,14182,10145.00,0,0,165,8.26,45.01,16.24,0.75,0.99,0.20
-3.0820312,0.081565216,0.7403664,0.2454037,0.64,0.98,0.22,14183,10145.00,0,0,0,6.58,51.10,18.55,0.64,0.98,0.22
-4.0820312,0.044565216,0.81936646,0.22140373,0.68,0.96,0.21,14202,10144.00,0,0,165,3.99,56.63,16.87,0.68,0.96,0.21
-4.0820312,0.07456522,0.9093664,0.20340371,0.7,0.95,0.2,14209,10144.00,0,0,0,6.09,62.93,15.61,0.70,0.95,0.20
-3.0820312,0.07456522,0.94636637,0.078403726,0.71,0.93,0.22,14220,10145.00,0,0,165,6.09,65.52,6.86,0.71,0.93,0.22
-3.381836,0.10056521,0.8823665,-0.08659628,0.68,0.91,0.21,14232,10144.70,0,0,0,7.91,61.04,-4.69,0.68,0.91,0.21
-4.0820312,0.10656521,0.8283664,-0.19859627,0.61,0.95,0.15,14247,10144.00,0,0,165,8.33,57.26,-12.53,0.61,0.95,0.15
-3.0820312,0.07156521,0.79336643,-0.24059628,0.49,0.94,0.15,14254,10145.00,0,0,0,5.88,54.81,-15.47,0.49,0.94,0.15
-4.0820312,0.009565216,0.7203665,-0.23259628,0.49,0.88,0.16,14270,10144.00,0,0,165,1.54,49.70,-14.91,0.49,0.88,0.16
-4.381836,0.009565216,0.6593664,-0.20859627,0.39,0.84,0.2,14285,10143.70,0,0,0,1.54,45.43,-13.23,0.39,0.84,0.20
-3.381836,-0.036434785,0.6003664,-0.23759629,0.45,0.8,0.2,14293,10144.70,0,0,165,-1.68,41.30,-15.26,0.45,0.80,0.20
-3.0820312,-0.0024347845,0.6013664,-0.25759625,0.47,0.78,0.2,14307,10145.00,0,0,0,0.70,41.37,-16.66,0.47,0.78,0.20
-4.0820312,0.09856522,0.7013664,-0.2545963,0.47,0.79,0.2,14322,10144.00,0,0,165,7.77,48.37,-16.45,0.47,0.79,0.20
-3.381836,0.19156522,0.8173665,-0.24959628,0.43,0.79,0.16,14330,10144.70,0,0,0,14.28,56.49,-16.10,0.43,0.79,0.16
-4.0820312,0.18856521,0.85536647,-0.24259627,0.39,0.81,0.15,14345,10144.00,0,0,165,14.07,59.15,-15.61,0.39,0.81,0.15
-3.381836,0.22556521,0.85736644,-0.19759628,0.36,0.8,0.13,14359,10144.70,0,0,0,16.66,59.29,-12.46,0.36,0.80,0.13
-4.381836,0.23056522,0.76536644,-0.120596275,0.33,0.85,0.07,14368,10143.70,0,0,165,17.01,52.85,-7.07,0.33,0.85,0.07
-3.381836,0.15256523,0.6273664,-0.06859627,0.33,0.85,0.07,14382,10144.70,0,0,0,11.55,43.19,-3.43,0.33,0.85,0.07
-3.381836,0.025565218,0.57536644,0.037403725,0.35,0.87,0.05,14397,10144.70,0,0,165,2.66,39.55,3.99,0.35,0.87,0.05
-3.381836,0.15856522,0.5623664,0.043403726,0.39,0.88,0.05,14404,10144.70,0,0,0,11.97,38.64,4.41,0.39,0.88,0.05
-4.381836,0.05556522,0.5623664,0.050403725,0.39,0.9,0.05,14420,10143.70,0,0,165,4.76,38.64,4.90,0.39,0.90,0.05
-3.381836,-0.025434785,0.6133664,0.070403725,0.44,0.91,0.07,14435,10144.70,0,0,0,-0.91,42.21,6.30,0.44,0.91,0.07
-3.381836,-0.028434785,0.64936644,0.070403725,0.44,0.91,0.07,14442,10144.70,0,0,165,-1.12,44.73,6.30,0.44,0.91,0.07
-3.381836,-0.062434785,0.61136645,0.032403726,0.44,0.91,0.07,14471,10144.70,0,0,0,-3.50,42.07,3.64,0.44,0.91,0.07
-3.0820312,-0.073434785,0.53836644,-5.962737E-4,0.42,0.93,0.07,14474,10145.00,0,0,165,-4.27,36.96,1.33,0.42,0.93,0.07
-3.381836,-0.13743478,0.3583665,-0.06659627,0.42,0.91,0.11,14479,10144.70,0,0,0,-8.75,24.36,-3.29,0.42,0.91,0.11
-4.381836,-0.18643479,0.20836645,-0.14059629,0.42,0.93,0.11,14494,10143.70,0,0,165,-12.18,13.86,-8.47,0.42,0.93,0.11
-4.0820312,-0.23743477,0.09136646,-0.20859627,0.42,0.91,0.14,14517,10144.00,0,0,0,-15.75,5.67,-13.23,0.42,0.91,0.14
-3.381836,-0.20943478,0.028366458,-0.24059628,0.42,0.9,0.15,14518,10144.70,0,0,165,-13.79,1.26,-15.47,0.42,0.90,0.15
-4.0820312,-0.20943478,0.03336646,-0.25759625,0.42,0.89,0.18,14532,10144.00,0,0,0,-13.79,1.61,-16.66,0.42,0.89,0.18
-3.0820312,-0.19043478,0.02036646,-0.2915963,0.38,0.86,0.22,14547,10145.00,0,0,165,-12.46,0.70,-19.04,0.38,0.86,0.22
-4.381836,-0.16843478,-0.03363354,-0.3195963,0.32,0.87,0.26,14554,10143.70,0,0,0,-10.92,-3.08,-21.00,0.32,0.87,0.26
-3.381836,-0.19943479,-0.09263354,-0.32259625,0.3,0.88,0.25,14569,10144.70,0,0,165,-13.09,-7.21,-21.21,0.30,0.88,0.25
-4.381836,-0.20543478,-0.11663354,-0.30159628,0.34,0.93,0.22,14577,10143.70,0,0,0,-13.51,-8.89,-19.74,0.34,0.93,0.22
-4.381836,-0.19743478,-0.11363354,-0.28359628,0.34,0.93,0.22,14593,10143.70,0,0,165,-12.95,-8.68,-18.48,0.34,0.93,0.22
-3.381836,-0.18043478,-0.11663354,-0.26859626,0.31,0.94,0.23,14607,10144.70,0,0,0,-11.76,-8.89,-17.43,0.31,0.94,0.23
-4.381836,-0.19243479,-0.13263355,-0.23759629,0.3,0.93,0.24,14614,10143.70,0,0,165,-12.60,-10.01,-15.26,0.30,0.93,0.24
-3.0820312,-0.21443479,-0.14163356,-0.18959628,0.31,0.95,0.26,14639,10145.00,0,0,0,-14.14,-10.64,-11.90,0.31,0.95,0.26
-3.381836,-0.19443478,-0.117633544,-0.16359627,0.34,0.91,0.29,14645,10144.70,0,0,165,-12.74,-8.96,-10.08,0.34,0.91,0.29
-4.381836,-0.15343478,-0.091633536,-0.16459627,0.35,0.87,0.31,14652,10143.70,0,0,0,-9.87,-7.14,-10.15,0.35,0.87,0.31
-3.6816406,-0.09443478,-0.08863354,-0.19259627,0.34,0.85,0.33,14667,10144.40,0,0,165,-5.74,-6.93,-12.11,0.34,0.85,0.33
-3.381836,-0.06543478,-0.17063354,-0.21859628,0.3,0.86,0.31,14683,10144.70,0,0,0,-3.71,-12.67,-13.93,0.30,0.86,0.31
-3.381836,-0.13443479,-0.27163354,-0.2665963,0.31,0.92,0.29,14689,10144.70,0,0,165,-8.54,-19.74,-17.29,0.31,0.92,0.29
-3.381836,-0.17543478,-0.30963352,-0.28159627,0.35,0.92,0.26,14704,10144.70,0,0,0,-11.41,-22.40,-18.34,0.35,0.92,0.26
-4.381836,-0.15743478,-0.22163354,-0.24559627,0.38,0.92,0.27,14720,10143.70,0,0,165,-10.15,-16.24,-15.82,0.38,0.92,0.27
-4.381836,-0.14043479,-0.11863353,-0.22459628,0.4,0.91,0.28,14734,10143.70,0,0,0,-8.96,-9.03,-14.35,0.40,0.91,0.28
-4.381836,-0.11643478,3.664596E-4,-0.17959628,0.38,0.9,0.28,14749,10143.70,0,0,165,-7.28,-0.70,-11.20,0.38,0.90,0.28
-3.0820312,-0.09443478,0.10536646,-0.17059627,0.32,0.89,0.29,14757,10145.00,0,0,0,-5.74,6.65,-10.57,0.32,0.89,0.29
-4.0820312,-0.021434784,0.15736645,-0.035596274,0.24,0.9,0.27,14764,10144.00,0,0,165,-0.63,10.29,-1.12,0.24,0.90,0.27
-4.381836,-0.050434787,0.04836646,0.09840372,0.28,0.95,0.21,14780,10143.70,0,0,0,-2.66,2.66,8.26,0.28,0.95,0.21
-4.0820312,-0.124434784,-0.01063354,0.16540372,0.32,0.95,0.22,14787,10144.00,0,0,165,-7.84,-1.47,12.95,0.32,0.95,0.22
-4.381836,-0.28143477,-0.06163354,0.077403724,0.48,0.93,0.28,14802,10143.70,0,0,0,-18.83,-5.04,6.79,0.48,0.93,0.28
-4.381836,-0.15143478,-0.14263354,-0.11959627,0.4,0.89,0.3,14817,10143.70,0,0,165,-9.73,-10.71,-7.00,0.40,0.89,0.30
-4.0820312,-0.5774348,-0.8356336,-0.18559627,0.39,0.96,0.24,14826,10144.00,0,0,0,-39.55,-59.22,-11.62,0.39,0.96,0.24
-3.381836,-0.040434785,-0.56463355,-0.15359628,0.26,1.03,0.04,14840,10144.70,0,0,165,-1.96,-40.25,-9.38,0.26,1.03,0.04
-4.381836,0.44556525,-0.14663354,0.3074037,0.21,0.94,0.25,14855,10143.70,0,0,0,32.06,-10.99,22.89,0.21,0.94,0.25
-4.381836,0.21056521,-0.33563352,0.23740372,0.26,0.92,0.29,14862,10143.70,0,0,165,15.61,-24.22,17.99,0.26,0.92,0.29
-3.381836,0.14756522,-0.37263352,0.24240372,0.36,0.88,0.3,14877,10144.70,0,0,0,11.20,-26.81,18.34,0.36,0.88,0.30
-4.381836,-0.031434786,-0.37163353,0.121403724,0.4,0.88,0.3,14892,10143.70,0,0,165,-1.33,-26.74,9.87,0.40,0.88,0.30
-3.381836,-0.15343478,-0.23263355,-0.050596274,0.49,0.75,0.4,14900,10144.70,0,0,0,-9.87,-17.01,-2.17,0.49,0.75,0.40
-2.381836,-0.3194348,-0.00763354,-0.23259628,0.56,0.76,0.37,14915,10145.70,0,0,165,-21.49,-1.26,-14.91,0.56,0.76,0.37
-3.381836,-0.41043478,-0.032633543,-0.42059627,0.43,0.81,0.39,14929,10144.70,0,0,0,-27.86,-3.01,-28.07,0.43,0.81,0.39
-3.381836,-0.40143478,-0.01663354,-0.4375963,0.34,0.82,0.39,14937,10144.70,0,0,165,-27.23,-1.89,-29.26,0.34,0.82,0.39
-3.381836,-0.29943478,-0.083633535,-0.3985963,0.23,0.83,0.36,14952,10144.70,0,0,0,-20.09,-6.58,-26.53,0.23,0.83,0.36
-3.381836,-0.20443477,-0.16363356,-0.29759628,0.19,0.89,0.29,14967,10144.70,0,0,165,-13.44,-12.18,-19.46,0.19,0.89,0.29
-4.381836,-0.11243479,-0.003633541,-0.055596273,0.22,0.97,0.22,14975,10143.70,0,0,0,-7.00,-0.98,-2.52,0.22,0.97,0.22
-4.381836,-0.047434784,0.23236646,0.09540373,0.35,0.92,0.29,14989,10143.70,0,0,165,-2.45,15.54,8.05,0.35,0.92,0.29
-3.381836,0.13956523,0.50936645,0.23540372,0.39,0.8,0.38,15004,10144.70,0,0,0,10.64,34.93,17.85,0.39,0.80,0.38
-3.381836,0.17256522,0.6533664,0.09340373,0.35,0.88,0.34,15012,10144.70,0,0,165,12.95,45.01,7.91,0.35,0.88,0.34
-4.381836,-0.09643479,0.99236643,0.09040372,0.28,1.02,0.2,15027,10143.70,0,0,0,-5.88,68.74,7.70,0.28,1.02,0.20
-3.381836,-0.4374348,1.0203664,-0.069596276,0.31,0.89,0.28,15042,10144.70,0,0,165,-29.75,70.70,-3.50,0.31,0.89,0.28
-3.381836,-0.40343478,0.89336646,-0.11659628,0.49,0.88,0.37,15050,10144.70,0,0,0,-27.37,61.81,-6.79,0.49,0.88,0.37
-4.381836,-0.10943478,0.4093665,0.15140373,1.61,1.45,0.73,15065,10143.70,0,0,165,-6.79,27.93,11.97,1.61,1.45,0.73
-4.381836,-0.40643477,0.73036647,-0.09259628,0.4,0.69,0.47,15080,10143.70,0,0,0,-27.58,50.40,-5.11,0.40,0.69,0.47
-3.381836,-0.25843477,0.5643664,-0.25259626,0.36,0.88,0.53,15087,10144.70,0,0,165,-17.22,38.78,-16.31,0.36,0.88,0.53
-4.381836,-0.16343477,0.25336647,-0.080596276,0.23,0.97,0.2,15102,10143.70,0,0,0,-10.57,17.01,-4.27,0.23,0.97,0.20
-3.381836,-0.110434785,0.53336644,-0.039596274,0.11,0.88,0.28,15117,10144.70,0,0,165,-6.86,36.61,-1.40,0.11,0.88,0.28
-4.381836,-0.38043478,0.44236648,-0.076596275,-0.09,0.79,0.5,15125,10143.70,0,0,0,-25.76,30.24,-3.99,-0.09,0.79,0.50
-4.381836,-0.49143475,0.27436647,-0.15359628,0.33,0.86,0.32,15140,10143.70,0,0,165,-33.53,18.48,-9.38,0.33,0.86,0.32
-3.381836,-0.038434785,0.25136647,-0.053596277,0.32,0.43,0.18,15155,10144.70,0,0,0,-1.82,16.87,-2.38,0.32,0.43,0.18
-3.381836,-1.2674348,0.27236646,-0.57259625,0.35,0.87,0.26,15162,10144.70,0,0,165,-87.85,18.34,-38.71,0.35,0.87,0.26
-4.381836,-0.76543474,0.14836645,-0.5835963,0.23,0.89,0.44,15177,10143.70,0,0,0,-52.71,9.66,-39.48,0.23,0.89,0.44
-3.381836,-0.34443477,0.03536646,-0.50759625,0.26,0.9,0.41,15192,10144.70,0,0,165,-23.24,1.75,-34.16,0.26,0.90,0.41
-4.381836,-0.30243477,0.015366459,-0.40159628,0.22,1.01,0.4,15200,10143.70,0,0,0,-20.30,0.35,-26.74,0.22,1.01,0.40
-5.381836,-0.29043478,-0.012633541,-0.113596275,0.23,1.03,0.4,15215,10142.70,0,0,165,-19.46,-1.61,-6.58,0.23,1.03,0.40
-4.381836,-0.32143477,0.01636646,0.19640373,0.24,1.03,0.37,15230,10143.70,0,0,0,-21.63,0.42,15.12,0.24,1.03,0.37
-4.381836,-0.083434775,0.051366456,0.65040374,0.11,1.19,0.27,15237,10143.70,0,0,165,-4.97,2.87,46.90,0.11,1.19,0.27
-4.381836,-0.12543479,0.16636646,0.8724037,0.35,0.41,0.41,15252,10143.70,0,0,0,-7.91,10.92,62.44,0.35,0.41,0.41
-3.381836,-0.16343477,0.33336648,1.4184039,0.58,1.87,0.52,15267,10144.70,0,0,165,-10.57,22.61,100.66,0.58,1.87,0.52
-4.381836,-0.27643478,0.16836646,1.1494038,0.41,0.83,0.59,15276,10143.70,0,0,0,-18.48,11.06,81.83,0.41,0.83,0.59
-2.381836,0.8555652,-0.112633534,1.0554038,0.4,0.81,0.31,15293,10145.70,0,0,165,60.76,-8.61,75.25,0.40,0.81,0.31
-3.381836,0.28456524,-0.26363355,1.0644038,0.35,0.85,0.45,15304,10144.70,0,0,0,20.79,-19.18,75.88,0.35,0.85,0.45
-3.381836,-0.9204348,0.022366459,0.6854037,0.72,0.59,0.9,15312,10144.70,0,0,165,-63.56,0.84,49.35,0.72,0.59,0.90
-3.381836,-1.8994348,-0.052633543,-0.007596276,0.4,0.74,0.46,15329,10144.70,0,0,0,-132.09,-4.41,0.84,0.40,0.74,0.46
-4.381836,-1.8324349,0.24336645,0.13740371,0.38,0.76,0.45,15342,10143.70,0,0,165,-127.40,16.31,10.99,0.38,0.76,0.45
-3.381836,-1.1124349,0.29736647,0.34840372,0.41,0.76,0.45,15349,10144.70,0,0,0,-77.00,20.09,25.76,0.41,0.76,0.45
-4.381836,-0.5404348,0.33536646,0.17540371,0.25,0.91,0.48,15364,10143.70,0,0,165,-36.96,22.75,13.65,0.25,0.91,0.48
-4.381836,-0.11643478,0.25436646,0.11340372,0.25,0.98,0.51,15380,10143.70,0,0,0,-7.28,17.08,9.31,0.25,0.98,0.51
-4.6816406,0.15856522,0.19836645,0.18840373,0.28,1.0,0.51,15387,10143.40,0,0,165,11.97,13.16,14.56,0.28,1.00,0.51
-4.6816406,0.77356523,0.33636647,0.15340371,0.25,0.91,0.43,15402,10143.40,0,0,0,55.02,22.82,12.11,0.25,0.91,0.43
-4.381836,1.3575652,0.34036648,0.003403725,0.57,0.83,0.34,15416,10143.70,0,0,165,95.90,23.10,1.61,0.57,0.83,0.34
-4.381836,-0.09443478,-0.04063354,-0.07959627,0.33,0.9,0.38,15426,10143.70,0,0,0,-5.74,-3.57,-4.20,0.33,0.90,0.38
-4.6816406,0.12056522,-0.22363353,0.2704037,0.32,0.96,0.18,15440,10143.40,0,0,165,9.31,-16.38,20.30,0.32,0.96,0.18
-4.381836,0.025565218,-0.14463355,-0.12259628,0.04,0.67,0.39,15455,10143.70,0,0,0,2.66,-10.85,-7.21,0.04,0.67,0.39
-3.381836,-0.08443478,-0.32663354,0.36840373,0.29,0.73,0.51,15462,10144.70,0,0,165,-5.04,-23.59,27.16,0.29,0.73,0.51
-4.381836,0.23656522,-0.41863355,0.56740373,0.42,0.94,0.49,15477,10143.70,0,0,0,17.43,-30.03,41.09,0.42,0.94,0.49
-4.381836,0.029565215,-0.5436335,0.15440373,0.58,0.86,0.62,15493,10143.70,0,0,165,2.94,-38.78,12.18,0.58,0.86,0.62
-4.381836,0.08956522,-0.31663352,0.2614037,0.46,0.76,0.6,15499,10143.70,0,0,0,7.14,-22.89,19.67,0.46,0.76,0.60
-4.381836,0.10156521,0.04936646,0.20340371,0.62,0.49,0.54,15514,10143.70,0,0,165,7.98,2.73,15.61,0.62,0.49,0.54
-4.381836,0.22256523,-0.16863354,-0.3415963,0.56,0.54,0.44,15529,10143.70,0,0,0,16.45,-12.53,-22.54,0.56,0.54,0.44
-4.381836,0.8485652,-0.39763352,-0.9165963,0.43,0.44,0.55,15537,10143.70,0,0,165,60.27,-28.56,-62.79,0.43,0.44,0.55
-4.381836,0.4445652,-0.030633539,-0.87359625,0.57,0.38,0.64,15552,10143.70,0,0,0,31.99,-2.87,-59.78,0.57,0.38,0.64
-3.381836,-0.30443478,0.014366459,-0.52959627,0.66,0.96,0.46,15567,10144.70,0,0,165,-20.44,0.28,-35.70,0.66,0.96,0.46
-3.381836,-0.07643479,-0.11163354,-0.69159627,0.37,0.75,0.52,15577,10144.70,0,0,0,-4.48,-8.54,-47.04,0.37,0.75,0.52
-4.6816406,0.14856523,-0.16563354,-0.48259628,0.07,0.84,0.46,15590,10143.40,0,0,165,11.27,-12.32,-32.41,0.07,0.84,0.46
-4.381836,-1.869435,-0.01063354,-0.08859627,0.26,1.16,0.46,15604,10143.70,0,0,0,-129.99,-1.47,-4.83,0.26,1.16,0.46
-4.6816406,-0.5704348,0.014366459,0.22140373,0.31,0.88,0.46,15612,10143.40,0,0,165,-39.06,0.28,16.87,0.31,0.88,0.46
-4.381836,-0.5354348,-0.02563354,0.087403715,0.35,0.81,0.53,15632,10143.70,0,0,0,-36.61,-2.52,7.49,0.35,0.81,0.53
-4.381836,-0.3544348,-0.032633543,0.104403734,0.31,0.87,0.52,15643,10143.70,0,0,165,-23.94,-3.01,8.68,0.31,0.87,0.52
-4.381836,-0.09243478,0.04836646,0.08140373,0.33,0.87,0.52,15650,10143.70,0,0,0,-5.60,2.66,7.07,0.33,0.87,0.52
-3.381836,0.07756522,0.12036646,0.08640373,0.35,0.88,0.56,15665,10144.70,0,0,165,6.30,7.70,7.42,0.35,0.88,0.56
-3.381836,0.54556525,0.43636647,0.009403724,0.37,0.98,0.5,15680,10144.70,0,0,0,39.06,29.82,2.03,0.37,0.98,0.50
-3.381836,0.4655652,0.29336646,-0.5915963,0.4,0.88,0.46,15687,10144.70,0,0,165,33.46,19.81,-40.04,0.40,0.88,0.46
-4.6816406,0.5115652,0.09936646,-0.7585963,0.35,0.67,0.5,15702,10143.40,0,0,0,36.68,6.23,-51.73,0.35,0.67,0.50
-4.381836,0.3705652,0.14236645,-0.5415963,0.4,0.72,0.5,15717,10143.70,0,0,165,26.81,9.24,-36.54,0.40,0.72,0.50
-4.381836,0.19356522,0.16136645,-0.4555963,0.36,0.77,0.51,15726,10143.70,0,0,0,14.42,10.57,-30.52,0.36,0.77,0.51
-3.6816406,0.07856521,0.23736645,-0.53659624,0.33,0.83,0.51,15740,10144.40,0,0,165,6.37,15.89,-36.19,0.33,0.83,0.51
-4.381836,0.115565225,0.42136648,-0.5455963,0.31,0.88,0.47,15754,10143.70,0,0,0,8.96,28.77,-36.82,0.31,0.88,0.47
-3.381836,0.44156522,0.50436646,-1.0655962,0.31,0.78,0.45,15761,10144.70,0,0,165,31.78,34.58,-73.22,0.31,0.78,0.45
-3.381836,0.4305652,0.47936648,-0.6895963,0.37,0.61,0.45,15777,10144.70,0,0,0,31.01,32.83,-46.90,0.37,0.61,0.45
-3.381836,0.073565215,0.30636647,-0.4115963,0.36,0.78,0.42,15794,10144.70,0,0,165,6.02,20.72,-27.44,0.36,0.78,0.42
-4.381836,0.07056521,0.12536646,-0.25259626,0.34,0.82,0.43,15800,10143.70,0,0,0,5.81,8.05,-16.31,0.34,0.82,0.43
-3.6816406,0.11256522,-0.04463354,0.008403726,0.27,0.91,0.46,15815,10144.40,0,0,165,8.75,-3.85,1.96,0.27,0.91,0.46
-4.381836,0.10556522,-0.041633543,0.07640372,0.26,1.01,0.48,15830,10143.70,0,0,0,8.26,-3.64,6.72,0.26,1.01,0.48
-3.381836,0.24256521,-6.3354056E-4,-0.010596275,0.28,1.01,0.49,15837,10144.70,0,0,165,17.85,-0.77,0.63,0.28,1.01,0.49
-4.381836,0.47156525,0.01136646,-0.072596274,0.29,0.88,0.49,15852,10143.70,0,0,0,33.88,0.07,-3.71,0.29,0.88,0.49
-3.381836,0.48256525,0.04736646,-0.08659628,0.28,0.8,0.49,15867,10144.70,0,0,165,34.65,2.59,-4.69,0.28,0.80,0.49
-3.381836,0.3635652,0.06536646,-0.051596276,0.3,0.77,0.48,15877,10144.70,0,0,0,26.32,3.85,-2.24,0.30,0.77,0.48
-3.381836,0.23056522,0.04436646,0.012403727,0.3,0.76,0.47,15893,10144.70,0,0,165,17.01,2.38,2.24,0.30,0.76,0.47
-3.381836,0.13956523,0.02936646,0.07240373,0.31,0.79,0.46,15904,10144.70,0,0,0,10.64,1.33,6.44,0.31,0.79,0.46
-3.381836,0.07856521,0.015366459,0.13140371,0.31,0.8,0.45,15912,10144.70,0,0,165,6.37,0.35,10.57,0.31,0.80,0.45
-4.381836,0.056565214,-0.013633539,0.17240371,0.3,0.89,0.43,15935,10143.70,0,0,0,4.83,-1.68,13.44,0.30,0.89,0.43
-3.381836,0.13556522,-0.04463354,0.14340372,0.3,0.94,0.43,15942,10144.70,0,0,165,10.36,-3.85,11.41,0.30,0.94,0.43
-2.381836,0.18656522,-0.06763354,0.06640373,0.28,0.89,0.45,15949,10145.70,0,0,0,13.93,-5.46,6.02,0.28,0.89,0.45
-2.381836,0.16556522,-0.02963354,0.05140372,0.27,0.9,0.45,15964,10145.70,0,0,165,12.46,-2.80,4.97,0.27,0.90,0.45
-2.381836,0.17356522,3.664596E-4,0.014403727,0.3,0.88,0.46,15979,10145.70,0,0,0,13.02,-0.70,2.38,0.30,0.88,0.46
-1.7822266,0.13856521,0.022366459,-0.0045962753,0.33,0.89,0.45,15987,10146.30,0,0,165,10.57,0.84,1.05,0.33,0.89,0.45
-1.7822266,0.11456522,0.015366459,0.0014037248,0.33,0.88,0.44,16002,10146.30,0,0,0,8.89,0.35,1.47,0.33,0.88,0.44
-1.4824219,0.14956522,0.015366459,0.017403726,0.32,0.89,0.42,16017,10146.60,0,0,165,11.34,0.35,2.59,0.32,0.89,0.42
-1.4824219,0.20956522,0.0053664595,0.036403727,0.32,0.88,0.42,16026,10146.60,0,0,0,15.54,-0.35,3.92,0.32,0.88,0.42
-0.78222656,0.2895652,0.09136646,0.13240373,0.3,0.88,0.45,16047,10147.30,0,0,165,21.14,5.67,10.64,0.30,0.88,0.45
-1.4824219,0.24256521,0.09036646,0.22140373,0.27,0.85,0.48,16054,10146.60,0,0,0,17.85,5.60,16.87,0.27,0.85,0.48
-1.4824219,0.11456522,0.16536646,0.20140372,0.26,0.88,0.47,16062,10146.60,0,0,165,8.89,10.85,15.47,0.26,0.88,0.47
-1.7822266,0.031565215,0.02936646,-0.021596275,0.29,0.85,0.46,16077,10146.30,0,0,0,3.08,1.33,-0.14,0.29,0.85,0.46
-1.4824219,-0.19343477,0.04236646,0.05640373,0.33,0.78,0.5,16093,10146.60,0,0,165,-12.67,2.24,5.32,0.33,0.78,0.50
-1.4824219,-0.24543478,0.15936646,0.14340372,0.31,0.95,0.37,16100,10146.60,0,0,0,-16.31,10.43,11.41,0.31,0.95,0.37
-1.7822266,0.035565212,0.12936646,0.09040372,0.33,0.86,0.44,16115,10146.30,0,0,165,3.36,8.33,7.70,0.33,0.86,0.44
-2.381836,0.042565215,0.13236646,0.099403724,0.3,0.86,0.45,16129,10145.70,0,0,0,3.85,8.54,8.33,0.30,0.86,0.45
-0.48242188,0.08756521,0.14536645,0.0044037234,0.26,0.9,0.45,16137,10147.60,0,0,165,7.00,9.45,1.68,0.26,0.90,0.45
-1.4824219,0.07956521,0.18636645,-0.011596275,0.26,0.91,0.42,16152,10146.60,0,0,0,6.44,12.32,0.56,0.26,0.91,0.42
-1.4824219,0.31756523,0.32036647,0.07340373,0.26,0.94,0.37,16166,10146.60,0,0,165,23.10,21.70,6.51,0.26,0.94,0.37
-0.48242188,0.26556522,0.32636648,0.21040373,0.33,0.78,0.54,16176,10147.60,0,0,0,19.46,22.12,16.10,0.33,0.78,0.54
-1.4824219,0.11456522,0.4023665,0.31540373,0.32,0.9,0.43,16190,10146.60,0,0,165,8.89,27.44,23.45,0.32,0.90,0.43
-2.7822266,-0.07543479,0.28636646,0.038403723,0.35,0.92,0.39,16204,10145.30,0,0,0,-4.41,19.32,4.06,0.35,0.92,0.39
-1.7822266,0.046565216,0.22336645,-0.019596275,0.33,0.95,0.37,16212,10146.30,0,0,165,4.13,14.91,0.00,0.33,0.95,0.37
-0.78222656,0.2575652,0.26836646,0.27140373,0.33,0.89,0.39,16227,10147.30,0,0,0,18.90,18.06,20.37,0.33,0.89,0.39
1.2177734,0.2935652,0.22136647,0.19740371,0.33,0.87,0.41,16243,10149.30,0,0,165,21.42,14.77,15.19,0.33,0.87,0.41
1.2177734,0.25456524,0.19136645,0.13240373,0.34,0.87,0.42,16250,10149.30,0,0,0,18.69,12.67,10.64,0.34,0.87,0.42
2.118164,0.18756522,0.089366466,0.033403724,0.35,0.87,0.42,16265,10150.20,0,0,165,14.00,5.53,3.71,0.35,0.87,0.42
2.5175781,0.15156521,0.05536646,0.046403725,0.32,0.89,0.44,16279,10150.60,0,0,0,11.48,3.15,4.62,0.32,0.89,0.44
3.5175781,0.11656521,0.061366457,0.08040373,0.3,0.9,0.45,16287,10151.60,0,0,165,9.03,3.57,7.00,0.30,0.90,0.45
3.118164,0.09756522,0.100366466,0.11540371,0.29,0.89,0.46,16302,10151.20,0,0,0,7.70,6.30,9.45,0.29,0.89,0.46
3.5175781,0.07956521,0.13236646,0.14540373,0.28,0.9,0.45,16317,10151.60,0,0,165,6.44,8.54,11.55,0.28,0.90,0.45
5.118164,0.07056521,0.17336646,0.16440372,0.28,0.88,0.44,16325,10153.20,0,0,0,5.81,11.41,12.88,0.28,0.88,0.44
4.118164,0.11856522,0.19336647,0.15740372,0.29,0.9,0.44,16340,10152.20,0,0,165,9.17,12.81,12.39,0.29,0.90,0.44
1.2177734,0.13456522,0.21336645,0.16540372,0.26,0.82,0.47,16362,10149.30,0,0,0,10.29,14.21,12.95,0.26,0.82,0.47
-1.7822266,0.046565216,0.19936645,0.19540372,0.26,0.81,0.47,16363,10146.30,0,0,165,4.13,13.23,15.05,0.26,0.81,0.47
-4.381836,0.0025652153,0.24336645,0.20240372,0.24,0.84,0.47,16378,10143.70,0,0,0,1.05,16.31,15.54,0.24,0.84,0.47
-10.282227,-0.0014347844,0.27636647,0.18040372,0.24,0.86,0.46,16392,10137.80,0,0,165,0.77,18.62,14.00,0.24,0.86,0.46
-13.181641,-0.0064347847,0.28736645,0.17340373,0.24,0.87,0.44,16399,10134.90,0,0,0,0.42,19.39,13.51,0.24,0.87,0.44
-17.482422,0.015565217,0.28236648,0.15740372,0.27,0.89,0.42,16415,10130.60,0,0,165,1.96,19.04,12.39,0.27,0.89,0.42
-21.082031,0.041565217,0.24336645,0.17040372,0.27,0.87,0.42,16430,10127.00,0,0,0,3.78,16.31,13.30,0.27,0.87,0.42
-24.982422,0.050565217,0.24836645,0.17940372,0.28,0.84,0.44,16437,10123.10,0,0,165,4.41,16.66,13.93,0.28,0.84,0.44
-26.282227,0.047565214,0.25436646,0.22340372,0.29,0.82,0.47,16452,10121.80,0,0,0,4.20,17.08,17.01,0.29,0.82,0.47
-30.18164,0.028565213,0.27236646,0.27640373,0.3,0.81,0.48,16467,10117.90,0,0,165,2.87,18.34,20.72,0.30,0.81,0.48
-32.18164,-0.019434784,0.26936644,0.32240373,0.31,0.82,0.46,16476,10115.90,0,0,0,-0.49,18.13,23.94,0.31,0.82,0.46
-32.18164,0.038565215,0.23636645,0.28540373,0.28,0.88,0.41,16490,10115.90,0,0,165,3.57,15.82,21.35,0.28,0.88,0.41
-34.08203,-0.029434785,0.33136645,0.3584037,0.34,0.85,0.39,16504,10114.00,0,0,0,-1.19,22.47,26.46,0.34,0.85,0.39
-34.782227,-0.16043478,0.05436646,1.0414038,0.41,1.06,0.3,16512,10113.30,0,0,165,-10.36,3.08,74.27,0.41,1.06,0.30
-35.08203,-0.033434786,0.030366458,0.3444037,0.36,0.84,0.39,16527,10113.00,0,0,0,-1.47,1.40,25.48,0.36,0.84,0.39
-35.08203,-0.062434785,0.02736646,0.41540372,0.33,0.87,0.39,16543,10113.00,0,0,165,-3.50,1.19,30.45,0.33,0.87,0.39
-36.68164,-0.06343478,-0.043633543,0.41240373,0.34,0.87,0.39,16549,10111.40,0,0,0,-3.57,-3.78,30.24,0.34,0.87,0.39
-36.08203,-0.05343478,-0.0046335403,0.38740373,0.36,0.85,0.42,16564,10112.00,0,0,165,-2.87,-1.05,28.49,0.36,0.85,0.42
-37.98242,-0.066434786,0.061366457,0.3934037,0.38,0.83,0.43,16580,10110.10,0,0,0,-3.78,3.57,28.91,0.38,0.83,0.43
-37.98242,-0.10743478,0.08736646,0.42940372,0.42,0.82,0.43,16587,10110.10,0,0,165,-6.65,5.39,31.43,0.42,0.82,0.43
-37.68164,-0.14143477,0.0033664592,0.44340372,0.44,0.78,0.43,16602,10110.40,0,0,0,-9.03,-0.49,32.41,0.44,0.78,0.43
-39.68164,-0.18343478,-0.056633543,0.48740375,0.43,0.79,0.45,16617,10108.40,0,0,165,-11.97,-4.69,35.49,0.43,0.79,0.45
-40.98242,-0.22443478,-0.060633536,0.50140375,0.42,0.8,0.47,16626,10107.10,0,0,0,-14.84,-4.97,36.47,0.42,0.80,0.47
-40.98242,-0.22843479,0.09436646,0.4904037,0.4,0.8,0.49,16639,10107.10,0,0,165,-15.12,5.88,35.70,0.40,0.80,0.49
-43.58203,-0.30743477,0.22736645,0.5604037,0.43,0.62,0.51,16655,10104.50,0,0,0,-20.65,15.19,40.60,0.43,0.62,0.51
-43.58203,-0.2754348,-0.08563353,0.5874038,0.4,0.85,0.49,16662,10104.50,0,0,165,-18.41,-6.72,42.49,0.40,0.85,0.49
-43.881836,-0.22843479,0.15536645,0.48040372,0.41,0.85,0.47,16677,10104.20,0,0,0,-15.12,10.15,35.00,0.41,0.85,0.47
-45.58203,-0.20443477,0.15136646,0.4474037,0.45,0.86,0.45,16692,10102.50,0,0,165,-13.44,9.87,32.69,0.45,0.86,0.45
-46.881836,-0.20443477,0.08336646,0.38540372,0.49,0.85,0.45,16699,10101.20,0,0,0,-13.44,5.11,28.35,0.49,0.85,0.45
-48.782227,-0.16743478,0.08636647,0.3144037,0.52,0.83,0.44,16714,10099.30,0,0,165,-10.85,5.32,23.38,0.52,0.83,0.44
-49.782227,-0.18343478,0.022366459,0.22040372,0.53,0.82,0.44,16734,10098.30,0,0,0,-11.97,0.84,16.80,0.53,0.82,0.44
-50.48242,-0.19943479,-0.050633542,0.16640373,0.53,0.8,0.43,16737,10097.60,0,0,165,-13.09,-4.27,13.02,0.53,0.80,0.43
-51.381836,-0.19343477,-0.13563354,0.14540373,0.51,0.83,0.4,16753,10096.70,0,0,0,-12.67,-10.22,11.55,0.51,0.83,0.40
-52.68164,-0.16743478,-0.16763355,0.13140371,0.5,0.83,0.41,16766,10095.40,0,0,165,-10.85,-12.46,10.57,0.50,0.83,0.41
-53.381836,-0.13043478,-0.29963353,0.078403726,0.49,0.82,0.44,16775,10094.70,0,0,0,-8.26,-21.70,6.86,0.49,0.82,0.44
-53.68164,-0.14343478,-0.3476335,0.08440372,0.49,0.79,0.46,16789,10094.40,0,0,165,-9.17,-25.06,7.28,0.49,0.79,0.46
-55.68164,-0.15843478,-0.39263353,0.08440372,0.48,0.78,0.47,16804,10092.40,0,0,0,-10.22,-28.21,7.28,0.48,0.78,0.47
-55.68164,-0.17443478,-0.42363352,0.08940373,0.49,0.76,0.45,16811,10092.40,0,0,165,-11.34,-30.38,7.63,0.49,0.76,0.45
-56.282227,-0.18743478,-0.45963356,0.12240371,0.49,0.74,0.45,16829,10091.80,0,0,0,-12.25,-32.90,9.94,0.49,0.74,0.45
-56.282227,-0.20843479,-0.4576335,0.16640373,0.44,0.76,0.45,16842,10091.80,0,0,165,-13.72,-32.76,13.02,0.44,0.76,0.45
-57.68164,-0.20743477,-0.51663357,0.08240372,0.41,0.8,0.43,16849,10090.40,0,0,0,-13.65,-36.89,7.14,0.41,0.80,0.43
-57.68164,-0.16743478,-0.60463357,0.010403724,0.38,0.84,0.44,16864,10090.40,0,0,165,-10.85,-43.05,2.10,0.38,0.84,0.44
-57.68164,-0.19043478,-0.5246336,-0.09059627,0.38,0.84,0.48,16879,10090.40,0,0,0,-12.46,-37.45,-4.97,0.38,0.84,0.48
-57.68164,-0.20743477,-0.50563353,-0.008596275,0.41,0.89,0.48,16887,10090.40,0,0,165,-13.65,-36.12,0.77,0.41,0.89,0.48
-57.282227,-0.13443479,-0.5436335,-0.10959628,0.43,0.84,0.5,16902,10090.80,0,0,0,-8.54,-38.78,-6.30,0.43,0.84,0.50
-58.58203,-0.13743478,-0.4426335,-0.10059628,0.43,0.82,0.51,16917,10089.50,0,0,165,-8.75,-31.71,-5.67,0.43,0.82,0.51
-56.282227,-0.11243479,-0.40663353,-0.08259627,0.44,0.8,0.5,16932,10091.80,0,0,0,-7.00,-29.19,-4.41,0.44,0.80,0.50
-57.68164,-0.08943479,-0.34263352,-0.07859628,0.47,0.75,0.49,16939,10090.40,0,0,165,-5.39,-24.71,-4.13,0.47,0.75,0.49
-58.58203,-0.11543478,-0.27963352,-0.08559628,0.48,0.74,0.48,16954,10089.50,0,0,0,-7.21,-20.30,-4.62,0.48,0.74,0.48
-57.68164,-0.17243478,-0.25463352,-0.06459628,0.42,0.71,0.5,16966,10090.40,0,0,165,-11.20,-18.55,-3.15,0.42,0.71,0.50
-58.58203,-0.18943478,-0.25463352,0.0064037256,0.47,0.73,0.47,16976,10089.50,0,0,0,-12.39,-18.55,1.82,0.47,0.73,0.47
-58.282227,-0.23343478,-0.28763354,-0.07959627,0.46,0.74,0.45,16992,10089.80,0,0,165,-15.47,-20.86,-4.20,0.46,0.74,0.45
-58.282227,-0.24243478,-0.2666335,0.058403727,0.45,0.76,0.45,16999,10089.80,0,0,0,-16.10,-19.39,5.46,0.45,0.76,0.45
-58.282227,-0.22243477,-0.29563352,0.077403724,0.46,0.8,0.43,17014,10089.80,0,0,165,-14.70,-21.42,6.79,0.46,0.80,0.43
-59.58203,-0.22043478,-0.28763354,0.085403726,0.48,0.85,0.43,17036,10088.50,0,0,0,-14.56,-20.86,7.35,0.48,0.85,0.43
-58.282227,-0.17643477,-0.31163356,0.09140372,0.49,0.79,0.45,17038,10089.80,0,0,165,-11.48,-22.54,7.77,0.49,0.79,0.45
-58.58203,-0.15643477,-0.31263354,0.10540372,0.53,0.78,0.47,17051,10089.50,0,0,0,-10.08,-22.61,8.75,0.53,0.78,0.47
-57.282227,-0.13943478,-0.33963352,0.12740372,0.52,0.78,0.47,17067,10090.80,0,0,165,-8.89,-24.50,10.29,0.52,0.78,0.47
-59.58203,-0.12043479,-0.34163353,0.14840372,0.48,0.77,0.49,17082,10088.50,0,0,0,-7.56,-24.64,11.76,0.48,0.77,0.49
-58.58203,-0.09243478,-0.3546335,0.100403726,0.46,0.76,0.5,17097,10089.50,0,0,165,-5.60,-25.55,8.40,0.46,0.76,0.50
-59.58203,-0.08243479,-0.29863352,0.100403726,0.43,0.74,0.53,17104,10088.50,0,0,0,-4.90,-21.63,8.40,0.43,0.74,0.53
-58.58203,-0.08643478,-0.23163356,0.12240371,0.45,0.74,0.52,17111,10089.50,0,0,165,-5.18,-16.94,9.94,0.45,0.74,0.52
-58.282227,-0.10443479,-0.16963355,0.17340373,0.45,0.72,0.52,17126,10089.80,0,0,0,-6.44,-12.60,13.51,0.45,0.72,0.52
-58.282227,-0.10743478,-0.11563354,0.20840372,0.48,0.71,0.49,17134,10089.80,0,0,165,-6.65,-8.82,15.96,0.48,0.71,0.49
-59.282227,-0.13543478,-0.083633535,0.25340372,0.5,0.69,0.49,17152,10088.80,0,0,0,-8.61,-6.58,19.11,0.50,0.69,0.49
-59.282227,-0.14143477,-0.08463354,0.29740372,0.53,0.68,0.48,17166,10088.80,0,0,165,-9.03,-6.65,22.19,0.53,0.68,0.48
-59.282227,-0.19643478,-0.07763354,0.34040374,0.54,0.7,0.46,17171,10088.80,0,0,0,-12.88,-6.16,25.20,0.54,0.70,0.46
-58.282227,-0.21243478,-0.102633536,0.36240372,0.54,0.71,0.46,17187,10089.80,0,0,165,-14.00,-7.91,26.74,0.54,0.71,0.46
-59.58203,-0.21543477,-0.12263354,0.35740373,0.52,0.74,0.46,17201,10088.50,0,0,0,-14.21,-9.31,26.39,0.52,0.74,0.46
-59.282227,-0.20643479,-0.10663353,0.33940372,0.5,0.75,0.48,17209,10088.80,0,0,165,-13.58,-8.19,25.13,0.50,0.75,0.48
-59.282227,-0.18843478,-0.072633535,0.31740373,0.49,0.76,0.5,17226,10088.80,0,0,0,-12.32,-5.81,23.59,0.49,0.76,0.50
-59.282227,-0.16943477,-0.013633539,0.30940372,0.49,0.76,0.52,17240,10088.80,0,0,165,-10.99,-1.68,23.03,0.49,0.76,0.52
-59.282227,-0.15843478,0.03636646,0.31540373,0.52,0.75,0.52,17247,10088.80,0,0,0,-10.22,1.82,23.45,0.52,0.75,0.52
-58.282227,-0.13143478,0.06236646,0.31740373,0.54,0.73,0.52,17262,10089.80,0,0,165,-8.33,3.64,23.59,0.54,0.73,0.52
-60.58203,-0.09443478,0.07936646,0.33940372,0.53,0.66,0.55,17277,10087.50,0,0,0,-5.74,4.83,25.13,0.53,0.66,0.55
-60.58203,-0.119434774,0.08236646,0.32540372,0.53,0.72,0.49,17292,10087.50,0,0,165,-7.49,5.04,24.15,0.53,0.72,0.49
-59.282227,-0.073434785,0.077366464,0.29540372,0.55,0.75,0.45,17299,10088.80,0,0,0,-4.27,4.69,22.05,0.55,0.75,0.45
-60.282227,-0.046434786,0.07136646,0.2834037,0.56,0.78,0.42,17314,10087.80,0,0,165,-2.38,4.27,21.21,0.56,0.78,0.42
-60.58203,0.007565215,0.030366458,0.22040372,0.58,0.79,0.44,17321,10087.50,0,0,0,1.40,1.40,16.80,0.58,0.79,0.44
-60.282227,0.038565215,-0.0056335414,0.15740372,0.59,0.77,0.46,17336,10087.80,0,0,165,3.57,-1.12,12.39,0.59,0.77,0.46
-60.58203,0.054565217,-0.03363354,0.09340373,0.6,0.75,0.48,17351,10087.50,0,0,0,4.69,-3.08,7.91,0.60,0.75,0.48
-60.282227,0.057565216,-0.051633544,0.047403727,0.59,0.72,0.5,17360,10087.80,0,0,165,4.90,-4.34,4.69,0.59,0.72,0.50
-60.282227,0.041565217,-0.057633545,0.012403727,0.59,0.71,0.5,17374,10087.80,0,0,0,3.78,-4.76,2.24,0.59,0.71,0.50
-60.58203,0.028565213,-0.06163354,-0.018596275,0.6,0.71,0.48,17389,10087.50,0,0,165,2.87,-5.04,0.07,0.60,0.71,0.48
-60.282227,0.016565215,-0.07663354,-0.065596275,0.61,0.72,0.47,17396,10087.80,0,0,0,2.03,-6.09,-3.22,0.61,0.72,0.47
-60.282227,0.020565215,-0.09063354,-0.08759628,0.61,0.72,0.47,17412,10087.80,0,0,165,2.31,-7.07,-4.76,0.61,0.72,0.47
-60.282227,0.05156522,-0.09663353,-0.09559628,0.6,0.72,0.47,17427,10087.80,0,0,0,4.48,-7.49,-5.32,0.60,0.72,0.47
-60.58203,0.057565216,-0.12363354,-0.12659627,0.59,0.73,0.48,17434,10087.50,0,0,165,4.90,-9.38,-7.49,0.59,0.73,0.48
-59.58203,0.080565214,-0.13263355,-0.14459628,0.58,0.71,0.48,17449,10088.50,0,0,0,6.51,-10.01,-8.75,0.58,0.71,0.48
-60.282227,0.09456521,-0.13063355,-0.14859627,0.57,0.7,0.49,17464,10087.80,0,0,165,7.49,-9.87,-9.03,0.57,0.70,0.49
-61.18164,0.09856522,-0.117633544,-0.14559628,0.56,0.7,0.5,17471,10086.90,0,0,0,7.77,-8.96,-8.82,0.56,0.70,0.50
-60.58203,0.10056521,-0.10663353,-0.14659628,0.56,0.7,0.5,17487,10087.50,0,0,165,7.91,-8.19,-8.89,0.56,0.70,0.50
-59.282227,0.09156522,-0.09063354,-0.14759628,0.56,0.7,0.5,17502,10088.80,0,0,0,7.28,-7.07,-8.96,0.56,0.70,0.50
-60.282227,0.09756522,-0.072633535,-0.15359628,0.54,0.7,0.5,17509,10087.80,0,0,165,7.70,-5.81,-9.38,0.54,0.70,0.50
-61.18164,0.108565226,-0.03363354,-0.16459627,0.53,0.72,0.49,17524,10086.90,0,0,0,8.47,-3.08,-10.15,0.53,0.72,0.49
-59.58203,0.12156522,0.00436646,-0.17059627,0.55,0.72,0.48,17540,10088.50,0,0,165,9.38,-0.42,-10.57,0.55,0.72,0.48
-60.282227,0.13256522,0.030366458,-0.17759629,0.56,0.73,0.48,17547,10087.80,0,0,0,10.15,1.40,-11.06,0.56,0.73,0.48
-59.58203,0.14756522,3.664596E-4,-0.19959629,0.58,0.72,0.47,17562,10088.50,0,0,165,11.20,-0.70,-12.60,0.58,0.72,0.47
-60.58203,0.14356522,-0.002633541,-0.19559628,0.6,0.73,0.45,17577,10087.50,0,0,0,10.92,-0.91,-12.32,0.60,0.73,0.45
-60.282227,0.14656521,-0.021633543,-0.21659628,0.62,0.73,0.45,17584,10087.80,0,0,165,11.13,-2.24,-13.79,0.62,0.73,0.45
-60.282227,0.13756523,-0.052633543,-0.23559628,0.63,0.72,0.45,17599,10087.80,0,0,0,10.50,-4.41,-15.12,0.63,0.72,0.45
-61.18164,0.11756523,-0.07463354,-0.24659628,0.62,0.71,0.46,17615,10086.90,0,0,165,9.10,-5.95,-15.89,0.62,0.71,0.46
-60.282227,0.10556522,-0.09363354,-0.2665963,0.6,0.7,0.48,17622,10087.80,0,0,0,8.26,-7.28,-17.29,0.60,0.70,0.48
-59.58203,0.09256521,-0.11563354,-0.24359629,0.57,0.72,0.48,17637,10088.50,0,0,165,7.35,-8.82,-15.68,0.57,0.72,0.48
-61.18164,0.10156521,-0.10663353,-0.26459625,0.55,0.77,0.48,17652,10086.90,0,0,0,7.98,-8.19,-17.15,0.55,0.77,0.48
-59.282227,0.11256522,-0.083633535,-0.28459626,0.54,0.79,0.48,17659,10088.80,0,0,165,8.75,-6.58,-18.55,0.54,0.79,0.48
-60.282227,0.13156521,-0.06263354,-0.32759628,0.53,0.8,0.48,17675,10087.80,0,0,0,10.08,-5.11,-21.56,0.53,0.80,0.48
-60.282227,0.15456522,-0.04063354,-0.36559626,0.53,0.8,0.47,17691,10087.80,0,0,165,11.69,-3.57,-24.22,0.53,0.80,0.47
-60.282227,0.17456523,-0.026633542,-0.39259627,0.53,0.8,0.46,17697,10087.80,0,0,0,13.09,-2.59,-26.11,0.53,0.80,0.46
-60.282227,0.21056521,-0.04063354,-0.43159628,0.53,0.83,0.43,17712,10087.80,0,0,165,15.61,-3.57,-28.84,0.53,0.83,0.43
-61.58203,0.27456522,-0.06863354,-0.47359627,0.56,0.85,0.43,17727,10086.50,0,0,0,20.09,-5.53,-31.78,0.56,0.85,0.43
-60.58203,0.32756522,-0.083633535,-0.49959627,0.57,0.87,0.44,17734,10087.50,0,0,165,23.80,-6.58,-33.60,0.57,0.87,0.44
-61.18164,0.38756523,-0.112633534,-0.53559625,0.59,0.87,0.46,17750,10086.90,0,0,0,28.00,-8.61,-36.12,0.59,0.87,0.46
-60.282227,0.4485652,-0.12763354,-0.57259625,0.58,0.86,0.47,17764,10087.80,0,0,165,32.27,-9.66,-38.71,0.58,0.86,0.47
-60.282227,0.5115652,-0.11463354,-0.59459627,0.55,0.85,0.46,17772,10087.80,0,0,0,36.68,-8.75,-40.25,0.55,0.85,0.46
-61.18164,0.5535652,-0.12963355,-0.6355963,0.53,0.85,0.42,17787,10086.90,0,0,165,39.62,-9.80,-43.12,0.53,0.85,0.42
-61.18164,0.6295652,-0.15763354,-0.69759625,0.52,0.88,0.4,17801,10086.90,0,0,0,44.94,-11.76,-47.46,0.52,0.88,0.40
-60.282227,0.68456525,-0.18263355,-0.7555963,0.51,0.88,0.4,17809,10087.80,0,0,165,48.79,-13.51,-51.52,0.51,0.88,0.40
-59.58203,0.7255652,-0.20463355,-0.8015963,0.49,0.85,0.39,17824,10088.50,0,0,0,51.66,-15.05,-54.74,0.49,0.85,0.39
-60.282227,0.76356524,-0.20563355,-0.8265963,0.44,0.9,0.37,17840,10087.80,0,0,165,54.32,-15.12,-56.49,0.44,0.90,0.37
-60.282227,0.8505652,-0.19563355,-0.89759624,0.39,0.98,0.35,17847,10087.80,0,0,0,60.41,-14.42,-61.46,0.39,0.98,0.35
-61.18164,0.96256524,-0.16863354,-1.0135963,0.39,1.0,0.38,17877,10086.90,0,0,165,68.25,-12.53,-69.58,0.39,1.00,0.38
-60.282227,1.0435652,-0.117633544,-1.1295962,0.41,0.97,0.4,17878,10087.80,0,0,0,73.92,-8.96,-77.70,0.41,0.97,0.40
-60.282227,1.0835652,-0.07663354,-1.1895963,0.43,0.92,0.41,17884,10087.80,0,0,165,76.72,-6.09,-81.90,0.43,0.92,0.41
-59.881836,1.0635651,-0.039633542,-1.2195963,0.42,0.86,0.41,17907,10088.20,0,0,0,75.32,-3.50,-84.00,0.42,0.86,0.41
-60.282227,1.0135652,0.00436646,-1.2035962,0.41,0.81,0.38,17908,10087.80,0,0,165,71.82,-0.42,-82.88,0.41,0.81,0.38
-60.282227,0.9035653,0.01736646,-1.2075963,0.38,0.78,0.35,17922,10087.80,0,0,0,64.12,0.49,-83.16,0.38,0.78,0.35
-60.58203,0.80056524,0.04436646,-1.1975962,0.36,0.73,0.32,17944,10087.50,0,0,165,56.91,2.38,-82.46,0.36,0.73,0.32
-62.18164,0.6955652,0.074366465,-1.0945963,0.34,0.72,0.3,17946,10085.90,0,0,0,49.56,4.48,-75.25,0.34,0.72,0.30
-61.18164,0.5385652,0.08036646,-1.0065962,0.32,0.7,0.29,17959,10086.90,0,0,165,38.57,4.90,-69.09,0.32,0.70,0.29
-62.18164,0.38556522,0.11536646,-0.8625963,0.32,0.68,0.28,17974,10085.90,0,0,0,27.86,7.35,-59.01,0.32,0.68,0.28
-62.18164,0.28756523,0.15236644,-0.7085963,0.33,0.72,0.26,17981,10085.90,0,0,165,21.00,9.94,-48.23,0.33,0.72,0.26
-62.18164,0.17256522,0.14736646,-0.5525963,0.32,0.77,0.25,17997,10085.90,0,0,0,12.95,9.59,-37.31,0.32,0.77,0.25
-63.18164,0.09656522,0.16636646,-0.41759628,0.29,0.81,0.24,18012,10084.90,0,0,165,7.63,10.92,-27.86,0.29,0.81,0.24
-63.48242,0.046565216,0.16936645,-0.30759627,0.26,0.87,0.22,18019,10084.60,0,0,0,4.13,11.13,-20.16,0.26,0.87,0.22
-64.18164,0.029565215,0.18036646,-0.26559627,0.22,0.91,0.22,18034,10083.90,0,0,165,2.94,11.90,-17.22,0.22,0.91,0.22
-64.18164,0.029565215,0.18736646,-0.23759629,0.2,0.94,0.22,18057,10083.90,0,0,0,2.94,12.39,-15.26,0.20,0.94,0.22
-65.18164,0.039565217,0.19136645,-0.23359627,0.21,0.94,0.21,18058,10082.90,0,0,165,3.64,12.67,-14.98,0.21,0.94,0.21
-66.08203,0.033565216,0.18536645,-0.22159629,0.22,0.94,0.22,18072,10082.00,0,0,0,3.22,12.25,-14.14,0.22,0.94,0.22
-66.08203,0.017565215,0.18136646,-0.20359628,0.21,0.94,0.23,18094,10082.00,0,0,165,2.10,11.97,-12.88,0.21,0.94,0.23
-65.78223,0.005565215,0.19036646,-0.19159628,0.22,0.95,0.24,18096,10082.30,0,0,0,1.26,12.60,-12.04,0.22,0.95,0.24
-67.08203,0.0035652164,0.20036645,-0.16759628,0.22,0.96,0.24,18110,10081.00,0,0,165,1.12,13.30,-10.36,0.22,0.96,0.24
-68.08203,0.005565215,0.21436645,-0.13259627,0.24,0.96,0.24,18117,10080.00,0,0,0,1.26,14.28,-7.91,0.24,0.96,0.24
-68.08203,0.010565216,0.21736646,-0.09459628,0.26,0.93,0.24,18132,10080.00,0,0,165,1.61,14.49,-5.25,0.26,0.93,0.24
-67.08203,-0.0024347845,0.20636646,-0.06759627,0.25,0.9,0.25,18147,10081.00,0,0,0,0.70,13.72,-3.36,0.25,0.90,0.25
-69.08203,-0.029434785,0.19936645,-0.027596276,0.24,0.91,0.26,18155,10079.00,0,0,165,-1.19,13.23,-0.56,0.24,0.91,0.26
-69.08203,-0.052434783,0.18136646,0.010403724,0.26,0.9,0.27,18192,10079.00,0,0,0,-2.80,11.97,2.10,0.26,0.90,0.27
-69.08203,-0.08243479,0.16136645,0.042403728,0.27,0.9,0.28,18194,10079.00,0,0,165,-4.90,10.57,4.34,0.27,0.90,0.28
-69.68164,-0.12043479,0.12536646,0.078403726,0.27,0.95,0.28,18195,10078.40,0,0,0,-7.56,8.05,6.86,0.27,0.95,0.28
-71.381836,-0.10943478,0.12436646,0.046403725,0.17,1.1,0.25,18208,10076.70,0,0,165,-6.79,7.98,4.62,0.17,1.10,0.25
-70.98242,-4.3478515E-4,0.14536645,-0.07959627,0.12,1.19,0.24,18222,10077.10,0,0,0,0.84,9.45,-4.20,0.12,1.19,0.24
-71.98242,0.14056522,0.18836646,-0.23459628,0.14,1.18,0.26,18237,10076.10,0,0,165,10.71,12.46,-15.05,0.14,1.18,0.26
-70.98242,0.2755652,0.22936645,-0.3605963,0.19,1.15,0.27,18244,10077.10,0,0,0,20.16,15.33,-23.87,0.19,1.15,0.27
-71.98242,0.38056523,0.25136647,-0.4515963,0.24,1.09,0.28,18259,10076.10,0,0,165,27.51,16.87,-30.24,0.24,1.09,0.28
-71.98242,0.4515652,0.24736646,-0.48459628,0.26,1.04,0.27,18267,10076.10,0,0,0,32.48,16.59,-32.55,0.26,1.04,0.27
-70.98242,0.5125652,0.23336644,-0.51659626,0.25,1.03,0.24,18282,10077.10,0,0,165,36.75,15.61,-34.79,0.25,1.03,0.24
-71.98242,0.5565652,0.20636646,-0.5425963,0.24,1.0,0.22,18297,10076.10,0,0,0,39.83,13.72,-36.61,0.24,1.00,0.22
-71.98242,0.57256526,0.17636645,-0.55759627,0.23,0.97,0.21,18305,10076.10,0,0,165,40.95,11.62,-37.66,0.23,0.97,0.21
-71.98242,0.57356524,0.15336646,-0.5605963,0.21,0.93,0.21,18319,10076.10,0,0,0,41.02,10.01,-37.87,0.21,0.93,0.21
-73.98242,0.53756523,0.13136646,-0.53859633,0.19,0.9,0.21,18334,10074.10,0,0,165,38.50,8.47,-36.33,0.19,0.90,0.21
-74.28223,0.48456523,0.11236646,-0.5095962,0.15,0.89,0.19,18343,10073.80,0,0,0,34.79,7.14,-34.30,0.15,0.89,0.19
-73.98242,0.42956522,0.11336646,-0.4675963,0.13,0.89,0.17,18360,10074.10,0,0,165,30.94,7.21,-31.36,0.13,0.89,0.17
-73.98242,0.38656524,0.12036646,-0.40659627,0.11,0.9,0.17,18378,10074.10,0,0,0,27.93,7.70,-27.09,0.11,0.90,0.17
-75.881836,0.35356525,0.13536645,-0.35259628,0.11,0.88,0.16,18380,10072.20,0,0,165,25.62,8.75,-23.31,0.11,0.88,0.16
-75.881836,0.2825652,0.15036646,-0.26859626,0.11,0.86,0.17,18404,10072.20,0,0,0,20.65,9.80,-17.43,0.11,0.86,0.17
-75.881836,0.22556521,0.17136647,-0.18659627,0.1,0.86,0.15,18409,10072.20,0,0,165,16.66,11.27,-11.69,0.10,0.86,0.15
-76.881836,0.15956523,0.18536645,-0.12659627,0.1,0.87,0.14,18420,10071.20,0,0,0,12.04,12.25,-7.49,0.10,0.87,0.14
-76.881836,0.09056522,0.17936645,-0.06659627,0.13,0.89,0.13,18435,10071.20,0,0,165,7.21,11.83,-3.29,0.13,0.89,0.13
-77.881836,0.0035652164,0.15836646,-0.019596275,0.15,0.9,0.13,18455,10070.20,0,0,0,1.12,10.36,0.00,0.15,0.90,0.13
-78.881836,-0.052434783,0.13736646,0.011403726,0.16,0.92,0.13,18459,10069.20,0,0,165,-2.80,8.89,2.17,0.16,0.92,0.13
-78.881836,-0.09643479,0.11236646,0.07140373,0.18,0.92,0.15,18470,10069.20,0,0,0,-5.88,7.14,6.37,0.18,0.92,0.15
-79.881836,-0.13743478,0.085366465,0.11740373,0.18,0.94,0.16,18485,10068.20,0,0,165,-8.75,5.25,9.59,0.18,0.94,0.16
-79.881836,-0.17443478,0.04836646,0.14440371,0.17,0.97,0.16,18491,10068.20,0,0,0,-11.34,2.66,11.48,0.17,0.97,0.16
-80.78223,-0.18843478,0.01736646,0.14140373,0.12,1.02,0.17,18507,10067.30,0,0,165,-12.32,0.49,11.27,0.12,1.02,0.17
-79.881836,-0.17443478,0.023366459,0.11340372,0.11,1.03,0.18,18522,10068.20,0,0,0,-11.34,0.91,9.31,0.11,1.03,0.18
-81.78223,-0.13843478,0.039366458,0.07240373,0.11,1.04,0.18,18530,10066.30,0,0,165,-8.82,2.03,6.44,0.11,1.04,0.18
-82.78223,-0.08743478,0.061366457,0.040403724,0.13,1.03,0.19,18544,10065.30,0,0,0,-5.25,3.57,4.20,0.13,1.03,0.19
-82.78223,-0.058434784,0.06336646,0.032403726,0.15,1.0,0.19,18560,10065.30,0,0,165,-3.22,3.71,3.64,0.15,1.00,0.19
-83.48242,-0.044434786,0.05336646,0.019403726,0.16,0.99,0.18,18567,10064.60,0,0,0,-2.24,3.01,2.73,0.16,0.99,0.18
-83.78223,-0.040434785,0.026366461,0.022403724,0.16,0.98,0.18,18582,10064.30,0,0,165,-1.96,1.12,2.94,0.16,0.98,0.18
-83.78223,-0.05343478,-0.012633541,0.030403726,0.15,0.97,0.16,18604,10064.30,0,0,0,-2.87,-1.61,3.50,0.15,0.97,0.16
-83.78223,-0.055434786,-0.03163354,0.038403723,0.12,0.97,0.16,18606,10064.30,0,0,165,-3.01,-2.94,4.06,0.12,0.97,0.16
-84.78223,-0.062434785,-0.03363354,0.041403726,0.1,0.97,0.16,18619,10063.30,0,0,0,-3.50,-3.08,4.27,0.10,0.97,0.16
-85.68164,-0.06343478,-0.0116335405,0.038403723,0.1,0.94,0.17,18634,10062.40,0,0,165,-3.57,-1.54,4.06,0.10,0.94,0.17
-85.381836,-0.08743478,0.008366459,0.027403723,0.1,0.95,0.16,18642,10062.70,0,0,0,-5.25,-0.14,3.29,0.10,0.95,0.16
-85.68164,-0.12343478,-0.003633541,0.034403726,0.13,0.96,0.16,18664,10062.40,0,0,165,-7.77,-0.98,3.78,0.13,0.96,0.16
-85.68164,-0.15643477,-0.01863354,0.04840373,0.15,0.95,0.18,18671,10062.40,0,0,0,-10.08,-2.03,4.76,0.15,0.95,0.18
-87.381836,-0.17943478,-0.030633539,0.08340372,0.16,0.96,0.2,18679,10060.70,0,0,165,-11.69,-2.87,7.21,0.16,0.96,0.20
-86.68164,-0.20443477,-0.039633542,0.10140373,0.16,0.96,0.21,18694,10061.40,0,0,0,-13.44,-3.50,8.47,0.16,0.96,0.21
-86.68164,-0.21743478,-0.04463354,0.114403725,0.14,0.98,0.22,18702,10061.40,0,0,165,-14.35,-3.85,9.38,0.14,0.98,0.22
-87.68164,-0.21843478,-0.032633543,0.13240373,0.12,0.99,0.22,18717,10060.40,0,0,0,-14.42,-3.01,10.64,0.12,0.99,0.22
-87.381836,-0.20043477,-0.021633543,0.11940372,0.1,1.03,0.22,18732,10060.70,0,0,165,-13.16,-2.24,9.73,0.10,1.03,0.22
-87.381836,-0.15243478,0.0053664595,0.09840372,0.12,1.05,0.23,18740,10060.70,0,0,0,-9.80,-0.35,8.26,0.12,1.05,0.23
-88.68164,-0.09843479,0.046366457,0.078403726,0.13,1.04,0.37,18755,10059.40,0,0,165,-6.02,2.52,6.86,0.13,1.04,0.37
-87.68164,-0.043434784,0.074366465,0.060403723,0.17,1.02,0.25,18770,10060.40,0,0,0,-2.17,4.48,5.60,0.17,1.02,0.25
-87.68164,-0.011434784,0.08236646,0.052403722,0.18,1.01,0.25,18777,10060.40,0,0,165,0.07,5.04,5.04,0.18,1.01,0.25
-87.381836,0.016565215,0.077366464,0.055403728,0.19,1.0,0.24,18793,10060.70,0,0,0,2.03,4.69,5.25,0.19,1.00,0.24
-88.381836,0.042565215,0.06936646,0.067403734,0.19,1.0,0.23,18807,10059.70,0,0,165,3.85,4.13,6.09,0.19,1.00,0.23
-88.381836,0.05156522,0.04136646,0.05140372,0.19,0.99,0.23,18815,10059.70,0,0,0,4.48,2.17,4.97,0.19,0.99,0.23
-87.68164,0.053565215,0.03336646,0.04540373,0.17,0.99,0.23,18830,10060.40,0,0,165,4.62,1.61,4.55,0.17,0.99,0.23
-89.68164,0.061565217,0.05536646,0.050403725,0.16,0.98,0.23,18845,10058.40,0,0,0,5.18,3.15,4.90,0.16,0.98,0.23
-87.381836,0.06956521,0.08636647,0.06640373,0.15,0.98,0.24,18852,10060.70,0,0,165,5.74,5.32,6.02,0.15,0.98,0.24
-88.381836,0.063565224,0.13136646,0.078403726,0.18,0.95,0.23,18867,10059.70,0,0,0,5.32,8.47,6.86,0.18,0.95,0.23
-88.381836,0.041565217,0.14936645,0.10840373,0.2,0.96,0.22,18882,10059.70,0,0,165,3.78,9.73,8.96,0.20,0.96,0.22
-88.381836,0.011565214,0.14036646,0.12040372,0.21,0.97,0.22,18890,10059.70,0,0,0,1.68,9.10,9.80,0.21,0.97,0.22
-88.381836,-0.017434783,0.074366465,0.07340373,0.2,0.98,0.21,18904,10059.70,0,0,165,-0.35,4.48,6.51,0.20,0.98,0.21
-88.381836,-0.045434784,0.03736646,0.057403725,0.19,0.98,0.21,18926,10059.70,0,0,0,-2.31,1.89,5.39,0.19,0.98,0.21
-88.381836,-0.09243478,-0.03663354,0.12540372,0.19,0.99,0.2,18929,10059.70,0,0,165,-5.60,-3.29,10.15,0.19,0.99,0.20
-89.28223,-0.046434786,0.015366459,0.017403726,0.17,1.0,0.19,18942,10058.80,0,0,0,-2.38,0.35,2.59,0.17,1.00,0.19
-88.381836,-0.036434785,-0.0066335415,0.041403726,0.16,0.99,0.2,18958,10059.70,0,0,165,-1.68,-1.19,4.27,0.16,0.99,0.20
-87.68164,-0.038434785,-0.041633543,0.085403726,0.15,0.98,0.2,18965,10060.40,0,0,0,-1.82,-3.64,7.35,0.15,0.98,0.20
-87.381836,-0.019434784,-0.04463354,0.070403725,0.15,0.97,0.2,18979,10060.70,0,0,165,-0.49,-3.85,6.30,0.15,0.97,0.20
-88.381836,-0.0134347845,-0.05563354,0.047403727,0.13,0.97,0.21,18995,10059.70,0,0,0,-0.07,-4.62,4.69,0.13,0.97,0.21
-87.381836,-0.031434786,-0.04263354,0.054403726,0.14,0.94,0.22,19002,10060.70,0,0,165,-1.33,-3.71,5.18,0.14,0.94,0.22
-88.68164,-0.052434783,-0.034633543,0.08640373,0.16,0.93,0.22,19017,10059.40,0,0,0,-2.80,-3.15,7.42,0.16,0.93,0.22
-87.68164,-0.08243479,-0.050633542,0.14740372,0.17,0.9,0.21,19032,10060.40,0,0,165,-4.90,-4.27,11.69,0.17,0.90,0.21
-88.381836,-0.13143478,-0.06463354,0.21540374,0.18,0.89,0.21,19040,10059.70,0,0,0,-8.33,-5.25,16.45,0.18,0.89,0.21
-88.68164,-0.15443477,-0.06863354,0.2614037,0.19,0.91,0.2,19054,10059.40,0,0,165,-9.94,-5.53,19.67,0.19,0.91,0.20
-88.381836,-0.16743478,-0.08763354,0.31140372,0.18,0.96,0.19,19069,10059.70,0,0,0,-10.85,-6.86,23.17,0.18,0.96,0.19
-88.381836,-0.17643477,-0.110633545,0.31840372,0.17,1.01,0.19,19077,10059.70,0,0,165,-11.48,-8.47,23.66,0.17,1.01,0.19
-87.381836,-0.15743478,-0.12563355,0.27340373,0.17,1.02,0.18,19093,10060.70,0,0,0,-10.15,-9.52,20.51,0.17,1.02,0.18
-88.381836,-0.13943478,-0.14563355,0.27840373,0.16,1.02,0.18,19114,10059.70,0,0,165,-8.89,-10.92,20.86,0.16,1.02,0.18
-88.381836,-0.10843478,-0.12563355,0.21240371,0.16,1.01,0.2,19115,10059.70,0,0,0,-6.72,-9.52,16.24,0.16,1.01,0.20
-88.381836,-0.048434783,-0.06863354,0.15740372,0.16,1.02,0.22,19137,10059.70,0,0,165,-2.52,-5.53,12.39,0.16,1.02,0.22
-88.381836,-0.023434784,-0.051633544,0.14640372,0.16,1.01,0.23,19144,10059.70,0,0,0,-0.77,-4.34,11.62,0.16,1.01,0.23
-88.381836,-4.3478515E-4,-0.013633539,0.14340372,0.16,1.01,0.24,19152,10059.70,0,0,165,0.84,-1.68,11.41,0.16,1.01,0.24
-88.381836,0.016565215,0.00736646,0.13440372,0.19,0.98,0.21,19167,10059.70,0,0,0,2.03,-0.21,10.78,0.19,0.98,0.21
-87.381836,0.043565217,0.010366459,0.13940372,0.21,1.0,0.19,19182,10060.70,0,0,165,3.92,0.00,11.13,0.21,1.00,0.19
-88.381836,0.06256522,0.021366458,0.14840372,0.22,0.99,0.24,19190,10059.70,0,0,0,5.25,0.77,11.76,0.22,0.99,0.24
-87.381836,0.024565216,0.02036646,0.14940372,0.23,0.93,0.26,19205,10060.70,0,0,165,2.59,0.70,11.83,0.23,0.93,0.26
-88.68164,-0.035434783,3.664596E-4,0.18440372,0.24,0.9,0.27,19219,10059.40,0,0,0,-1.61,-0.70,14.28,0.24,0.90,0.27
-89.28223,-0.09443478,-0.015633542,0.19340372,0.22,0.9,0.28,19227,10058.80,0,0,165,-5.74,-1.82,14.91,0.22,0.90,0.28
-88.381836,-0.14243479,-0.012633541,0.23840371,0.19,0.91,0.27,19242,10059.70,0,0,0,-9.10,-1.61,18.06,0.19,0.91,0.27
-88.381836,-0.14143477,-0.00963354,0.24940372,0.18,0.94,0.23,19258,10059.70,0,0,165,-9.03,-1.40,18.83,0.18,0.94,0.23
-88.381836,-0.083434775,0.04136646,0.28640372,0.19,0.97,0.18,19265,10059.70,0,0,0,-4.97,2.17,21.42,0.19,0.97,0.18
-88.381836,-0.009434785,0.066366464,0.29040372,0.23,0.97,0.15,19287,10059.70,0,0,165,0.21,3.92,21.70,0.23,0.97,0.15
-88.381836,0.07556522,0.08636647,0.2754037,0.25,0.97,0.18,19294,10059.70,0,0,0,6.16,5.32,20.65,0.25,0.97,0.18
-88.381836,0.115565225,0.09136646,0.27140373,0.27,0.96,0.21,19302,10059.70,0,0,165,8.96,5.67,20.37,0.27,0.96,0.21
-87.381836,0.088565215,0.057366457,0.23140371,0.3,0.94,0.24,19317,10060.70,0,0,0,7.07,3.29,17.57,0.30,0.94,0.24
-88.381836,0.039565217,0.02036646,0.20040372,0.31,0.91,0.25,19340,10059.70,0,0,165,3.64,0.70,15.40,0.31,0.91,0.25
-88.68164,-0.051434785,-0.00763354,0.2144037,0.31,0.91,0.25,19341,10059.40,0,0,0,-2.73,-1.26,16.38,0.31,0.91,0.25
-88.381836,-0.09443478,-0.013633539,0.22640371,0.3,0.94,0.24,19355,10059.70,0,0,165,-5.74,-1.68,17.22,0.30,0.94,0.24
-89.28223,-0.10743478,-0.0016335398,0.24240372,0.29,0.96,0.24,19370,10058.80,0,0,0,-6.65,-0.84,18.34,0.29,0.96,0.24
-88.381836,-0.12243478,0.008366459,0.24840373,0.3,0.96,0.24,19377,10059.70,0,0,165,-7.70,-0.14,18.76,0.30,0.96,0.24
-88.381836,-0.13543478,-0.012633541,0.21340372,0.32,0.93,0.26,19392,10059.70,0,0,0,-8.61,-1.61,16.31,0.32,0.93,0.26
-89.28223,-0.16943477,-0.03563354,0.20740372,0.33,0.9,0.28,19407,10058.80,0,0,165,-10.99,-3.22,15.89,0.33,0.90,0.28
-88.381836,-0.22243477,-0.06263354,0.22040372,0.35,0.86,0.3,19414,10059.70,0,0,0,-14.70,-5.11,16.80,0.35,0.86,0.30
-89.28223,-0.27043477,-0.08463354,0.26740372,0.35,0.83,0.3,19429,10058.80,0,0,165,-18.06,-6.65,20.09,0.35,0.83,0.30
-91.28223,-0.31143478,-0.10163354,0.35340372,0.34,0.83,0.3,19444,10056.80,0,0,0,-20.93,-7.84,26.11,0.34,0.83,0.30
-90.28223,-0.34443477,-0.07563354,0.4464037,0.33,0.85,0.29,19452,10057.80,0,0,165,-23.24,-6.02,32.62,0.33,0.85,0.29
-90.28223,-0.38343477,-0.032633543,0.46840373,0.31,0.88,0.27,19467,10057.80,0,0,0,-25.97,-3.01,34.16,0.31,0.88,0.27
-91.28223,-0.3984348,-0.01063354,0.46540374,0.32,0.87,0.27,19483,10056.80,0,0,165,-27.02,-1.47,33.95,0.32,0.87,0.27
-91.28223,-0.41343477,0.03636646,0.49240375,0.32,0.83,0.28,19490,10056.80,0,0,0,-28.07,1.82,35.84,0.32,0.83,0.28
-91.28223,-0.4414348,0.09736647,0.5204037,0.34,0.79,0.3,19504,10056.80,0,0,165,-30.03,6.09,37.80,0.34,0.79,0.30
-90.28223,-0.50843483,0.14636646,0.57540375,0.37,0.73,0.33,19520,10057.80,0,0,0,-34.72,9.52,41.65,0.37,0.73,0.33
-90.28223,-0.6204348,0.14936645,0.65340376,0.4,0.7,0.34,19527,10057.80,0,0,165,-42.56,9.73,47.11,0.40,0.70,0.34
-91.28223,-0.7994348,0.11336646,0.7694037,0.44,0.61,0.35,19542,10056.80,0,0,0,-55.09,7.21,55.23,0.44,0.61,0.35
-92.28223,-0.99643475,0.06536646,0.92740375,0.47,0.57,0.34,19557,10055.80,0,0,165,-68.88,3.85,66.29,0.47,0.57,0.34
-91.28223,-1.1954348,0.01636646,1.1014038,0.46,0.57,0.32,19564,10056.80,0,0,0,-82.81,0.42,78.47,0.46,0.57,0.32
-90.28223,-1.3984348,-0.05563354,1.2704039,0.45,0.59,0.32,19579,10057.80,0,0,165,-97.02,-4.62,90.30,0.45,0.59,0.32
-90.28223,-1.601435,-0.105633534,1.3344038,0.47,0.66,0.34,19594,10057.80,0,0,0,-111.23,-8.12,94.78,0.47,0.66,0.34
-89.28223,-1.6824349,-0.13263355,1.3374038,0.53,0.75,0.39,19603,10058.80,0,0,165,-116.90,-10.01,94.99,0.53,0.75,0.39
-90.28223,-1.726435,-0.19363354,1.2494038,0.63,0.81,0.47,19617,10057.80,0,0,0,-119.98,-14.28,88.83,0.63,0.81,0.47
-90.28223,-1.7384348,-0.28163353,1.1424037,0.66,0.89,0.47,19632,10057.80,0,0,165,-120.82,-20.44,81.34,0.66,0.89,0.47
-89.28223,-1.6834348,-0.40463352,1.0094037,0.65,0.95,0.45,19640,10058.80,0,0,0,-116.97,-29.05,72.03,0.65,0.95,0.45
-88.98242,-1.5984348,-0.52763355,0.8714037,0.62,0.96,0.44,19654,10059.10,0,0,165,-111.02,-37.66,62.37,0.62,0.96,0.44
-89.98242,-1.4884348,-0.6346336,0.70040375,0.59,0.94,0.45,19669,10058.10,0,0,0,-103.32,-45.15,50.40,0.59,0.94,0.45
-88.98242,-1.3754349,-0.71363354,0.5704037,0.55,0.9,0.47,19677,10059.10,0,0,165,-95.41,-50.68,41.30,0.55,0.90,0.47
-89.28223,-1.2674348,-0.76363355,0.48040372,0.53,0.8,0.51,19700,10058.80,0,0,0,-87.85,-54.18,35.00,0.53,0.80,0.51
-90.28223,-1.2274349,-0.7736336,0.43940374,0.53,0.67,0.54,19708,10057.80,0,0,165,-85.05,-54.88,32.13,0.53,0.67,0.54
-89.28223,-1.2414348,-0.76263356,0.45740372,0.55,0.57,0.56,19714,10058.80,0,0,0,-86.03,-54.11,33.39,0.55,0.57,0.56
-88.381836,-1.2994348,-0.7466336,0.5344037,0.65,0.47,0.63,19737,10059.70,0,0,165,-90.09,-52.99,38.78,0.65,0.47,0.63
-89.28223,-1.3474348,-0.69563353,0.64940375,0.62,0.61,0.67,19744,10058.80,0,0,0,-93.45,-49.42,46.83,0.62,0.61,0.67
-87.08203,-1.3174348,-0.62363356,0.6104037,0.55,0.8,0.66,19759,10061.00,0,0,165,-91.35,-44.38,44.10,0.55,0.80,0.66
-87.381836,-1.1604348,-0.51463354,0.45340374,0.52,0.91,0.64,19775,10060.70,0,0,0,-80.36,-36.75,33.11,0.52,0.91,0.64
-88.381836,-0.97343475,-0.42763352,0.29640374,0.54,0.9,0.65,19782,10059.70,0,0,165,-67.27,-30.66,22.12,0.54,0.90,0.65
-87.98242,-0.78743476,-0.33763355,0.12340373,0.57,0.84,0.66,19791,10060.10,0,0,0,-54.25,-24.36,10.01,0.57,0.84,0.66
-89.28223,-0.6414348,0.0013664598,0.040403724,0.6,0.74,0.68,19804,10058.80,0,0,165,-44.03,-0.63,4.20,0.60,0.74,0.68
-91.28223,-0.54143476,-0.17463355,-0.0015962757,0.62,0.66,0.67,19826,10056.80,0,0,0,-37.03,-12.95,1.26,0.62,0.66,0.67
-90.28223,-0.50843483,-0.14563355,-0.030596275,0.64,0.61,0.63,19828,10057.80,0,0,165,-34.72,-10.92,-0.77,0.64,0.61,0.63
-88.381836,-0.49143475,-0.14663354,-0.043596275,0.65,0.57,0.56,19841,10059.70,0,0,0,-33.53,-10.99,-1.68,0.65,0.57,0.56
-88.381836,-0.4944348,-0.19663355,-0.039596274,0.68,0.54,0.52,19850,10059.70,0,0,165,-33.74,-14.49,-1.40,0.68,0.54,0.52
-89.28223,-0.5244348,-0.27963352,-0.033596277,0.67,0.51,0.52,19865,10058.80,0,0,0,-35.84,-20.30,-0.98,0.67,0.51,0.52
-89.28223,-0.5864348,-0.36763352,-0.031596273,0.66,0.51,0.53,19879,10058.80,0,0,165,-40.18,-26.46,-0.84,0.66,0.51,0.53
-87.381836,-0.6354348,-0.45163354,-0.021596275,0.66,0.51,0.57,19887,10060.70,0,0,0,-43.61,-32.34,-0.14,0.66,0.51,0.57
-87.381836,-0.6794348,-0.4956335,-0.016596274,0.66,0.57,0.56,19902,10060.70,0,0,165,-46.69,-35.42,0.21,0.66,0.57,0.56
-86.381836,-0.6944348,-0.6086336,-0.10959628,0.7,0.62,0.5,19917,10061.70,0,0,0,-47.74,-43.33,-6.30,0.70,0.62,0.50
-86.381836,-0.6884348,-0.7366336,-0.21659628,0.73,0.61,0.47,19925,10061.70,0,0,165,-47.32,-52.29,-13.79,0.73,0.61,0.47
-85.08203,-0.67543477,-0.87863356,-0.30759627,0.76,0.54,0.51,19940,10063.00,0,0,0,-46.41,-62.23,-20.16,0.76,0.54,0.51
-85.381836,-0.67543477,-0.9586336,-0.30759627,0.72,0.48,0.57,19954,10062.70,0,0,165,-46.41,-67.83,-20.16,0.72,0.48,0.57
-86.08203,-0.69143474,-0.96863353,-0.24659628,0.67,0.49,0.61,19962,10062.00,0,0,0,-47.53,-68.53,-15.89,0.67,0.49,0.61
-86.381836,-0.6784348,-0.9276336,-0.19359629,0.63,0.53,0.6,19977,10061.70,0,0,165,-46.62,-65.66,-12.18,0.63,0.53,0.60
-86.381836,-0.63043475,-0.8766336,-0.19759628,0.62,0.56,0.58,19992,10061.70,0,0,0,-43.26,-62.09,-12.46,0.62,0.56,0.58
-87.08203,-0.5854348,-0.84163356,-0.19559628,0.66,0.55,0.6,20000,10061.00,0,0,165,-40.11,-59.64,-12.32,0.66,0.55,0.60
-85.381836,-0.50843483,-0.77663356,-0.15859628,0.69,0.54,0.66,20014,10062.70,0,0,0,-34.72,-55.09,-9.73,0.69,0.54,0.66
-86.381836,-0.44343477,-0.68863356,-0.15459627,0.67,0.57,0.71,20029,10061.70,0,0,165,-30.17,-48.93,-9.45,0.67,0.57,0.71
-86.08203,-0.36443478,-0.56963354,-0.20559628,0.63,0.6,0.71,20037,10062.00,0,0,0,-24.64,-40.60,-13.02,0.63,0.60,0.71
-84.381836,-0.28843477,-0.4656335,-0.28959626,0.63,0.64,0.7,20052,10063.70,0,0,165,-19.32,-33.32,-18.90,0.63,0.64,0.70
-87.381836,-0.19443478,-0.35763353,-0.37859628,0.64,0.64,0.67,20067,10060.70,0,0,0,-12.74,-25.76,-25.13,0.64,0.64,0.67
-86.381836,-0.10143478,-0.29463354,-0.42259628,0.68,0.62,0.65,20075,10061.70,0,0,165,-6.23,-21.35,-28.21,0.68,0.62,0.65
-86.381836,0.006565217,-0.26463354,-0.43359628,0.69,0.56,0.64,20089,10061.70,0,0,0,1.33,-19.25,-28.98,0.69,0.56,0.64
-87.08203,0.06756522,-0.24563356,-0.46959627,0.68,0.51,0.63,20105,10061.00,0,0,165,5.60,-17.92,-31.50,0.68,0.51,0.63
-87.08203,0.11156522,-0.24963357,-0.43159628,0.68,0.48,0.62,20112,10061.00,0,0,0,8.68,-18.20,-28.84,0.68,0.48,0.62
-87.08203,0.12856522,-0.23263355,-0.36959627,0.66,0.51,0.61,20126,10061.00,0,0,165,9.87,-17.01,-24.50,0.66,0.51,0.61
-88.381836,0.14856523,-0.21563354,-0.32859626,0.65,0.59,0.56,20142,10059.70,0,0,0,11.27,-15.82,-21.63,0.65,0.59,0.56
-87.98242,0.19056521,-0.20663354,-0.32859626,0.64,0.63,0.53,20149,10060.10,0,0,165,14.21,-15.19,-21.63,0.64,0.63,0.53
-87.98242,0.23056522,-0.20163354,-0.37359628,0.63,0.64,0.51,20171,10060.10,0,0,0,17.01,-14.84,-24.78,0.63,0.64,0.51
-88.381836,0.24956521,-0.20363353,-0.39959627,0.65,0.6,0.5,20179,10059.70,0,0,165,18.34,-14.98,-26.60,0.65,0.60,0.50
-87.98242,0.2465652,-0.19263354,-0.39559627,0.66,0.55,0.5,20187,10060.10,0,0,0,18.13,-14.21,-26.32,0.66,0.55,0.50
-87.98242,0.22256523,-0.18363355,-0.3635963,0.68,0.54,0.49,20202,10060.10,0,0,165,16.45,-13.58,-24.08,0.68,0.54,0.49
-88.381836,0.18556522,-0.17363355,-0.3265963,0.68,0.56,0.48,20217,10059.70,0,0,0,13.86,-12.88,-21.49,0.68,0.56,0.48
-87.98242,0.15556522,-0.16763355,-0.30459628,0.68,0.6,0.47,20225,10060.10,0,0,165,11.76,-12.46,-19.95,0.68,0.60,0.47
-87.381836,0.12956521,-0.15663354,-0.29659626,0.65,0.63,0.47,20239,10060.70,0,0,0,9.94,-11.69,-19.39,0.65,0.63,0.47
-88.381836,0.10956521,-0.13763355,-0.30259627,0.64,0.63,0.47,20262,10059.70,0,0,165,8.54,-10.36,-19.81,0.64,0.63,0.47
-89.28223,0.09456521,-0.112633534,-0.29759628,0.64,0.64,0.47,20264,10058.80,0,0,0,7.49,-8.61,-19.46,0.64,0.64,0.47
-87.98242,0.095565215,-0.07863354,-0.28959626,0.65,0.65,0.48,20276,10060.10,0,0,165,7.56,-6.23,-18.90,0.65,0.65,0.48
-87.08203,0.09456521,-0.04263354,-0.2915963,0.64,0.68,0.48,20292,10061.00,0,0,0,7.49,-3.71,-19.04,0.64,0.68,0.48
-86.08203,0.09856522,-0.002633541,-0.32559627,0.62,0.7,0.48,20299,10062.00,0,0,165,7.77,-0.91,-21.42,0.62,0.70,0.48
-87.381836,0.102565214,0.022366459,-0.39559627,0.6,0.7,0.48,20314,10060.70,0,0,0,8.05,0.84,-26.32,0.60,0.70,0.48
-87.98242,0.115565225,0.04036646,-0.4415963,0.6,0.69,0.48,20329,10060.10,0,0,165,8.96,2.10,-29.54,0.60,0.69,0.48
-87.08203,0.13156521,0.05436646,-0.45259628,0.61,0.65,0.47,20337,10061.00,0,0,0,10.08,3.08,-30.31,0.61,0.65,0.47
-87.381836,0.14056522,0.06236646,-0.42459628,0.63,0.61,0.49,20353,10060.70,0,0,165,10.71,3.64,-28.35,0.63,0.61,0.49
-87.08203,0.13556522,0.06536646,-0.37159628,0.63,0.58,0.5,20375,10061.00,0,0,0,10.36,3.85,-24.64,0.63,0.58,0.50
-87.08203,0.12556522,0.06836646,-0.31359628,0.62,0.58,0.52,20390,10061.00,0,0,165,9.66,4.06,-20.58,0.62,0.58,0.52
-87.98242,0.11356522,0.08636647,-0.26559627,0.6,0.63,0.52,20391,10060.10,0,0,0,8.82,5.32,-17.22,0.60,0.63,0.52
-86.08203,0.13756523,0.11936647,-0.24959628,0.56,0.7,0.51,20404,10062.00,0,0,165,10.50,7.63,-16.10,0.56,0.70,0.51
-87.08203,0.20256522,0.13336645,-0.35159627,0.55,0.85,0.48,20411,10061.00,0,0,0,15.05,8.61,-23.24,0.55,0.85,0.48
-87.08203,0.36456522,0.26336646,-0.36259627,0.5,0.86,0.51,20427,10061.00,0,0,165,26.39,17.71,-24.01,0.50,0.86,0.51
-87.98242,0.49156523,0.33736646,-0.45059627,0.5,0.9,0.52,20449,10060.10,0,0,0,35.28,22.89,-30.17,0.50,0.90,0.52
-88.98242,0.6315653,0.42036647,-0.5755963,0.54,0.89,0.53,20450,10059.10,0,0,165,45.08,28.70,-38.92,0.54,0.89,0.53
-89.98242,0.7835652,0.49936646,-0.6585963,0.56,0.85,0.54,20464,10058.10,0,0,0,55.72,34.23,-44.73,0.56,0.85,0.54
-89.98242,0.88056517,0.5293665,-0.7415963,0.59,0.81,0.54,20479,10058.10,0,0,165,62.51,36.33,-50.54,0.59,0.81,0.54
-90.98242,0.9555653,0.5413664,-0.81659627,0.6,0.77,0.52,20487,10057.10,0,0,0,67.76,37.17,-55.79,0.60,0.77,0.52
-90.98242,1.0055652,0.5353664,-0.8325963,0.63,0.75,0.49,20502,10057.10,0,0,165,71.26,36.75,-56.91,0.63,0.75,0.49
-91.28223,1.0515652,0.49736646,-0.8285963,0.64,0.73,0.45,20509,10056.80,0,0,0,74.48,34.09,-56.63,0.64,0.73,0.45
-91.98242,1.0765653,0.44436646,-0.80059624,0.63,0.72,0.44,20525,10056.10,0,0,165,76.23,30.38,-54.67,0.63,0.72,0.44
-91.98242,1.0815651,0.39836648,-0.76259625,0.58,0.72,0.44,20542,10056.10,0,0,0,76.58,27.16,-52.01,0.58,0.72,0.44
-91.98242,1.0795652,0.37736648,-0.7275963,0.53,0.74,0.45,20547,10056.10,0,0,165,76.44,25.69,-49.56,0.53,0.74,0.45
-92.881836,1.0795652,0.39336646,-0.69859624,0.5,0.74,0.47,20561,10055.20,0,0,0,76.44,26.81,-47.53,0.50,0.74,0.47
-91.98242,1.0735651,0.43536648,-0.6655963,0.48,0.73,0.48,20577,10056.10,0,0,165,76.02,29.75,-45.22,0.48,0.73,0.48
-91.98242,1.0495651,0.48436648,-0.6205963,0.48,0.73,0.47,20585,10056.10,0,0,0,74.34,33.18,-42.07,0.48,0.73,0.47
-90.98242,1.0215651,0.5283664,-0.57159626,0.46,0.72,0.47,20599,10057.10,0,0,165,72.38,36.26,-38.64,0.46,0.72,0.47
-89.98242,0.9705652,0.5583665,-0.5235963,0.46,0.71,0.45,20622,10058.10,0,0,0,68.81,38.36,-35.28,0.46,0.71,0.45
-88.98242,0.88056517,0.56936646,-0.4905963,0.45,0.72,0.43,20623,10059.10,0,0,165,62.51,39.13,-32.97,0.45,0.72,0.43
-87.08203,0.79656523,0.5763664,-0.4565963,0.46,0.74,0.41,20639,10061.00,0,0,0,56.63,39.62,-30.59,0.46,0.74,0.41
-87.98242,0.7375652,0.58936644,-0.42559627,0.45,0.77,0.39,20652,10060.10,0,0,165,52.50,40.53,-28.42,0.45,0.77,0.39
-87.98242,0.6915652,0.6043665,-0.38959628,0.43,0.79,0.39,20660,10060.10,0,0,0,49.28,41.58,-25.90,0.43,0.79,0.39
-87.08203,0.6545652,0.62536645,-0.37359628,0.41,0.83,0.38,20674,10061.00,0,0,165,46.69,43.05,-24.78,0.41,0.83,0.38
-87.98242,0.63056517,0.64936644,-0.36959627,0.41,0.84,0.36,20690,10060.10,0,0,0,45.01,44.73,-24.50,0.41,0.84,0.36
