Pressure_Rel,GyroX_Rel,GyroY_Rel,GyroZ_Rel,AccX_Rel,AccY_Rel,AccZ_Rel,Timestamp,Pressure_abs,HeartRate,Oxygen,Status,GyroX,GyroY,GyroZ,AccX,AccY,AccZ
0.0,0.0,0.0,0.0,0.0,0.0,0.0,4290,9940.70,0,0,165,1.12,-2.45,0.00,-0.07,0.96,0.32
0.0,0.0,0.0,0.0,0.0,0.0,0.0,4305,9941.00,0,0,0,1.26,-2.66,-0.14,-0.08,0.96,0.32
0.0,0.0,0.0,0.0,0.0,0.0,0.0,4320,9942.00,0,0,165,1.40,-2.59,0.14,-0.08,0.95,0.32
0.0,0.0,0.0,0.0,0.0,0.0,0.0,4334,9941.00,0,0,0,0.77,-2.59,0.42,-0.07,0.95,0.32
0.0,0.0,0.0,0.0,0.0,0.0,0.0,4342,9940.70,0,0,165,0.00,-2.66,0.28,-0.08,0.95,0.32
0.0,0.0,0.0,0.0,0.0,0.0,0.0,4358,9941.00,0,0,0,-0.28,-2.59,0.14,-0.08,0.95,0.32
0.0,0.0,0.0,0.0,0.0,0.0,0.0,4372,9941.00,0,0,165,0.14,-2.52,0.14,-0.08,0.95,0.33
0.0,0.0,0.0,0.0,0.0,0.0,0.0,4380,9941.00,0,0,0,1.05,-2.52,-0.07,-0.08,0.96,0.33
0.0,0.0,0.0,0.0,0.0,0.0,0.0,4395,9941.00,0,0,165,1.75,-2.45,-0.28,-0.08,0.95,0.33
0.0,0.0,0.0,0.0,0.0,0.0,0.0,4410,9941.00,0,0,0,2.03,-2.52,-0.21,-0.08,0.95,0.32
0.0,0.0,0.0,0.0,0.0,0.0,0.0,4417,9941.00,0,0,165,1.68,-2.59,-0.35,-0.08,0.95,0.33
0.0,0.0,0.0,0.0,0.0,0.0,0.0,4431,9941.30,0,0,0,0.98,-2.66,17.78,-0.07,0.95,0.32
0.0,0.0,0.0,0.0,0.0,0.0,0.0,4448,9942.00,0,0,165,0.42,-2.66,0.14,-0.07,0.95,0.32
0.0,0.0,0.0,0.0,0.0,0.0,0.0,4455,9941.30,0,0,0,0.14,-2.38,0.00,-0.07,0.95,0.32
0.0,0.0,0.0,0.0,0.0,0.0,0.0,4470,9941.00,0,0,165,0.56,-2.38,0.00,-0.07,0.96,0.32
0.0,0.0,0.0,0.0,0.0,0.0,0.0,4484,9941.00,0,0,0,1.47,-2.38,-0.07,-0.07,0.96,0.32
0.0,0.0,0.0,0.0,0.0,0.0,0.0,4492,9942.00,0,0,165,2.17,-2.38,-0.07,-0.07,0.95,0.32
0.0,0.0,0.0,0.0,0.0,0.0,0.0,4507,9941.00,0,0,0,1.96,-2.31,0.00,-0.07,0.96,0.32
0.0,0.0,0.0,0.0,0.0,0.0,0.0,4522,9942.00,0,0,165,1.12,-2.38,0.00,-0.08,0.95,0.32
0.0,0.0,0.0,0.0,0.0,0.0,0.0,4529,9941.00,0,0,0,-0.49,-2.52,0.07,-0.08,0.95,0.32
0.0,0.0,0.0,0.0,0.0,0.0,0.0,4544,9941.00,0,0,165,-0.98,-2.45,0.21,-0.08,0.95,0.33
0.0,0.0,0.0,0.0,0.0,0.0,0.0,4560,9942.60,0,0,0,-0.77,-2.59,0.07,-0.08,0.95,0.33
0.0,0.0,0.0,0.0,0.0,0.0,0.0,4567,9942.00,0,0,165,0.21,-2.52,-0.14,-0.08,0.95,0.33
0.0,0.0,0.0,0.0,0.0,0.0,0.0,4581,9941.00,0,0,0,1.96,-2.45,-0.28,-0.07,0.95,0.33
0.0,0.0,0.0,0.0,0.0,0.0,0.0,4597,9941.00,0,0,165,3.15,-2.38,-0.28,-0.08,0.96,0.32
0.0,0.0,0.0,0.0,0.0,0.0,0.0,4604,9942.00,0,0,0,3.22,-2.45,-0.35,-0.08,0.96,0.32
0.0,0.0,0.0,0.0,0.0,0.0,0.0,4621,9941.00,0,0,165,2.38,-2.59,-0.21,-0.08,0.95,0.32
0.0,0.0,0.0,0.0,0.0,0.0,0.0,4634,9942.00,0,0,0,0.91,-2.52,0.00,-0.08,0.96,0.32
0.0,0.0,0.0,0.0,0.0,0.0,0.0,4642,9941.00,0,0,165,-0.49,-2.52,0.28,-0.08,0.96,0.32
0.0,0.0,0.0,0.0,0.0,0.0,0.0,4657,9941.30,0,0,0,-1.26,-2.59,0.35,-0.08,0.95,0.32
0.0,0.0,0.0,0.0,0.0,0.0,0.0,4672,9939.70,0,0,165,-1.12,-2.59,0.28,-0.08,0.95,0.33
0.0,0.0,0.0,0.0,0.0,0.0,0.0,4679,9941.00,0,0,0,0.00,-2.66,-0.14,-0.08,0.95,0.32
0.0,0.0,0.0,0.0,0.0,0.0,0.0,4694,9942.00,0,0,165,1.26,-2.59,-0.14,-0.08,0.96,0.33
0.0,0.0,0.0,0.0,0.0,0.0,0.0,4710,9941.00,0,0,0,2.59,-2.45,-0.21,-0.08,0.95,0.33
0.0,0.0,0.0,0.0,0.0,0.0,0.0,4717,9942.00,0,0,165,3.08,-2.52,-0.42,-0.08,0.95,0.32
0.0,0.0,0.0,0.0,0.0,0.0,0.0,4731,9941.00,0,0,0,2.45,-2.59,-0.28,-0.08,0.96,0.32
0.0,0.0,0.0,0.0,0.0,0.0,0.0,4748,9941.00,0,0,165,1.54,-2.59,-0.21,-0.08,0.96,0.32
0.0,0.0,0.0,0.0,0.0,0.0,0.0,4755,9942.30,0,0,0,0.14,-2.45,0.14,-0.08,0.95,0.32
0.0,0.0,0.0,0.0,0.0,0.0,0.0,4772,9940.10,0,0,165,-0.49,-2.38,0.28,-0.08,0.96,0.32
0.0,0.0,0.0,0.0,0.0,0.0,0.0,4784,9941.00,0,0,0,-0.70,-2.38,0.28,-0.08,0.96,0.32
0.0,0.0,0.0,0.0,0.0,0.0,0.0,4792,9941.00,0,0,165,-0.07,-2.45,0.21,-0.08,0.95,0.33
0.0,0.0,0.0,0.0,0.0,0.0,0.0,4806,9941.00,0,0,0,0.91,-2.45,0.00,-0.08,0.95,0.33
0.0,0.0,0.0,0.0,0.0,0.0,0.0,4822,9942.30,0,0,165,1.75,-2.31,0.00,-0.08,0.95,0.32
0.0,0.0,0.0,0.0,0.0,0.0,0.0,4829,9940.10,0,0,0,2.17,-2.38,-0.28,-0.08,0.95,0.32
0.0,0.0,0.0,0.0,0.0,0.0,0.0,4845,9941.00,0,0,165,2.03,-2.45,-0.21,-0.08,0.95,0.32
0.0,0.0,0.0,0.0,0.0,0.0,0.0,4860,9942.30,0,0,0,1.47,-2.45,0.00,-0.08,0.95,0.32
0.0,0.0,0.0,0.0,0.0,0.0,0.0,4867,9942.30,0,0,165,0.77,-2.52,0.07,-0.07,0.96,0.32
0.0,0.0,0.0,0.0,0.0,0.0,0.0,4882,9941.00,0,0,0,0.21,-2.38,0.14,-0.07,0.96,0.32
0.0,0.0,0.0,0.0,0.0,0.0,0.0,4897,9941.00,0,0,165,0.14,-2.52,-0.07,-0.08,0.96,0.32
0.0,0.0,0.0,0.0,0.0,0.0,0.0,4905,9941.30,0,0,0,0.56,-2.45,0.14,-0.08,0.96,0.32
0.0,0.0,0.0,0.0,0.0,0.0,0.0,4920,9942.30,0,0,165,1.26,-2.45,0.00,-0.08,0.95,0.32
0.0,0.0,0.0,0.0,0.0,0.0,0.0,4934,9941.30,0,0,0,1.47,-2.52,-0.14,-0.08,0.95,0.32
0.0,0.0,0.0,0.0,0.0,0.0,0.0,4941,9941.00,0,0,165,1.40,-2.45,-0.07,-0.07,0.95,0.32
0.0,0.0,0.0,0.0,0.0,0.0,0.0,4957,9942.00,0,0,0,0.91,-2.59,0.00,-0.08,0.96,0.32
0.0,0.0,0.0,0.0,0.0,0.0,0.0,4972,9942.30,0,0,165,0.56,-2.45,0.00,-0.08,0.95,0.32
0.0,0.0,0.0,0.0,0.0,0.0,0.0,4979,9941.00,0,0,0,0.28,-2.59,0.07,-0.08,0.95,0.32
0.0,0.0,0.0,0.0,0.0,0.0,0.0,4994,9941.00,0,0,165,0.63,-2.52,-0.07,-0.07,0.96,0.32
0.0,0.0,0.0,0.0,0.0,0.0,0.0,5009,9941.30,0,0,0,0.91,-2.45,0.00,-0.08,0.95,0.32
0.0,0.0,0.0,0.0,0.0,0.0,0.0,5016,9941.00,0,0,165,1.33,-2.45,0.00,-0.08,0.95,0.32
0.0,0.0,0.0,0.0,0.0,0.0,0.0,5031,9941.00,0,0,0,1.47,-2.45,-0.35,-0.07,0.95,0.32
0.0,0.0,0.0,0.0,0.0,0.0,0.0,5047,9941.00,0,0,165,1.61,-2.59,-0.42,-0.07,0.95,0.32
0.0,0.0,0.0,0.0,0.0,0.0,0.0,5054,9941.00,0,0,0,1.61,-2.59,-0.14,-0.08,0.96,0.32
0.0,0.0,0.0,0.0,0.0,0.0,0.0,5069,9941.30,0,0,165,1.26,-2.66,0.00,-0.08,0.96,0.32
0.0,0.0,0.0,0.0,0.0,0.0,0.0,5084,9942.30,0,0,0,0.42,-2.66,0.14,-0.08,0.95,0.32
0.0,0.0,0.0,0.0,0.0,0.0,0.0,5092,9941.30,0,0,165,-0.28,-2.45,0.21,-0.08,0.95,0.32
0.0,0.0,0.0,0.0,0.0,0.0,0.0,5107,9941.30,0,0,0,-0.49,-2.38,-0.07,-0.08,0.95,0.33
0.0,0.0,0.0,0.0,0.0,0.0,0.0,5122,9941.30,0,0,165,0.00,-2.45,-0.21,-0.08,0.95,0.33
0.0,0.0,0.0,0.0,0.0,0.0,0.0,5130,9940.40,0,0,0,1.12,-2.52,-0.28,-0.07,0.95,0.33
0.0,0.0,0.0,0.0,0.0,0.0,0.0,5144,9940.10,0,0,165,2.10,-2.52,-0.28,-0.07,0.95,0.32
0.0,0.0,0.0,0.0,0.0,0.0,0.0,5159,9941.30,0,0,0,2.31,-2.38,-0.35,-0.08,0.95,0.33
0.0,0.0,0.0,0.0,0.0,0.0,0.0,5167,9941.30,0,0,165,1.54,-2.38,-0.14,-0.08,0.95,0.33
0.0,0.0,0.0,0.0,0.0,0.0,0.0,5181,9941.30,0,0,0,0.91,-2.38,0.07,-0.08,0.96,0.32
0.0,0.0,0.0,0.0,0.0,0.0,0.0,5196,9941.30,0,0,165,0.56,-2.38,0.07,-0.07,0.96,0.32
0.0,0.0,0.0,0.0,0.0,0.0,0.0,5204,9941.30,0,0,0,0.70,-2.52,0.07,-0.08,0.96,0.32
0.0,0.0,0.0,0.0,0.0,0.0,0.0,5220,9942.00,0,0,165,0.84,-2.59,0.28,-0.07,0.96,0.32
0.0,0.0,0.0,0.0,0.0,0.0,0.0,5234,9940.40,0,0,0,1.05,-2.52,0.35,-0.07,0.95,0.32
0.0,0.0,0.0,0.0,0.0,0.0,0.0,5242,9941.00,0,0,165,0.63,-2.59,0.42,-0.08,0.95,0.32
0.0,0.0,0.0,0.0,0.0,0.0,0.0,5257,9941.00,0,0,0,0.07,-2.59,0.14,-0.08,0.95,0.32
0.0,0.0,0.0,0.0,0.0,0.0,0.0,5272,9941.30,0,0,165,0.14,-2.52,0.07,-0.08,0.95,0.33
0.0,0.0,0.0,0.0,0.0,0.0,0.0,5279,9941.30,0,0,0,0.49,-2.59,0.07,-0.08,0.95,0.33
0.0,0.0,0.0,0.0,0.0,0.0,0.0,5294,9940.40,0,0,165,1.19,-2.52,-0.21,-0.08,0.95,0.33
0.0,0.0,0.0,0.0,0.0,0.0,0.0,5310,9941.70,0,0,0,1.68,-2.59,-0.28,-0.08,0.95,0.32
0.0,0.0,0.0,0.0,0.0,0.0,0.0,5316,9941.00,0,0,165,1.61,-2.66,-0.14,-0.08,0.95,0.33
0.0,0.0,0.0,0.0,0.0,0.0,0.0,5332,9942.30,0,0,0,1.26,-2.66,-0.14,-0.08,0.95,0.32
0.0,0.0,0.0,0.0,0.0,0.0,0.0,5347,9941.30,0,0,165,0.84,-2.59,0.14,-0.08,0.95,0.32
0.5888672,-0.034278054,-2.7431548E-4,0.0069600996,-0.07,0.95,0.32,15374,9942.00,0,0,0,-1.47,-2.52,0.42,-0.07,0.95,0.32
-1.0107422,-0.036278054,-0.0022743195,0.0069600996,-0.08,0.95,0.32,15376,9940.40,0,0,165,-1.61,-2.66,0.42,-0.08,0.95,0.32
-0.111328125,-0.025278054,-0.0022743195,0.0029600998,-0.08,0.95,0.32,15389,9941.30,0,0,0,-0.84,-2.66,0.14,-0.08,0.95,0.32
-0.4111328,-0.006278054,-0.0012743175,-3.9900304E-5,-0.08,0.95,0.33,15399,9941.00,0,0,165,0.49,-2.59,-0.07,-0.08,0.95,0.33
-1.0107422,0.022721944,-2.7431548E-4,-0.0040399004,-0.08,0.95,0.33,15412,9940.40,0,0,0,2.52,-2.52,-0.35,-0.08,0.95,0.33
-0.7109375,0.036721945,7.256828E-4,-0.0050398996,-0.08,0.96,0.32,15427,9940.70,0,0,165,3.50,-2.45,-0.42,-0.08,0.96,0.32
-0.111328125,0.037721947,-2.7431548E-4,-0.0050398996,-0.08,0.95,0.32,15434,9941.30,0,0,0,3.57,-2.52,-0.42,-0.08,0.95,0.32
0.2890625,0.017721947,-2.7431548E-4,-3.9900304E-5,-0.07,0.96,0.32,15449,9941.70,0,0,165,2.17,-2.52,-0.07,-0.07,0.96,0.32
0.8886719,-0.006278054,-2.7431548E-4,0.0049601,-0.07,0.96,0.32,15464,9942.30,0,0,0,0.49,-2.52,0.28,-0.07,0.96,0.32
0.5888672,-0.028278053,-2.7431548E-4,0.0049601,-0.07,0.95,0.32,15475,9942.00,0,0,165,-1.05,-2.52,0.28,-0.07,0.95,0.32
-0.111328125,-0.035278052,7.256828E-4,0.0029600998,-0.07,0.96,0.32,15490,9941.30,0,0,0,-1.54,-2.45,0.14,-0.07,0.96,0.32
-0.111328125,-0.022278054,7.256828E-4,0.0039600995,-0.07,0.96,0.32,15501,9941.30,0,0,165,-0.63,-2.45,0.21,-0.07,0.96,0.32
-0.111328125,7.2194636E-4,7.256828E-4,-0.0010399004,-0.08,0.96,0.32,15509,9941.30,0,0,0,0.98,-2.45,-0.14,-0.08,0.96,0.32
-0.111328125,0.017721947,7.256828E-4,-0.0040399004,-0.07,0.95,0.32,15524,9941.30,0,0,165,2.17,-2.45,-0.35,-0.07,0.95,0.32
-0.111328125,0.022721944,0.0017256811,-0.0060399007,-0.07,0.95,0.32,15539,9941.30,0,0,0,2.52,-2.38,-0.49,-0.07,0.95,0.32
0.8886719,0.015721945,0.0027256832,-0.0030399004,-0.08,0.95,0.32,15551,9942.30,0,0,165,2.03,-2.31,-0.28,-0.08,0.95,0.32
-0.111328125,7.2194636E-4,0.0017256811,-0.0020399,-0.07,0.95,0.32,15563,9941.30,0,0,0,0.98,-2.38,-0.21,-0.07,0.95,0.32
0.8886719,-0.008278054,7.256828E-4,9.6009974E-4,-0.08,0.95,0.32,15576,9942.30,0,0,165,0.35,-2.45,0.00,-0.08,0.95,0.32
-0.111328125,-0.012278054,7.256828E-4,9.6009974E-4,-0.07,0.95,0.32,15584,9941.30,0,0,0,0.07,-2.45,0.00,-0.07,0.95,0.32
0.8886719,-0.0072780545,7.256828E-4,0.0019600997,-0.08,0.96,0.32,15600,9942.30,0,0,165,0.42,-2.45,0.07,-0.08,0.96,0.32
-0.4111328,0.0017219456,0.0017256811,9.6009974E-4,-0.08,0.95,0.32,15613,9941.00,0,0,0,1.05,-2.38,0.00,-0.08,0.95,0.32
0.8886719,0.0067219455,-2.7431548E-4,-0.0010399004,-0.08,0.95,0.32,15622,9942.30,0,0,165,1.40,-2.52,-0.14,-0.08,0.95,0.32
-0.111328125,0.004721945,-2.7431548E-4,-0.0020399,-0.08,0.95,0.32,15637,9941.30,0,0,0,1.26,-2.52,-0.21,-0.08,0.95,0.32
0.8886719,0.0027219467,-2.7431548E-4,-3.9900304E-5,-0.08,0.95,0.32,15654,9942.30,0,0,165,1.12,-2.52,-0.07,-0.08,0.95,0.32
-0.111328125,-0.0012780549,-0.0012743175,9.6009974E-4,-0.08,0.95,0.32,15670,9941.30,0,0,0,0.84,-2.59,0.00,-0.08,0.95,0.32
0.5888672,-0.0052780537,7.256828E-4,-3.9900304E-5,-0.08,0.95,0.32,15674,9942.00,0,0,165,0.56,-2.45,-0.07,-0.08,0.95,0.32
0.2890625,-0.006278054,-2.7431548E-4,-3.9900304E-5,-0.08,0.96,0.32,15690,9941.70,0,0,0,0.49,-2.52,-0.07,-0.08,0.96,0.32
-0.111328125,-0.006278054,7.256828E-4,9.6009974E-4,-0.08,0.95,0.32,15696,9941.30,0,0,165,0.49,-2.45,0.00,-0.08,0.95,0.32
0.2890625,-2.780538E-4,-2.7431548E-4,0.0019600997,-0.08,0.95,0.32,15716,9941.70,0,0,0,0.91,-2.52,0.07,-0.08,0.95,0.32
-0.111328125,0.0077219456,-0.0012743175,-3.9900304E-5,-0.08,0.95,0.32,15727,9941.30,0,0,165,1.47,-2.59,-0.07,-0.08,0.95,0.32
-0.111328125,0.012721946,7.256828E-4,-3.9900304E-5,-0.07,0.95,0.32,15734,9941.30,0,0,0,1.82,-2.45,-0.07,-0.07,0.95,0.32
-0.111328125,0.014721947,-2.7431548E-4,-3.9900304E-5,-0.08,0.95,0.32,15749,9941.30,0,0,165,1.96,-2.52,-0.07,-0.08,0.95,0.32
0.2890625,0.012721946,0.0017256811,0.0019600997,-0.07,0.95,0.32,15764,9941.70,0,0,0,1.82,-2.38,0.07,-0.07,0.95,0.32
-0.111328125,0.0037219469,7.256828E-4,0.0019600997,-0.07,0.95,0.32,15772,9941.30,0,0,165,1.19,-2.45,0.07,-0.07,0.95,0.32
-0.111328125,-0.008278054,0.0027256832,0.0029600998,-0.07,0.96,0.32,15787,9941.30,0,0,0,0.35,-2.31,0.14,-0.07,0.96,0.32
-0.111328125,-0.013278054,0.0017256811,0.0039600995,-0.07,0.95,0.32,15802,9941.30,0,0,165,0.00,-2.38,0.21,-0.07,0.95,0.32
-0.111328125,-0.015278054,7.256828E-4,0.0039600995,-0.07,0.95,0.32,15809,9941.30,0,0,0,-0.14,-2.45,0.21,-0.07,0.95,0.32
-0.111328125,-0.0102780545,-2.7431548E-4,-0.0020399,-0.08,0.95,0.32,15824,9941.30,0,0,165,0.21,-2.52,-0.21,-0.08,0.95,0.32
-1.0107422,-0.0022780541,-2.7431548E-4,-3.9900304E-5,-0.08,0.95,0.32,15838,9940.40,0,0,0,0.77,-2.52,-0.07,-0.08,0.95,0.32
-0.4111328,0.005721947,0.0017256811,-0.0010399004,-0.07,0.95,0.32,15847,9941.00,0,0,165,1.33,-2.38,-0.14,-0.07,0.95,0.32
0.8886719,0.011721946,7.256828E-4,-0.0010399004,-0.08,0.95,0.32,15869,9942.30,0,0,0,1.75,-2.45,-0.14,-0.08,0.95,0.32
-0.4111328,0.009721946,7.256828E-4,-0.0010399004,-0.07,0.96,0.32,15876,9941.00,0,0,165,1.61,-2.45,-0.14,-0.07,0.96,0.32
-0.111328125,0.004721945,7.256828E-4,9.6009974E-4,-0.08,0.96,0.32,15883,9941.30,0,0,0,1.26,-2.45,0.00,-0.08,0.96,0.32
-0.111328125,-2.780538E-4,0.0017256811,-0.0010399004,-0.08,0.95,0.32,15899,9941.30,0,0,165,0.91,-2.38,-0.14,-0.08,0.95,0.32
-0.4111328,-0.0072780545,7.256828E-4,9.6009974E-4,-0.07,0.95,0.32,15914,9941.00,0,0,0,0.42,-2.45,0.00,-0.07,0.95,0.32
-0.4111328,-0.006278054,-2.7431548E-4,0.0039600995,-0.07,0.95,0.32,15921,9941.00,0,0,165,0.49,-2.52,0.21,-0.07,0.95,0.32
-0.111328125,-0.0052780537,0.0017256811,9.6009974E-4,-0.08,0.96,0.32,15936,9941.30,0,0,0,0.56,-2.38,0.00,-0.08,0.96,0.32
-0.4111328,-0.0022780541,-2.7431548E-4,-3.9900304E-5,-0.08,0.95,0.32,15952,9941.00,0,0,165,0.77,-2.52,-0.07,-0.08,0.95,0.32
-1.3115234,7.2194636E-4,-0.0012743175,9.6009974E-4,-0.07,0.95,0.32,15959,9940.10,0,0,0,0.98,-2.59,0.00,-0.07,0.95,0.32
0.8886719,0.0037219469,7.256828E-4,-0.0010399004,-0.07,0.96,0.32,15974,9942.30,0,0,165,1.19,-2.45,-0.14,-0.07,0.96,0.32
0.5888672,0.004721945,7.256828E-4,-0.0010399004,-0.08,0.96,0.32,15991,9942.00,0,0,0,1.26,-2.45,-0.14,-0.08,0.96,0.32
-0.111328125,0.004721945,-2.7431548E-4,-3.9900304E-5,-0.08,0.96,0.32,15996,9941.30,0,0,165,1.26,-2.52,-0.07,-0.08,0.96,0.32
-0.111328125,0.0027219467,-2.7431548E-4,9.6009974E-4,-0.08,0.95,0.32,16011,9941.30,0,0,0,1.12,-2.52,0.00,-0.08,0.95,0.32
-0.111328125,-0.0022780541,-2.7431548E-4,9.6009974E-4,-0.08,0.95,0.32,16030,9941.30,0,0,165,0.77,-2.52,0.00,-0.08,0.95,0.32
-0.111328125,-0.0052780537,7.256828E-4,-3.9900304E-5,-0.08,0.95,0.32,16034,9941.30,0,0,0,0.56,-2.45,-0.07,-0.08,0.95,0.32
-0.4111328,-0.0052780537,-2.7431548E-4,0.0019600997,-0.08,0.96,0.32,16048,9941.00,0,0,165,0.56,-2.52,0.07,-0.08,0.96,0.32
-0.4111328,7.2194636E-4,7.256828E-4,9.6009974E-4,-0.08,0.96,0.32,16064,9941.00,0,0,0,0.98,-2.45,0.00,-0.08,0.96,0.32
-0.111328125,0.0037219469,-0.0012743175,-3.9900304E-5,-0.07,0.96,0.32,16072,9941.30,0,0,165,1.19,-2.59,-0.07,-0.07,0.96,0.32
-0.111328125,0.0037219469,-2.7431548E-4,9.6009974E-4,-0.08,0.96,0.32,16087,9941.30,0,0,0,1.19,-2.52,0.00,-0.08,0.96,0.32
-0.4111328,0.0027219467,-2.7431548E-4,9.6009974E-4,-0.08,0.95,0.32,16101,9941.00,0,0,165,1.12,-2.52,0.00,-0.08,0.95,0.32
-0.4111328,-0.0022780541,7.256828E-4,9.6009974E-4,-0.08,0.95,0.32,16109,9941.00,0,0,0,0.77,-2.45,0.00,-0.08,0.95,0.32
-0.111328125,-0.006278054,7.256828E-4,0.0019600997,-0.07,0.95,0.32,16124,9941.30,0,0,165,0.49,-2.45,0.07,-0.07,0.95,0.32
-1.0107422,-0.0042780545,-2.7431548E-4,-3.9900304E-5,-0.08,0.95,0.32,16139,9940.40,0,0,0,0.63,-2.52,-0.07,-0.08,0.95,0.32
-0.111328125,0.0017219456,7.256828E-4,0.0019600997,-0.07,0.95,0.32,16147,9941.30,0,0,165,1.05,-2.45,0.07,-0.07,0.95,0.32
-0.111328125,0.004721945,-2.7431548E-4,-0.0020399,-0.08,0.95,0.32,16161,9941.30,0,0,0,1.26,-2.52,-0.21,-0.08,0.95,0.32
0.5888672,0.009721946,0.0017256811,9.6009974E-4,-0.08,0.95,0.32,16177,9942.00,0,0,165,1.61,-2.38,0.00,-0.08,0.95,0.32
0.8886719,0.0067219455,-2.7431548E-4,9.6009974E-4,-0.08,0.95,0.32,16184,9942.30,0,0,0,1.40,-2.52,0.00,-0.08,0.95,0.32
-0.111328125,0.0017219456,-2.7431548E-4,-3.9900304E-5,-0.08,0.96,0.32,16199,9941.30,0,0,165,1.05,-2.52,-0.07,-0.08,0.96,0.32
0.8886719,-0.008278054,-2.7431548E-4,9.6009974E-4,-0.08,0.95,0.32,16214,9942.30,0,0,0,0.35,-2.52,0.00,-0.08,0.95,0.32
-0.111328125,-0.012278054,7.256828E-4,0.0029600998,-0.08,0.95,0.32,16222,9941.30,0,0,165,0.07,-2.45,0.14,-0.08,0.95,0.32
-0.4111328,-0.011278054,-0.0012743175,0.0029600998,-0.08,0.95,0.32,16237,9941.00,0,0,0,0.14,-2.59,0.14,-0.08,0.95,0.32
-0.111328125,-0.0052780537,-2.7431548E-4,0.0029600998,-0.08,0.95,0.32,16244,9941.30,0,0,165,0.56,-2.52,0.14,-0.08,0.95,0.32
-0.4111328,0.0037219469,-0.0012743175,9.6009974E-4,-0.08,0.96,0.32,16259,9941.00,0,0,0,1.19,-2.59,0.00,-0.08,0.96,0.32
-1.0107422,0.012721946,0.0017256811,-0.0010399004,-0.07,0.95,0.32,16274,9940.40,0,0,165,1.82,-2.38,-0.14,-0.07,0.95,0.32
-0.111328125,0.012721946,-2.7431548E-4,-0.0040399004,-0.08,0.95,0.32,16281,9941.30,0,0,0,1.82,-2.52,-0.35,-0.08,0.95,0.32
-0.111328125,0.011721946,-0.0032743178,-0.0030399004,-0.08,0.96,0.32,16296,9941.30,0,0,165,1.75,-2.73,-0.28,-0.08,0.96,0.32
-1.0107422,0.004721945,-0.0022743195,9.6009974E-4,-0.08,0.96,0.32,16312,9940.40,0,0,0,1.26,-2.66,0.00,-0.08,0.96,0.32
-0.4111328,-0.008278054,-0.0022743195,0.0039600995,-0.08,0.95,0.32,16319,9941.00,0,0,165,0.35,-2.66,0.21,-0.08,0.95,0.32
-0.111328125,-0.018278055,7.256828E-4,0.0049601,-0.08,0.95,0.32,16334,9941.30,0,0,0,-0.35,-2.45,0.28,-0.08,0.95,0.32
-0.4111328,-0.021278054,7.256828E-4,0.0019600997,-0.08,0.96,0.32,16349,9941.00,0,0,165,-0.56,-2.45,0.07,-0.08,0.96,0.32
-0.111328125,-0.012278054,7.256828E-4,-3.9900304E-5,-0.07,0.95,0.32,16374,9941.30,0,0,0,0.07,-2.45,-0.07,-0.07,0.95,0.32
-0.4111328,7.2194636E-4,-0.0012743175,-0.0030399004,-0.07,0.95,0.32,16380,9941.00,0,0,165,0.98,-2.59,-0.28,-0.07,0.95,0.32
-0.111328125,0.015721945,-0.0012743175,-0.0030399004,-0.07,0.95,0.32,16388,9941.30,0,0,0,2.03,-2.59,-0.28,-0.07,0.95,0.32
-0.4111328,0.018721947,7.256828E-4,-0.0030399004,-0.08,0.95,0.32,16394,9941.00,0,0,165,2.24,-2.45,-0.28,-0.08,0.95,0.32
0.8886719,0.012721946,0.0027256832,-0.0010399004,-0.08,0.95,0.32,16409,9942.30,0,0,0,1.82,-2.31,-0.14,-0.08,0.95,0.32
-0.111328125,0.0027219467,0.0017256811,-0.0010399004,-0.08,0.96,0.32,16424,9941.30,0,0,165,1.12,-2.38,-0.14,-0.08,0.96,0.32
0.8886719,-0.0012780549,0.0027256832,0.0039600995,-0.08,0.96,0.32,16432,9942.30,0,0,0,0.84,-2.31,0.21,-0.08,0.96,0.32
0.8886719,-0.0032780543,-2.7431548E-4,0.0039600995,-0.08,0.96,0.32,16446,9942.30,0,0,165,0.70,-2.52,0.21,-0.08,0.96,0.32
-0.111328125,-0.0012780549,-0.0022743195,0.0039600995,-0.08,0.96,0.32,16462,9941.30,0,0,0,0.84,-2.66,0.21,-0.08,0.96,0.32
0.5888672,7.2194636E-4,7.256828E-4,0.0059600994,-0.07,0.96,0.32,16470,9942.00,0,0,165,0.98,-2.45,0.35,-0.07,0.96,0.32
-0.111328125,-0.006278054,-2.7431548E-4,0.0079601,-0.08,0.95,0.32,16484,9941.30,0,0,0,0.49,-2.52,0.49,-0.08,0.95,0.32
0.8886719,-0.012278054,7.256828E-4,0.0049601,-0.07,0.95,0.32,16499,9942.30,0,0,165,0.07,-2.45,0.28,-0.07,0.95,0.32
-0.111328125,-0.0102780545,0.0027256832,0.0029600998,-0.08,0.95,0.32,16507,9941.30,0,0,0,0.21,-2.31,0.14,-0.08,0.95,0.32
-0.4111328,-0.0052780537,-2.7431548E-4,0.0019600997,-0.08,0.95,0.32,16521,9941.00,0,0,165,0.56,-2.52,0.07,-0.08,0.95,0.32
0.8886719,0.0067219455,7.256828E-4,-0.0010399004,-0.08,0.96,0.33,16536,9942.30,0,0,0,1.40,-2.45,-0.14,-0.08,0.96,0.33
-0.4111328,0.010721944,-2.7431548E-4,-0.0010399004,-0.08,0.95,0.33,16544,9941.00,0,0,165,1.68,-2.52,-0.14,-0.08,0.95,0.33
-0.111328125,0.008721946,0.0017256811,-3.9900304E-5,-0.08,0.95,0.32,16559,9941.30,0,0,0,1.54,-2.38,-0.07,-0.08,0.95,0.32
-0.111328125,0.0017219456,-0.0012743175,-3.9900304E-5,-0.07,0.95,0.32,16574,9941.30,0,0,165,1.05,-2.59,-0.07,-0.07,0.95,0.32
0.2890625,-0.008278054,-0.0022743195,-3.9900304E-5,-0.07,0.95,0.32,16582,9941.70,0,0,0,0.35,-2.66,-0.07,-0.07,0.95,0.32
-0.111328125,-0.013278054,7.256828E-4,0.0019600997,-0.07,0.95,0.32,16597,9941.30,0,0,165,0.00,-2.45,0.07,-0.07,0.95,0.32
-0.4111328,-0.008278054,-0.0012743175,0.0029600998,-0.08,0.95,0.32,16611,9941.00,0,0,0,0.35,-2.59,0.14,-0.08,0.95,0.32
-0.4111328,0.005721947,0.0027256832,9.6009974E-4,-0.08,0.96,0.32,16619,9941.00,0,0,165,1.33,-2.31,0.00,-0.08,0.96,0.32
-0.4111328,0.014721947,0.0017256811,-3.9900304E-5,-0.07,0.96,0.32,16633,9941.00,0,0,0,1.96,-2.38,-0.07,-0.07,0.96,0.32
-0.111328125,0.015721945,0.0017256811,-3.9900304E-5,-0.07,0.96,0.32,16649,9941.30,0,0,165,2.03,-2.38,-0.07,-0.07,0.96,0.32
0.5888672,0.0077219456,0.0027256832,-3.9900304E-5,-0.07,0.96,0.32,16657,9942.00,0,0,0,1.47,-2.31,-0.07,-0.07,0.96,0.32
0.5888672,-0.0052780537,-0.0012743175,-3.9900304E-5,-0.07,0.95,0.32,16672,9942.00,0,0,165,0.56,-2.59,-0.07,-0.07,0.95,0.32
0.8886719,-0.016278055,0.0017256811,0.0039600995,-0.08,0.95,0.32,16686,9942.30,0,0,0,-0.21,-2.38,0.21,-0.08,0.95,0.32
-0.4111328,-0.024278054,-2.7431548E-4,0.0029600998,-0.08,0.96,0.32,16694,9941.00,0,0,165,-0.77,-2.52,0.14,-0.08,0.96,0.32
0.8886719,-0.017278055,-2.7431548E-4,9.6009974E-4,-0.08,0.95,0.33,16709,9942.30,0,0,0,-0.28,-2.52,0.00,-0.08,0.95,0.33
-0.111328125,-0.0022780541,-2.7431548E-4,-3.9900304E-5,-0.08,0.96,0.32,16724,9941.30,0,0,165,0.77,-2.52,-0.07,-0.08,0.96,0.32
-1.0107422,0.018721947,-2.7431548E-4,-0.0060399007,-0.08,0.96,0.32,16731,9940.40,0,0,0,2.24,-2.52,-0.49,-0.08,0.96,0.32
-0.111328125,0.032721944,7.256828E-4,-0.0060399007,-0.08,0.95,0.32,16747,9941.30,0,0,165,3.22,-2.45,-0.49,-0.08,0.95,0.32
0.8886719,0.030721946,7.256828E-4,-0.0040399004,-0.07,0.96,0.32,16762,9942.30,0,0,0,3.08,-2.45,-0.35,-0.07,0.96,0.32
-1.0107422,0.012721946,-0.0012743175,-0.0020399,-0.07,0.95,0.32,16770,9940.40,0,0,165,1.82,-2.59,-0.21,-0.07,0.95,0.32
-0.111328125,-0.016278055,-2.7431548E-4,0.0029600998,-0.07,0.95,0.32,16784,9941.30,0,0,0,-0.21,-2.52,0.14,-0.07,0.95,0.32
-0.111328125,-0.033278055,-0.0022743195,0.0039600995,-0.08,0.95,0.32,16799,9941.30,0,0,165,-1.40,-2.66,0.21,-0.08,0.95,0.32
0.5888672,-0.037278052,-0.0012743175,0.0069600996,-0.08,0.96,0.32,16807,9942.00,0,0,0,-1.68,-2.59,0.42,-0.08,0.96,0.32
-0.111328125,-0.026278054,-2.7431548E-4,0.0049601,-0.08,0.95,0.33,16821,9941.30,0,0,165,-0.91,-2.52,0.28,-0.08,0.95,0.33
-0.111328125,-2.780538E-4,-2.7431548E-4,-3.9900304E-5,-0.08,0.95,0.33,16836,9941.30,0,0,0,0.91,-2.52,-0.07,-0.08,0.95,0.33
-0.4111328,0.014721947,-0.0012743175,-0.0030399004,-0.08,0.95,0.32,16844,9941.00,0,0,165,1.96,-2.59,-0.28,-0.08,0.95,0.32
0.8886719,0.026721945,-2.7431548E-4,-0.0050398996,-0.08,0.95,0.32,16858,9942.30,0,0,0,2.80,-2.52,-0.42,-0.08,0.95,0.32
-0.111328125,0.024721948,-0.0012743175,-0.0040399004,-0.07,0.95,0.32,16874,9941.30,0,0,165,2.66,-2.59,-0.35,-0.07,0.95,0.32
-0.111328125,0.015721945,-2.7431548E-4,-0.0040399004,-0.08,0.95,0.32,16881,9941.30,0,0,0,2.03,-2.52,-0.35,-0.08,0.95,0.32
-0.111328125,0.004721945,7.256828E-4,9.6009974E-4,-0.07,0.95,0.32,16896,9941.30,0,0,165,1.26,-2.45,0.00,-0.07,0.95,0.32
-0.111328125,-0.0072780545,7.256828E-4,0.0019600997,-0.07,0.96,0.32,16912,9941.30,0,0,0,0.42,-2.45,0.07,-0.07,0.96,0.32
-0.111328125,-0.014278054,0.0017256811,0.0049601,-0.07,0.96,0.32,16919,9941.30,0,0,165,-0.07,-2.38,0.28,-0.07,0.96,0.32
0.8886719,-0.014278054,0.0017256811,0.0049601,-0.08,0.96,0.32,16934,9942.30,0,0,0,-0.07,-2.38,0.28,-0.08,0.96,0.32
0.8886719,-0.012278054,-2.7431548E-4,9.6009974E-4,-0.08,0.95,0.32,16949,9942.30,0,0,165,0.07,-2.52,0.00,-0.08,0.95,0.32
0.8886719,-0.0072780545,7.256828E-4,0.0029600998,-0.08,0.95,0.33,16956,9942.30,0,0,0,0.42,-2.45,0.14,-0.08,0.95,0.33
-0.111328125,-0.0022780541,7.256828E-4,9.6009974E-4,-0.07,0.95,0.32,16971,9941.30,0,0,165,0.77,-2.45,0.00,-0.07,0.95,0.32
-1.0107422,0.0037219469,7.256828E-4,-0.0020399,-0.08,0.96,0.32,16986,9940.40,0,0,0,1.19,-2.45,-0.21,-0.08,0.96,0.32
-0.111328125,0.011721946,-2.7431548E-4,-0.0010399004,-0.08,0.95,0.32,16994,9941.30,0,0,165,1.75,-2.52,-0.14,-0.08,0.95,0.32
0.5888672,0.013721947,7.256828E-4,-0.0030399004,-0.08,0.96,0.32,17009,9942.00,0,0,0,1.89,-2.45,-0.28,-0.08,0.96,0.32
-0.111328125,0.012721946,0.0017256811,-3.9900304E-5,-0.07,0.96,0.32,17024,9941.30,0,0,165,1.82,-2.38,-0.07,-0.07,0.96,0.32
0.8886719,0.005721947,7.256828E-4,0.0029600998,-0.07,0.95,0.32,17031,9942.30,0,0,0,1.33,-2.45,0.14,-0.07,0.95,0.32
-0.111328125,-0.0042780545,7.256828E-4,9.6009974E-4,-0.08,0.95,0.32,17046,9941.30,0,0,165,0.63,-2.45,0.00,-0.08,0.95,0.32
-0.4111328,-0.014278054,7.256828E-4,0.0029600998,-0.07,0.95,0.32,17062,9941.00,0,0,0,-0.07,-2.45,0.14,-0.07,0.95,0.32
-0.4111328,-0.014278054,-2.7431548E-4,0.0029600998,-0.08,0.96,0.32,17068,9941.00,0,0,165,-0.07,-2.52,0.14,-0.08,0.96,0.32
-0.4111328,-0.0102780545,-0.0012743175,-0.0010399004,-0.08,0.96,0.32,17083,9941.00,0,0,0,0.21,-2.59,-0.14,-0.08,0.96,0.32
-0.111328125,-0.0012780549,-0.0012743175,-3.9900304E-5,-0.08,0.95,0.32,17098,9941.30,0,0,165,0.84,-2.59,-0.07,-0.08,0.95,0.32
-0.111328125,0.008721946,-0.0012743175,-3.9900304E-5,-0.08,0.95,0.32,17106,9941.30,0,0,0,1.54,-2.59,-0.07,-0.08,0.95,0.32
-0.111328125,0.014721947,7.256828E-4,-0.0020399,-0.07,0.95,0.32,17121,9941.30,0,0,165,1.96,-2.45,-0.21,-0.07,0.95,0.32
-0.111328125,0.009721946,-2.7431548E-4,-0.0010399004,-0.07,0.95,0.32,17136,9941.30,0,0,0,1.61,-2.52,-0.14,-0.07,0.95,0.32
-0.4111328,0.0067219455,-2.7431548E-4,-0.0010399004,-0.07,0.96,0.32,17144,9941.00,0,0,165,1.40,-2.52,-0.14,-0.07,0.96,0.32
-0.111328125,-0.0032780543,-0.0012743175,9.6009974E-4,-0.08,0.96,0.32,17158,9941.30,0,0,0,0.70,-2.59,0.00,-0.08,0.96,0.32
-0.111328125,-0.009278053,-0.0012743175,9.6009974E-4,-0.08,0.96,0.32,17173,9941.30,0,0,165,0.28,-2.59,0.00,-0.08,0.96,0.32
0.5888672,-0.013278054,-0.0012743175,0.0039600995,-0.08,0.96,0.32,17182,9942.00,0,0,0,0.00,-2.59,0.21,-0.08,0.96,0.32
0.2890625,-0.012278054,-0.0012743175,0.0029600998,-0.08,0.95,0.33,17197,9941.70,0,0,165,0.07,-2.59,0.14,-0.08,0.95,0.33
-0.4111328,-0.0072780545,-2.7431548E-4,0.0039600995,-0.07,0.95,0.32,17211,9941.00,0,0,0,0.42,-2.52,0.21,-0.07,0.95,0.32
0.5888672,0.0017219456,-0.0012743175,-3.9900304E-5,-0.07,0.95,0.32,17219,9942.00,0,0,165,1.05,-2.59,-0.07,-0.07,0.95,0.32
-1.0107422,0.012721946,7.256828E-4,-3.9900304E-5,-0.07,0.95,0.32,17234,9940.40,0,0,0,1.82,-2.45,-0.07,-0.07,0.95,0.32
-0.111328125,0.017721947,-2.7431548E-4,-0.0010399004,-0.07,0.95,0.32,17249,9941.30,0,0,165,2.17,-2.52,-0.14,-0.07,0.95,0.32
-0.4111328,0.014721947,-2.7431548E-4,-3.9900304E-5,-0.07,0.96,0.32,17256,9941.00,0,0,0,1.96,-2.52,-0.07,-0.07,0.96,0.32
-0.111328125,0.009721946,7.256828E-4,-0.0030399004,-0.08,0.95,0.32,17271,9941.30,0,0,165,1.61,-2.45,-0.28,-0.08,0.95,0.32
0.5888672,-0.0012780549,-0.0012743175,9.6009974E-4,-0.08,0.96,0.32,17286,9942.00,0,0,0,0.84,-2.59,0.00,-0.08,0.96,0.32
-1.0107422,-0.011278054,-0.0022743195,0.0019600997,-0.08,0.95,0.32,17294,9940.40,0,0,165,0.14,-2.66,0.07,-0.08,0.95,0.32
0.8886719,-0.016278055,-0.0012743175,0.0029600998,-0.08,0.96,0.32,17309,9942.30,0,0,0,-0.21,-2.59,0.14,-0.08,0.96,0.32
-0.4111328,-0.016278055,-0.0012743175,0.0019600997,-0.07,0.95,0.32,17316,9941.00,0,0,165,-0.21,-2.59,0.07,-0.07,0.95,0.32
-0.111328125,-0.0032780543,-2.7431548E-4,0.0029600998,-0.07,0.95,0.32,17331,9941.30,0,0,0,0.70,-2.52,0.14,-0.07,0.95,0.32
-0.111328125,0.0037219469,-2.7431548E-4,9.6009974E-4,-0.08,0.95,0.32,17346,9941.30,0,0,165,1.19,-2.52,0.00,-0.08,0.95,0.32
-0.4111328,0.012721946,-2.7431548E-4,-0.0010399004,-0.07,0.95,0.32,17354,9941.00,0,0,0,1.82,-2.52,-0.14,-0.07,0.95,0.32
0.8886719,0.013721947,-2.7431548E-4,9.6009974E-4,-0.08,0.95,0.32,17369,9942.30,0,0,165,1.89,-2.52,0.00,-0.08,0.95,0.32
-0.4111328,0.0067219455,-2.7431548E-4,9.6009974E-4,-0.08,0.95,0.32,17384,9941.00,0,0,0,1.40,-2.52,0.00,-0.08,0.95,0.32
-0.4111328,-0.0012780549,-2.7431548E-4,0.0029600998,-0.08,0.96,0.32,17391,9941.00,0,0,165,0.84,-2.52,0.14,-0.08,0.96,0.32
-0.111328125,-0.0072780545,-2.7431548E-4,0.0019600997,-0.08,0.95,0.32,17406,9941.30,0,0,0,0.42,-2.52,0.07,-0.08,0.95,0.32
-0.111328125,-0.011278054,-2.7431548E-4,0.0029600998,-0.08,0.96,0.32,17421,9941.30,0,0,165,0.14,-2.52,0.14,-0.08,0.96,0.32
-0.111328125,-0.008278054,7.256828E-4,0.0039600995,-0.07,0.95,0.32,17429,9941.30,0,0,0,0.35,-2.45,0.21,-0.07,0.95,0.32
-0.4111328,-0.0032780543,-0.0012743175,0.0019600997,-0.08,0.95,0.32,17443,9941.00,0,0,165,0.70,-2.59,0.07,-0.08,0.95,0.32
-1.0107422,0.0037219469,-0.0012743175,0.0029600998,-0.08,0.96,0.32,17459,9940.40,0,0,0,1.19,-2.59,0.14,-0.08,0.96,0.32
-0.111328125,0.008721946,-2.7431548E-4,-3.9900304E-5,-0.08,0.95,0.32,17466,9941.30,0,0,165,1.54,-2.52,-0.07,-0.08,0.95,0.32
0.8886719,0.0077219456,7.256828E-4,-0.0010399004,-0.07,0.96,0.32,17481,9942.30,0,0,0,1.47,-2.45,-0.14,-0.07,0.96,0.32
-0.111328125,0.0067219455,-2.7431548E-4,-0.0010399004,-0.08,0.96,0.32,17496,9941.30,0,0,165,1.40,-2.52,-0.14,-0.08,0.96,0.32
-0.111328125,0.0027219467,-2.7431548E-4,-3.9900304E-5,-0.08,0.95,0.32,17504,9941.30,0,0,0,1.12,-2.52,-0.07,-0.08,0.95,0.32
-0.111328125,7.2194636E-4,-0.0022743195,0.0019600997,-0.08,0.96,0.32,17526,9941.30,0,0,165,0.98,-2.66,0.07,-0.08,0.96,0.32
0.8886719,-0.0052780537,-0.004274316,0.0049601,-0.08,0.96,0.32,17534,9942.30,0,0,0,0.56,-2.80,0.28,-0.08,0.96,0.32
-0.4111328,-0.012278054,-0.0022743195,0.0059600994,-0.08,0.96,0.33,17541,9941.00,0,0,165,0.07,-2.66,0.35,-0.08,0.96,0.33
-0.4111328,-0.013278054,0.0027256832,0.0039600995,-0.08,0.95,0.33,17556,9941.00,0,0,0,0.00,-2.31,0.21,-0.08,0.95,0.33
0.5888672,-0.0102780545,0.0027256832,9.6009974E-4,-0.08,0.95,0.32,17571,9942.00,0,0,165,0.21,-2.31,0.00,-0.08,0.95,0.32
-0.111328125,0.0017219456,0.0027256832,-0.0040399004,-0.07,0.95,0.32,17578,9941.30,0,0,0,1.05,-2.31,-0.35,-0.07,0.95,0.32
-0.111328125,0.013721947,-0.0012743175,-0.0040399004,-0.07,0.96,0.32,17594,9941.30,0,0,165,1.89,-2.59,-0.35,-0.07,0.96,0.32
-0.111328125,0.018721947,-2.7431548E-4,-0.0010399004,-0.07,0.96,0.32,17609,9941.30,0,0,0,2.24,-2.52,-0.14,-0.07,0.96,0.32
-0.4111328,0.0077219456,-0.0012743175,-3.9900304E-5,-0.07,0.95,0.32,17616,9941.00,0,0,165,1.47,-2.59,-0.07,-0.07,0.95,0.32
-0.4111328,-0.011278054,7.256828E-4,9.6009974E-4,-0.08,0.95,0.32,17631,9941.00,0,0,0,0.14,-2.45,0.00,-0.08,0.95,0.32
-0.111328125,-0.022278054,7.256828E-4,0.0019600997,-0.07,0.95,0.32,17646,9941.30,0,0,165,-0.63,-2.45,0.07,-0.07,0.95,0.32
-0.4111328,-0.015278054,0.0017256811,0.0019600997,-0.07,0.96,0.32,17653,9941.00,0,0,0,-0.14,-2.38,0.07,-0.07,0.96,0.32
-0.4111328,0.0027219467,7.256828E-4,9.6009974E-4,-0.07,0.96,0.32,17670,9941.00,0,0,165,1.12,-2.45,0.00,-0.07,0.96,0.32
-0.111328125,0.021721946,-2.7431548E-4,-0.0010399004,-0.08,0.96,0.32,17684,9941.30,0,0,0,2.45,-2.52,-0.14,-0.08,0.96,0.32
-0.111328125,0.023721946,-2.7431548E-4,0.0019600997,-0.08,0.95,0.32,17692,9941.30,0,0,165,2.59,-2.52,0.07,-0.08,0.95,0.32
-1.3115234,0.0077219456,-0.0012743175,0.0039600995,-0.08,0.96,0.32,17706,9940.10,0,0,0,1.47,-2.59,0.21,-0.08,0.96,0.32
-0.111328125,-0.016278055,-0.0022743195,0.0049601,-0.08,0.95,0.32,17721,9941.30,0,0,165,-0.21,-2.66,0.28,-0.08,0.95,0.32
0.8886719,-0.034278054,-0.0012743175,0.0059600994,-0.08,0.95,0.32,17728,9942.30,0,0,0,-1.47,-2.59,0.35,-0.08,0.95,0.32
0.8886719,-0.03127805,-0.0022743195,0.0029600998,-0.08,0.95,0.33,17744,9942.30,0,0,165,-1.26,-2.66,0.14,-0.08,0.95,0.33
-0.111328125,-0.013278054,-2.7431548E-4,0.0019600997,-0.08,0.96,0.33,17759,9941.30,0,0,0,0.00,-2.52,0.07,-0.08,0.96,0.33
-0.111328125,0.011721946,-0.0012743175,-0.0010399004,-0.08,0.95,0.32,17766,9941.30,0,0,165,1.75,-2.59,-0.14,-0.08,0.95,0.32
-0.111328125,0.030721946,-2.7431548E-4,-0.0020399,-0.08,0.96,0.32,17781,9941.30,0,0,0,3.08,-2.52,-0.21,-0.08,0.96,0.32
-0.4111328,0.029721947,-0.0012743175,-0.0030399004,-0.08,0.95,0.32,17788,9941.00,0,0,165,3.01,-2.59,-0.28,-0.08,0.95,0.32
-0.111328125,0.012721946,-0.0022743195,-0.0030399004,-0.08,0.95,0.32,17804,9941.30,0,0,0,1.82,-2.66,-0.28,-0.08,0.95,0.32
-0.4111328,-0.008278054,-2.7431548E-4,0.0019600997,-0.07,0.95,0.32,17819,9941.00,0,0,165,0.35,-2.52,0.07,-0.07,0.95,0.32
-0.4111328,-0.024278054,-0.0022743195,0.0069600996,-0.07,0.95,0.32,17833,9941.00,0,0,0,-0.77,-2.66,0.42,-0.07,0.95,0.32
-0.4111328,-0.022278054,0.0017256811,0.0089601,-0.07,0.95,0.32,17841,9941.00,0,0,165,-0.63,-2.38,0.56,-0.07,0.95,0.32
-0.4111328,-0.009278053,0.0027256832,0.0049601,-0.07,0.95,0.32,17856,9941.00,0,0,0,0.28,-2.31,0.28,-0.07,0.95,0.32
-0.111328125,0.0067219455,0.0027256832,-3.9900304E-5,-0.07,0.96,0.32,17863,9941.30,0,0,165,1.40,-2.31,-0.07,-0.07,0.96,0.32
-0.111328125,0.020721948,0.0037256815,-0.0020399,-0.07,0.96,0.32,17878,9941.30,0,0,0,2.38,-2.24,-0.21,-0.07,0.96,0.32
-1.0107422,0.025721947,-2.7431548E-4,-0.0010399004,-0.07,0.96,0.32,17894,9940.40,0,0,165,2.73,-2.52,-0.14,-0.07,0.96,0.32
0.8886719,0.011721946,0.0017256811,9.6009974E-4,-0.08,0.95,0.32,17901,9942.30,0,0,0,1.75,-2.38,0.00,-0.08,0.95,0.32
-0.4111328,-0.0102780545,7.256828E-4,-0.0020399,-0.07,0.95,0.32,17917,9941.00,0,0,165,0.21,-2.45,-0.21,-0.07,0.95,0.32
-1.3115234,-0.025278054,-2.7431548E-4,0.0019600997,-0.07,0.95,0.32,17932,9940.10,0,0,0,-0.84,-2.52,0.07,-0.07,0.95,0.32
-0.4111328,-0.021278054,7.256828E-4,0.0039600995,-0.08,0.95,0.32,17939,9941.00,0,0,165,-0.56,-2.45,0.21,-0.08,0.95,0.32
2.4892578,-0.0012780549,-2.7431548E-4,0.0019600997,-0.08,0.96,0.32,17954,9943.90,0,0,0,0.84,-2.52,0.07,-0.08,0.96,0.32
0.8886719,0.013721947,-0.0022743195,-0.0010399004,-0.07,0.95,0.32,17969,9942.30,0,0,165,1.89,-2.66,-0.14,-0.07,0.95,0.32
0.5888672,0.024721948,-0.0012743175,-0.0020399,-0.07,0.96,0.32,17976,9942.00,0,0,0,2.66,-2.59,-0.21,-0.07,0.96,0.32
-0.4111328,0.019721946,-0.0012743175,-0.0020399,-0.07,0.95,0.32,17991,9941.00,0,0,165,2.31,-2.59,-0.21,-0.07,0.95,0.32
-0.111328125,0.0067219455,-0.0012743175,9.6009974E-4,-0.08,0.96,0.32,18006,9941.30,0,0,0,1.40,-2.59,0.00,-0.08,0.96,0.32
0.8886719,-0.009278053,-2.7431548E-4,0.0019600997,-0.08,0.95,0.32,18013,9942.30,0,0,165,0.28,-2.52,0.07,-0.08,0.95,0.32
-0.111328125,-0.018278055,-0.0012743175,0.0029600998,-0.08,0.96,0.32,18036,9941.30,0,0,0,-0.35,-2.59,0.14,-0.08,0.96,0.32
-0.4111328,-0.015278054,-0.0022743195,0.0019600997,-0.08,0.96,0.32,18044,9941.00,0,0,165,-0.14,-2.66,0.07,-0.08,0.96,0.32
0.5888672,-0.008278054,-0.0022743195,9.6009974E-4,-0.08,0.95,0.32,18051,9942.00,0,0,0,0.35,-2.66,0.00,-0.08,0.95,0.32
0.5888672,0.0037219469,-2.7431548E-4,-0.0030399004,-0.07,0.96,0.32,18066,9942.00,0,0,165,1.19,-2.52,-0.28,-0.07,0.96,0.32
-0.111328125,0.010721944,-2.7431548E-4,-0.0020399,-0.07,0.95,0.32,18081,9941.30,0,0,0,1.68,-2.52,-0.21,-0.07,0.95,0.32
-0.4111328,0.013721947,-2.7431548E-4,-0.0040399004,-0.08,0.95,0.32,18089,9941.00,0,0,165,1.89,-2.52,-0.35,-0.08,0.95,0.32
-1.0107422,0.009721946,7.256828E-4,-0.0010399004,-0.07,0.95,0.32,18104,9940.40,0,0,0,1.61,-2.45,-0.14,-0.07,0.95,0.32
0.5888672,0.0037219469,-2.7431548E-4,9.6009974E-4,-0.08,0.95,0.32,18119,9942.00,0,0,165,1.19,-2.52,0.00,-0.08,0.95,0.32
-0.111328125,-0.0042780545,7.256828E-4,0.0029600998,-0.07,0.95,0.32,18127,9941.30,0,0,0,0.63,-2.45,0.14,-0.07,0.95,0.32
-0.111328125,-0.009278053,0.0017256811,0.0019600997,-0.08,0.96,0.32,18141,9941.30,0,0,165,0.28,-2.38,0.07,-0.08,0.96,0.32
-0.111328125,-0.011278054,0.0017256811,0.0029600998,-0.07,0.96,0.32,18156,9941.30,0,0,0,0.14,-2.38,0.14,-0.07,0.96,0.32
-0.4111328,-0.009278053,0.0017256811,0.0039600995,-0.07,0.95,0.33,18164,9941.00,0,0,165,0.28,-2.38,0.21,-0.07,0.95,0.33
0.5888672,-0.0012780549,7.256828E-4,0.0019600997,-0.07,0.96,0.32,18179,9942.00,0,0,0,0.84,-2.45,0.07,-0.07,0.96,0.32
-0.111328125,0.0027219467,0.0017256811,-0.0010399004,-0.07,0.95,0.32,18194,9941.30,0,0,165,1.12,-2.38,-0.14,-0.07,0.95,0.32
-0.4111328,0.005721947,0.0017256811,9.6009974E-4,-0.07,0.95,0.32,18201,9941.00,0,0,0,1.33,-2.38,0.00,-0.07,0.95,0.32
-0.4111328,0.0037219469,7.256828E-4,0.0019600997,-0.08,0.95,0.33,18217,9941.00,0,0,165,1.19,-2.45,0.07,-0.08,0.95,0.33
-0.4111328,0.004721945,-2.7431548E-4,9.6009974E-4,-0.08,0.95,0.32,18231,9941.00,0,0,0,1.26,-2.52,0.00,-0.08,0.95,0.32
-0.4111328,0.0017219456,7.256828E-4,0.0029600998,-0.07,0.95,0.32,18239,9941.00,0,0,165,1.05,-2.45,0.14,-0.07,0.95,0.32
0.5888672,-0.0052780537,7.256828E-4,0.0019600997,-0.07,0.95,0.32,18254,9942.00,0,0,0,0.56,-2.45,0.07,-0.07,0.95,0.32
-0.4111328,-0.006278054,-2.7431548E-4,9.6009974E-4,-0.07,0.96,0.32,18269,9941.00,0,0,165,0.49,-2.52,0.00,-0.07,0.96,0.32
0.5888672,-0.0032780543,-0.0012743175,9.6009974E-4,-0.07,0.95,0.32,18277,9942.00,0,0,0,0.70,-2.59,0.00,-0.07,0.95,0.32
0.5888672,0.0027219467,-0.0022743195,-0.0020399,-0.08,0.95,0.32,18291,9942.00,0,0,165,1.12,-2.66,-0.21,-0.08,0.95,0.32
-0.4111328,0.005721947,-2.7431548E-4,9.6009974E-4,-0.08,0.95,0.32,18306,9941.00,0,0,0,1.33,-2.52,0.00,-0.08,0.95,0.32
-0.111328125,0.011721946,-0.0012743175,-0.0010399004,-0.08,0.95,0.32,18314,9941.30,0,0,165,1.75,-2.59,-0.14,-0.08,0.95,0.32
-0.4111328,0.008721946,-0.0012743175,-0.0010399004,-0.08,0.96,0.32,18329,9941.00,0,0,0,1.54,-2.59,-0.14,-0.08,0.96,0.32
0.5888672,0.0017219456,-2.7431548E-4,-0.0010399004,-0.07,0.96,0.32,18344,9942.00,0,0,165,1.05,-2.52,-0.14,-0.07,0.96,0.32
-0.4111328,-0.0032780543,7.256828E-4,0.0019600997,-0.08,0.95,0.32,18352,9941.00,0,0,0,0.70,-2.45,0.07,-0.08,0.95,0.32
-0.111328125,-0.011278054,-0.0022743195,-0.0010399004,-0.08,0.95,0.32,18367,9941.30,0,0,165,0.14,-2.66,-0.14,-0.08,0.95,0.32
-0.4111328,-0.011278054,-0.0012743175,9.6009974E-4,-0.07,0.95,0.32,18389,9941.00,0,0,0,0.14,-2.59,0.00,-0.07,0.95,0.32
0.8886719,-0.0052780537,-2.7431548E-4,-3.9900304E-5,-0.07,0.95,0.32,18391,9942.30,0,0,165,0.56,-2.52,-0.07,-0.07,0.95,0.32
-0.111328125,7.2194636E-4,-0.0012743175,-3.9900304E-5,-0.07,0.95,0.32,18403,9941.30,0,0,0,0.98,-2.59,-0.07,-0.07,0.95,0.32
0.2890625,0.005721947,-2.7431548E-4,-3.9900304E-5,-0.08,0.95,0.32,18420,9941.70,0,0,165,1.33,-2.52,-0.07,-0.08,0.95,0.32
-0.4111328,0.010721944,7.256828E-4,-3.9900304E-5,-0.08,0.95,0.32,18426,9941.00,0,0,0,1.68,-2.45,-0.07,-0.08,0.95,0.32
-0.111328125,0.009721946,-2.7431548E-4,-0.0020399,-0.07,0.95,0.32,18441,9941.30,0,0,165,1.61,-2.52,-0.21,-0.07,0.95,0.32
-0.4111328,0.0037219469,7.256828E-4,-0.0020399,-0.08,0.96,0.32,18456,9941.00,0,0,0,1.19,-2.45,-0.21,-0.08,0.96,0.32
-1.3115234,-0.0012780549,-2.7431548E-4,-3.9900304E-5,-0.07,0.95,0.32,18463,9940.10,0,0,165,0.84,-2.52,-0.07,-0.07,0.95,0.32
-0.4111328,-0.008278054,-2.7431548E-4,-0.0010399004,-0.08,0.95,0.32,18489,9941.00,0,0,0,0.35,-2.52,-0.14,-0.08,0.95,0.32
-0.4111328,-0.012278054,-2.7431548E-4,0.0019600997,-0.08,0.96,0.32,18493,9941.00,0,0,165,0.07,-2.52,0.07,-0.08,0.96,0.32
-0.4111328,-0.008278054,-2.7431548E-4,9.6009974E-4,-0.08,0.95,0.33,18501,9941.00,0,0,0,0.35,-2.52,0.00,-0.08,0.95,0.33
-0.111328125,-0.0012780549,0.0027256832,9.6009974E-4,-0.08,0.95,0.32,18516,9941.30,0,0,165,0.84,-2.31,0.00,-0.08,0.95,0.32
-0.4111328,0.0077219456,0.0027256832,9.6009974E-4,-0.08,0.95,0.32,18531,9941.00,0,0,0,1.47,-2.31,0.00,-0.08,0.95,0.32
0.5888672,0.013721947,0.0027256832,-0.0020399,-0.07,0.96,0.32,18540,9942.00,0,0,165,1.89,-2.31,-0.21,-0.07,0.96,0.32
-0.4111328,0.013721947,0.0027256832,-0.0030399004,-0.08,0.95,0.32,18554,9941.00,0,0,0,1.89,-2.31,-0.28,-0.08,0.95,0.32
0.5888672,0.0077219456,-2.7431548E-4,-0.0030399004,-0.08,0.95,0.32,18561,9942.00,0,0,165,1.47,-2.52,-0.28,-0.08,0.95,0.32
0.5888672,0.0017219456,-0.0012743175,0.0019600997,-0.07,0.95,0.32,18577,9942.00,0,0,0,1.05,-2.59,0.07,-0.07,0.95,0.32
0.5888672,-0.0052780537,-2.7431548E-4,0.0059600994,-0.08,0.95,0.32,18591,9942.00,0,0,165,0.56,-2.52,0.35,-0.08,0.95,0.32
-0.111328125,-0.016278055,-0.0012743175,0.0049601,-0.07,0.96,0.32,18598,9941.30,0,0,0,-0.21,-2.59,0.28,-0.07,0.96,0.32
0.5888672,-0.015278054,0.0027256832,0.0049601,-0.08,0.95,0.32,18614,9942.00,0,0,165,-0.14,-2.31,0.28,-0.08,0.95,0.32
-0.4111328,-0.008278054,0.0017256811,9.6009974E-4,-0.07,0.95,0.32,18629,9941.00,0,0,0,0.35,-2.38,0.00,-0.07,0.95,0.32
-0.111328125,0.004721945,7.256828E-4,-0.0040399004,-0.07,0.95,0.32,18637,9941.30,0,0,165,1.26,-2.45,-0.35,-0.07,0.95,0.32
-1.3115234,0.017721947,-0.0012743175,-0.0050398996,-0.07,0.95,0.32,18652,9940.10,0,0,0,2.17,-2.59,-0.42,-0.07,0.95,0.32
-1.3115234,0.021721946,-0.0022743195,-0.0020399,-0.07,0.96,0.32,18667,9940.10,0,0,165,2.45,-2.66,-0.21,-0.07,0.96,0.32
-0.111328125,0.014721947,-0.0022743195,-0.0010399004,-0.07,0.95,0.32,18674,9941.30,0,0,0,1.96,-2.66,-0.14,-0.07,0.95,0.32
-0.4111328,-0.0022780541,-2.7431548E-4,0.0029600998,-0.08,0.95,0.32,18689,9941.00,0,0,165,0.77,-2.52,0.14,-0.08,0.95,0.32
0.5888672,-0.019278053,-2.7431548E-4,9.6009974E-4,-0.08,0.96,0.33,18704,9942.00,0,0,0,-0.42,-2.52,0.00,-0.08,0.96,0.33
0.5888672,-0.017278055,7.256828E-4,0.0029600998,-0.08,0.96,0.32,18712,9942.00,0,0,165,-0.28,-2.45,0.14,-0.08,0.96,0.32
-0.4111328,-0.0022780541,-2.7431548E-4,9.6009974E-4,-0.08,0.96,0.32,18726,9941.00,0,0,0,0.77,-2.52,0.00,-0.08,0.96,0.32
-0.4111328,0.010721944,-2.7431548E-4,-0.0010399004,-0.08,0.95,0.32,18742,9941.00,0,0,165,1.68,-2.52,-0.14,-0.08,0.95,0.32
0.2890625,0.014721947,-0.0012743175,9.6009974E-4,-0.08,0.96,0.32,18748,9941.70,0,0,0,1.96,-2.59,0.00,-0.08,0.96,0.32
0.8886719,0.005721947,-0.0012743175,0.0039600995,-0.08,0.95,0.32,18764,9942.30,0,0,165,1.33,-2.59,0.21,-0.08,0.95,0.32
0.8886719,-0.0072780545,-0.0012743175,0.0039600995,-0.08,0.95,0.32,18779,9942.30,0,0,0,0.42,-2.59,0.21,-0.08,0.95,0.32
-0.4111328,-0.019278053,-2.7431548E-4,0.0029600998,-0.08,0.95,0.32,18788,9941.00,0,0,165,-0.42,-2.52,0.14,-0.08,0.95,0.32
-0.111328125,-0.015278054,7.256828E-4,9.6009974E-4,-0.08,0.95,0.32,18801,9941.30,0,0,0,-0.14,-2.45,0.00,-0.08,0.95,0.32
0.5888672,-0.0032780543,7.256828E-4,9.6009974E-4,-0.08,0.96,0.32,18816,9942.00,0,0,165,0.70,-2.45,0.00,-0.08,0.96,0.32
-0.4111328,0.0077219456,-2.7431548E-4,-3.9900304E-5,-0.08,0.95,0.33,18824,9941.00,0,0,0,1.47,-2.52,-0.07,-0.08,0.95,0.33
-1.3115234,0.016721945,0.0017256811,-0.0030399004,-0.08,0.95,0.32,18839,9940.10,0,0,165,2.10,-2.38,-0.28,-0.08,0.95,0.32
-0.111328125,0.012721946,7.256828E-4,-0.0020399,-0.08,0.95,0.32,18853,9941.30,0,0,0,1.82,-2.45,-0.21,-0.08,0.95,0.32
-0.4111328,0.0027219467,7.256828E-4,-0.0010399004,-0.08,0.95,0.32,18861,9941.00,0,0,165,1.12,-2.45,-0.14,-0.08,0.95,0.32
-0.4111328,-0.0052780537,-0.0012743175,0.0029600998,-0.07,0.95,0.32,18875,9941.00,0,0,0,0.56,-2.59,0.14,-0.07,0.95,0.32
0.5888672,-0.008278054,7.256828E-4,0.0029600998,-0.07,0.95,0.32,18891,9942.00,0,0,165,0.35,-2.45,0.14,-0.07,0.95,0.32
0.5888672,-0.009278053,0.0027256832,0.0019600997,-0.07,0.95,0.32,18899,9942.00,0,0,0,0.28,-2.31,0.07,-0.07,0.95,0.32
-0.4111328,-0.0022780541,0.0017256811,-0.0010399004,-0.08,0.96,0.32,18913,9941.00,0,0,165,0.77,-2.38,-0.14,-0.08,0.96,0.32
-0.111328125,0.010721944,0.0027256832,-0.0010399004,-0.07,0.96,0.32,18928,9941.30,0,0,0,1.68,-2.31,-0.14,-0.07,0.96,0.32
0.5888672,0.014721947,-2.7431548E-4,-0.0040399004,-0.07,0.95,0.32,18936,9942.00,0,0,165,1.96,-2.52,-0.35,-0.07,0.95,0.32
-0.4111328,0.0067219455,7.256828E-4,-0.0030399004,-0.08,0.95,0.32,18951,9941.00,0,0,0,1.40,-2.45,-0.28,-0.08,0.95,0.32
-1.0107422,-0.006278054,-0.0012743175,-0.0030399004,-0.07,0.95,0.32,18967,9940.40,0,0,165,0.49,-2.59,-0.28,-0.07,0.95,0.32
-1.3115234,-0.015278054,-2.7431548E-4,-3.9900304E-5,-0.08,0.95,0.32,18974,9940.10,0,0,0,-0.14,-2.52,-0.07,-0.08,0.95,0.32
-0.4111328,-0.019278053,-0.0012743175,9.6009974E-4,-0.08,0.95,0.32,18989,9941.00,0,0,165,-0.42,-2.59,0.00,-0.08,0.95,0.32
0.5888672,-0.013278054,-0.0012743175,0.0019600997,-0.08,0.95,0.32,19004,9942.00,0,0,0,0.00,-2.59,0.07,-0.08,0.95,0.32
-0.4111328,0.004721945,0.0017256811,-0.0010399004,-0.08,0.95,0.32,19011,9941.00,0,0,165,1.26,-2.38,-0.14,-0.08,0.95,0.32
-0.4111328,0.018721947,7.256828E-4,-0.0020399,-0.08,0.95,0.33,19027,9941.00,0,0,0,2.24,-2.45,-0.21,-0.08,0.95,0.33
-0.4111328,0.021721946,7.256828E-4,-0.0030399004,-0.08,0.95,0.32,19042,9941.00,0,0,165,2.45,-2.45,-0.28,-0.08,0.95,0.32
-0.4111328,0.016721945,-2.7431548E-4,-0.0020399,-0.08,0.95,0.32,19049,9941.00,0,0,0,2.10,-2.52,-0.21,-0.08,0.95,0.32
0.5888672,0.0017219456,-2.7431548E-4,0.2559601,-0.07,0.96,0.32,19064,9942.00,0,0,165,1.05,-2.52,17.85,-0.07,0.96,0.32
-0.4111328,-0.011278054,-0.0022743195,0.0029600998,-0.08,0.95,0.32,19079,9941.00,0,0,0,0.14,-2.66,0.14,-0.08,0.95,0.32
-1.3115234,-0.019278053,-2.7431548E-4,0.0039600995,-0.08,0.96,0.32,19086,9940.10,0,0,165,-0.42,-2.52,0.21,-0.08,0.96,0.32
0.5888672,-0.018278055,0.0017256811,0.0039600995,-0.08,0.95,0.32,19101,9942.00,0,0,0,-0.35,-2.38,0.21,-0.08,0.95,0.32
-0.4111328,-0.0102780545,-2.7431548E-4,-0.0010399004,-0.07,0.95,0.32,19116,9941.00,0,0,165,0.21,-2.52,-0.14,-0.07,0.95,0.32
-0.4111328,0.0037219469,-0.0012743175,-3.9900304E-5,-0.08,0.95,0.32,19124,9941.00,0,0,0,1.19,-2.59,-0.07,-0.08,0.95,0.32
-0.4111328,0.012721946,-2.7431548E-4,-0.0020399,-0.08,0.95,0.32,19139,9941.00,0,0,165,1.82,-2.52,-0.21,-0.08,0.95,0.32
0.8886719,0.015721945,-2.7431548E-4,-0.0020399,-0.08,0.95,0.32,19154,9942.30,0,0,0,2.03,-2.52,-0.21,-0.08,0.95,0.32
-0.4111328,0.012721946,-2.7431548E-4,-0.0010399004,-0.08,0.95,0.32,19161,9941.00,0,0,165,1.82,-2.52,-0.14,-0.08,0.95,0.32
0.5888672,0.004721945,0.0017256811,-3.9900304E-5,-0.08,0.96,0.32,19177,9942.00,0,0,0,1.26,-2.38,-0.07,-0.08,0.96,0.32
0.5888672,-0.0032780543,7.256828E-4,0.0019600997,-0.08,0.96,0.32,19191,9942.00,0,0,165,0.70,-2.45,0.07,-0.08,0.96,0.32
0.5888672,-0.009278053,7.256828E-4,0.0029600998,-0.08,0.96,0.32,19199,9942.00,0,0,0,0.28,-2.45,0.14,-0.08,0.96,0.32
-0.4111328,-0.012278054,7.256828E-4,0.0029600998,-0.08,0.95,0.32,19213,9941.00,0,0,165,0.07,-2.45,0.14,-0.08,0.95,0.32
-1.3115234,-0.0102780545,7.256828E-4,0.0029600998,-0.08,0.96,0.32,19229,9940.10,0,0,0,0.21,-2.45,0.14,-0.08,0.96,0.32
-0.111328125,-0.0022780541,0.0017256811,0.0029600998,-0.07,0.95,0.32,19236,9941.30,0,0,165,0.77,-2.38,0.14,-0.07,0.95,0.32
-0.4111328,0.0027219467,7.256828E-4,-3.9900304E-5,-0.07,0.95,0.32,19251,9941.00,0,0,0,1.12,-2.45,-0.07,-0.07,0.95,0.32
0.5888672,0.005721947,7.256828E-4,-3.9900304E-5,-0.07,0.95,0.32,19266,9942.00,0,0,165,1.33,-2.45,-0.07,-0.07,0.95,0.32
0.5888672,0.009721946,-2.7431548E-4,-0.0010399004,-0.07,0.95,0.32,19273,9942.00,0,0,0,1.61,-2.52,-0.14,-0.07,0.95,0.32
0.5888672,0.008721946,0.0017256811,-3.9900304E-5,-0.07,0.96,0.32,19289,9942.00,0,0,165,1.54,-2.38,-0.07,-0.07,0.96,0.32
-0.4111328,0.005721947,7.256828E-4,-3.9900304E-5,-0.08,0.96,0.32,19304,9941.00,0,0,0,1.33,-2.45,-0.07,-0.08,0.96,0.32
-0.4111328,-2.780538E-4,-2.7431548E-4,-3.9900304E-5,-0.08,0.96,0.32,19311,9941.00,0,0,165,0.91,-2.52,-0.07,-0.08,0.96,0.32
0.5888672,-0.0042780545,-2.7431548E-4,-3.9900304E-5,-0.07,0.95,0.32,19327,9942.00,0,0,0,0.63,-2.52,-0.07,-0.07,0.95,0.32
-0.111328125,-0.0072780545,-0.0012743175,-3.9900304E-5,-0.07,0.95,0.32,19341,9941.30,0,0,165,0.42,-2.59,-0.07,-0.07,0.95,0.32
0.5888672,-0.008278054,7.256828E-4,-0.0010399004,-0.08,0.95,0.32,19349,9942.00,0,0,0,0.35,-2.45,-0.14,-0.08,0.95,0.32
0.5888672,-0.0022780541,-0.0012743175,-0.0010399004,-0.08,0.95,0.32,19363,9942.00,0,0,165,0.77,-2.59,-0.14,-0.08,0.95,0.32
0.5888672,7.2194636E-4,7.256828E-4,9.6009974E-4,-0.08,0.95,0.32,19378,9942.00,0,0,0,0.98,-2.45,0.00,-0.08,0.95,0.32
0.5888672,0.005721947,-2.7431548E-4,-0.0010399004,-0.07,0.96,0.32,19387,9942.00,0,0,165,1.33,-2.52,-0.14,-0.07,0.96,0.32
-0.4111328,0.0067219455,-2.7431548E-4,-0.0020399,-0.07,0.95,0.32,19401,9941.00,0,0,0,1.40,-2.52,-0.21,-0.07,0.95,0.32
-0.4111328,0.005721947,-2.7431548E-4,-0.0010399004,-0.08,0.95,0.32,19415,9941.00,0,0,165,1.33,-2.52,-0.14,-0.08,0.95,0.32
0.5888672,0.0027219467,-0.0012743175,-3.9900304E-5,-0.07,0.95,0.32,19424,9942.00,0,0,0,1.12,-2.59,-0.07,-0.07,0.95,0.32
-1.3115234,-0.0032780543,-0.0012743175,0.0019600997,-0.08,0.96,0.32,19439,9940.10,0,0,165,0.70,-2.59,0.07,-0.08,0.96,0.32
-0.4111328,-0.0042780545,-0.0022743195,0.25496012,-0.08,0.95,0.32,19454,9941.00,0,0,0,0.63,-2.66,17.78,-0.08,0.95,0.32
-0.4111328,-0.0022780541,-0.0012743175,-3.9900304E-5,-0.07,0.95,0.32,19461,9941.00,0,0,165,0.77,-2.59,-0.07,-0.07,0.95,0.32
0.5888672,-0.0012780549,-0.0012743175,-3.9900304E-5,-0.08,0.95,0.32,19477,9942.00,0,0,0,0.84,-2.59,-0.07,-0.08,0.95,0.32
-0.4111328,0.0017219456,7.256828E-4,-0.0030399004,-0.08,0.95,0.32,19491,9941.00,0,0,165,1.05,-2.45,-0.28,-0.08,0.95,0.32
0.5888672,0.004721945,-2.7431548E-4,9.6009974E-4,-0.08,0.95,0.32,19499,9942.00,0,0,0,1.26,-2.52,0.00,-0.08,0.95,0.32
-0.4111328,0.0017219456,-2.7431548E-4,9.6009974E-4,-0.08,0.95,0.32,19513,9941.00,0,0,165,1.05,-2.52,0.00,-0.08,0.95,0.32
-0.4111328,-2.780538E-4,-2.7431548E-4,-0.0010399004,-0.08,0.95,0.32,19528,9941.00,0,0,0,0.91,-2.52,-0.14,-0.08,0.95,0.32
0.5888672,-0.0032780543,-2.7431548E-4,-3.9900304E-5,-0.08,0.96,0.32,19537,9942.00,0,0,165,0.70,-2.52,-0.07,-0.08,0.96,0.32
-0.4111328,-0.0032780543,0.0017256811,-0.0020399,-0.08,0.95,0.32,19551,9941.00,0,0,0,0.70,-2.38,-0.21,-0.08,0.95,0.32
-0.4111328,-0.0032780543,7.256828E-4,-3.9900304E-5,-0.07,0.95,0.32,19566,9941.00,0,0,165,0.70,-2.45,-0.07,-0.07,0.95,0.32
-0.4111328,7.2194636E-4,-0.0012743175,0.0039600995,-0.07,0.96,0.32,19574,9941.00,0,0,0,0.98,-2.59,0.21,-0.07,0.96,0.32
0.5888672,7.2194636E-4,7.256828E-4,-3.9900304E-5,-0.08,0.95,0.33,19590,9942.00,0,0,165,0.98,-2.45,-0.07,-0.08,0.95,0.33
0.8886719,0.0027219467,-2.7431548E-4,9.6009974E-4,-0.08,0.95,0.32,19604,9942.30,0,0,0,1.12,-2.52,0.00,-0.08,0.95,0.32
-0.4111328,0.0027219467,-2.7431548E-4,-0.0010399004,-0.08,0.95,0.32,19611,9941.00,0,0,165,1.12,-2.52,-0.14,-0.08,0.95,0.32
0.2890625,0.0027219467,-2.7431548E-4,-0.0020399,-0.08,0.96,0.32,19626,9941.70,0,0,0,1.12,-2.52,-0.21,-0.08,0.96,0.32
-0.4111328,0.005721947,-0.0012743175,9.6009974E-4,-0.08,0.95,0.32,19641,9941.00,0,0,165,1.33,-2.59,0.00,-0.08,0.95,0.32
-0.7109375,0.0037219469,-2.7431548E-4,0.0039600995,-0.08,0.95,0.32,19649,9940.70,0,0,0,1.19,-2.52,0.21,-0.08,0.95,0.32
-0.111328125,-0.0012780549,-0.0012743175,0.0039600995,-0.08,0.96,0.32,19663,9941.30,0,0,165,0.84,-2.59,0.21,-0.08,0.96,0.32
-1.0107422,-0.0072780545,-2.7431548E-4,0.0039600995,-0.08,0.96,0.32,19678,9940.40,0,0,0,0.42,-2.52,0.21,-0.08,0.96,0.32
-1.3115234,-0.0102780545,0.0027256832,0.0029600998,-0.08,0.95,0.32,19686,9940.10,0,0,165,0.21,-2.31,0.14,-0.08,0.95,0.32
0.5888672,-0.0102780545,7.256828E-4,-0.0010399004,-0.08,0.95,0.32,19701,9942.00,0,0,0,0.21,-2.45,-0.14,-0.08,0.95,0.32
-0.4111328,-0.0052780537,-0.0012743175,-0.0060399007,-0.08,0.95,0.32,19716,9941.00,0,0,165,0.56,-2.59,-0.49,-0.08,0.95,0.32
0.5888672,0.0067219455,-0.0022743195,-0.0030399004,-0.07,0.96,0.32,19723,9942.00,0,0,0,1.40,-2.66,-0.28,-0.07,0.96,0.32
0.5888672,0.009721946,-0.0012743175,-0.0010399004,-0.07,0.95,0.32,19738,9942.00,0,0,165,1.61,-2.59,-0.14,-0.07,0.95,0.32
-0.4111328,0.004721945,7.256828E-4,-0.0010399004,-0.07,0.95,0.32,19754,9941.00,0,0,0,1.26,-2.45,-0.14,-0.07,0.95,0.32
0.5888672,-2.780538E-4,0.0017256811,-0.0010399004,-0.08,0.96,0.32,19761,9942.00,0,0,165,0.91,-2.38,-0.14,-0.08,0.96,0.32
-0.4111328,-2.780538E-4,-2.7431548E-4,-3.9900304E-5,-0.07,0.96,0.32,19777,9941.00,0,0,0,0.91,-2.52,-0.07,-0.07,0.96,0.32
0.5888672,0.0067219455,7.256828E-4,-0.0010399004,-0.07,0.96,0.32,19791,9942.00,0,0,165,1.40,-2.45,-0.14,-0.07,0.96,0.32
0.5888672,0.009721946,-0.0012743175,-3.9900304E-5,-0.08,0.95,0.32,19799,9942.00,0,0,0,1.61,-2.59,-0.07,-0.08,0.95,0.32
0.5888672,0.0077219456,-0.0022743195,-0.0010399004,-0.08,0.96,0.32,19814,9942.00,0,0,165,1.47,-2.66,-0.14,-0.08,0.96,0.32
0.5888672,-0.0042780545,-0.0012743175,0.0039600995,-0.08,0.95,0.32,19829,9942.00,0,0,0,0.63,-2.59,0.21,-0.08,0.95,0.32
-0.4111328,-0.019278053,-0.0022743195,0.0049601,-0.08,0.95,0.32,19837,9941.00,0,0,165,-0.42,-2.66,0.28,-0.08,0.95,0.32
-0.4111328,-0.028278053,-0.0012743175,0.0019600997,-0.08,0.95,0.32,19851,9941.00,0,0,0,-1.05,-2.59,0.07,-0.08,0.95,0.32
-0.111328125,-0.017278055,-2.7431548E-4,0.0019600997,-0.08,0.95,0.32,19866,9941.30,0,0,165,-0.28,-2.52,0.07,-0.08,0.95,0.32
2.4892578,-0.0022780541,-2.7431548E-4,-0.0010399004,-0.08,0.95,0.33,19874,9943.90,0,0,0,0.77,-2.52,-0.14,-0.08,0.95,0.33
0.5888672,0.015721945,-0.0022743195,-0.0020399,-0.08,0.95,0.32,19889,9942.00,0,0,165,2.03,-2.66,-0.21,-0.08,0.95,0.32
-0.4111328,0.021721946,-0.0012743175,-0.0050398996,-0.08,0.95,0.32,19903,9941.00,0,0,0,2.45,-2.59,-0.42,-0.08,0.95,0.32
-0.4111328,0.015721945,-2.7431548E-4,-0.0030399004,-0.08,0.95,0.32,19911,9941.00,0,0,165,2.03,-2.52,-0.28,-0.08,0.95,0.32
-0.4111328,7.2194636E-4,-0.0012743175,0.0029600998,-0.08,0.95,0.32,19927,9941.00,0,0,0,0.98,-2.59,0.14,-0.08,0.95,0.32
-0.4111328,-0.013278054,-0.0012743175,0.0039600995,-0.07,0.95,0.32,19941,9941.00,0,0,165,0.00,-2.59,0.21,-0.07,0.95,0.32
-0.4111328,-0.020278055,-2.7431548E-4,0.0049601,-0.07,0.95,0.32,19949,9941.00,0,0,0,-0.49,-2.52,0.28,-0.07,0.95,0.32
0.5888672,-0.014278054,7.256828E-4,0.0049601,-0.07,0.95,0.32,19963,9942.00,0,0,165,-0.07,-2.45,0.28,-0.07,0.95,0.32
-0.4111328,-0.0022780541,0.0027256832,0.0019600997,-0.07,0.95,0.32,19979,9941.00,0,0,0,0.77,-2.31,0.07,-0.07,0.95,0.32
0.5888672,0.015721945,0.0027256832,-0.0010399004,-0.07,0.96,0.32,19986,9942.00,0,0,165,2.03,-2.31,-0.14,-0.07,0.96,0.32
-0.4111328,0.025721947,0.0027256832,-0.0010399004,-0.08,0.96,0.32,20001,9941.00,0,0,0,2.73,-2.31,-0.14,-0.08,0.96,0.32
0.2890625,0.020721948,0.0017256811,9.6009974E-4,-0.08,0.96,0.32,20017,9941.70,0,0,165,2.38,-2.38,0.00,-0.08,0.96,0.32
-0.4111328,0.004721945,-2.7431548E-4,-0.0040399004,-0.08,0.96,0.32,20023,9941.00,0,0,0,1.26,-2.52,-0.35,-0.08,0.96,0.32
0.2890625,-0.017278055,-2.7431548E-4,9.6009974E-4,-0.08,0.95,0.32,20040,9941.70,0,0,165,-0.28,-2.52,0.00,-0.08,0.95,0.32
0.5888672,-0.032278053,7.256828E-4,0.0029600998,-0.07,0.95,0.32,20053,9942.00,0,0,0,-1.33,-2.45,0.14,-0.07,0.95,0.32
-0.4111328,-0.03127805,-2.7431548E-4,0.0059600994,-0.08,0.95,0.32,20061,9941.00,0,0,165,-1.26,-2.52,0.35,-0.08,0.95,0.32
0.5888672,-0.0052780537,7.256828E-4,-3.9900304E-5,-0.08,0.96,0.33,20076,9942.00,0,0,0,0.56,-2.45,-0.07,-0.08,0.96,0.33
-0.4111328,0.020721948,0.0017256811,-0.0010399004,-0.07,0.96,0.32,20091,9941.00,0,0,165,2.38,-2.38,-0.14,-0.07,0.96,0.32
0.5888672,0.03872195,0.0017256811,-0.0030399004,-0.07,0.95,0.32,20099,9942.00,0,0,0,3.64,-2.38,-0.28,-0.07,0.95,0.32
-0.111328125,0.036721945,7.256828E-4,-0.0030399004,-0.07,0.95,0.32,20114,9941.30,0,0,165,3.50,-2.45,-0.28,-0.07,0.95,0.32
-0.4111328,0.017721947,7.256828E-4,-0.0030399004,-0.08,0.95,0.32,20129,9941.00,0,0,0,2.17,-2.45,-0.28,-0.08,0.95,0.32
-0.4111328,-0.0102780545,-0.0012743175,-3.9900304E-5,-0.08,0.95,0.32,20137,9941.00,0,0,165,0.21,-2.59,-0.07,-0.08,0.95,0.32
0.5888672,-0.033278055,-0.0022743195,0.0029600998,-0.08,0.95,0.32,20151,9942.00,0,0,0,-1.40,-2.66,0.14,-0.08,0.95,0.32
-0.4111328,-0.037278052,-0.0022743195,0.0039600995,-0.08,0.95,0.32,20166,9941.00,0,0,165,-1.68,-2.66,0.21,-0.08,0.95,0.32
-0.4111328,-0.025278054,-0.0022743195,0.0019600997,-0.08,0.95,0.32,20173,9941.00,0,0,0,-0.84,-2.66,0.07,-0.08,0.95,0.32
0.5888672,-0.0032780543,-2.7431548E-4,-3.9900304E-5,-0.08,0.95,0.32,20190,9942.00,0,0,165,0.70,-2.52,-0.07,-0.08,0.95,0.32
-0.4111328,0.014721947,7.256828E-4,-0.0040399004,-0.07,0.95,0.32,20204,9941.00,0,0,0,1.96,-2.45,-0.35,-0.07,0.95,0.32
-0.4111328,0.027721943,-2.7431548E-4,-0.0060399007,-0.07,0.95,0.32,20211,9941.00,0,0,165,2.87,-2.52,-0.49,-0.07,0.95,0.32
-0.7109375,0.028721945,7.256828E-4,-0.0030399004,-0.08,0.96,0.32,20226,9940.70,0,0,0,2.94,-2.45,-0.28,-0.08,0.96,0.32
-0.4111328,0.016721945,-2.7431548E-4,-3.9900304E-5,-0.08,0.95,0.32,20241,9941.00,0,0,165,2.10,-2.52,-0.07,-0.08,0.95,0.32
0.5888672,-0.0022780541,-2.7431548E-4,-3.9900304E-5,-0.08,0.96,0.32,20248,9942.00,0,0,0,0.77,-2.52,-0.07,-0.08,0.96,0.32
1.1884766,-0.017278055,7.256828E-4,0.0039600995,-0.08,0.96,0.32,20263,9942.60,0,0,165,-0.28,-2.45,0.21,-0.08,0.96,0.32
-0.4111328,-0.027278055,-2.7431548E-4,0.0049601,-0.08,0.95,0.32,20280,9941.00,0,0,0,-0.98,-2.52,0.28,-0.08,0.95,0.32
-0.4111328,-0.023278054,-2.7431548E-4,0.0039600995,-0.07,0.95,0.32,20287,9941.00,0,0,165,-0.70,-2.52,0.21,-0.07,0.95,0.32
0.5888672,-0.009278053,7.256828E-4,9.6009974E-4,-0.07,0.95,0.32,20302,9942.00,0,0,0,0.28,-2.45,0.00,-0.07,0.95,0.32
-0.4111328,0.0067219455,7.256828E-4,-0.0030399004,-0.08,0.95,0.33,20316,9941.00,0,0,165,1.40,-2.45,-0.28,-0.08,0.95,0.33
0.5888672,0.021721946,0.0017256811,-0.0030399004,-0.08,0.95,0.32,20323,9942.00,0,0,0,2.45,-2.38,-0.28,-0.08,0.95,0.32
-0.4111328,0.021721946,7.256828E-4,-0.0020399,-0.07,0.95,0.32,20339,9941.00,0,0,165,2.45,-2.45,-0.21,-0.07,0.95,0.32
-0.7109375,0.009721946,-2.7431548E-4,-0.0010399004,-0.07,0.95,0.32,20354,9940.70,0,0,0,1.61,-2.52,-0.14,-0.07,0.95,0.32
-0.111328125,-0.0032780543,7.256828E-4,0.0019600997,-0.08,0.95,0.32,20361,9941.30,0,0,165,0.70,-2.45,0.07,-0.08,0.95,0.32
0.5888672,-0.014278054,-2.7431548E-4,9.6009974E-4,-0.08,0.96,0.32,20376,9942.00,0,0,0,-0.07,-2.52,0.00,-0.08,0.96,0.32
-0.4111328,-0.019278053,-2.7431548E-4,0.0049601,-0.08,0.95,0.32,20391,9941.00,0,0,165,-0.42,-2.52,0.28,-0.08,0.95,0.32
0.5888672,-0.0102780545,7.256828E-4,0.0029600998,-0.08,0.96,0.32,20399,9942.00,0,0,0,0.21,-2.45,0.14,-0.08,0.96,0.32
0.5888672,-0.0012780549,-0.0012743175,-0.0010399004,-0.08,0.95,0.32,20414,9942.00,0,0,165,0.84,-2.59,-0.14,-0.08,0.95,0.32
0.2890625,0.008721946,7.256828E-4,-0.0010399004,-0.08,0.96,0.33,20429,9941.70,0,0,0,1.54,-2.45,-0.14,-0.08,0.96,0.33
0.5888672,0.017721947,7.256828E-4,-0.0010399004,-0.08,0.95,0.32,20437,9942.00,0,0,165,2.17,-2.45,-0.14,-0.08,0.95,0.32
-0.4111328,0.011721946,7.256828E-4,-0.0010399004,-0.08,0.96,0.32,20451,9941.00,0,0,0,1.75,-2.45,-0.14,-0.08,0.96,0.32
0.5888672,0.005721947,0.0017256811,9.6009974E-4,-0.08,0.95,0.32,20466,9942.00,0,0,165,1.33,-2.38,0.00,-0.08,0.95,0.32
0.5888672,-0.006278054,-0.0012743175,0.0019600997,-0.08,0.96,0.32,20473,9942.00,0,0,0,0.49,-2.59,0.07,-0.08,0.96,0.32
-0.4111328,-0.013278054,-0.0012743175,0.0019600997,-0.08,0.95,0.32,20489,9941.00,0,0,165,0.00,-2.59,0.07,-0.08,0.95,0.32
-0.4111328,-0.012278054,-2.7431548E-4,0.0039600995,-0.07,0.95,0.32,20504,9941.00,0,0,0,0.07,-2.52,0.21,-0.07,0.95,0.32
0.5888672,-0.0072780545,-0.0022743195,9.6009974E-4,-0.08,0.95,0.33,20511,9942.00,0,0,165,0.42,-2.66,0.00,-0.08,0.95,0.33
0.5888672,0.0037219469,-0.0022743195,-0.0010399004,-0.08,0.95,0.32,20526,9942.00,0,0,0,1.19,-2.66,-0.14,-0.08,0.95,0.32
0.5888672,0.011721946,-2.7431548E-4,-0.0010399004,-0.07,0.96,0.32,20542,9942.00,0,0,165,1.75,-2.52,-0.14,-0.07,0.96,0.32
-0.4111328,0.014721947,0.0017256811,-0.0010399004,-0.08,0.96,0.32,20548,9941.00,0,0,0,1.96,-2.38,-0.14,-0.08,0.96,0.32
0.5888672,0.010721944,-2.7431548E-4,-0.0020399,-0.07,0.96,0.32,20564,9942.00,0,0,165,1.68,-2.52,-0.21,-0.07,0.96,0.32
-0.4111328,0.0017219456,7.256828E-4,-3.9900304E-5,-0.08,0.95,0.32,20579,9941.00,0,0,0,1.05,-2.45,-0.07,-0.08,0.95,0.32
0.5888672,-0.0102780545,-0.0022743195,-3.9900304E-5,-0.08,0.96,0.32,20586,9942.00,0,0,165,0.21,-2.66,-0.07,-0.08,0.96,0.32
-0.4111328,-0.019278053,-0.0032743178,9.6009974E-4,-0.08,0.95,0.32,20601,9941.00,0,0,0,-0.42,-2.73,0.00,-0.08,0.95,0.32
0.2890625,-0.019278053,-2.7431548E-4,9.6009974E-4,-0.08,0.95,0.32,20616,9941.70,0,0,165,-0.42,-2.52,0.00,-0.08,0.95,0.32
-0.4111328,-0.0072780545,-2.7431548E-4,-3.9900304E-5,-0.08,0.95,0.32,20624,9941.00,0,0,0,0.42,-2.52,-0.07,-0.08,0.95,0.32
0.5888672,0.0067219455,-0.0012743175,-0.0010399004,-0.07,0.95,0.32,20639,9942.00,0,0,165,1.40,-2.59,-0.14,-0.07,0.95,0.32
0.5888672,0.018721947,0.0017256811,-0.0010399004,-0.08,0.96,0.32,20653,9942.00,0,0,0,2.24,-2.38,-0.14,-0.08,0.96,0.32
-0.4111328,0.018721947,7.256828E-4,-3.9900304E-5,-0.08,0.96,0.32,20662,9941.00,0,0,165,2.24,-2.45,-0.07,-0.08,0.96,0.32
-0.4111328,0.010721944,-2.7431548E-4,0.0019600997,-0.08,0.95,0.32,20677,9941.00,0,0,0,1.68,-2.52,0.07,-0.08,0.95,0.32
0.5888672,-0.0032780543,7.256828E-4,0.0029600998,-0.08,0.95,0.32,20699,9942.00,0,0,165,0.70,-2.45,0.14,-0.08,0.95,0.32
0.5888672,-0.015278054,0.0017256811,0.0049601,-0.08,0.95,0.32,20700,9942.00,0,0,0,-0.14,-2.38,0.28,-0.08,0.95,0.32
-0.4111328,-0.021278054,-0.0012743175,0.0029600998,-0.08,0.95,0.32,20714,9941.00,0,0,165,-0.56,-2.59,0.14,-0.08,0.95,0.32
0.5888672,-0.013278054,7.256828E-4,-3.9900304E-5,-0.08,0.95,0.32,20729,9942.00,0,0,0,0.00,-2.45,-0.07,-0.08,0.95,0.32
-0.4111328,0.0037219469,-0.0012743175,-0.0020399,-0.08,0.95,0.32,20736,9941.00,0,0,165,1.19,-2.59,-0.21,-0.08,0.95,0.32
0.2890625,0.016721945,-0.0012743175,-0.0010399004,-0.07,0.96,0.32,20752,9941.70,0,0,0,2.10,-2.59,-0.14,-0.07,0.96,0.32
-0.4111328,0.020721948,-0.0022743195,-3.9900304E-5,-0.08,0.96,0.32,20766,9941.00,0,0,165,2.38,-2.66,-0.07,-0.08,0.96,0.32
0.2890625,0.011721946,-0.0012743175,-3.9900304E-5,-0.08,0.95,0.32,20773,9941.70,0,0,0,1.75,-2.59,-0.07,-0.08,0.95,0.32
-0.4111328,-0.0022780541,7.256828E-4,-0.0020399,-0.07,0.96,0.32,20789,9941.00,0,0,165,0.77,-2.45,-0.21,-0.07,0.96,0.32
-0.4111328,-0.017278055,7.256828E-4,9.6009974E-4,-0.07,0.96,0.32,20804,9941.00,0,0,0,-0.28,-2.45,0.00,-0.07,0.96,0.32
0.5888672,-0.020278055,-0.0012743175,-3.9900304E-5,-0.07,0.95,0.32,20811,9942.00,0,0,165,-0.49,-2.59,-0.07,-0.07,0.95,0.32
0.5888672,-0.014278054,-0.0022743195,9.6009974E-4,-0.07,0.95,0.32,20826,9942.00,0,0,0,-0.07,-2.66,0.00,-0.07,0.95,0.32
0.5888672,-0.0052780537,-0.0022743195,0.0019600997,-0.07,0.95,0.32,20834,9942.00,0,0,165,0.56,-2.66,0.07,-0.07,0.95,0.32
-0.4111328,0.0027219467,-0.0022743195,-3.9900304E-5,-0.08,0.95,0.33,20849,9941.00,0,0,0,1.12,-2.66,-0.07,-0.08,0.95,0.33
0.5888672,0.004721945,7.256828E-4,-0.0040399004,-0.08,0.95,0.32,20864,9942.00,0,0,165,1.26,-2.45,-0.35,-0.08,0.95,0.32
-0.4111328,0.008721946,0.0027256832,-0.0020399,-0.08,0.96,0.32,20871,9941.00,0,0,0,1.54,-2.31,-0.21,-0.08,0.96,0.32
-1.3115234,0.017721947,0.0017256811,-0.0020399,-0.08,0.96,0.32,20886,9940.10,0,0,165,2.17,-2.38,-0.21,-0.08,0.96,0.32
-0.4111328,0.022721944,0.0017256811,0.0019600997,-0.07,0.96,0.32,20901,9941.00,0,0,0,2.52,-2.38,0.07,-0.07,0.96,0.32
-0.4111328,0.013721947,-2.7431548E-4,0.0039600995,-0.08,0.96,0.32,20909,9941.00,0,0,165,1.89,-2.52,0.21,-0.08,0.96,0.32
1.1884766,-0.0102780545,-0.0012743175,0.0079601,-0.08,0.95,0.32,20924,9942.60,0,0,0,0.21,-2.59,0.49,-0.08,0.95,0.32
-0.4111328,-0.032278053,-0.0022743195,0.0089601,-0.08,0.95,0.32,20939,9941.00,0,0,165,-1.33,-2.66,0.56,-0.08,0.95,0.32
-0.7109375,-0.044278055,-0.0032743178,0.0079601,-0.08,0.95,0.33,20945,9940.70,0,0,0,-2.17,-2.73,0.49,-0.08,0.95,0.33
0.5888672,-0.036278054,7.256828E-4,0.0019600997,-0.08,0.95,0.32,20961,9942.00,0,0,165,-1.61,-2.45,0.07,-0.08,0.95,0.32
-0.7109375,-0.008278054,-2.7431548E-4,-3.9900304E-5,-0.08,0.95,0.32,20976,9940.70,0,0,0,0.35,-2.52,-0.07,-0.08,0.95,0.32
-0.4111328,0.03172195,0.0017256811,-3.9900304E-5,-0.08,0.95,0.33,20983,9941.00,0,0,165,3.15,-2.38,-0.07,-0.08,0.95,0.33
0.5888672,0.056721948,0.0017256811,-0.0010399004,-0.08,0.95,0.32,20999,9942.00,0,0,0,4.90,-2.38,-0.14,-0.08,0.95,0.32
0.5888672,0.048721947,0.0027256832,-0.0040399004,-0.08,0.96,0.32,21014,9942.00,0,0,165,4.34,-2.31,-0.35,-0.08,0.96,0.32
0.5888672,0.012721946,-2.7431548E-4,-3.9900304E-5,-0.08,0.96,0.32,21021,9942.00,0,0,0,1.82,-2.52,-0.07,-0.08,0.96,0.32
0.5888672,-0.021278054,-0.0032743178,0.0029600998,-0.08,0.95,0.32,21038,9942.00,0,0,165,-0.56,-2.73,0.14,-0.08,0.95,0.32
-0.4111328,-0.047278054,-0.0032743178,0.0059600994,-0.08,0.95,0.32,21051,9941.00,0,0,0,-2.38,-2.73,0.35,-0.08,0.95,0.32
-0.4111328,-0.050278053,-0.0012743175,0.009960099,-0.07,0.95,0.32,21059,9941.00,0,0,165,-2.59,-2.59,0.63,-0.07,0.95,0.32
0.5888672,-0.019278053,0.0017256811,0.0069600996,-0.07,0.95,0.32,21073,9942.00,0,0,0,-0.42,-2.38,0.42,-0.07,0.95,0.32
0.5888672,0.013721947,0.0027256832,0.0039600995,-0.07,0.95,0.32,21090,9942.00,0,0,165,1.89,-2.31,0.21,-0.07,0.95,0.32
0.5888672,0.04572195,0.0027256832,-0.0040399004,-0.07,0.96,0.32,21097,9942.00,0,0,0,4.13,-2.31,-0.35,-0.07,0.96,0.32
0.5888672,0.051721953,0.0047256816,-0.0060399007,-0.07,0.96,0.32,21111,9942.00,0,0,165,4.55,-2.17,-0.49,-0.07,0.96,0.32
0.5888672,0.028721945,7.256828E-4,-0.0060399007,-0.07,0.96,0.32,21126,9942.00,0,0,0,2.94,-2.45,-0.49,-0.07,0.96,0.32
-0.7109375,-0.0052780537,-0.0012743175,-0.0020399,-0.08,0.96,0.32,21133,9940.70,0,0,165,0.56,-2.59,-0.21,-0.08,0.96,0.32
-0.7109375,-0.039278053,-0.0022743195,0.0029600998,-0.07,0.95,0.32,21149,9940.70,0,0,0,-1.82,-2.66,0.14,-0.07,0.95,0.32
-0.4111328,-0.058278054,-0.0032743178,0.0049601,-0.07,0.95,0.32,21164,9941.00,0,0,165,-3.15,-2.73,0.28,-0.07,0.95,0.32
-0.4111328,-0.048278056,-0.004274316,0.0059600994,-0.08,0.95,0.33,21172,9941.00,0,0,0,-2.45,-2.80,0.35,-0.08,0.95,0.33
0.2890625,-0.014278054,-0.0022743195,9.6009974E-4,-0.07,0.96,0.32,21186,9941.70,0,0,165,-0.07,-2.66,0.00,-0.07,0.96,0.32
0.2890625,0.023721946,7.256828E-4,-0.0040399004,-0.07,0.95,0.33,21201,9941.70,0,0,0,2.59,-2.45,-0.35,-0.07,0.95,0.33
-0.4111328,0.05372195,7.256828E-4,-0.0050398996,-0.07,0.96,0.32,21209,9941.00,0,0,165,4.69,-2.45,-0.42,-0.07,0.96,0.32
-1.0107422,0.055721946,7.256828E-4,-0.0060399007,-0.07,0.95,0.32,21223,9940.40,0,0,0,4.83,-2.45,-0.49,-0.07,0.95,0.32
0.5888672,0.029721947,-0.0032743178,-0.0030399004,-0.07,0.96,0.32,21239,9942.00,0,0,165,3.01,-2.73,-0.28,-0.07,0.96,0.32
-0.4111328,-0.0102780545,-0.0032743178,9.6009974E-4,-0.08,0.96,0.32,21246,9941.00,0,0,0,0.21,-2.73,0.00,-0.08,0.96,0.32
-0.7109375,-0.04227805,-0.004274316,0.0069600996,-0.08,0.95,0.32,21261,9940.70,0,0,165,-2.03,-2.80,0.42,-0.08,0.95,0.32
-0.4111328,-0.054278053,-0.004274316,0.0089601,-0.08,0.96,0.32,21277,9941.00,0,0,0,-2.87,-2.80,0.56,-0.08,0.96,0.32
-0.4111328,-0.036278054,-0.004274316,0.0079601,-0.08,0.95,0.32,21284,9941.00,0,0,165,-1.61,-2.80,0.49,-0.08,0.95,0.32
-1.3115234,0.0017219456,-2.7431548E-4,-0.0010399004,-0.08,0.95,0.33,21298,9940.10,0,0,0,1.05,-2.52,-0.14,-0.08,0.95,0.33
-0.4111328,0.03172195,-2.7431548E-4,-0.0040399004,-0.08,0.95,0.32,21313,9941.00,0,0,165,3.15,-2.52,-0.35,-0.08,0.95,0.32
1.5888672,0.05072195,7.256828E-4,-0.007039901,-0.07,0.96,0.32,21322,9943.00,0,0,0,4.48,-2.45,-0.56,-0.07,0.96,0.32
0.5888672,0.04972195,0.0017256811,-0.0050398996,-0.07,0.96,0.32,21338,9942.00,0,0,165,4.41,-2.38,-0.42,-0.07,0.96,0.32
0.2890625,0.024721948,-2.7431548E-4,-0.0010399004,-0.08,0.96,0.32,21351,9941.70,0,0,0,2.66,-2.52,-0.14,-0.08,0.96,0.32
0.5888672,-0.009278053,7.256828E-4,0.0019600997,-0.08,0.96,0.32,21359,9942.00,0,0,165,0.28,-2.45,0.07,-0.08,0.96,0.32
0.5888672,-0.043278053,-0.0012743175,0.0089601,-0.07,0.96,0.32,21374,9942.00,0,0,0,-2.10,-2.59,0.56,-0.07,0.96,0.32
0.5888672,-0.055278055,-0.0022743195,0.009960099,-0.08,0.96,0.32,21389,9942.00,0,0,165,-2.94,-2.66,0.63,-0.08,0.96,0.32
-0.7109375,-0.045278057,-2.7431548E-4,0.0069600996,-0.08,0.95,0.32,21396,9940.70,0,0,0,-2.24,-2.52,0.42,-0.08,0.95,0.32
0.5888672,-0.013278054,-2.7431548E-4,0.0029600998,-0.08,0.95,0.33,21411,9942.00,0,0,165,0.00,-2.52,0.14,-0.08,0.95,0.33
-1.7109375,0.020721948,-2.7431548E-4,-0.0010399004,-0.07,0.95,0.32,21426,9939.70,0,0,0,2.38,-2.52,-0.14,-0.07,0.95,0.32
-0.4111328,0.04572195,0.0027256832,-0.0040399004,-0.07,0.95,0.32,21434,9941.00,0,0,165,4.13,-2.31,-0.35,-0.07,0.95,0.32
0.2890625,0.051721953,0.0027256832,-0.0040399004,-0.08,0.96,0.32,21449,9941.70,0,0,0,4.55,-2.31,-0.35,-0.08,0.96,0.32
0.5888672,0.03472194,0.0027256832,-0.0010399004,-0.07,0.96,0.32,21464,9942.00,0,0,165,3.36,-2.31,-0.14,-0.07,0.96,0.32
-1.3115234,0.0037219469,7.256828E-4,-3.9900304E-5,-0.08,0.96,0.32,21471,9940.10,0,0,0,1.19,-2.45,-0.07,-0.08,0.96,0.32
-0.4111328,-0.028278053,0.0017256811,0.0059600994,-0.07,0.96,0.32,21487,9941.00,0,0,165,-1.05,-2.38,0.35,-0.07,0.96,0.32
-0.7109375,-0.046278052,-0.0012743175,0.0059600994,-0.08,0.96,0.32,21501,9940.70,0,0,0,-2.31,-2.59,0.35,-0.08,0.96,0.32
0.5888672,-0.044278055,-0.0022743195,0.0059600994,-0.07,0.95,0.32,21509,9942.00,0,0,165,-2.17,-2.66,0.35,-0.07,0.95,0.32
0.5888672,-0.020278055,-0.0012743175,0.0029600998,-0.07,0.95,0.33,21523,9942.00,0,0,0,-0.49,-2.59,0.14,-0.07,0.95,0.33
-0.4111328,0.009721946,-2.7431548E-4,0.0019600997,-0.07,0.95,0.33,21539,9941.00,0,0,165,1.61,-2.52,0.07,-0.07,0.95,0.33
-0.7109375,0.033721946,0.0027256832,-0.0020399,-0.08,0.95,0.32,21546,9940.70,0,0,0,3.29,-2.31,-0.21,-0.08,0.95,0.32
0.5888672,0.040721945,7.256828E-4,-0.0010399004,-0.08,0.96,0.32,21561,9942.00,0,0,165,3.78,-2.45,-0.14,-0.08,0.96,0.32
-0.4111328,0.027721943,7.256828E-4,-0.0020399,-0.08,0.95,0.32,21576,9941.00,0,0,0,2.87,-2.45,-0.21,-0.08,0.95,0.32
-0.111328125,0.0037219469,-2.7431548E-4,9.6009974E-4,-0.07,0.96,0.32,21583,9941.30,0,0,165,1.19,-2.52,0.00,-0.07,0.96,0.32
0.2890625,-0.021278054,-0.0032743178,0.0029600998,-0.08,0.96,0.32,21599,9941.70,0,0,0,-0.56,-2.73,0.14,-0.08,0.96,0.32
0.5888672,-0.034278054,-0.0032743178,0.0049601,-0.08,0.96,0.32,21613,9942.00,0,0,165,-1.47,-2.73,0.28,-0.08,0.96,0.32
0.5888672,-0.029278055,-0.0012743175,0.0049601,-0.07,0.95,0.32,21621,9942.00,0,0,0,-1.12,-2.59,0.28,-0.07,0.95,0.32
-1.3115234,-0.015278054,-0.0022743195,0.0019600997,-0.08,0.95,0.32,21637,9940.10,0,0,165,-0.14,-2.66,0.07,-0.08,0.95,0.32
-0.4111328,0.0077219456,-0.0012743175,-3.9900304E-5,-0.07,0.95,0.32,21651,9941.00,0,0,0,1.47,-2.59,-0.07,-0.07,0.95,0.32
-0.4111328,0.021721946,7.256828E-4,-0.0010399004,-0.07,0.95,0.33,21659,9941.00,0,0,165,2.45,-2.45,-0.14,-0.07,0.95,0.33
-2.6113281,0.028721945,7.256828E-4,-0.0020399,-0.07,0.96,0.32,21673,9938.80,0,0,0,2.94,-2.45,-0.21,-0.07,0.96,0.32
0.5888672,0.020721948,0.0017256811,-0.0030399004,-0.08,0.95,0.32,21689,9942.00,0,0,165,2.38,-2.38,-0.28,-0.08,0.95,0.32
-0.4111328,7.2194636E-4,-2.7431548E-4,9.6009974E-4,-0.08,0.95,0.32,21697,9941.00,0,0,0,0.98,-2.52,0.00,-0.08,0.95,0.32
-0.4111328,-0.013278054,-2.7431548E-4,0.0039600995,-0.07,0.96,0.32,21711,9941.00,0,0,165,0.00,-2.52,0.21,-0.07,0.96,0.32
-0.7109375,-0.021278054,-0.0012743175,0.0049601,-0.08,0.95,0.32,21726,9940.70,0,0,0,-0.56,-2.59,0.28,-0.08,0.95,0.32
-0.4111328,-0.019278053,7.256828E-4,0.0049601,-0.08,0.95,0.32,21734,9941.00,0,0,165,-0.42,-2.45,0.28,-0.08,0.95,0.32
-0.4111328,-0.008278054,0.0017256811,-3.9900304E-5,-0.08,0.95,0.32,21749,9941.00,0,0,0,0.35,-2.38,-0.07,-0.08,0.95,0.32
0.5888672,0.0077219456,-2.7431548E-4,-0.0010399004,-0.08,0.96,0.32,21764,9942.00,0,0,165,1.47,-2.52,-0.14,-0.08,0.96,0.32
-0.7109375,0.023721946,-2.7431548E-4,-0.0040399004,-0.07,0.96,0.32,21771,9940.70,0,0,0,2.59,-2.52,-0.35,-0.07,0.96,0.32
-0.4111328,0.024721948,7.256828E-4,-0.0050398996,-0.07,0.95,0.32,21787,9941.00,0,0,165,2.66,-2.45,-0.42,-0.07,0.95,0.32
-0.7109375,0.013721947,-2.7431548E-4,-0.0030399004,-0.08,0.96,0.32,21801,9940.70,0,0,0,1.89,-2.52,-0.28,-0.08,0.96,0.32
-0.4111328,7.2194636E-4,7.256828E-4,0.0019600997,-0.08,0.95,0.32,21808,9941.00,0,0,165,0.98,-2.45,0.07,-0.08,0.95,0.32
0.5888672,-0.021278054,-0.0012743175,0.0039600995,-0.08,0.96,0.32,21824,9942.00,0,0,0,-0.56,-2.59,0.21,-0.08,0.96,0.32
-0.7109375,-0.029278055,0.0017256811,0.0059600994,-0.08,0.96,0.32,21839,9940.70,0,0,165,-1.12,-2.38,0.35,-0.08,0.96,0.32
-0.4111328,-0.024278054,7.256828E-4,0.0019600997,-0.08,0.96,0.33,21847,9941.00,0,0,0,-0.77,-2.45,0.07,-0.08,0.96,0.33
-1.0107422,-0.006278054,0.0017256811,-0.0030399004,-0.07,0.95,0.32,21861,9940.40,0,0,165,0.49,-2.38,-0.28,-0.07,0.95,0.32
0.5888672,0.012721946,-2.7431548E-4,-0.007039901,-0.07,0.95,0.32,21876,9942.00,0,0,0,1.82,-2.52,-0.56,-0.07,0.95,0.32
-0.7109375,0.027721943,-0.0012743175,-0.0060399007,-0.07,0.95,0.32,21883,9940.70,0,0,165,2.87,-2.59,-0.49,-0.07,0.95,0.32
-0.4111328,0.024721948,-0.0022743195,-0.0040399004,-0.07,0.95,0.32,21899,9941.00,0,0,0,2.66,-2.66,-0.35,-0.07,0.95,0.32
1.1884766,0.011721946,-2.7431548E-4,-3.9900304E-5,-0.07,0.95,0.32,21914,9942.60,0,0,165,1.75,-2.52,-0.07,-0.07,0.95,0.32
0.5888672,-0.011278054,7.256828E-4,-0.0010399004,-0.08,0.96,0.32,21922,9942.00,0,0,0,0.14,-2.45,-0.14,-0.08,0.96,0.32
0.2890625,-0.022278054,0.0027256832,-3.9900304E-5,-0.08,0.96,0.32,21939,9941.70,0,0,165,-0.63,-2.31,-0.07,-0.08,0.96,0.32
1.1884766,-0.013278054,0.0017256811,0.0029600998,-0.08,0.96,0.32,21951,9942.60,0,0,0,0.00,-2.38,0.14,-0.08,0.96,0.32
-0.4111328,-0.0022780541,-0.0012743175,0.0019600997,-0.07,0.95,0.32,21959,9941.00,0,0,165,0.77,-2.59,0.07,-0.07,0.95,0.32
-0.7109375,0.008721946,-0.0022743195,9.6009974E-4,-0.08,0.95,0.32,21974,9940.70,0,0,0,1.54,-2.66,0.00,-0.08,0.95,0.32
0.2890625,0.0077219456,-0.0012743175,9.6009974E-4,-0.08,0.96,0.32,21989,9941.70,0,0,165,1.47,-2.59,0.00,-0.08,0.96,0.32
-0.7109375,0.0027219467,-0.0022743195,0.0019600997,-0.08,0.95,0.32,21995,9940.70,0,0,0,1.12,-2.66,0.07,-0.08,0.95,0.32
0.2890625,-0.009278053,7.256828E-4,0.0039600995,-0.08,0.95,0.32,22012,9941.70,0,0,165,0.28,-2.45,0.21,-0.08,0.95,0.32
-0.4111328,-0.014278054,-0.0012743175,-3.9900304E-5,-0.07,0.95,0.32,22026,9941.00,0,0,0,-0.07,-2.59,-0.07,-0.07,0.95,0.32
0.5888672,-0.0102780545,7.256828E-4,-0.0010399004,-0.07,0.96,0.32,22034,9942.00,0,0,165,0.21,-2.45,-0.14,-0.07,0.96,0.32
-0.4111328,0.004721945,-2.7431548E-4,-0.0030399004,-0.07,0.95,0.32,22049,9941.00,0,0,0,1.26,-2.52,-0.28,-0.07,0.95,0.32
-0.4111328,0.015721945,-0.0012743175,0.0019600997,-0.08,0.95,0.32,22064,9941.00,0,0,165,2.03,-2.59,0.07,-0.08,0.95,0.32
-2.3115234,0.016721945,-2.7431548E-4,-3.9900304E-5,-0.08,0.95,0.32,22071,9939.10,0,0,0,2.10,-2.52,-0.07,-0.08,0.95,0.32
-0.4111328,0.011721946,-2.7431548E-4,9.6009974E-4,-0.08,0.95,0.32,22087,9941.00,0,0,165,1.75,-2.52,0.00,-0.08,0.95,0.32
0.2890625,0.0037219469,7.256828E-4,0.0019600997,-0.08,0.96,0.32,22101,9941.70,0,0,0,1.19,-2.45,0.07,-0.08,0.96,0.32
0.5888672,-0.0052780537,7.256828E-4,9.6009974E-4,-0.07,0.95,0.32,22108,9942.00,0,0,165,0.56,-2.45,0.00,-0.07,0.95,0.32
-0.4111328,-0.009278053,-2.7431548E-4,-0.0010399004,-0.07,0.96,0.32,22123,9941.00,0,0,0,0.28,-2.52,-0.14,-0.07,0.96,0.32
0.2890625,-0.0052780537,0.0017256811,9.6009974E-4,-0.07,0.96,0.32,22138,9941.70,0,0,165,0.56,-2.38,0.00,-0.07,0.96,0.32
0.5888672,-2.780538E-4,-2.7431548E-4,9.6009974E-4,-0.07,0.96,0.32,22145,9942.00,0,0,0,0.91,-2.52,0.00,-0.07,0.96,0.32
0.5888672,0.0027219467,7.256828E-4,0.0029600998,-0.08,0.95,0.32,22161,9942.00,0,0,165,1.12,-2.45,0.14,-0.08,0.95,0.32
-0.4111328,0.0027219467,7.256828E-4,-0.0020399,-0.08,0.95,0.32,22176,9941.00,0,0,0,1.12,-2.45,-0.21,-0.08,0.95,0.32
0.5888672,-0.0032780543,0.0017256811,-0.0020399,-0.08,0.96,0.32,22184,9942.00,0,0,165,0.70,-2.38,-0.21,-0.08,0.96,0.32
0.2890625,-0.0072780545,0.0017256811,9.6009974E-4,-0.08,0.95,0.32,22198,9941.70,0,0,0,0.42,-2.38,0.00,-0.08,0.95,0.32
-0.7109375,-0.006278054,-2.7431548E-4,-3.9900304E-5,-0.08,0.95,0.32,22214,9940.70,0,0,165,0.49,-2.52,-0.07,-0.08,0.95,0.32
-0.4111328,0.0017219456,0.0017256811,-3.9900304E-5,-0.08,0.95,0.32,22221,9941.00,0,0,0,1.05,-2.38,-0.07,-0.08,0.95,0.32
-0.7109375,0.005721947,-2.7431548E-4,9.6009974E-4,-0.08,0.95,0.32,22237,9940.70,0,0,165,1.33,-2.52,0.00,-0.08,0.95,0.32
0.2890625,0.0077219456,7.256828E-4,9.6009974E-4,-0.07,0.95,0.32,22251,9941.70,0,0,0,1.47,-2.45,0.00,-0.07,0.95,0.32
0.8886719,0.004721945,-2.7431548E-4,-0.0010399004,-0.08,0.95,0.32,22259,9942.30,0,0,165,1.26,-2.52,-0.14,-0.08,0.95,0.32
-0.7109375,0.0027219467,-0.0012743175,-0.0020399,-0.07,0.95,0.32,22273,9940.70,0,0,0,1.12,-2.59,-0.21,-0.07,0.95,0.32
0.5888672,-2.780538E-4,-0.0012743175,-0.0010399004,-0.08,0.96,0.32,22288,9942.00,0,0,165,0.91,-2.59,-0.14,-0.08,0.96,0.32
-0.7109375,-2.780538E-4,-0.0012743175,-3.9900304E-5,-0.08,0.95,0.32,22296,9940.70,0,0,0,0.91,-2.59,-0.07,-0.08,0.95,0.32
-0.4111328,-0.0022780541,-0.0012743175,9.6009974E-4,-0.08,0.95,0.32,22311,9941.00,0,0,165,0.77,-2.59,0.00,-0.08,0.95,0.32
0.5888672,-0.0052780537,-0.0012743175,-0.0010399004,-0.08,0.95,0.32,22326,9942.00,0,0,0,0.56,-2.59,-0.14,-0.08,0.95,0.32
0.5888672,-0.0072780545,-2.7431548E-4,-0.0010399004,-0.07,0.95,0.32,22334,9942.00,0,0,165,0.42,-2.52,-0.14,-0.07,0.95,0.32
-0.7109375,-0.0052780537,-0.0012743175,-0.0010399004,-0.08,0.95,0.32,22348,9940.70,0,0,0,0.56,-2.59,-0.14,-0.08,0.95,0.32
0.2890625,0.0017219456,-0.0012743175,-3.9900304E-5,-0.08,0.95,0.32,22364,9941.70,0,0,165,1.05,-2.59,-0.07,-0.08,0.95,0.32
0.5888672,0.009721946,-0.0012743175,-0.0020399,-0.07,0.95,0.32,22370,9942.00,0,0,0,1.61,-2.59,-0.21,-0.07,0.95,0.32
0.2890625,0.014721947,-2.7431548E-4,-0.0030399004,-0.08,0.95,0.32,22386,9941.70,0,0,165,1.96,-2.52,-0.28,-0.08,0.95,0.32
-0.7109375,0.013721947,7.256828E-4,-3.9900304E-5,-0.08,0.96,0.32,22401,9940.70,0,0,0,1.89,-2.45,-0.07,-0.08,0.96,0.32
-0.7109375,0.0067219455,7.256828E-4,-0.0010399004,-0.07,0.96,0.32,22409,9940.70,0,0,165,1.40,-2.45,-0.14,-0.07,0.96,0.32
-0.4111328,-0.0042780545,7.256828E-4,9.6009974E-4,-0.08,0.96,0.32,22423,9941.00,0,0,0,0.63,-2.45,0.00,-0.08,0.96,0.32
0.5888672,-0.015278054,0.0017256811,0.0039600995,-0.08,0.96,0.32,22439,9942.00,0,0,165,-0.14,-2.38,0.21,-0.08,0.96,0.32
0.5888672,-0.018278055,0.0017256811,0.0029600998,-0.08,0.95,0.32,22446,9942.00,0,0,0,-0.35,-2.38,0.14,-0.08,0.95,0.32
0.5888672,-0.014278054,-2.7431548E-4,0.0029600998,-0.07,0.95,0.32,22461,9942.00,0,0,165,-0.07,-2.52,0.14,-0.07,0.95,0.32
0.5888672,-0.0022780541,7.256828E-4,9.6009974E-4,-0.08,0.95,0.32,22476,9942.00,0,0,0,0.77,-2.45,0.00,-0.08,0.95,0.32
0.5888672,0.009721946,7.256828E-4,-0.0010399004,-0.08,0.96,0.32,22484,9942.00,0,0,165,1.61,-2.45,-0.14,-0.08,0.96,0.32
-0.4111328,0.019721946,0.0017256811,-0.0010399004,-0.08,0.96,0.32,22499,9941.00,0,0,0,2.31,-2.38,-0.14,-0.08,0.96,0.32
0.5888672,0.019721946,0.0017256811,-0.0020399,-0.07,0.96,0.32,22514,9942.00,0,0,165,2.31,-2.38,-0.21,-0.07,0.96,0.32
0.2890625,0.009721946,0.0017256811,-0.0010399004,-0.07,0.96,0.32,22521,9941.70,0,0,0,1.61,-2.38,-0.14,-0.07,0.96,0.32
0.2890625,-0.0042780545,7.256828E-4,9.6009974E-4,-0.07,0.96,0.32,22537,9941.70,0,0,165,0.63,-2.45,0.00,-0.07,0.96,0.32
-0.4111328,-0.015278054,7.256828E-4,0.0029600998,-0.08,0.96,0.32,22551,9941.00,0,0,0,-0.14,-2.45,0.14,-0.08,0.96,0.32
0.5888672,-0.018278055,-2.7431548E-4,0.0019600997,-0.07,0.95,0.32,22558,9942.00,0,0,165,-0.35,-2.52,0.07,-0.07,0.95,0.32
-0.4111328,-0.013278054,7.256828E-4,9.6009974E-4,-0.08,0.95,0.32,22574,9941.00,0,0,0,0.00,-2.45,0.00,-0.08,0.95,0.32
-0.7109375,-0.0032780543,-2.7431548E-4,-3.9900304E-5,-0.07,0.95,0.32,22588,9940.70,0,0,165,0.70,-2.52,-0.07,-0.07,0.95,0.32
-0.4111328,0.009721946,7.256828E-4,-3.9900304E-5,-0.07,0.95,0.32,22596,9941.00,0,0,0,1.61,-2.45,-0.07,-0.07,0.95,0.32
-0.4111328,0.016721945,7.256828E-4,-0.0020399,-0.08,0.96,0.32,22611,9941.00,0,0,165,2.10,-2.45,-0.21,-0.08,0.96,0.32
0.2890625,0.016721945,7.256828E-4,-3.9900304E-5,-0.08,0.95,0.32,22626,9941.70,0,0,0,2.10,-2.45,-0.07,-0.08,0.95,0.32
0.5888672,0.0077219456,-2.7431548E-4,-3.9900304E-5,-0.08,0.95,0.32,22633,9942.00,0,0,165,1.47,-2.52,-0.07,-0.08,0.95,0.32
0.5888672,-0.0022780541,-2.7431548E-4,9.6009974E-4,-0.08,0.95,0.32,22648,9942.00,0,0,0,0.77,-2.52,0.00,-0.08,0.95,0.32
0.2890625,-0.0102780545,-0.0012743175,0.0019600997,-0.07,0.96,0.32,22664,9941.70,0,0,165,0.21,-2.59,0.07,-0.07,0.96,0.32
0.5888672,-0.011278054,-0.0012743175,0.0019600997,-0.08,0.96,0.32,22672,9942.00,0,0,0,0.14,-2.59,0.07,-0.08,0.96,0.32
-0.4111328,-0.009278053,-2.7431548E-4,0.0019600997,-0.08,0.96,0.32,22686,9941.00,0,0,165,0.28,-2.52,0.07,-0.08,0.96,0.32
-0.4111328,-0.0012780549,0.0017256811,9.6009974E-4,-0.08,0.95,0.32,22701,9941.00,0,0,0,0.84,-2.38,0.00,-0.08,0.95,0.32
-0.4111328,0.004721945,-2.7431548E-4,-0.0020399,-0.07,0.95,0.32,22709,9941.00,0,0,165,1.26,-2.52,-0.21,-0.07,0.95,0.32
-0.7109375,0.008721946,0.0017256811,-0.0010399004,-0.08,0.95,0.32,22723,9940.70,0,0,0,1.54,-2.38,-0.14,-0.08,0.95,0.32
-0.4111328,0.014721947,-0.0012743175,-0.0010399004,-0.07,0.96,0.32,22738,9941.00,0,0,165,1.96,-2.59,-0.14,-0.07,0.96,0.32
0.2890625,0.011721946,-2.7431548E-4,9.6009974E-4,-0.07,0.96,0.32,22746,9941.70,0,0,0,1.75,-2.52,0.00,-0.07,0.96,0.32
-0.4111328,0.0017219456,7.256828E-4,-3.9900304E-5,-0.07,0.96,0.32,22761,9941.00,0,0,165,1.05,-2.45,-0.07,-0.07,0.96,0.32
-0.7109375,-0.012278054,7.256828E-4,0.0049601,-0.08,0.95,0.32,22776,9940.70,0,0,0,0.07,-2.45,0.28,-0.08,0.95,0.32
-0.7109375,-0.020278055,7.256828E-4,9.6009974E-4,-0.07,0.96,0.32,22784,9940.70,0,0,165,-0.49,-2.45,0.00,-0.07,0.96,0.32
0.2890625,-0.013278054,7.256828E-4,-0.0010399004,-0.08,0.96,0.32,22799,9941.70,0,0,0,0.00,-2.45,-0.14,-0.08,0.96,0.32
0.2890625,-2.780538E-4,-0.0012743175,-0.0010399004,-0.07,0.96,0.32,22814,9941.70,0,0,165,0.91,-2.59,-0.14,-0.07,0.96,0.32
0.5888672,0.012721946,-0.0012743175,-0.0010399004,-0.07,0.95,0.32,22821,9942.00,0,0,0,1.82,-2.59,-0.14,-0.07,0.95,0.32
-0.4111328,0.013721947,-2.7431548E-4,-0.0020399,-0.08,0.95,0.32,22836,9941.00,0,0,165,1.89,-2.52,-0.21,-0.08,0.95,0.32
0.5888672,0.005721947,7.256828E-4,-0.0030399004,-0.08,0.96,0.32,22851,9942.00,0,0,0,1.33,-2.45,-0.28,-0.08,0.96,0.32
0.2890625,-0.0012780549,0.0017256811,0.0019600997,-0.08,0.96,0.32,22859,9941.70,0,0,165,0.84,-2.38,0.07,-0.08,0.96,0.32
0.2890625,-0.0042780545,0.0017256811,0.0039600995,-0.08,0.96,0.32,22874,9941.70,0,0,0,0.63,-2.38,0.21,-0.08,0.96,0.32
-0.4111328,-0.0012780549,-0.0012743175,9.6009974E-4,-0.07,0.96,0.32,22889,9941.00,0,0,165,0.84,-2.59,0.00,-0.07,0.96,0.32
0.2890625,0.0027219467,-0.0012743175,0.0019600997,-0.08,0.96,0.32,22896,9941.70,0,0,0,1.12,-2.59,0.07,-0.08,0.96,0.32
-0.4111328,0.0027219467,-0.0012743175,0.0039600995,-0.07,0.96,0.32,22911,9941.00,0,0,165,1.12,-2.59,0.21,-0.07,0.96,0.32
0.2890625,-0.0042780545,-2.7431548E-4,0.0059600994,-0.08,0.95,0.32,22926,9941.70,0,0,0,0.63,-2.52,0.35,-0.08,0.95,0.32
0.5888672,-0.012278054,-2.7431548E-4,0.0049601,-0.08,0.95,0.32,22933,9942.00,0,0,165,0.07,-2.52,0.28,-0.08,0.95,0.32
0.2890625,-0.013278054,-0.0012743175,0.0049601,-0.08,0.95,0.32,22948,9941.70,0,0,0,0.00,-2.59,0.28,-0.08,0.95,0.32
0.2890625,-0.009278053,7.256828E-4,0.0029600998,-0.08,0.96,0.32,22963,9941.70,0,0,165,0.28,-2.45,0.14,-0.08,0.96,0.32
-0.7109375,-2.780538E-4,-2.7431548E-4,0.0019600997,-0.08,0.95,0.32,22971,9940.70,0,0,0,0.91,-2.52,0.07,-0.08,0.95,0.32
-0.7109375,0.0067219455,0.0017256811,9.6009974E-4,-0.07,0.95,0.32,22986,9940.70,0,0,165,1.40,-2.38,0.00,-0.07,0.95,0.32
-0.7109375,0.010721944,-2.7431548E-4,-0.0040399004,-0.07,0.95,0.32,23001,9940.70,0,0,0,1.68,-2.52,-0.35,-0.07,0.95,0.32
-0.4111328,0.010721944,-2.7431548E-4,-0.0030399004,-0.08,0.96,0.32,23009,9941.00,0,0,165,1.68,-2.52,-0.28,-0.08,0.96,0.32
-0.4111328,0.0067219455,-0.0012743175,9.6009974E-4,-0.07,0.95,0.32,23023,9941.00,0,0,0,1.40,-2.59,0.00,-0.07,0.95,0.32
0.2890625,-2.780538E-4,-2.7431548E-4,0.0029600998,-0.07,0.95,0.32,23039,9941.70,0,0,165,0.91,-2.52,0.14,-0.07,0.95,0.32
0.2890625,-0.0052780537,0.0017256811,0.0029600998,-0.07,0.95,0.32,23046,9941.70,0,0,0,0.56,-2.38,0.14,-0.07,0.95,0.32
-0.7109375,-0.008278054,0.0017256811,0.0019600997,-0.07,0.95,0.32,23069,9940.70,0,0,165,0.35,-2.38,0.07,-0.07,0.95,0.32
0.5888672,-0.0042780545,0.0047256816,0.0019600997,-0.07,0.95,0.32,23077,9942.00,0,0,0,0.63,-2.17,0.07,-0.07,0.95,0.32
-0.7109375,7.2194636E-4,0.0037256815,-3.9900304E-5,-0.07,0.96,0.32,23083,9940.70,0,0,165,0.98,-2.24,-0.07,-0.07,0.96,0.32
0.2890625,0.008721946,0.0037256815,-3.9900304E-5,-0.07,0.96,0.32,23099,9941.70,0,0,0,1.54,-2.24,-0.07,-0.07,0.96,0.32
-0.4111328,0.0067219455,7.256828E-4,9.6009974E-4,-0.08,0.95,0.32,23113,9941.00,0,0,165,1.40,-2.45,0.00,-0.08,0.95,0.32
-0.7109375,7.2194636E-4,-2.7431548E-4,9.6009974E-4,-0.07,0.95,0.32,23121,9940.70,0,0,0,0.98,-2.52,0.00,-0.07,0.95,0.32
-0.4111328,-0.011278054,7.256828E-4,0.0019600997,-0.08,0.95,0.32,23136,9941.00,0,0,165,0.14,-2.45,0.07,-0.08,0.95,0.32
0.5888672,-0.020278055,7.256828E-4,9.6009974E-4,-0.08,0.95,0.32,23151,9942.00,0,0,0,-0.49,-2.45,0.00,-0.08,0.95,0.32
-0.7109375,-0.019278053,7.256828E-4,9.6009974E-4,-0.08,0.95,0.33,23158,9940.70,0,0,165,-0.42,-2.45,0.00,-0.08,0.95,0.33
0.2890625,-2.780538E-4,-2.7431548E-4,-0.0020399,-0.08,0.95,0.32,23173,9941.70,0,0,0,0.91,-2.52,-0.21,-0.08,0.95,0.32
-0.7109375,0.019721946,7.256828E-4,-0.0040399004,-0.08,0.95,0.32,23181,9940.70,0,0,165,2.31,-2.45,-0.35,-0.08,0.95,0.32
-0.7109375,0.033721946,-2.7431548E-4,-0.0040399004,-0.08,0.96,0.32,23196,9940.70,0,0,0,3.29,-2.52,-0.35,-0.08,0.96,0.32
-0.7109375,0.030721946,-0.0012743175,-0.0040399004,-0.07,0.96,0.32,23211,9940.70,0,0,165,3.08,-2.59,-0.35,-0.07,0.96,0.32
0.5888672,0.013721947,-0.0022743195,-0.0010399004,-0.08,0.95,0.32,23219,9942.00,0,0,0,1.89,-2.66,-0.14,-0.08,0.95,0.32
-1.3115234,-0.008278054,-0.0022743195,-3.9900304E-5,-0.08,0.96,0.32,23233,9940.10,0,0,165,0.35,-2.66,-0.07,-0.08,0.96,0.32
0.2890625,-0.027278055,-2.7431548E-4,0.0019600997,-0.08,0.96,0.32,23248,9941.70,0,0,0,-0.98,-2.52,0.07,-0.08,0.96,0.32
0.2890625,-0.032278053,-0.0032743178,0.0019600997,-0.08,0.96,0.32,23257,9941.70,0,0,165,-1.33,-2.73,0.07,-0.08,0.96,0.32
0.2890625,-0.020278055,-0.0012743175,0.0019600997,-0.08,0.95,0.32,23271,9941.70,0,0,0,-0.49,-2.59,0.07,-0.08,0.95,0.32
-0.4111328,-0.0052780537,-2.7431548E-4,0.0029600998,-0.08,0.95,0.32,23286,9941.00,0,0,165,0.56,-2.52,0.14,-0.08,0.95,0.32
0.2890625,0.0077219456,-2.7431548E-4,-0.0010399004,-0.08,0.95,0.32,23293,9941.70,0,0,0,1.47,-2.52,-0.14,-0.08,0.95,0.32
-0.7109375,0.020721948,7.256828E-4,-0.0030399004,-0.08,0.95,0.32,23309,9940.70,0,0,165,2.38,-2.45,-0.28,-0.08,0.95,0.32
-0.7109375,0.024721948,0.0017256811,-0.0040399004,-0.08,0.96,0.32,23324,9940.70,0,0,0,2.66,-2.38,-0.35,-0.08,0.96,0.32
-0.4111328,0.017721947,7.256828E-4,-0.0030399004,-0.08,0.96,0.32,23331,9941.00,0,0,165,2.17,-2.45,-0.28,-0.08,0.96,0.32
0.5888672,0.004721945,0.0017256811,0.0019600997,-0.08,0.96,0.32,23346,9942.00,0,0,0,1.26,-2.38,0.07,-0.08,0.96,0.32
-1.7109375,-0.008278054,7.256828E-4,0.0019600997,-0.08,0.95,0.32,23360,9939.70,0,0,165,0.35,-2.45,0.07,-0.08,0.95,0.32
0.2890625,-0.019278053,0.0017256811,0.0049601,-0.08,0.95,0.32,23369,9941.70,0,0,0,-0.42,-2.38,0.28,-0.08,0.95,0.32
0.5888672,-0.021278054,-2.7431548E-4,0.0039600995,-0.07,0.95,0.32,23383,9942.00,0,0,165,-0.56,-2.52,0.21,-0.07,0.95,0.32
1.1884766,-0.011278054,0.0027256832,0.0039600995,-0.08,0.95,0.32,23399,9942.60,0,0,0,0.14,-2.31,0.21,-0.08,0.95,0.32
0.5888672,-2.780538E-4,0.0037256815,0.0019600997,-0.08,0.95,0.32,23406,9942.00,0,0,165,0.91,-2.24,0.07,-0.08,0.95,0.32
-0.7109375,0.014721947,0.0027256832,9.6009974E-4,-0.07,0.95,0.32,23421,9940.70,0,0,0,1.96,-2.31,0.00,-0.07,0.95,0.32
0.2890625,0.019721946,0.0027256832,-0.0010399004,-0.08,0.95,0.32,23436,9941.70,0,0,165,2.31,-2.31,-0.14,-0.08,0.95,0.32
-0.7109375,0.015721945,-2.7431548E-4,-3.9900304E-5,-0.08,0.95,0.32,23444,9940.70,0,0,0,2.03,-2.52,-0.07,-0.08,0.95,0.32
-0.4111328,0.0067219455,0.0017256811,9.6009974E-4,-0.08,0.96,0.32,23458,9941.00,0,0,165,1.40,-2.38,0.00,-0.08,0.96,0.32
0.2890625,-0.0072780545,-2.7431548E-4,0.0019600997,-0.07,0.95,0.32,23474,9941.70,0,0,0,0.42,-2.52,0.07,-0.07,0.95,0.32
-0.7109375,-0.014278054,7.256828E-4,0.0039600995,-0.08,0.95,0.32,23481,9940.70,0,0,165,-0.07,-2.45,0.21,-0.08,0.95,0.32
0.2890625,-0.015278054,-2.7431548E-4,9.6009974E-4,-0.08,0.95,0.32,23496,9941.70,0,0,0,-0.14,-2.52,0.00,-0.08,0.95,0.32
0.5888672,-0.006278054,0.0017256811,0.0019600997,-0.07,0.96,0.32,23511,9942.00,0,0,165,0.49,-2.38,0.07,-0.07,0.96,0.32
0.2890625,0.0037219469,-0.0012743175,-0.0030399004,-0.08,0.96,0.32,23519,9941.70,0,0,0,1.19,-2.59,-0.28,-0.08,0.96,0.32
-0.7109375,0.013721947,-2.7431548E-4,-0.0030399004,-0.08,0.96,0.32,23533,9940.70,0,0,165,1.89,-2.52,-0.28,-0.08,0.96,0.32
0.2890625,0.016721945,7.256828E-4,-0.0030399004,-0.08,0.96,0.32,23548,9941.70,0,0,0,2.10,-2.45,-0.28,-0.08,0.96,0.32
0.2890625,0.008721946,-0.0012743175,-0.0020399,-0.07,0.96,0.32,23556,9941.70,0,0,165,1.54,-2.59,-0.21,-0.07,0.96,0.32
-0.4111328,-0.0022780541,-0.0012743175,-0.0020399,-0.07,0.95,0.32,23572,9941.00,0,0,0,0.77,-2.59,-0.21,-0.07,0.95,0.32
0.2890625,-0.012278054,-0.0012743175,-3.9900304E-5,-0.08,0.95,0.32,23587,9941.70,0,0,165,0.07,-2.59,-0.07,-0.08,0.95,0.32
0.2890625,-0.013278054,-0.0012743175,9.6009974E-4,-0.07,0.96,0.32,23593,9941.70,0,0,0,0.00,-2.59,0.00,-0.07,0.96,0.32
0.5888672,-0.0052780537,-2.7431548E-4,9.6009974E-4,-0.08,0.96,0.32,23609,9942.00,0,0,165,0.56,-2.52,0.00,-0.08,0.96,0.32
-0.7109375,0.0067219455,7.256828E-4,0.0019600997,-0.07,0.96,0.32,23623,9940.70,0,0,0,1.40,-2.45,0.07,-0.07,0.96,0.32
-0.7109375,0.009721946,-2.7431548E-4,-0.0010399004,-0.08,0.96,0.32,23631,9940.70,0,0,165,1.61,-2.52,-0.14,-0.08,0.96,0.32
0.2890625,0.009721946,7.256828E-4,-0.0030399004,-0.07,0.95,0.32,23646,9941.70,0,0,0,1.61,-2.45,-0.28,-0.07,0.95,0.32
0.2890625,0.0017219456,-2.7431548E-4,-0.0030399004,-0.08,0.95,0.32,23661,9941.70,0,0,165,1.05,-2.52,-0.28,-0.08,0.95,0.32
0.5888672,7.2194636E-4,-2.7431548E-4,-0.0010399004,-0.08,0.96,0.32,23669,9942.00,0,0,0,0.98,-2.52,-0.14,-0.08,0.96,0.32
0.2890625,-2.780538E-4,-0.0032743178,9.6009974E-4,-0.08,0.96,0.32,23683,9941.70,0,0,165,0.91,-2.73,0.00,-0.08,0.96,0.32
0.2890625,-0.0012780549,-0.0012743175,0.0039600995,-0.08,0.96,0.32,23698,9941.70,0,0,0,0.84,-2.59,0.21,-0.08,0.96,0.32
-0.4111328,-2.780538E-4,0.0017256811,0.0029600998,-0.08,0.96,0.32,23707,9941.00,0,0,165,0.91,-2.38,0.14,-0.08,0.96,0.32
-0.4111328,-0.0042780545,7.256828E-4,9.6009974E-4,-0.08,0.96,0.33,23722,9941.00,0,0,0,0.63,-2.45,0.00,-0.08,0.96,0.33
-0.7109375,-0.0012780549,7.256828E-4,-0.0010399004,-0.08,0.95,0.32,23736,9940.70,0,0,165,0.84,-2.45,-0.14,-0.08,0.95,0.32
0.2890625,-0.0032780543,7.256828E-4,-3.9900304E-5,-0.07,0.95,0.32,23743,9941.70,0,0,0,0.70,-2.45,-0.07,-0.07,0.95,0.32
0.5888672,-0.0022780541,-0.0012743175,-0.0030399004,-0.07,0.95,0.32,23759,9942.00,0,0,165,0.77,-2.59,-0.28,-0.07,0.95,0.32
0.2890625,-0.0032780543,-0.0012743175,9.6009974E-4,-0.08,0.95,0.32,23774,9941.70,0,0,0,0.70,-2.59,0.00,-0.08,0.95,0.32
0.5888672,-0.0022780541,-2.7431548E-4,-0.0010399004,-0.08,0.95,0.32,23781,9942.00,0,0,165,0.77,-2.52,-0.14,-0.08,0.95,0.32
-0.7109375,-2.780538E-4,7.256828E-4,-3.9900304E-5,-0.08,0.96,0.32,23796,9940.70,0,0,0,0.91,-2.45,-0.07,-0.08,0.96,0.32
-0.7109375,0.010721944,0.0037256815,9.6009974E-4,-0.07,0.96,0.32,23811,9940.70,0,0,165,1.68,-2.24,0.00,-0.07,0.96,0.32
-0.7109375,0.016721945,7.256828E-4,-3.9900304E-5,-0.07,0.96,0.32,23819,9940.70,0,0,0,2.10,-2.45,-0.07,-0.07,0.96,0.32
-0.7109375,0.012721946,-2.7431548E-4,9.6009974E-4,-0.07,0.96,0.32,23833,9940.70,0,0,165,1.82,-2.52,0.00,-0.07,0.96,0.32
0.5888672,-0.0032780543,-0.0022743195,0.0029600998,-0.08,0.95,0.32,23848,9942.00,0,0,0,0.70,-2.66,0.14,-0.08,0.95,0.32
-0.4111328,-0.018278055,-0.0012743175,0.0079601,-0.07,0.95,0.32,23856,9941.00,0,0,165,-0.35,-2.59,0.49,-0.07,0.95,0.32
-0.7109375,-0.030278055,-0.0022743195,0.0059600994,-0.08,0.95,0.32,23871,9940.70,0,0,0,-1.19,-2.66,0.35,-0.08,0.95,0.32
0.2890625,-0.026278054,-2.7431548E-4,0.0049601,-0.08,0.95,0.32,23886,9941.70,0,0,165,-0.91,-2.52,0.28,-0.08,0.95,0.32
-0.4111328,-0.006278054,-2.7431548E-4,0.0019600997,-0.08,0.95,0.33,23893,9941.00,0,0,0,0.49,-2.52,0.07,-0.08,0.95,0.33
0.2890625,0.015721945,-2.7431548E-4,-0.0030399004,-0.08,0.95,0.32,23909,9941.70,0,0,165,2.03,-2.52,-0.28,-0.08,0.95,0.32
-0.7109375,0.03172195,-2.7431548E-4,-0.0060399007,-0.08,0.95,0.32,23923,9940.70,0,0,0,3.15,-2.52,-0.49,-0.08,0.95,0.32
-0.4111328,0.036721945,7.256828E-4,-0.0050398996,-0.08,0.96,0.32,23931,9941.00,0,0,165,3.50,-2.45,-0.42,-0.08,0.96,0.32
-0.7109375,0.019721946,-2.7431548E-4,-0.0040399004,-0.08,0.96,0.32,23946,9940.70,0,0,0,2.31,-2.52,-0.35,-0.08,0.96,0.32
-0.4111328,-0.0022780541,-0.0022743195,-0.0020399,-0.07,0.96,0.32,23960,9941.00,0,0,165,0.77,-2.66,-0.21,-0.07,0.96,0.32
1.8886719,-0.025278054,-0.0022743195,0.0029600998,-0.07,0.95,0.32,23969,9943.30,0,0,0,-0.84,-2.66,0.14,-0.07,0.95,0.32
0.5888672,-0.041278057,-0.0012743175,0.0059600994,-0.07,0.95,0.32,23983,9942.00,0,0,165,-1.96,-2.59,0.35,-0.07,0.95,0.32
0.2890625,-0.035278052,-2.7431548E-4,0.0059600994,-0.07,0.95,0.32,23998,9941.70,0,0,0,-1.54,-2.52,0.35,-0.07,0.95,0.32
0.5888672,-0.016278055,0.0027256832,-0.2550399,-0.08,0.95,0.33,24006,9942.00,0,0,165,-0.21,-2.31,-17.92,-0.08,0.95,0.33
0.5888672,0.011721946,7.256828E-4,-0.0020399,-0.08,0.95,0.32,24021,9942.00,0,0,0,1.75,-2.45,-0.21,-0.08,0.95,0.32
-0.7109375,0.029721947,0.0017256811,-0.0050398996,-0.07,0.95,0.33,24037,9940.70,0,0,165,3.01,-2.38,-0.42,-0.07,0.95,0.33
-0.7109375,0.032721944,-2.7431548E-4,-0.0020399,-0.07,0.95,0.32,24044,9940.70,0,0,0,3.22,-2.52,-0.21,-0.07,0.95,0.32
-0.4111328,0.017721947,7.256828E-4,-0.0020399,-0.07,0.95,0.32,24059,9941.00,0,0,165,2.17,-2.45,-0.21,-0.07,0.95,0.32
0.2890625,-0.0012780549,7.256828E-4,0.0019600997,-0.08,0.95,0.32,24073,9941.70,0,0,0,0.84,-2.45,0.07,-0.08,0.95,0.32
-0.7109375,-0.017278055,7.256828E-4,0.0049601,-0.08,0.96,0.32,24081,9940.70,0,0,165,-0.28,-2.45,0.28,-0.08,0.96,0.32
-0.7109375,-0.019278053,0.0017256811,0.0059600994,-0.08,0.96,0.32,24096,9940.70,0,0,0,-0.42,-2.38,0.35,-0.08,0.96,0.32
-0.7109375,-0.009278053,0.0017256811,0.0039600995,-0.08,0.95,0.32,24111,9940.70,0,0,165,0.28,-2.38,0.21,-0.08,0.95,0.32
-0.7109375,0.009721946,7.256828E-4,9.6009974E-4,-0.08,0.96,0.32,24119,9940.70,0,0,0,1.61,-2.45,0.00,-0.08,0.96,0.32
0.2890625,0.021721946,0.0017256811,-3.9900304E-5,-0.07,0.96,0.32,24134,9941.70,0,0,165,2.45,-2.38,-0.07,-0.07,0.96,0.32
-0.4111328,0.021721946,-2.7431548E-4,-0.0010399004,-0.08,0.95,0.32,24149,9941.00,0,0,0,2.45,-2.52,-0.14,-0.08,0.95,0.32
0.2890625,0.010721944,-0.0022743195,-0.0010399004,-0.07,0.96,0.32,24156,9941.70,0,0,165,1.68,-2.66,-0.14,-0.07,0.96,0.32
0.5888672,-0.0072780545,-0.0012743175,-3.9900304E-5,-0.08,0.96,0.32,24171,9942.00,0,0,0,0.42,-2.59,-0.07,-0.08,0.96,0.32
-0.7109375,-0.020278055,-0.0022743195,9.6009974E-4,-0.08,0.95,0.32,24186,9940.70,0,0,165,-0.49,-2.66,0.00,-0.08,0.95,0.32
-0.4111328,-0.022278054,-0.0022743195,0.0019600997,-0.07,0.95,0.32,24195,9941.00,0,0,0,-0.63,-2.66,0.07,-0.07,0.95,0.32
-0.4111328,-0.012278054,-2.7431548E-4,0.0029600998,-0.07,0.96,0.32,24208,9941.00,0,0,165,0.07,-2.52,0.14,-0.07,0.96,0.32
0.5888672,-0.0052780537,-2.7431548E-4,0.0019600997,-0.08,0.95,0.32,24223,9942.00,0,0,0,0.56,-2.52,0.07,-0.08,0.95,0.32
1.5888672,-2.780538E-4,-0.0012743175,-0.0010399004,-0.07,0.95,0.32,24231,9943.00,0,0,165,0.91,-2.59,-0.14,-0.07,0.95,0.32
0.2890625,0.0067219455,-2.7431548E-4,-0.0020399,-0.07,0.95,0.32,24246,9941.70,0,0,0,1.40,-2.52,-0.21,-0.07,0.95,0.32
1.5888672,0.0067219455,-0.0012743175,-3.9900304E-5,-0.07,0.95,0.32,24261,9943.00,0,0,165,1.40,-2.59,-0.07,-0.07,0.95,0.32
1.5888672,0.004721945,7.256828E-4,-0.0020399,-0.08,0.95,0.32,24268,9943.00,0,0,0,1.26,-2.45,-0.21,-0.08,0.95,0.32
0.2890625,0.004721945,-2.7431548E-4,-0.0020399,-0.08,0.95,0.32,24283,9941.70,0,0,165,1.26,-2.52,-0.21,-0.08,0.95,0.32
0.2890625,0.004721945,-2.7431548E-4,0.25496012,-0.08,0.96,0.32,24298,9941.70,0,0,0,1.26,-2.52,17.78,-0.08,0.96,0.32
0.2890625,0.0037219469,0.0027256832,0.0039600995,-0.08,0.96,0.32,24306,9941.70,0,0,165,1.19,-2.31,0.21,-0.08,0.96,0.32
-0.4111328,-0.0012780549,0.0027256832,0.0049601,-0.08,0.95,0.32,24321,9941.00,0,0,0,0.84,-2.31,0.28,-0.08,0.95,0.32
-0.7109375,-0.006278054,0.0017256811,0.0059600994,-0.08,0.95,0.32,24336,9940.70,0,0,165,0.49,-2.38,0.35,-0.08,0.95,0.32
0.5888672,-0.009278053,-2.7431548E-4,0.0019600997,-0.07,0.95,0.32,24344,9942.00,0,0,0,0.28,-2.52,0.07,-0.07,0.95,0.32
-0.4111328,-0.0072780545,7.256828E-4,0.0019600997,-0.08,0.96,0.32,24358,9941.00,0,0,165,0.42,-2.45,0.07,-0.08,0.96,0.32
0.5888672,0.0037219469,-0.0012743175,9.6009974E-4,-0.08,0.95,0.32,24374,9942.00,0,0,0,1.19,-2.59,0.00,-0.08,0.95,0.32
0.5888672,0.014721947,-2.7431548E-4,0.0019600997,-0.08,0.96,0.32,24381,9942.00,0,0,165,1.96,-2.52,0.07,-0.08,0.96,0.32
-0.7109375,0.018721947,-2.7431548E-4,-0.0010399004,-0.08,0.96,0.32,24396,9940.70,0,0,0,2.24,-2.52,-0.14,-0.08,0.96,0.32
0.5888672,0.013721947,-0.0012743175,-0.0030399004,-0.08,0.96,0.32,24411,9942.00,0,0,165,1.89,-2.59,-0.28,-0.08,0.96,0.32
-0.7109375,0.008721946,-2.7431548E-4,-0.0020399,-0.07,0.96,0.32,24418,9940.70,0,0,0,1.54,-2.52,-0.21,-0.07,0.96,0.32
-0.7109375,-0.0052780537,-0.0012743175,0.0019600997,-0.08,0.96,0.32,24434,9940.70,0,0,165,0.56,-2.59,0.07,-0.08,0.96,0.32
0.5888672,-0.015278054,-2.7431548E-4,0.0019600997,-0.07,0.95,0.32,24449,9942.00,0,0,0,-0.14,-2.52,0.07,-0.07,0.95,0.32
0.2890625,-0.021278054,-2.7431548E-4,0.0049601,-0.08,0.95,0.32,24456,9941.70,0,0,165,-0.56,-2.52,0.28,-0.08,0.95,0.32
0.2890625,-0.019278053,-0.0012743175,0.0029600998,-0.07,0.95,0.32,24471,9941.70,0,0,0,-0.42,-2.59,0.14,-0.07,0.95,0.32
0.5888672,-0.0102780545,7.256828E-4,9.6009974E-4,-0.08,0.95,0.32,24485,9942.00,0,0,165,0.21,-2.45,0.00,-0.08,0.95,0.32
-0.4111328,0.0017219456,-2.7431548E-4,0.0039600995,-0.07,0.95,0.32,24494,9941.00,0,0,0,1.05,-2.52,0.21,-0.07,0.95,0.32
0.2890625,0.013721947,7.256828E-4,0.0019600997,-0.07,0.95,0.32,24508,9941.70,0,0,165,1.89,-2.45,0.07,-0.07,0.95,0.32
-0.7109375,0.013721947,-2.7431548E-4,9.6009974E-4,-0.07,0.96,0.32,24523,9940.70,0,0,0,1.89,-2.52,0.00,-0.07,0.96,0.32
0.5888672,0.011721946,-2.7431548E-4,-0.0010399004,-0.07,0.96,0.32,24531,9942.00,0,0,165,1.75,-2.52,-0.14,-0.07,0.96,0.32
-0.4111328,0.005721947,-2.7431548E-4,-0.0010399004,-0.07,0.96,0.32,24546,9941.00,0,0,0,1.33,-2.52,-0.14,-0.07,0.96,0.32
-0.7109375,-0.0022780541,-2.7431548E-4,-0.0010399004,-0.07,0.96,0.32,24561,9940.70,0,0,165,0.77,-2.52,-0.14,-0.07,0.96,0.32
0.5888672,-0.0102780545,-0.0022743195,9.6009974E-4,-0.07,0.95,0.32,24569,9942.00,0,0,0,0.21,-2.66,0.00,-0.07,0.95,0.32
0.2890625,-0.008278054,-0.0012743175,0.0019600997,-0.08,0.95,0.32,24583,9941.70,0,0,165,0.35,-2.59,0.07,-0.08,0.95,0.32
0.5888672,-0.0052780537,-0.0022743195,0.0019600997,-0.08,0.95,0.32,24598,9942.00,0,0,0,0.56,-2.66,0.07,-0.08,0.95,0.32
0.2890625,7.2194636E-4,0.0017256811,9.6009974E-4,-0.07,0.95,0.32,24606,9941.70,0,0,165,0.98,-2.38,0.00,-0.07,0.95,0.32
-0.4111328,0.0027219467,-2.7431548E-4,0.0019600997,-0.08,0.95,0.32,24621,9941.00,0,0,0,1.12,-2.52,0.07,-0.08,0.95,0.32
1.1884766,0.004721945,7.256828E-4,9.6009974E-4,-0.08,0.95,0.32,24637,9942.60,0,0,165,1.26,-2.45,0.00,-0.08,0.95,0.32
-0.7109375,0.0037219469,-0.0012743175,9.6009974E-4,-0.07,0.95,0.32,24644,9940.70,0,0,0,1.19,-2.59,0.00,-0.07,0.95,0.32
-0.4111328,0.0017219456,-2.7431548E-4,-3.9900304E-5,-0.07,0.95,0.32,24659,9941.00,0,0,165,1.05,-2.52,-0.07,-0.07,0.95,0.32
0.2890625,-2.780538E-4,-2.7431548E-4,-0.0020399,-0.08,0.96,0.32,24674,9941.70,0,0,0,0.91,-2.52,-0.21,-0.08,0.96,0.32
-0.7109375,0.0077219456,-0.0012743175,-3.9900304E-5,-0.08,0.96,0.32,24680,9940.70,0,0,165,1.47,-2.59,-0.07,-0.08,0.96,0.32
-1.3115234,0.0067219455,-0.0022743195,0.0019600997,-0.08,0.96,0.32,24695,9940.10,0,0,0,1.40,-2.66,0.07,-0.08,0.96,0.32
0.2890625,-2.780538E-4,-2.7431548E-4,0.0059600994,-0.08,0.96,0.32,24711,9941.70,0,0,165,0.91,-2.52,0.35,-0.08,0.96,0.32
0.2890625,-0.0102780545,0.0017256811,0.0019600997,-0.07,0.96,0.32,24720,9941.70,0,0,0,0.21,-2.38,0.07,-0.07,0.96,0.32
0.2890625,-0.016278055,0.0017256811,9.6009974E-4,-0.08,0.95,0.32,24733,9941.70,0,0,165,-0.21,-2.38,0.00,-0.08,0.95,0.32
0.5888672,-0.011278054,0.0017256811,-0.0010399004,-0.07,0.95,0.32,24749,9942.00,0,0,0,0.14,-2.38,-0.14,-0.07,0.95,0.32
-0.7109375,-0.0022780541,-0.0012743175,-0.0010399004,-0.07,0.95,0.32,24755,9940.70,0,0,165,0.77,-2.59,-0.14,-0.07,0.95,0.32
-0.7109375,0.008721946,-0.0022743195,-0.0030399004,-0.07,0.95,0.32,24771,9940.70,0,0,0,1.54,-2.66,-0.28,-0.07,0.95,0.32
0.2890625,0.009721946,-0.0012743175,-3.9900304E-5,-0.07,0.95,0.32,24786,9941.70,0,0,165,1.61,-2.59,-0.07,-0.07,0.95,0.32
-0.7109375,-0.0012780549,-2.7431548E-4,-0.0010399004,-0.07,0.95,0.32,24793,9940.70,0,0,0,0.84,-2.52,-0.14,-0.07,0.95,0.32
0.2890625,-0.0032780543,7.256828E-4,-0.0010399004,-0.08,0.96,0.32,24809,9941.70,0,0,165,0.70,-2.45,-0.14,-0.08,0.96,0.32
0.2890625,0.0027219467,7.256828E-4,9.6009974E-4,-0.08,0.96,0.32,24824,9941.70,0,0,0,1.12,-2.45,0.00,-0.08,0.96,0.32
-0.4111328,0.013721947,0.0017256811,0.0029600998,-0.08,0.96,0.32,24831,9941.00,0,0,165,1.89,-2.38,0.14,-0.08,0.96,0.32
0.2890625,0.014721947,7.256828E-4,0.0049601,-0.07,0.95,0.32,24845,9941.70,0,0,0,1.96,-2.45,0.28,-0.07,0.95,0.32
-0.4111328,-0.0022780541,-0.0012743175,0.0069600996,-0.07,0.95,0.32,24861,9941.00,0,0,165,0.77,-2.59,0.42,-0.07,0.95,0.32
0.2890625,-0.027278055,-2.7431548E-4,0.0069600996,-0.08,0.95,0.32,24869,9941.70,0,0,0,-0.98,-2.52,0.42,-0.08,0.95,0.32
0.2890625,-0.041278057,-2.7431548E-4,0.0039600995,-0.08,0.95,0.32,24883,9941.70,0,0,165,-1.96,-2.52,0.21,-0.08,0.95,0.32
0.5888672,-0.035278052,-0.0022743195,9.6009974E-4,-0.08,0.95,0.32,24899,9942.00,0,0,0,-1.54,-2.66,0.00,-0.08,0.95,0.32
-0.7109375,-0.008278054,0.0017256811,-3.9900304E-5,-0.08,0.95,0.32,24906,9940.70,0,0,165,0.35,-2.38,-0.07,-0.08,0.95,0.32
-0.7109375,0.024721948,0.0027256832,-0.0050398996,-0.08,0.95,0.33,24922,9940.70,0,0,0,2.66,-2.31,-0.42,-0.08,0.95,0.33
-1.3115234,0.044721946,0.0017256811,-0.0050398996,-0.08,0.96,0.32,24936,9940.10,0,0,165,4.06,-2.38,-0.42,-0.08,0.96,0.32
-0.7109375,0.039721943,7.256828E-4,-0.0050398996,-0.08,0.96,0.32,24943,9940.70,0,0,0,3.71,-2.45,-0.42,-0.08,0.96,0.32
0.2890625,0.016721945,-0.0022743195,-0.0010399004,-0.08,0.96,0.32,24959,9941.70,0,0,165,2.10,-2.66,-0.14,-0.08,0.96,0.32
0.5888672,-0.021278054,-0.0032743178,0.0059600994,-0.07,0.95,0.32,24973,9942.00,0,0,0,-0.56,-2.73,0.35,-0.07,0.95,0.32
-0.4111328,-0.040278055,-2.7431548E-4,0.011960099,-0.08,0.96,0.32,24981,9941.00,0,0,165,-1.89,-2.52,0.77,-0.08,0.96,0.32
0.2890625,-0.043278053,-2.7431548E-4,0.011960099,-0.07,0.95,0.32,24996,9941.70,0,0,0,-2.10,-2.52,0.77,-0.07,0.95,0.32
0.5888672,-0.025278054,7.256828E-4,0.0069600996,-0.07,0.95,0.32,25011,9942.00,0,0,165,-0.84,-2.45,0.42,-0.07,0.95,0.32
-0.4111328,0.009721946,0.0017256811,0.0019600997,-0.07,0.95,0.32,25019,9941.00,0,0,0,1.61,-2.38,0.07,-0.07,0.95,0.32
-0.7109375,0.03872195,0.0027256832,-0.0050398996,-0.07,0.96,0.32,25033,9940.70,0,0,165,3.64,-2.31,-0.42,-0.07,0.96,0.32
0.2890625,0.04972195,-2.7431548E-4,-0.0060399007,-0.07,0.96,0.32,25049,9941.70,0,0,0,4.41,-2.52,-0.49,-0.07,0.96,0.32
0.2890625,0.03472194,-0.0012743175,-0.0050398996,-0.08,0.96,0.32,25057,9941.70,0,0,165,3.36,-2.59,-0.42,-0.08,0.96,0.32
-0.4111328,-2.780538E-4,-0.0012743175,0.0019600997,-0.08,0.96,0.32,25071,9941.00,0,0,0,0.91,-2.59,0.07,-0.08,0.96,0.32
0.5888672,-0.03127805,-0.0022743195,0.0069600996,-0.08,0.96,0.32,25086,9942.00,0,0,165,-1.26,-2.66,0.42,-0.08,0.96,0.32
-0.4111328,-0.046278052,-2.7431548E-4,0.0079601,-0.08,0.96,0.32,25093,9941.00,0,0,0,-2.31,-2.52,0.49,-0.08,0.96,0.32
-0.4111328,-0.039278053,7.256828E-4,0.0059600994,-0.08,0.95,0.33,25109,9941.00,0,0,165,-1.82,-2.45,0.35,-0.08,0.95,0.33
-0.7109375,-0.013278054,-0.0012743175,0.0029600998,-0.08,0.95,0.32,25123,9940.70,0,0,0,0.00,-2.59,0.14,-0.08,0.95,0.32
-0.4111328,0.012721946,-0.0032743178,-3.9900304E-5,-0.07,0.95,0.33,25131,9941.00,0,0,165,1.82,-2.73,-0.07,-0.07,0.95,0.33
0.2890625,0.032721944,-0.0022743195,-0.0030399004,-0.07,0.95,0.32,25146,9941.70,0,0,0,3.22,-2.66,-0.28,-0.07,0.95,0.32
0.5888672,0.03572195,-2.7431548E-4,-0.0050398996,-0.07,0.95,0.32,25161,9942.00,0,0,165,3.43,-2.52,-0.42,-0.07,0.95,0.32
-0.4111328,0.024721948,0.0017256811,-0.0020399,-0.08,0.95,0.32,25168,9941.00,0,0,0,2.66,-2.38,-0.21,-0.08,0.95,0.32
0.2890625,0.009721946,-0.0012743175,-0.0020399,-0.08,0.96,0.32,25183,9941.70,0,0,165,1.61,-2.59,-0.21,-0.08,0.96,0.32
-0.7109375,-0.0042780545,-0.0012743175,0.0019600997,-0.08,0.96,0.32,25206,9940.70,0,0,0,0.63,-2.59,0.07,-0.08,0.96,0.32
-0.7109375,-0.012278054,7.256828E-4,0.0049601,-0.08,0.96,0.32,25209,9940.70,0,0,165,0.07,-2.45,0.28,-0.08,0.96,0.32
0.5888672,-0.017278055,-0.0012743175,0.0049601,-0.08,0.95,0.32,25221,9942.00,0,0,0,-0.28,-2.59,0.28,-0.08,0.95,0.32
2.4892578,-0.015278054,-2.7431548E-4,0.0029600998,-0.08,0.95,0.32,25236,9943.90,0,0,165,-0.14,-2.52,0.14,-0.08,0.95,0.32
-0.7109375,-0.0102780545,-2.7431548E-4,0.0039600995,-0.08,0.95,0.32,25243,9940.70,0,0,0,0.21,-2.52,0.21,-0.08,0.95,0.32
-0.7109375,-0.0052780537,-2.7431548E-4,-3.9900304E-5,-0.07,0.95,0.32,25260,9940.70,0,0,165,0.56,-2.52,-0.07,-0.07,0.95,0.32
0.5888672,0.0027219467,-2.7431548E-4,-0.0010399004,-0.08,0.95,0.32,25266,9942.00,0,0,0,1.12,-2.52,-0.14,-0.08,0.95,0.32
-0.7109375,0.008721946,7.256828E-4,-0.0010399004,-0.08,0.95,0.33,25281,9940.70,0,0,165,1.54,-2.45,-0.14,-0.08,0.95,0.33
0.5888672,0.012721946,0.0027256832,0.0019600997,-0.07,0.95,0.32,25296,9942.00,0,0,0,1.82,-2.31,0.07,-0.07,0.95,0.32
0.5888672,0.011721946,0.0017256811,9.6009974E-4,-0.08,0.95,0.32,25303,9942.00,0,0,165,1.75,-2.38,0.00,-0.08,0.95,0.32
0.5888672,0.0077219456,0.0027256832,0.0029600998,-0.07,0.96,0.32,25319,9942.00,0,0,0,1.47,-2.31,0.14,-0.07,0.96,0.32
0.5888672,0.0037219469,0.0017256811,0.0029600998,-0.07,0.96,0.32,25333,9942.00,0,0,165,1.19,-2.38,0.14,-0.07,0.96,0.32
0.2890625,-0.0052780537,0.0017256811,-0.0010399004,-0.07,0.96,0.32,25341,9941.70,0,0,0,0.56,-2.38,-0.14,-0.07,0.96,0.32
-0.111328125,-0.008278054,7.256828E-4,9.6009974E-4,-0.07,0.95,0.32,25356,9941.30,0,0,165,0.35,-2.45,0.00,-0.07,0.95,0.32
0.2890625,-0.008278054,7.256828E-4,0.0029600998,-0.07,0.96,0.32,25371,9941.70,0,0,0,0.35,-2.45,0.14,-0.07,0.96,0.32
0.2890625,-0.006278054,7.256828E-4,0.0019600997,-0.08,0.96,0.32,25379,9941.70,0,0,165,0.49,-2.45,0.07,-0.08,0.96,0.32
-0.4111328,-0.0032780543,0.0027256832,0.0029600998,-0.07,0.95,0.32,25393,9941.00,0,0,0,0.70,-2.31,0.14,-0.07,0.95,0.32
0.2890625,-2.780538E-4,0.0017256811,9.6009974E-4,-0.07,0.95,0.32,25409,9941.70,0,0,165,0.91,-2.38,0.00,-0.07,0.95,0.32
-0.4111328,0.0027219467,7.256828E-4,-3.9900304E-5,-0.07,0.95,0.32,25415,9941.00,0,0,0,1.12,-2.45,-0.07,-0.07,0.95,0.32
-0.4111328,0.0077219456,0.0017256811,-0.0010399004,-0.07,0.95,0.32,25431,9941.00,0,0,165,1.47,-2.38,-0.14,-0.07,0.95,0.32
-1.7109375,0.009721946,7.256828E-4,-0.0020399,-0.08,0.96,0.32,25446,9939.70,0,0,0,1.61,-2.45,-0.21,-0.08,0.96,0.32
-0.7109375,0.012721946,-0.0012743175,-0.0020399,-0.08,0.96,0.32,25454,9940.70,0,0,165,1.82,-2.59,-0.21,-0.08,0.96,0.32
0.5888672,0.0067219455,-0.0012743175,-0.0010399004,-0.07,0.95,0.32,25468,9942.00,0,0,0,1.40,-2.59,-0.14,-0.07,0.95,0.32
0.2890625,-0.0042780545,-0.0012743175,-3.9900304E-5,-0.07,0.95,0.32,25483,9941.70,0,0,165,0.63,-2.59,-0.07,-0.07,0.95,0.32
-0.4111328,-0.014278054,-2.7431548E-4,0.0019600997,-0.08,0.96,0.32,25491,9941.00,0,0,0,-0.07,-2.52,0.07,-0.08,0.96,0.32
-1.7109375,-0.018278055,-0.0012743175,0.0019600997,-0.08,0.95,0.32,25506,9939.70,0,0,165,-0.35,-2.59,0.07,-0.08,0.95,0.32
-1.0107422,-0.012278054,-0.0022743195,9.6009974E-4,-0.07,0.95,0.32,25521,9940.40,0,0,0,0.07,-2.66,0.00,-0.07,0.95,0.32
0.2890625,-0.0022780541,-0.0012743175,-0.0010399004,-0.08,0.95,0.32,25529,9941.70,0,0,165,0.77,-2.59,-0.14,-0.08,0.95,0.32
-0.7109375,0.012721946,-2.7431548E-4,-3.9900304E-5,-0.08,0.96,0.32,25543,9940.70,0,0,0,1.82,-2.52,-0.07,-0.08,0.96,0.32
-0.4111328,0.018721947,-2.7431548E-4,9.6009974E-4,-0.08,0.95,0.32,25558,9941.00,0,0,165,2.24,-2.52,0.00,-0.08,0.95,0.32
0.5888672,0.016721945,0.0017256811,-0.0010399004,-0.07,0.95,0.32,25566,9942.00,0,0,0,2.10,-2.38,-0.14,-0.07,0.95,0.32
-0.7109375,0.0077219456,7.256828E-4,-0.0030399004,-0.08,0.95,0.32,25581,9940.70,0,0,165,1.47,-2.45,-0.28,-0.08,0.95,0.32
0.5888672,-0.006278054,-2.7431548E-4,-0.0020399,-0.08,0.95,0.32,25595,9942.00,0,0,0,0.49,-2.52,-0.21,-0.08,0.95,0.32
-0.7109375,-0.011278054,-0.0032743178,0.0019600997,-0.07,0.95,0.32,25603,9940.70,0,0,165,0.14,-2.73,0.07,-0.07,0.95,0.32
0.5888672,-0.012278054,-0.0012743175,0.0039600995,-0.08,0.95,0.32,25618,9942.00,0,0,0,0.07,-2.59,0.21,-0.08,0.95,0.32
-0.7109375,-0.0102780545,-2.7431548E-4,0.0049601,-0.08,0.95,0.32,25633,9940.70,0,0,165,0.21,-2.52,0.28,-0.08,0.95,0.32
0.8886719,-0.006278054,7.256828E-4,0.0049601,-0.07,0.95,0.33,25641,9942.30,0,0,0,0.49,-2.45,0.28,-0.07,0.95,0.33
-0.7109375,0.0017219456,0.0037256815,-0.0020399,-0.07,0.95,0.32,25656,9940.70,0,0,165,1.05,-2.24,-0.21,-0.07,0.95,0.32
0.2890625,0.013721947,0.0047256816,-0.007039901,-0.08,0.95,0.32,25671,9941.70,0,0,0,1.89,-2.17,-0.56,-0.08,0.95,0.32
0.5888672,0.018721947,0.0017256811,-0.007039901,-0.07,0.95,0.32,25678,9942.00,0,0,165,2.24,-2.38,-0.56,-0.07,0.95,0.32
-0.4111328,0.017721947,0.0017256811,-0.0030399004,-0.08,0.95,0.32,25693,9941.00,0,0,0,2.17,-2.38,-0.28,-0.08,0.95,0.32
0.2890625,0.005721947,7.256828E-4,-3.9900304E-5,-0.08,0.95,0.32,25716,9941.70,0,0,165,1.33,-2.45,-0.07,-0.08,0.95,0.32
-0.7109375,-0.021278054,7.256828E-4,0.0029600998,-0.08,0.95,0.32,25718,9940.70,0,0,0,-0.56,-2.45,0.14,-0.08,0.95,0.32
0.5888672,-0.032278053,7.256828E-4,0.0029600998,-0.08,0.95,0.32,25731,9942.00,0,0,165,-1.33,-2.45,0.14,-0.08,0.95,0.32
0.5888672,-0.026278054,0.0017256811,0.0039600995,-0.08,0.96,0.32,25747,9942.00,0,0,0,-0.91,-2.38,0.21,-0.08,0.96,0.32
-0.7109375,-0.0042780545,0.0027256832,9.6009974E-4,-0.08,0.96,0.32,25754,9940.70,0,0,165,0.63,-2.31,0.00,-0.08,0.96,0.32
-1.7109375,0.026721945,7.256828E-4,-0.0010399004,-0.07,0.96,0.32,25769,9939.70,0,0,0,2.80,-2.45,-0.14,-0.07,0.96,0.32
-0.4111328,0.037721947,7.256828E-4,-3.9900304E-5,-0.07,0.96,0.32,25784,9941.00,0,0,165,3.57,-2.45,-0.07,-0.07,0.96,0.32
-0.4111328,0.023721946,-2.7431548E-4,-3.9900304E-5,-0.07,0.95,0.32,25791,9941.00,0,0,0,2.59,-2.52,-0.07,-0.07,0.95,0.32
-0.7109375,-0.0032780543,-0.0012743175,0.0019600997,-0.07,0.95,0.32,25806,9940.70,0,0,165,0.70,-2.59,0.07,-0.07,0.95,0.32
-0.4111328,-0.027278055,-0.0012743175,0.0019600997,-0.07,0.95,0.32,25821,9941.00,0,0,0,-0.98,-2.59,0.07,-0.07,0.95,0.32
-0.4111328,-0.035278052,-0.0022743195,0.0039600995,-0.08,0.95,0.33,25829,9941.00,0,0,165,-1.54,-2.66,0.21,-0.08,0.95,0.33
-0.4111328,-0.019278053,-0.0012743175,0.0029600998,-0.08,0.96,0.32,25844,9941.00,0,0,0,-0.42,-2.59,0.14,-0.08,0.96,0.32
0.5888672,0.0027219467,-0.0012743175,9.6009974E-4,-0.08,0.95,0.33,25859,9942.00,0,0,165,1.12,-2.59,0.00,-0.08,0.95,0.33
-0.7109375,0.021721946,-0.0012743175,-0.0040399004,-0.08,0.95,0.32,25866,9940.70,0,0,0,2.45,-2.59,-0.35,-0.08,0.95,0.32
0.5888672,0.027721943,-2.7431548E-4,-0.0050398996,-0.07,0.95,0.32,25882,9942.00,0,0,165,2.87,-2.52,-0.42,-0.07,0.95,0.32
0.5888672,0.021721946,-2.7431548E-4,-0.0030399004,-0.07,0.95,0.32,25895,9942.00,0,0,0,2.45,-2.52,-0.28,-0.07,0.95,0.32
1.5888672,0.0027219467,-0.0012743175,-0.0010399004,-0.07,0.95,0.32,25903,9943.00,0,0,165,1.12,-2.59,-0.14,-0.07,0.95,0.32
-0.7109375,-0.013278054,-2.7431548E-4,0.0019600997,-0.07,0.95,0.32,25919,9940.70,0,0,0,0.00,-2.52,0.07,-0.07,0.95,0.32
-0.7109375,-0.019278053,7.256828E-4,0.0019600997,-0.07,0.95,0.32,25933,9940.70,0,0,165,-0.42,-2.45,0.07,-0.07,0.95,0.32
0.2890625,-0.014278054,7.256828E-4,0.0019600997,-0.07,0.96,0.32,25941,9941.70,0,0,0,-0.07,-2.45,0.07,-0.07,0.96,0.32
0.2890625,0.0037219469,0.0027256832,-3.9900304E-5,-0.08,0.96,0.32,25956,9941.70,0,0,165,1.19,-2.31,-0.07,-0.08,0.96,0.32
0.5888672,0.014721947,0.0017256811,-3.9900304E-5,-0.08,0.95,0.32,25971,9942.00,0,0,0,1.96,-2.38,-0.07,-0.08,0.95,0.32
0.5888672,0.013721947,0.0027256832,-0.0020399,-0.08,0.95,0.32,25981,9942.00,0,0,165,1.89,-2.31,-0.21,-0.08,0.95,0.32
0.2890625,7.2194636E-4,0.0027256832,-3.9900304E-5,-0.08,0.95,0.32,25994,9941.70,0,0,0,0.98,-2.31,-0.07,-0.08,0.95,0.32
-0.7109375,-0.018278055,7.256828E-4,0.0049601,-0.08,0.95,0.33,26009,9940.70,0,0,165,-0.35,-2.45,0.28,-0.08,0.95,0.33
0.2890625,-0.028278053,-0.0022743195,0.0029600998,-0.08,0.95,0.32,26015,9941.70,0,0,0,-1.05,-2.66,0.14,-0.08,0.95,0.32
-0.7109375,-0.015278054,0.0027256832,0.0039600995,-0.08,0.95,0.32,26031,9940.70,0,0,165,-0.14,-2.31,0.21,-0.08,0.95,0.32
-0.4111328,0.0067219455,7.256828E-4,0.0019600997,-0.08,0.96,0.32,26046,9941.00,0,0,0,1.40,-2.45,0.07,-0.08,0.96,0.32
-0.7109375,0.028721945,0.0017256811,-0.0020399,-0.08,0.96,0.32,26054,9940.70,0,0,165,2.94,-2.38,-0.21,-0.08,0.96,0.32
-0.111328125,0.03572195,-2.7431548E-4,-0.0030399004,-0.08,0.95,0.32,26069,9941.30,0,0,0,3.43,-2.52,-0.28,-0.08,0.95,0.32
-0.7109375,0.022721944,7.256828E-4,-0.0040399004,-0.08,0.96,0.32,26083,9940.70,0,0,165,2.52,-2.45,-0.35,-0.08,0.96,0.32
0.5888672,0.004721945,0.0017256811,-3.9900304E-5,-0.07,0.96,0.32,26091,9942.00,0,0,0,1.26,-2.38,-0.07,-0.07,0.96,0.32
0.2890625,-0.019278053,7.256828E-4,0.0029600998,-0.08,0.96,0.32,26105,9941.70,0,0,165,-0.42,-2.45,0.14,-0.08,0.96,0.32
-0.7109375,-0.039278053,-0.0022743195,0.0049601,-0.08,0.95,0.32,26121,9940.70,0,0,0,-1.82,-2.66,0.28,-0.08,0.95,0.32
-0.7109375,-0.040278055,-0.0032743178,0.0029600998,-0.07,0.95,0.33,26128,9940.70,0,0,165,-1.89,-2.73,0.14,-0.07,0.95,0.33
0.2890625,-0.022278054,-0.0022743195,-3.9900304E-5,-0.07,0.95,0.33,26143,9941.70,0,0,0,-0.63,-2.66,-0.07,-0.07,0.95,0.33
0.5888672,0.0027219467,-0.0012743175,-0.0050398996,-0.08,0.95,0.33,26158,9942.00,0,0,165,1.12,-2.59,-0.42,-0.08,0.95,0.33
0.2890625,0.03172195,0.0017256811,-0.0050398996,-0.08,0.96,0.32,26166,9941.70,0,0,0,3.15,-2.38,-0.42,-0.08,0.96,0.32
1.5888672,0.052721947,0.0017256811,-0.0060399007,-0.07,0.96,0.32,26180,9943.00,0,0,165,4.62,-2.38,-0.49,-0.07,0.96,0.32
-0.7109375,0.047721945,0.0027256832,-0.0050398996,-0.07,0.96,0.32,26196,9940.70,0,0,0,4.27,-2.31,-0.42,-0.07,0.96,0.32
1.1884766,0.025721947,7.256828E-4,-0.0020399,-0.07,0.96,0.32,26204,9942.60,0,0,165,2.73,-2.45,-0.21,-0.07,0.96,0.32
-0.7109375,-0.015278054,-0.0012743175,0.0019600997,-0.08,0.95,0.32,26219,9940.70,0,0,0,-0.14,-2.59,0.07,-0.08,0.95,0.32
-0.7109375,-0.044278055,7.256828E-4,0.0069600996,-0.08,0.96,0.32,26233,9940.70,0,0,165,-2.17,-2.45,0.42,-0.08,0.96,0.32
0.5888672,-0.05327805,-2.7431548E-4,0.0049601,-0.08,0.95,0.32,26241,9942.00,0,0,0,-2.80,-2.52,0.28,-0.08,0.95,0.32
-0.7109375,-0.037278052,7.256828E-4,0.0049601,-0.08,0.95,0.32,26256,9940.70,0,0,165,-1.68,-2.45,0.28,-0.08,0.95,0.32
0.2890625,-0.009278053,7.256828E-4,9.6009974E-4,-0.07,0.95,0.32,26271,9941.70,0,0,0,0.28,-2.45,0.00,-0.07,0.95,0.32
0.5888672,0.019721946,0.0027256832,-0.0050398996,-0.08,0.95,0.32,26278,9942.00,0,0,165,2.31,-2.31,-0.42,-0.08,0.95,0.32
0.5888672,0.044721946,0.0017256811,-0.0090399,-0.07,0.95,0.32,26293,9942.00,0,0,0,4.06,-2.38,-0.70,-0.07,0.95,0.32
-0.4111328,0.041721947,0.0037256815,-0.0060399007,-0.08,0.96,0.32,26309,9941.00,0,0,165,3.85,-2.24,-0.49,-0.08,0.96,0.32
-0.7109375,0.022721944,0.0017256811,-0.0010399004,-0.08,0.96,0.32,26316,9940.70,0,0,0,2.52,-2.38,-0.14,-0.08,0.96,0.32
0.5888672,-0.0032780543,7.256828E-4,0.0019600997,-0.08,0.96,0.32,26331,9942.00,0,0,165,0.70,-2.45,0.07,-0.08,0.96,0.32
0.2890625,-0.03127805,-0.0012743175,0.0059600994,-0.08,0.96,0.32,26345,9941.70,0,0,0,-1.26,-2.59,0.35,-0.08,0.96,0.32
0.2890625,-0.040278055,-0.0022743195,0.0039600995,-0.07,0.96,0.32,26354,9941.70,0,0,165,-1.89,-2.66,0.21,-0.07,0.96,0.32
0.5888672,-0.026278054,-0.0012743175,0.0029600998,-0.07,0.95,0.33,26369,9942.00,0,0,0,-0.91,-2.59,0.14,-0.07,0.95,0.33
0.2890625,-0.0072780545,-2.7431548E-4,9.6009974E-4,-0.08,0.95,0.33,26383,9941.70,0,0,165,0.42,-2.52,0.00,-0.08,0.95,0.33
-0.4111328,0.017721947,7.256828E-4,-3.9900304E-5,-0.08,0.95,0.32,26391,9941.00,0,0,0,2.17,-2.45,-0.07,-0.08,0.95,0.32
0.5888672,0.033721946,0.0017256811,-0.0010399004,-0.07,0.95,0.32,26406,9942.00,0,0,165,3.29,-2.38,-0.14,-0.07,0.95,0.32
0.2890625,0.030721946,0.0017256811,-0.0020399,-0.07,0.95,0.32,26421,9941.70,0,0,0,3.08,-2.38,-0.21,-0.07,0.95,0.32
-0.4111328,0.018721947,7.256828E-4,-0.0010399004,-0.08,0.96,0.32,26429,9941.00,0,0,165,2.24,-2.45,-0.14,-0.08,0.96,0.32
-0.7109375,-2.780538E-4,-2.7431548E-4,-3.9900304E-5,-0.08,0.96,0.32,26443,9940.70,0,0,0,0.91,-2.52,-0.07,-0.08,0.96,0.32
-0.4111328,-0.015278054,-0.0022743195,0.0049601,-0.07,0.96,0.32,26459,9941.00,0,0,165,-0.14,-2.66,0.28,-0.07,0.96,0.32
-0.7109375,-0.023278054,0.0017256811,0.0049601,-0.07,0.96,0.32,26466,9940.70,0,0,0,-0.70,-2.38,0.28,-0.07,0.96,0.32
-0.7109375,-0.024278054,-0.0012743175,0.0039600995,-0.08,0.95,0.32,26481,9940.70,0,0,165,-0.77,-2.59,0.21,-0.08,0.95,0.32
0.5888672,-0.013278054,7.256828E-4,0.0039600995,-0.07,0.96,0.32,26496,9942.00,0,0,0,0.00,-2.45,0.21,-0.07,0.96,0.32
-0.4111328,0.0037219469,7.256828E-4,0.0019600997,-0.07,0.95,0.32,26504,9941.00,0,0,165,1.19,-2.45,0.07,-0.07,0.95,0.32
-0.7109375,0.016721945,0.0017256811,-0.0040399004,-0.07,0.95,0.32,26519,9940.70,0,0,0,2.10,-2.38,-0.35,-0.07,0.95,0.32
0.2890625,0.024721948,0.0017256811,-0.0050398996,-0.07,0.95,0.32,26525,9941.70,0,0,165,2.66,-2.38,-0.42,-0.07,0.95,0.32
0.2890625,0.024721948,7.256828E-4,-0.007039901,-0.08,0.96,0.32,26540,9941.70,0,0,0,2.66,-2.45,-0.56,-0.08,0.96,0.32
-0.4111328,0.017721947,0.0027256832,-0.0050398996,-0.08,0.96,0.32,26556,9941.00,0,0,165,2.17,-2.31,-0.42,-0.08,0.96,0.32
-0.7109375,0.0037219469,0.0017256811,-0.0010399004,-0.08,0.96,0.32,26563,9940.70,0,0,0,1.19,-2.38,-0.14,-0.08,0.96,0.32
1.1884766,-0.016278055,-2.7431548E-4,0.0059600994,-0.08,0.96,0.32,26579,9942.60,0,0,165,-0.21,-2.52,0.35,-0.08,0.96,0.32
-0.111328125,-0.033278055,-0.0022743195,0.0079601,-0.08,0.95,0.32,26593,9941.30,0,0,0,-1.40,-2.66,0.49,-0.08,0.95,0.32
-0.4111328,-0.044278055,-0.0012743175,0.0079601,-0.07,0.95,0.33,26601,9941.00,0,0,165,-2.17,-2.59,0.49,-0.07,0.95,0.33
-0.111328125,-0.037278052,-0.0012743175,0.0019600997,-0.07,0.95,0.32,26617,9941.30,0,0,0,-1.68,-2.59,0.07,-0.07,0.95,0.32
-0.7109375,-0.013278054,-2.7431548E-4,-0.0020399,-0.08,0.95,0.33,26631,9940.70,0,0,165,0.00,-2.52,-0.21,-0.08,0.95,0.33
-0.7109375,0.023721946,-2.7431548E-4,-0.0080399,-0.07,0.95,0.33,26639,9940.70,0,0,0,2.59,-2.52,-0.63,-0.07,0.95,0.33
0.5888672,0.05472195,7.256828E-4,-0.0060399007,-0.07,0.96,0.32,26654,9942.00,0,0,165,4.76,-2.45,-0.49,-0.07,0.96,0.32
0.5888672,0.055721946,0.0027256832,-0.007039901,-0.08,0.96,0.32,26669,9942.00,0,0,0,4.83,-2.31,-0.56,-0.08,0.96,0.32
0.2890625,0.033721946,0.0037256815,-0.0010399004,-0.07,0.95,0.32,26675,9941.70,0,0,165,3.29,-2.24,-0.14,-0.07,0.95,0.32
0.2890625,-0.016278055,0.0017256811,0.0029600998,-0.07,0.96,0.32,26691,9941.70,0,0,0,-0.21,-2.38,0.14,-0.07,0.96,0.32
0.2890625,-0.048278056,-2.7431548E-4,0.0089601,-0.07,0.96,0.32,26706,9941.70,0,0,165,-2.45,-2.52,0.56,-0.07,0.96,0.32
-0.4111328,-0.058278054,-0.0032743178,0.0079601,-0.07,0.96,0.32,26714,9941.00,0,0,0,-3.15,-2.73,0.49,-0.07,0.96,0.32
-0.7109375,-0.03127805,-0.004274316,0.0069600996,-0.07,0.96,0.32,26729,9940.70,0,0,165,-1.26,-2.80,0.42,-0.07,0.96,0.32
0.2890625,7.2194636E-4,-0.0022743195,9.6009974E-4,-0.08,0.95,0.32,26743,9941.70,0,0,0,0.98,-2.66,0.00,-0.08,0.95,0.32
0.2890625,0.029721947,-2.7431548E-4,-3.9900304E-5,-0.08,0.95,0.32,26751,9941.70,0,0,165,3.01,-2.52,-0.07,-0.08,0.95,0.32
0.2890625,0.041721947,7.256828E-4,-0.0050398996,-0.07,0.95,0.32,26766,9941.70,0,0,0,3.85,-2.45,-0.42,-0.07,0.95,0.32
0.2890625,0.032721944,0.0027256832,-0.0040399004,-0.08,0.95,0.32,26781,9941.70,0,0,165,3.22,-2.31,-0.35,-0.08,0.95,0.32
-0.4111328,0.011721946,7.256828E-4,-0.0040399004,-0.08,0.96,0.32,26789,9941.00,0,0,0,1.75,-2.45,-0.35,-0.08,0.96,0.32
0.2890625,-0.014278054,-0.0012743175,-3.9900304E-5,-0.08,0.96,0.32,26803,9941.70,0,0,165,-0.07,-2.59,-0.07,-0.08,0.96,0.32
-0.7109375,-0.03127805,-0.0012743175,0.0049601,-0.08,0.95,0.32,26826,9940.70,0,0,0,-1.26,-2.59,0.28,-0.08,0.95,0.32
-1.0107422,-0.040278055,-0.0012743175,0.0069600996,-0.08,0.96,0.33,26828,9940.40,0,0,165,-1.89,-2.59,0.42,-0.08,0.96,0.33
0.5888672,-0.035278052,-0.0022743195,0.0029600998,-0.08,0.95,0.32,26841,9942.00,0,0,0,-1.54,-2.66,0.14,-0.08,0.95,0.32
0.2890625,-0.016278055,-2.7431548E-4,-3.9900304E-5,-0.08,0.95,0.33,26856,9941.70,0,0,165,-0.21,-2.52,-0.07,-0.08,0.95,0.33
0.5888672,0.0077219456,-0.0012743175,-0.0010399004,-0.08,0.95,0.32,26863,9942.00,0,0,0,1.47,-2.59,-0.14,-0.08,0.95,0.32
0.2890625,0.029721947,0.0017256811,-0.0020399,-0.07,0.95,0.32,26879,9941.70,0,0,165,3.01,-2.38,-0.21,-0.07,0.95,0.32
0.5888672,0.04272195,0.0027256832,-3.9900304E-5,-0.07,0.95,0.32,26893,9942.00,0,0,0,3.92,-2.31,-0.07,-0.07,0.95,0.32
0.5888672,0.037721947,0.0047256816,-3.9900304E-5,-0.07,0.96,0.32,26901,9942.00,0,0,165,3.57,-2.17,-0.07,-0.07,0.96,0.32
0.5888672,0.013721947,0.0027256832,-3.9900304E-5,-0.07,0.96,0.32,26916,9942.00,0,0,0,1.89,-2.31,-0.07,-0.07,0.96,0.32
0.5888672,-0.0102780545,0.0037256815,0.0039600995,-0.07,0.96,0.32,26931,9942.00,0,0,165,0.21,-2.24,0.21,-0.07,0.96,0.32
-0.7109375,-0.029278055,-2.7431548E-4,0.0049601,-0.08,0.96,0.32,26938,9940.70,0,0,0,-1.12,-2.52,0.28,-0.08,0.96,0.32
-0.4111328,-0.037278052,-0.0012743175,0.0059600994,-0.08,0.95,0.32,26953,9941.00,0,0,165,-1.68,-2.59,0.35,-0.08,0.95,0.32
0.2890625,-0.032278053,-0.0012743175,0.0029600998,-0.08,0.95,0.33,26969,9941.70,0,0,0,-1.33,-2.59,0.14,-0.08,0.95,0.33
-0.7109375,-0.016278055,0.0017256811,9.6009974E-4,-0.08,0.95,0.33,26975,9940.70,0,0,165,-0.21,-2.38,0.00,-0.08,0.95,0.33
-0.7109375,0.008721946,0.0017256811,-3.9900304E-5,-0.08,0.95,0.33,26991,9940.70,0,0,0,1.54,-2.38,-0.07,-0.08,0.95,0.33
0.5888672,0.03172195,7.256828E-4,-0.0050398996,-0.08,0.95,0.32,27006,9942.00,0,0,165,3.15,-2.45,-0.42,-0.08,0.95,0.32
-0.4111328,0.044721946,0.0027256832,-0.0050398996,-0.07,0.95,0.32,27013,9941.00,0,0,0,4.06,-2.31,-0.42,-0.07,0.95,0.32
-1.0107422,0.036721945,7.256828E-4,-0.0050398996,-0.07,0.96,0.32,27028,9940.40,0,0,165,3.50,-2.45,-0.42,-0.07,0.96,0.32
0.2890625,0.017721947,-2.7431548E-4,-0.0010399004,-0.07,0.96,0.32,27043,9941.70,0,0,0,2.17,-2.52,-0.14,-0.07,0.96,0.32
-0.7109375,-0.013278054,-0.004274316,0.0019600997,-0.08,0.96,0.32,27051,9940.70,0,0,165,0.00,-2.80,0.07,-0.08,0.96,0.32
0.5888672,-0.038278054,-0.004274316,0.0039600995,-0.08,0.95,0.32,27065,9942.00,0,0,0,-1.75,-2.80,0.21,-0.08,0.95,0.32
0.2890625,-0.044278055,-0.0022743195,0.0059600994,-0.08,0.95,0.32,27081,9941.70,0,0,165,-2.17,-2.66,0.35,-0.08,0.95,0.32
0.2890625,-0.026278054,-2.7431548E-4,0.0049601,-0.08,0.96,0.33,27089,9941.70,0,0,0,-0.91,-2.52,0.28,-0.08,0.96,0.33
0.2890625,-0.0012780549,-2.7431548E-4,0.0019600997,-0.08,0.96,0.33,27104,9941.70,0,0,165,0.84,-2.52,0.07,-0.08,0.96,0.33
0.2890625,0.024721948,7.256828E-4,-0.0040399004,-0.08,0.95,0.32,27119,9941.70,0,0,0,2.66,-2.45,-0.35,-0.08,0.95,0.32
-0.4111328,0.03572195,-2.7431548E-4,-0.0050398996,-0.08,0.95,0.32,27126,9941.00,0,0,165,3.43,-2.52,-0.42,-0.08,0.95,0.32
