Pressure_Rel,GyroX_Rel,GyroY_Rel,GyroZ_Rel,AccX_Rel,AccY_Rel,AccZ_Rel,Timestamp,Pressure_abs,HeartRate,Oxygen,Status,GyroX,GyroY,GyroZ,AccX,AccY,AccZ
0.0,0.0,0.0,0.0,0.0,0.0,0.0,1659,10152.90,0,0,165,0.14,-2.94,-0.56,-0.23,-0.98,0.09
0.0,0.0,0.0,0.0,0.0,0.0,0.0,1674,10152.30,0,0,0,0.21,-2.94,-0.07,-0.22,-0.98,0.08
0.0,0.0,0.0,0.0,0.0,0.0,0.0,1688,10152.30,0,0,165,0.56,-3.15,0.42,-0.23,-0.98,0.09
0.0,0.0,0.0,0.0,0.0,0.0,0.0,1695,10152.30,0,0,0,0.28,-2.94,0.00,-0.23,-0.98,0.08
0.0,0.0,0.0,0.0,0.0,0.0,0.0,1710,10152.30,0,0,165,0.42,-3.08,0.28,-0.23,-0.98,0.08
0.0,0.0,0.0,0.0,0.0,0.0,0.0,1725,10152.30,0,0,0,0.42,-3.08,0.07,-0.23,-0.98,0.09
0.0,0.0,0.0,0.0,0.0,0.0,0.0,1731,10152.30,0,0,165,0.42,-3.08,0.07,-0.23,-0.98,0.09
0.0,0.0,0.0,0.0,0.0,0.0,0.0,1747,10152.30,0,0,0,0.35,-3.01,0.14,-0.23,-0.98,0.09
0.0,0.0,0.0,0.0,0.0,0.0,0.0,1762,10152.30,0,0,165,0.35,-3.08,0.00,-0.23,-0.98,0.09
0.0,0.0,0.0,0.0,0.0,0.0,0.0,1769,10151.30,0,0,0,0.35,-3.08,0.35,-0.22,-0.98,0.09
0.0,0.0,0.0,0.0,0.0,0.0,0.0,1786,10153.30,0,0,165,0.28,-3.01,0.07,-0.23,-0.98,0.09
0.0,0.0,0.0,0.0,0.0,0.0,0.0,1799,10152.30,0,0,0,0.21,-2.94,0.07,-0.22,-0.98,0.09
0.0,0.0,0.0,0.0,0.0,0.0,0.0,1807,10151.30,0,0,165,0.63,-3.01,0.28,-0.22,-0.98,0.09
0.0,0.0,0.0,0.0,0.0,0.0,0.0,1822,10152.30,0,0,0,0.49,-2.87,0.07,-0.23,-0.98,0.09
0.0,0.0,0.0,0.0,0.0,0.0,0.0,1837,10151.30,0,0,165,0.35,-2.94,0.28,-0.22,-0.98,0.08
0.0,0.0,0.0,0.0,0.0,0.0,0.0,1844,10152.00,0,0,0,0.49,-3.08,0.42,-0.23,-0.98,0.08
0.0,0.0,0.0,0.0,0.0,0.0,0.0,1859,10152.60,0,0,165,0.35,-3.01,-17.85,-0.23,-0.98,0.09
0.0,0.0,0.0,0.0,0.0,0.0,0.0,1875,10152.30,0,0,0,0.35,-3.08,0.07,-0.23,-0.98,0.08
0.0,0.0,0.0,0.0,0.0,0.0,0.0,1882,10152.60,0,0,165,0.49,-3.01,0.14,-0.23,-0.98,0.09
0.0,0.0,0.0,0.0,0.0,0.0,0.0,1896,10152.30,0,0,0,0.42,-3.01,0.07,-0.23,-0.98,0.09
0.0,0.0,0.0,0.0,0.0,0.0,0.0,1911,10152.30,0,0,165,0.42,-2.94,0.21,-0.22,-0.98,0.09
0.0,0.0,0.0,0.0,0.0,0.0,0.0,1921,10151.30,0,0,0,0.42,-3.08,0.14,-0.23,-0.98,0.09
0.0,0.0,0.0,0.0,0.0,0.0,0.0,1934,10152.30,0,0,165,0.49,-3.01,0.21,-0.22,-0.98,0.09
0.0,0.0,0.0,0.0,0.0,0.0,0.0,1951,10153.30,0,0,0,0.42,-3.01,0.21,-0.23,-0.98,0.09
0.0,0.0,0.0,0.0,0.0,0.0,0.0,1957,10151.30,0,0,165,0.49,-2.94,0.07,-0.23,-0.98,0.09
0.0,0.0,0.0,0.0,0.0,0.0,0.0,1976,10152.30,0,0,0,0.35,-2.94,0.07,-0.23,-0.98,0.09
0.0,0.0,0.0,0.0,0.0,0.0,0.0,1993,10151.30,0,0,165,0.35,-3.01,0.07,-0.23,-0.98,0.09
0.0,0.0,0.0,0.0,0.0,0.0,0.0,1998,10152.30,0,0,0,0.42,-3.15,0.14,-0.23,-0.98,0.09
0.0,0.0,0.0,0.0,0.0,0.0,0.0,2015,10151.30,0,0,165,0.42,-3.01,0.28,-0.22,-0.98,0.09
0.0,0.0,0.0,0.0,0.0,0.0,0.0,2025,10152.30,0,0,0,0.28,-3.08,0.14,-0.22,-0.98,0.09
0.0,0.0,0.0,0.0,0.0,0.0,0.0,2032,10151.30,0,0,165,0.42,-3.01,0.21,-0.22,-0.98,0.09
0.0,0.0,0.0,0.0,0.0,0.0,0.0,2047,10152.30,0,0,0,0.42,-3.01,0.21,-0.22,-0.98,0.09
0.0,0.0,0.0,0.0,0.0,0.0,0.0,2063,10150.30,0,0,165,0.42,-3.01,0.21,-0.23,-0.98,0.09
0.0,0.0,0.0,0.0,0.0,0.0,0.0,2069,10152.60,0,0,0,0.35,-3.08,0.14,-0.23,-0.98,0.09
0.0,0.0,0.0,0.0,0.0,0.0,0.0,2086,10152.30,0,0,165,0.42,-2.94,0.07,-0.23,-0.98,0.09
0.0,0.0,0.0,0.0,0.0,0.0,0.0,2100,10151.30,0,0,0,0.42,-2.94,0.14,-0.23,-0.98,0.08
0.0,0.0,0.0,0.0,0.0,0.0,0.0,2107,10152.60,0,0,165,0.49,-2.94,0.21,-0.23,-0.98,0.09
0.0,0.0,0.0,0.0,0.0,0.0,0.0,2122,10152.00,0,0,0,0.42,-3.01,0.00,-0.23,-0.98,0.09
0.0,0.0,0.0,0.0,0.0,0.0,0.0,2137,10152.60,0,0,165,0.42,-2.94,0.00,-0.23,-0.98,0.09
0.0,0.0,0.0,0.0,0.0,0.0,0.0,2145,10151.30,0,0,0,0.28,-3.01,0.07,-0.22,-0.98,0.09
0.0,0.0,0.0,0.0,0.0,0.0,0.0,2160,10153.30,0,0,165,0.28,-3.08,0.07,-0.22,-0.98,0.09
0.0,0.0,0.0,0.0,0.0,0.0,0.0,2175,10152.60,0,0,0,0.35,-3.08,0.21,-0.22,-0.98,0.09
0.0,0.0,0.0,0.0,0.0,0.0,0.0,2181,10151.30,0,0,165,0.35,-3.08,0.07,-0.22,-0.98,0.09
0.0,0.0,0.0,0.0,0.0,0.0,0.0,2197,10152.60,0,0,0,0.42,-3.01,0.14,-0.22,-0.98,0.09
0.0,0.0,0.0,0.0,0.0,0.0,0.0,2212,10152.60,0,0,165,0.63,-2.94,0.21,-0.22,-0.98,0.09
0.0,0.0,0.0,0.0,0.0,0.0,0.0,2219,10152.60,0,0,0,0.42,-2.87,0.07,-0.23,-0.98,0.09
0.0,0.0,0.0,0.0,0.0,0.0,0.0,2235,10151.60,0,0,165,0.35,-3.01,0.07,-0.22,-0.98,0.09
0.0,0.0,0.0,0.0,0.0,0.0,0.0,2250,10152.30,0,0,0,0.42,-3.01,0.28,-0.23,-0.98,0.09
0.0,0.0,0.0,0.0,0.0,0.0,0.0,2258,10151.60,0,0,165,0.42,-3.08,0.14,-0.23,-0.98,0.09
0.0,0.0,0.0,0.0,0.0,0.0,0.0,2271,10152.30,0,0,0,0.42,-2.94,0.07,-0.23,-0.98,0.09
0.0,0.0,0.0,0.0,0.0,0.0,0.0,2287,10152.60,0,0,165,0.49,-3.01,0.14,-0.23,-0.98,0.09
0.0,0.0,0.0,0.0,0.0,0.0,0.0,2295,10152.30,0,0,0,0.35,-2.94,0.21,-0.23,-0.98,0.09
0.0,0.0,0.0,0.0,0.0,0.0,0.0,2310,10152.60,0,0,165,0.49,-2.94,0.00,-0.23,-0.98,0.09
0.0,0.0,0.0,0.0,0.0,0.0,0.0,2328,10152.60,0,0,0,0.35,-3.01,0.07,-0.23,-0.98,0.09
0.0,0.0,0.0,0.0,0.0,0.0,0.0,2333,10152.60,0,0,165,0.56,-3.01,0.21,-0.23,-0.98,0.09
0.0,0.0,0.0,0.0,0.0,0.0,0.0,2348,10152.60,0,0,0,0.42,-2.94,0.21,-0.23,-0.98,0.09
0.0,0.0,0.0,0.0,0.0,0.0,0.0,2362,10151.60,0,0,165,0.21,-3.01,0.21,-0.23,-0.98,0.09
0.0,0.0,0.0,0.0,0.0,0.0,0.0,2370,10152.30,0,0,0,0.42,-3.08,0.14,-0.23,-0.98,0.09
0.0,0.0,0.0,0.0,0.0,0.0,0.0,2385,10151.30,0,0,165,0.21,-3.08,0.00,-0.23,-0.98,0.09
0.0,0.0,0.0,0.0,0.0,0.0,0.0,2399,10153.60,0,0,0,0.21,-2.94,0.00,-0.23,-0.98,0.08
0.0,0.0,0.0,0.0,0.0,0.0,0.0,2408,10152.30,0,0,165,0.42,-2.94,0.14,-0.22,-0.98,0.09
0.0,0.0,0.0,0.0,0.0,0.0,0.0,2430,10152.30,0,0,0,0.35,-3.01,0.14,-0.22,-0.98,0.09
0.0,0.0,0.0,0.0,0.0,0.0,0.0,2438,10152.60,0,0,165,0.35,-3.01,0.21,-0.22,-0.98,0.09
0.0,0.0,0.0,0.0,0.0,0.0,0.0,2445,10152.30,0,0,0,0.56,-2.94,0.42,-0.22,-0.98,0.09
0.0,0.0,0.0,0.0,0.0,0.0,0.0,2461,10151.60,0,0,165,0.42,-3.15,0.07,-0.23,-0.98,0.09
0.0,0.0,0.0,0.0,0.0,0.0,0.0,2480,10152.60,0,0,0,0.42,-2.94,0.07,-0.23,-0.98,0.09
0.0,0.0,0.0,0.0,0.0,0.0,0.0,2496,10151.60,0,0,165,0.49,-3.08,0.35,-0.23,-0.98,0.09
0.0,0.0,0.0,0.0,0.0,0.0,0.0,2498,10152.30,0,0,0,0.35,-2.94,0.00,-0.23,-0.98,0.09
0.0,0.0,0.0,0.0,0.0,0.0,0.0,2514,10152.60,0,0,165,0.28,-2.94,0.00,-0.23,-0.98,0.09
0.0,0.0,0.0,0.0,0.0,0.0,0.0,2520,10152.60,0,0,0,0.56,-3.01,0.35,-0.23,-0.98,0.09
0.0,0.0,0.0,0.0,0.0,0.0,0.0,2534,10152.60,0,0,165,0.21,-2.87,-0.35,-0.23,-0.98,0.09
0.0,0.0,0.0,0.0,0.0,0.0,0.0,2551,10153.60,0,0,0,0.28,-2.94,0.21,-0.22,-0.98,0.09
0.0,0.0,0.0,0.0,0.0,0.0,0.0,2558,10152.60,0,0,165,0.63,-3.15,0.70,-0.22,-0.98,0.09
0.0,0.0,0.0,0.0,0.0,0.0,0.0,2572,10151.60,0,0,0,0.28,-2.87,-0.14,-0.23,-0.98,0.09
0.0,0.0,0.0,0.0,0.0,0.0,0.0,2593,10152.60,0,0,165,0.42,-3.01,0.00,-0.22,-0.98,0.09
0.0,0.0,0.0,0.0,0.0,0.0,0.0,2596,10152.60,0,0,0,0.63,-3.08,0.28,-0.22,-0.98,0.09
0.0,0.0,0.0,0.0,0.0,0.0,0.0,2611,10152.60,0,0,165,0.28,-3.01,-0.21,-0.23,-0.98,0.08
0.0,0.0,0.0,0.0,0.0,0.0,0.0,2625,10152.30,0,0,0,0.42,-2.94,0.07,-0.22,-0.98,0.08
0.0,0.0,0.0,0.0,0.0,0.0,0.0,2632,10151.60,0,0,165,0.56,-3.08,0.49,-0.23,-0.98,0.09
0.0,0.0,0.0,0.0,0.0,0.0,0.0,2647,10152.60,0,0,0,0.49,-3.01,0.14,-0.22,-0.97,0.09
0.0,0.0,0.0,0.0,0.0,0.0,0.0,2663,10152.60,0,0,165,0.28,-3.01,0.00,-0.23,-0.98,0.09
0.0,0.0,0.0,0.0,0.0,0.0,0.0,2677,10152.60,0,0,0,0.35,-2.94,0.00,-0.23,-0.98,0.09
0.0,0.0,0.0,0.0,0.0,0.0,0.0,2684,10152.60,0,0,165,0.63,-2.94,0.42,-0.23,-0.98,0.09
0.0,0.0,0.0,0.0,0.0,0.0,0.0,2699,10152.30,0,0,0,0.49,-3.01,0.00,-0.23,-0.98,0.09
0.0,0.0,0.0,0.0,0.0,0.0,0.0,2707,10152.60,0,0,165,0.35,-2.94,0.07,-0.23,-0.98,0.09
0.0,0.0,0.0,0.0,0.0,0.0,0.0,2721,10152.60,0,0,0,0.63,-3.08,0.21,-0.23,-0.98,0.09
0.0,0.0,0.0,0.0,0.0,0.0,0.0,2737,10152.60,0,0,165,0.21,-2.87,-0.28,-0.23,-0.98,0.08
0.0,0.0,0.0,0.0,0.0,0.0,0.0,2743,10152.60,0,0,0,0.28,-2.94,-0.07,-0.22,-0.98,0.09
0.0,0.0,0.0,0.0,0.0,0.0,0.0,2759,10151.60,0,0,165,0.56,-3.08,0.70,-0.22,-0.98,0.09
0.0,0.0,0.0,0.0,0.0,0.0,0.0,2774,10152.60,0,0,0,0.42,-2.87,0.21,-0.22,-0.98,0.09
0.0,0.0,0.0,0.0,0.0,0.0,0.0,2782,10152.60,0,0,165,0.28,-2.80,-0.14,-0.22,-0.98,0.09
0.0,0.0,0.0,0.0,0.0,0.0,0.0,2796,10153.00,0,0,0,0.42,-3.15,0.07,-0.22,-0.98,0.09
0.0,0.0,0.0,0.0,0.0,0.0,0.0,2811,10151.60,0,0,165,0.49,-3.01,0.28,-0.23,-0.98,0.09
0.0,0.0,0.0,0.0,0.0,0.0,0.0,2819,10151.60,0,0,0,0.49,-3.01,0.07,-0.23,-0.98,0.09
0.0,0.0,0.0,0.0,0.0,0.0,0.0,2834,10152.60,0,0,165,0.35,-3.01,0.35,-0.22,-0.98,0.09
0.0,0.0,0.0,0.0,0.0,0.0,0.0,2848,10151.60,0,0,0,0.42,-3.01,0.28,-0.22,-0.98,0.09
0.0,0.0,0.0,0.0,0.0,0.0,0.0,2857,10152.60,0,0,165,0.35,-2.94,0.14,-0.23,-0.98,0.09
0.0,0.0,0.0,0.0,0.0,0.0,0.0,2872,10151.30,0,0,0,0.42,-2.87,0.00,-0.23,-0.98,0.09
0.0,0.0,0.0,0.0,0.0,0.0,0.0,2886,10152.60,0,0,165,0.42,-3.01,0.21,-0.23,-0.98,0.09
0.0,0.0,0.0,0.0,0.0,0.0,0.0,2894,10152.60,0,0,0,0.42,-3.01,0.21,-0.23,-0.98,0.09
0.0,0.0,0.0,0.0,0.0,0.0,0.0,2909,10152.60,0,0,165,0.42,-3.01,0.14,-0.22,-0.98,0.09
0.0,0.0,0.0,0.0,0.0,0.0,0.0,2924,10152.60,0,0,0,0.42,-2.94,0.00,-0.23,-0.98,0.09
0.0,0.0,0.0,0.0,0.0,0.0,0.0,2931,10152.60,0,0,165,0.35,-3.01,0.07,-0.22,-0.98,0.09
0.0,0.0,0.0,0.0,0.0,0.0,0.0,2946,10151.60,0,0,0,0.56,-3.08,0.21,-0.22,-0.98,0.09
0.0,0.0,0.0,0.0,0.0,0.0,0.0,2961,10152.60,0,0,165,0.49,-3.01,0.07,-0.22,-0.98,0.09
0.0,0.0,0.0,0.0,0.0,0.0,0.0,2968,10153.60,0,0,0,0.42,-3.01,0.14,-0.22,-0.98,0.09
0.0,0.0,0.0,0.0,0.0,0.0,0.0,2983,10152.60,0,0,165,0.35,-3.01,0.28,-0.23,-0.98,0.09
0.0,0.0,0.0,0.0,0.0,0.0,0.0,2998,10152.60,0,0,0,0.42,-2.94,0.28,-0.23,-0.98,0.09
0.0,0.0,0.0,0.0,0.0,0.0,0.0,3006,10151.60,0,0,165,0.35,-3.08,0.14,-0.23,-0.98,0.09
0.0,0.0,0.0,0.0,0.0,0.0,0.0,3021,10152.60,0,0,0,0.35,-3.08,0.14,-0.23,-0.98,0.09
0.0,0.0,0.0,0.0,0.0,0.0,0.0,3037,10151.60,0,0,165,0.56,-3.01,0.07,-0.23,-0.98,0.09
0.0,0.0,0.0,0.0,0.0,0.0,0.0,3044,10151.60,0,0,0,0.35,-2.94,-0.07,-0.23,-0.98,0.09
0.0,0.0,0.0,0.0,0.0,0.0,0.0,3059,10151.60,0,0,165,0.42,-3.15,-0.07,-0.22,-0.98,0.09
0.0,0.0,0.0,0.0,0.0,0.0,0.0,3074,10152.60,0,0,0,0.42,-3.15,0.28,-0.23,-0.98,0.08
0.0,0.0,0.0,0.0,0.0,0.0,0.0,3082,10153.60,0,0,165,0.49,-2.94,0.14,-0.23,-0.98,0.09
0.0,0.0,0.0,0.0,0.0,0.0,0.0,3096,10152.60,0,0,0,0.35,-2.94,0.14,-0.23,-0.98,0.09
0.0,0.0,0.0,0.0,0.0,0.0,0.0,3111,10152.60,0,0,165,0.42,-3.08,0.14,-0.23,-0.98,0.09
0.0,0.0,0.0,0.0,0.0,0.0,0.0,3121,10152.60,0,0,0,0.35,-3.08,0.14,-0.23,-0.98,0.09
0.0,0.0,0.0,0.0,0.0,0.0,0.0,3133,10151.60,0,0,165,0.42,-3.01,-0.07,-0.23,-0.98,0.09
0.0,0.0,0.0,0.0,0.0,0.0,0.0,3149,10152.60,0,0,0,0.35,-3.01,0.00,-0.23,-0.98,0.09
0.0,0.0,0.0,0.0,0.0,0.0,0.0,3156,10151.60,0,0,165,0.42,-3.01,0.21,-0.22,-0.98,0.09
0.0,0.0,0.0,0.0,0.0,0.0,0.0,3171,10152.60,0,0,0,0.49,-2.94,0.07,-0.22,-0.98,0.09
0.0,0.0,0.0,0.0,0.0,0.0,0.0,3186,10152.60,0,0,165,0.42,-2.94,0.00,-0.22,-0.98,0.09
0.0,0.0,0.0,0.0,0.0,0.0,0.0,3194,10151.60,0,0,0,0.35,-3.01,0.28,-0.22,-0.98,0.09
0.0,0.0,0.0,0.0,0.0,0.0,0.0,3208,10151.60,0,0,165,0.35,-3.01,0.14,-0.23,-0.98,0.09
0.0,0.0,0.0,0.0,0.0,0.0,0.0,3224,10151.60,0,0,0,0.35,-2.94,-0.07,-0.23,-0.98,0.09
0.0,0.0,0.0,0.0,0.0,0.0,0.0,3231,10153.60,0,0,165,0.49,-3.01,0.28,-0.23,-0.98,0.09
0.0,0.0,0.0,0.0,0.0,0.0,0.0,3248,10151.60,0,0,0,0.42,-2.94,0.28,-0.23,-0.98,0.09
0.0,0.0,0.0,0.0,0.0,0.0,0.0,3261,10151.60,0,0,165,0.35,-2.94,0.14,-0.23,-0.98,0.09
0.0,0.0,0.0,0.0,0.0,0.0,0.0,3269,10153.00,0,0,0,0.42,-3.01,0.14,-0.23,-0.98,0.09
0.0,0.0,0.0,0.0,0.0,0.0,0.0,3285,10152.60,0,0,165,0.42,-2.94,0.21,-0.23,-0.98,0.09
0.0,0.0,0.0,0.0,0.0,0.0,0.0,3299,10154.60,0,0,0,0.35,-2.94,0.14,-0.23,-0.98,0.09
0.0,0.0,0.0,0.0,0.0,0.0,0.0,3306,10151.60,0,0,165,0.35,-3.01,0.00,-0.22,-0.98,0.09
0.0,0.0,0.0,0.0,0.0,0.0,0.0,3321,10152.60,0,0,0,0.42,-3.01,0.07,-0.22,-0.98,0.09
0.0,0.0,0.0,0.0,0.0,0.0,0.0,3338,10151.60,0,0,165,0.35,-2.94,0.14,-0.23,-0.98,0.09
0.0,0.0,0.0,0.0,0.0,0.0,0.0,3344,10152.60,0,0,0,0.35,-3.01,0.07,-0.23,-0.98,0.09
0.0,0.0,0.0,0.0,0.0,0.0,0.0,3359,10153.00,0,0,165,0.42,-3.08,0.07,-0.22,-0.98,0.09
0.0,0.0,0.0,0.0,0.0,0.0,0.0,3375,10153.00,0,0,0,0.42,-3.01,0.14,-0.23,-0.98,0.09
0.0,0.0,0.0,0.0,0.0,0.0,0.0,3381,10152.60,0,0,165,0.35,-3.01,0.14,-0.22,-0.98,0.09
0.0,0.0,0.0,0.0,0.0,0.0,0.0,3397,10152.60,0,0,0,0.42,-3.01,0.14,-0.23,-0.98,0.09
0.0,0.0,0.0,0.0,0.0,0.0,0.0,3412,10152.60,0,0,165,0.49,-3.01,0.14,-0.23,-0.98,0.09
0.0,0.0,0.0,0.0,0.0,0.0,0.0,3419,10152.60,0,0,0,0.35,-3.15,0.14,-0.23,-0.98,0.09
0.0,0.0,0.0,0.0,0.0,0.0,0.0,3434,10152.00,0,0,165,0.28,-3.01,0.07,-0.22,-0.98,0.09
0.0,0.0,0.0,0.0,0.0,0.0,0.0,3449,10152.60,0,0,0,0.42,-3.01,0.14,-0.22,-0.98,0.09
0.0,0.0,0.0,0.0,0.0,0.0,0.0,3464,10151.60,0,0,165,0.35,-3.01,0.07,-0.22,-0.98,0.09
0.0,0.0,0.0,0.0,0.0,0.0,0.0,3472,10152.60,0,0,0,0.49,-3.01,0.21,-0.23,-0.98,0.09
0.0,0.0,0.0,0.0,0.0,0.0,0.0,3479,10152.60,0,0,165,0.42,-3.08,0.14,-0.23,-0.98,0.09
0.0,0.0,0.0,0.0,0.0,0.0,0.0,3494,10152.60,0,0,0,0.49,-2.94,0.21,-0.23,-0.98,0.09
0.0,0.0,0.0,0.0,0.0,0.0,0.0,3509,10152.60,0,0,165,0.49,-3.01,0.07,-0.23,-0.98,0.09
0.0,0.0,0.0,0.0,0.0,0.0,0.0,3517,10152.00,0,0,0,0.35,-2.94,0.21,-0.23,-0.98,0.09
0.0,0.0,0.0,0.0,0.0,0.0,0.0,3532,10152.60,0,0,165,0.28,-3.01,0.07,-0.23,-0.98,0.09
0.0,0.0,0.0,0.0,0.0,0.0,0.0,3546,10152.60,0,0,0,0.42,-2.94,0.21,-0.23,-0.98,0.09
0.0,0.0,0.0,0.0,0.0,0.0,0.0,3555,10151.60,0,0,165,0.42,-2.94,0.14,-0.23,-0.98,0.09
0.0,0.0,0.0,0.0,0.0,0.0,0.0,3569,10152.60,0,0,0,0.42,-3.01,0.00,-0.23,-0.98,0.09
0.0,0.0,0.0,0.0,0.0,0.0,0.0,3584,10152.60,0,0,165,0.35,-3.08,0.00,-0.22,-0.98,0.09
0.0,0.0,0.0,0.0,0.0,0.0,0.0,3591,10152.60,0,0,0,0.49,-3.01,0.21,-0.23,-0.98,0.09
0.0,0.0,0.0,0.0,0.0,0.0,0.0,3606,10153.60,0,0,165,0.42,-2.94,0.07,-0.23,-0.98,0.09
0.0,0.0,0.0,0.0,0.0,0.0,0.0,3622,10152.60,0,0,0,0.42,-3.08,0.07,-0.23,-0.98,0.09
0.0,0.0,0.0,0.0,0.0,0.0,0.0,3630,10152.60,0,0,165,0.49,-3.01,0.28,-0.23,-0.98,0.09
0.0,0.0,0.0,0.0,0.0,0.0,0.0,3644,10152.60,0,0,0,0.35,-3.01,0.14,-0.23,-0.98,0.09
0.0,0.0,0.0,0.0,0.0,0.0,0.0,3660,10153.00,0,0,165,0.49,-3.01,0.00,-0.23,-0.98,0.09
0.0,0.0,0.0,0.0,0.0,0.0,0.0,3666,10151.60,0,0,0,0.42,-3.01,0.21,-0.23,-0.98,0.09
0.0,0.0,0.0,0.0,0.0,0.0,0.0,3681,10152.60,0,0,165,0.49,-3.08,0.14,-0.23,-0.98,0.09
0.0,0.0,0.0,0.0,0.0,0.0,0.0,3697,10152.60,0,0,0,0.35,-3.01,0.07,-0.23,-0.98,0.09
0.0,0.0,0.0,0.0,0.0,0.0,0.0,3705,10152.60,0,0,165,0.42,-3.01,0.00,-0.23,-0.98,0.09
0.0,0.0,0.0,0.0,0.0,0.0,0.0,3719,10153.00,0,0,0,0.35,-3.01,0.07,-0.22,-0.98,0.09
0.0,0.0,0.0,0.0,0.0,0.0,0.0,3734,10153.00,0,0,165,0.35,-3.01,0.21,-0.22,-0.98,0.09
0.0,0.0,0.0,0.0,0.0,0.0,0.0,3742,10151.60,0,0,0,0.42,-2.94,0.00,-0.22,-0.98,0.09
0.0,0.0,0.0,0.0,0.0,0.0,0.0,3756,10152.60,0,0,165,0.42,-3.08,0.00,-0.22,-0.98,0.09
0.0,0.0,0.0,0.0,0.0,0.0,0.0,3772,10152.00,0,0,0,0.49,-3.01,0.07,-0.22,-0.98,0.09
0.0,0.0,0.0,0.0,0.0,0.0,0.0,3779,10153.00,0,0,165,0.42,-2.94,0.14,-0.22,-0.98,0.09
0.0,0.0,0.0,0.0,0.0,0.0,0.0,3794,10153.00,0,0,0,0.42,-3.08,0.07,-0.23,-0.98,0.09
0.0,0.0,0.0,0.0,0.0,0.0,0.0,3809,10152.60,0,0,165,0.35,-3.01,0.21,-0.22,-0.98,0.09
0.0,0.0,0.0,0.0,0.0,0.0,0.0,3816,10152.60,0,0,0,0.42,-3.01,0.14,-0.23,-0.98,0.09
0.0,0.0,0.0,0.0,0.0,0.0,0.0,3831,10153.00,0,0,165,0.49,-2.94,0.28,-0.23,-0.98,0.09
0.0,0.0,0.0,0.0,0.0,0.0,0.0,3846,10152.60,0,0,0,0.28,-3.01,0.21,-0.23,-0.98,0.09
0.0,0.0,0.0,0.0,0.0,0.0,0.0,3854,10152.60,0,0,165,0.35,-3.01,0.28,-0.23,-0.98,0.09
0.0,0.0,0.0,0.0,0.0,0.0,0.0,3869,10152.00,0,0,0,0.49,-3.01,0.14,-0.22,-0.98,0.09
0.0,0.0,0.0,0.0,0.0,0.0,0.0,3884,10151.60,0,0,165,0.42,-3.01,0.00,-0.22,-0.98,0.09
0.0,0.0,0.0,0.0,0.0,0.0,0.0,3892,10153.90,0,0,0,0.35,-3.01,0.00,-0.22,-0.98,0.09
0.0,0.0,0.0,0.0,0.0,0.0,0.0,3907,10153.60,0,0,165,0.42,-3.01,0.21,-0.23,-0.98,0.09
0.0,0.0,0.0,0.0,0.0,0.0,0.0,3921,10153.00,0,0,0,0.35,-2.94,0.21,-0.22,-0.98,0.09
0.0,0.0,0.0,0.0,0.0,0.0,0.0,3929,10153.00,0,0,165,0.49,-3.01,0.14,-0.23,-0.98,0.09
0.0,0.0,0.0,0.0,0.0,0.0,0.0,3944,10152.60,0,0,0,0.49,-3.01,0.21,-0.23,-0.98,0.09
0.0,0.0,0.0,0.0,0.0,0.0,0.0,3959,10151.60,0,0,165,0.42,-2.94,0.21,-0.23,-0.98,0.09
0.0,0.0,0.0,0.0,0.0,0.0,0.0,3966,10153.00,0,0,0,0.42,-2.94,0.21,-0.23,-0.98,0.09
0.0,0.0,0.0,0.0,0.0,0.0,0.0,3982,10154.90,0,0,165,0.35,-3.01,0.14,-0.23,-0.98,0.09
0.0,0.0,0.0,0.0,0.0,0.0,0.0,3997,10153.00,0,0,0,0.28,-3.01,0.14,-0.22,-0.98,0.09
0.0,0.0,0.0,0.0,0.0,0.0,0.0,4004,10153.00,0,0,165,0.42,-3.01,0.07,-0.23,-0.98,0.09
0.0,0.0,0.0,0.0,0.0,0.0,0.0,4019,10153.00,0,0,0,0.42,-2.94,0.00,-0.23,-0.98,0.09
0.0,0.0,0.0,0.0,0.0,0.0,0.0,4034,10152.60,0,0,165,0.49,-3.01,0.07,-0.23,-0.98,0.09
0.0,0.0,0.0,0.0,0.0,0.0,0.0,4042,10153.00,0,0,0,0.28,-3.08,0.07,-0.22,-0.98,0.09
0.0,0.0,0.0,0.0,0.0,0.0,0.0,4056,10152.60,0,0,165,0.42,-3.08,0.14,-0.23,-0.98,0.09
0.0,0.0,0.0,0.0,0.0,0.0,0.0,4071,10152.00,0,0,0,0.42,-3.01,0.21,-0.23,-0.98,0.09
0.0,0.0,0.0,0.0,0.0,0.0,0.0,4078,10153.00,0,0,165,0.21,-3.01,0.14,-0.22,-0.98,0.09
0.0,0.0,0.0,0.0,0.0,0.0,0.0,4093,10153.00,0,0,0,0.56,-3.08,0.21,-0.23,-0.98,0.09
0.0,0.0,0.0,0.0,0.0,0.0,0.0,4110,10152.60,0,0,165,0.14,-2.87,-0.07,-0.22,-0.98,0.08
0.0,0.0,0.0,0.0,0.0,0.0,0.0,4117,10153.00,0,0,0,0.42,-3.01,0.56,-0.22,-0.97,0.09
0.0,0.0,0.0,0.0,0.0,0.0,0.0,4131,10152.60,0,0,165,0.56,-3.01,-0.07,-0.23,-0.98,0.09
0.0,0.0,0.0,0.0,0.0,0.0,0.0,4146,10151.60,0,0,0,0.35,-2.73,0.00,-0.22,-0.98,0.08
0.0,0.0,0.0,0.0,0.0,0.0,0.0,4154,10153.00,0,0,165,0.49,-3.01,0.49,-0.23,-0.98,0.09
0.0,0.0,0.0,0.0,0.0,0.0,0.0,4169,10153.00,0,0,0,0.42,-2.87,0.00,-0.23,-0.98,0.09
0.0,0.0,0.0,0.0,0.0,0.0,0.0,4184,10152.60,0,0,165,0.42,-2.94,0.07,-0.22,-0.98,0.09
0.0,0.0,0.0,0.0,0.0,0.0,0.0,4191,10152.60,0,0,0,0.49,-3.01,0.21,-0.23,-0.98,0.09
0.0,0.0,0.0,0.0,0.0,0.0,0.0,4207,10151.60,0,0,165,0.28,-3.01,0.07,-0.22,-0.98,0.09
0.37890625,-8.7577663E-4,-1.3972446E-4,-0.0011211155,-0.22,-0.98,0.09,8233,10153.30,0,0,0,0.35,-3.01,0.00,-0.22,-0.98,0.09
0.9794922,-8.7577663E-4,-1.3972446E-4,0.0018788843,-0.23,-0.98,0.09,8250,10153.90,0,0,165,0.35,-3.01,0.21,-0.23,-0.98,0.09
0.07910156,1.2422306E-4,8.6027756E-4,8.788846E-4,-0.23,-0.98,0.09,8263,10153.00,0,0,0,0.42,-2.94,0.14,-0.23,-0.98,0.09
1.3789062,0.0011242237,8.6027756E-4,0.0018788843,-0.22,-0.98,0.09,8276,10154.30,0,0,165,0.49,-2.94,0.21,-0.22,-0.98,0.09
0.07910156,1.2422306E-4,8.6027756E-4,0.0028788848,-0.23,-0.98,0.09,8292,10153.00,0,0,0,0.42,-2.94,0.28,-0.23,-0.98,0.09
0.9794922,-8.7577663E-4,8.6027756E-4,8.788846E-4,-0.23,-0.98,0.09,8305,10153.90,0,0,165,0.35,-2.94,0.14,-0.23,-0.98,0.09
0.37890625,1.2422306E-4,8.6027756E-4,-1.21115474E-4,-0.23,-0.98,0.09,8308,10153.30,0,0,0,0.42,-2.94,0.07,-0.23,-0.98,0.09
0.37890625,-8.7577663E-4,-0.0011397228,-0.0011211155,-0.22,-0.98,0.09,8325,10153.30,0,0,165,0.35,-3.08,0.00,-0.22,-0.98,0.09
0.37890625,-8.7577663E-4,-1.3972446E-4,8.788846E-4,-0.23,-0.98,0.09,8340,10153.30,0,0,0,0.35,-3.01,0.14,-0.23,-0.98,0.09
0.9794922,1.2422306E-4,8.6027756E-4,-1.21115474E-4,-0.22,-0.98,0.09,8346,10153.90,0,0,165,0.42,-2.94,0.07,-0.22,-0.98,0.09
0.07910156,-8.7577663E-4,8.6027756E-4,0.0018788843,-0.22,-0.98,0.09,8381,10153.00,0,0,0,0.35,-2.94,0.21,-0.22,-0.98,0.09
0.37890625,0.0011242237,-1.3972446E-4,0.0018788843,-0.23,-0.98,0.09,8384,10153.30,0,0,165,0.49,-3.01,0.21,-0.23,-0.98,0.09
0.07910156,1.2422306E-4,8.6027756E-4,-1.21115474E-4,-0.23,-0.98,0.09,8385,10153.00,0,0,0,0.42,-2.94,0.07,-0.23,-0.98,0.09
0.37890625,0.0011242237,-1.3972446E-4,0.0018788843,-0.22,-0.98,0.09,8410,10153.30,0,0,165,0.49,-3.01,0.21,-0.22,-0.98,0.09
0.9794922,-8.7577663E-4,-1.3972446E-4,-1.21115474E-4,-0.22,-0.98,0.09,8426,10153.90,0,0,0,0.35,-3.01,0.07,-0.22,-0.98,0.09
0.37890625,-8.7577663E-4,-1.3972446E-4,-0.0011211155,-0.23,-0.98,0.09,8427,10153.30,0,0,165,0.35,-3.01,0.00,-0.23,-0.98,0.09
0.9794922,-8.7577663E-4,-0.0011397228,-0.0011211155,-0.23,-0.98,0.09,8436,10153.90,0,0,0,0.35,-3.08,0.00,-0.23,-0.98,0.09
1.3789062,1.2422306E-4,0.0018602796,-0.0011211155,-0.23,-0.98,0.09,8451,10154.30,0,0,165,0.42,-2.87,0.00,-0.23,-0.98,0.09
0.07910156,1.2422306E-4,8.6027756E-4,0.0018788843,-0.23,-0.98,0.09,8473,10153.00,0,0,0,0.42,-2.94,0.21,-0.23,-0.98,0.09
0.9794922,1.2422306E-4,-1.3972446E-4,0.0018788843,-0.22,-0.98,0.09,8476,10153.90,0,0,165,0.42,-3.01,0.21,-0.22,-0.98,0.09
0.07910156,1.2422306E-4,8.6027756E-4,0.0018788843,-0.23,-0.98,0.09,8490,10153.00,0,0,0,0.42,-2.94,0.21,-0.23,-0.98,0.09
0.37890625,1.2422306E-4,-1.3972446E-4,-1.21115474E-4,-0.23,-0.98,0.09,8497,10153.30,0,0,165,0.42,-3.01,0.07,-0.23,-0.98,0.09
0.9794922,-8.7577663E-4,8.6027756E-4,-1.21115474E-4,-0.23,-0.98,0.09,8512,10153.90,0,0,0,0.35,-2.94,0.07,-0.23,-0.98,0.09
0.9794922,1.2422306E-4,-0.0011397228,-1.21115474E-4,-0.23,-0.98,0.09,8527,10153.90,0,0,165,0.42,-3.08,0.07,-0.23,-0.98,0.09
0.07910156,1.2422306E-4,-1.3972446E-4,-0.0011211155,-0.23,-0.98,0.09,8534,10153.00,0,0,0,0.42,-3.01,0.00,-0.23,-0.98,0.09
-0.92089844,1.2422306E-4,-0.0011397228,-0.0011211155,-0.23,-0.98,0.09,8549,10152.00,0,0,165,0.42,-3.08,0.00,-0.23,-0.98,0.09
0.37890625,-8.7577663E-4,-1.3972446E-4,0.0018788843,-0.23,-0.98,0.09,8564,10153.30,0,0,0,0.35,-3.01,0.21,-0.23,-0.98,0.09
0.07910156,-8.7577663E-4,-1.3972446E-4,-1.21115474E-4,-0.23,-0.98,0.09,8571,10153.00,0,0,165,0.35,-3.01,0.07,-0.23,-0.98,0.09
