Pressure_Rel,GyroX_Rel,GyroY_Rel,GyroZ_Rel,AccX_Rel,AccY_Rel,AccZ_Rel,Timestamp,Pressure_abs,HeartRate,Oxygen,Status,GyroX,GyroY,GyroZ,AccX,AccY,AccZ
0.0,0.0,0.0,0.0,0.0,0.0,0.0,4511,9977.00,0,0,165,17.64,-3.08,-1.75,0.80,0.62,0.07
0.0,0.0,0.0,0.0,0.0,0.0,0.0,4535,9975.70,0,0,0,0.49,-3.50,1.96,0.81,0.62,0.09
0.0,0.0,0.0,0.0,0.0,0.0,0.0,4541,9975.10,0,0,165,0.35,-2.73,5.74,0.81,0.61,0.10
0.0,0.0,0.0,0.0,0.0,0.0,0.0,4548,9975.10,0,0,0,0.21,1.82,7.98,0.79,0.61,0.04
0.0,0.0,0.0,0.0,0.0,0.0,0.0,4563,9976.00,0,0,165,0.56,9.38,4.41,0.81,0.59,0.09
0.0,0.0,0.0,0.0,0.0,0.0,0.0,4579,9976.00,0,0,0,0.35,5.46,3.01,0.84,0.60,0.12
0.0,0.0,0.0,0.0,0.0,0.0,0.0,4587,9976.30,0,0,165,0.28,-1.47,4.55,0.83,0.61,0.11
0.0,0.0,0.0,0.0,0.0,0.0,0.0,4601,9977.30,0,0,0,0.21,-3.50,6.16,0.81,0.60,0.09
0.0,0.0,0.0,0.0,0.0,0.0,0.0,4617,9977.30,0,0,165,0.14,-3.08,4.83,0.81,0.59,0.09
0.0,0.0,0.0,0.0,0.0,0.0,0.0,4624,9977.90,0,0,0,0.56,2.10,2.73,0.79,0.59,0.07
0.0,0.0,0.0,0.0,0.0,0.0,0.0,4638,9977.30,0,0,165,0.35,6.93,2.80,0.81,0.61,0.08
0.0,0.0,0.0,0.0,0.0,0.0,0.0,4653,9978.20,0,0,0,-0.14,8.68,6.65,0.82,0.61,0.10
0.0,0.0,0.0,0.0,0.0,0.0,0.0,4661,9980.50,0,0,165,-0.14,6.16,8.47,0.83,0.59,0.12
0.0,0.0,0.0,0.0,0.0,0.0,0.0,4677,9981.50,0,0,0,0.07,-0.42,6.23,0.84,0.59,0.13
0.0,0.0,0.0,0.0,0.0,0.0,0.0,4691,9982.70,0,0,165,0.21,-3.43,5.18,0.82,0.59,0.10
0.0,0.0,0.0,0.0,0.0,0.0,0.0,4699,9984.90,0,0,0,-0.07,-1.05,4.83,0.80,0.59,0.07
0.0,0.0,0.0,0.0,0.0,0.0,0.0,4714,9967.90,0,0,165,0.07,6.23,4.48,0.79,0.59,0.08
0.0,0.0,0.0,0.0,0.0,0.0,0.0,4728,9971.60,0,0,0,-0.28,10.92,5.81,0.81,0.60,0.09
0.0,0.0,0.0,0.0,0.0,0.0,0.0,4737,9960.40,0,0,165,-0.49,13.72,10.64,0.81,0.61,0.10
0.0,0.0,0.0,0.0,0.0,0.0,0.0,4751,9959.50,0,0,0,-0.84,16.31,14.91,0.82,0.59,0.11
0.0,0.0,0.0,0.0,0.0,0.0,0.0,4768,9971.30,0,0,165,-0.84,15.61,13.93,0.83,0.57,0.12
0.0,0.0,0.0,0.0,0.0,0.0,0.0,4774,9945.40,0,0,0,-0.63,11.69,10.57,0.83,0.57,0.13
0.0,0.0,0.0,0.0,0.0,0.0,0.0,4789,9951.50,0,0,165,-0.56,9.31,7.63,0.83,0.57,0.12
0.0,0.0,0.0,0.0,0.0,0.0,0.0,4804,9981.10,0,0,0,-0.56,8.96,6.65,0.82,0.59,0.12
0.0,0.0,0.0,0.0,0.0,0.0,0.0,4811,9972.30,0,0,165,-0.63,10.85,7.91,0.82,0.59,0.12
0.0,0.0,0.0,0.0,0.0,0.0,0.0,4826,9966.20,0,0,0,-0.70,11.62,8.61,0.83,0.57,0.13
0.0,0.0,0.0,0.0,0.0,0.0,0.0,4841,9964.90,0,0,165,-0.77,9.31,6.93,0.83,0.57,0.14
0.0,0.0,0.0,0.0,0.0,0.0,0.0,4849,9967.40,0,0,0,-0.56,7.00,5.81,0.83,0.57,0.14
0.0,0.0,0.0,0.0,0.0,0.0,0.0,4864,9968.70,0,0,165,-0.70,6.58,6.23,0.83,0.58,0.13
0.0,0.0,0.0,0.0,0.0,0.0,0.0,4879,9976.70,0,0,0,-0.91,6.65,7.42,0.84,0.57,0.13
0.0,0.0,0.0,0.0,0.0,0.0,0.0,4886,9969.40,0,0,165,0.07,7.49,6.58,0.85,0.55,0.16
0.0,0.0,0.0,0.0,0.0,0.0,0.0,4902,-5151.60,0,0,0,2.94,-7.77,-9.03,0.78,0.51,0.20
0.0,0.0,0.0,0.0,0.0,0.0,0.0,4916,9946.70,0,0,165,3.64,-2.87,-16.73,0.80,0.52,0.13
0.0,0.0,0.0,0.0,0.0,0.0,0.0,4923,9950.20,0,0,0,0.63,-2.66,-13.09,0.83,0.61,0.14
0.0,0.0,0.0,0.0,0.0,0.0,0.0,4938,9953.70,0,0,165,0.56,-4.27,-7.70,0.82,0.60,0.12
0.0,0.0,0.0,0.0,0.0,0.0,0.0,4953,9952.80,0,0,0,0.91,-2.59,-6.30,0.82,0.59,0.14
0.0,0.0,0.0,0.0,0.0,0.0,0.0,4961,9953.70,0,0,165,1.12,-2.45,-3.78,0.82,0.60,0.14
0.0,0.0,0.0,0.0,0.0,0.0,0.0,4975,9953.10,0,0,0,0.42,-2.94,-6.09,0.82,0.58,0.14
0.0,0.0,0.0,0.0,0.0,0.0,0.0,4991,9952.80,0,0,165,0.56,-2.31,-9.03,0.82,0.58,0.14
0.0,0.0,0.0,0.0,0.0,0.0,0.0,4999,9955.00,0,0,0,0.49,-3.15,-5.67,0.82,0.60,0.13
0.0,0.0,0.0,0.0,0.0,0.0,0.0,5014,9954.00,0,0,165,0.49,-3.15,-0.91,0.82,0.60,0.13
0.0,0.0,0.0,0.0,0.0,0.0,0.0,5028,9954.00,0,0,0,-0.14,-2.38,0.91,0.82,0.59,0.14
0.0,0.0,0.0,0.0,0.0,0.0,0.0,5036,9954.00,0,0,165,0.07,-3.01,2.31,0.82,0.58,0.14
0.0,0.0,0.0,0.0,0.0,0.0,0.0,5052,9954.00,0,0,0,-0.49,-3.36,2.52,0.82,0.57,0.13
0.0,0.0,0.0,0.0,0.0,0.0,0.0,5069,9955.00,0,0,165,0.42,-3.15,-3.43,0.82,0.57,0.13
0.0,0.0,0.0,0.0,0.0,0.0,0.0,5074,9955.30,0,0,0,0.63,-2.52,-7.70,0.82,0.57,0.14
0.0,0.0,0.0,0.0,0.0,0.0,0.0,5088,9956.30,0,0,165,1.12,-2.52,-10.08,0.82,0.58,0.14
0.0,0.0,0.0,0.0,0.0,0.0,0.0,5103,9956.30,0,0,0,0.63,-2.80,-11.97,0.82,0.59,0.14
0.0,0.0,0.0,0.0,0.0,0.0,0.0,5110,9958.20,0,0,165,0.98,0.42,-12.88,0.81,0.57,0.14
0.0,0.0,0.0,0.0,0.0,0.0,0.0,5126,9959.70,0,0,0,1.47,-0.21,-18.83,0.81,0.58,0.13
0.0,0.0,0.0,0.0,0.0,0.0,0.0,5149,9959.80,0,0,165,1.89,3.29,-25.69,0.80,0.58,0.13
0.0,0.0,0.0,0.0,0.0,0.0,0.0,5150,9962.70,0,0,0,2.24,4.97,-28.63,0.79,0.61,0.13
0.0,0.0,0.0,0.0,0.0,0.0,0.0,5163,9974.70,0,0,165,1.47,8.61,-23.80,0.78,0.63,0.12
0.0,0.0,0.0,0.0,0.0,0.0,0.0,5179,9974.80,0,0,0,1.19,13.37,-17.85,0.77,0.63,0.12
0.0,0.0,0.0,0.0,0.0,0.0,0.0,5185,9967.40,0,0,165,0.63,20.93,-13.93,0.77,0.63,0.12
0.0,0.0,0.0,0.0,0.0,0.0,0.0,5201,9967.10,0,0,0,-0.21,24.78,-7.84,0.78,0.63,0.14
0.0,0.0,0.0,0.0,0.0,0.0,0.0,5216,9966.20,0,0,165,-1.12,25.27,-3.22,0.79,0.64,0.16
0.0,0.0,0.0,0.0,0.0,0.0,0.0,5223,9967.10,0,0,0,-1.26,27.72,-2.17,0.78,0.60,0.15
0.0,0.0,0.0,0.0,0.0,0.0,0.0,5239,9967.10,0,0,165,-1.19,29.96,-7.21,0.78,0.61,0.16
0.0,0.0,0.0,0.0,0.0,0.0,0.0,5254,9968.10,0,0,0,-1.40,35.14,-12.74,0.77,0.58,0.16
0.0,0.0,0.0,0.0,0.0,0.0,0.0,5261,9969.70,0,0,165,-0.21,40.95,-22.75,0.76,0.61,0.15
0.0,0.0,0.0,0.0,0.0,0.0,0.0,5276,9968.70,0,0,0,1.05,47.39,-32.13,0.76,0.61,0.18
0.0,0.0,0.0,0.0,0.0,0.0,0.0,5291,9966.90,0,0,165,1.61,49.70,-35.70,0.76,0.63,0.20
0.0,0.0,0.0,0.0,0.0,0.0,0.0,5301,9965.80,0,0,0,2.45,48.65,-38.50,0.77,0.64,0.22
0.0,0.0,0.0,0.0,0.0,0.0,0.0,5314,9967.10,0,0,165,3.08,44.59,-38.01,0.77,0.64,0.24
0.0,0.0,0.0,0.0,0.0,0.0,0.0,5328,9965.80,0,0,0,3.85,38.64,-36.68,0.77,0.66,0.25
0.0,0.0,0.0,0.0,0.0,0.0,0.0,5336,9965.80,0,0,165,4.34,30.24,-35.00,0.77,0.67,0.26
0.0,0.0,0.0,0.0,0.0,0.0,0.0,5352,9963.60,0,0,0,4.27,21.28,-31.15,0.76,0.67,0.25
0.0,0.0,0.0,0.0,0.0,0.0,0.0,5367,9962.70,0,0,165,3.99,15.54,-28.00,0.75,0.68,0.24
0.0,0.0,0.0,0.0,0.0,0.0,0.0,5374,9963.60,0,0,0,4.34,10.78,-25.13,0.74,0.69,0.25
0.0,0.0,0.0,0.0,0.0,0.0,0.0,5388,9964.60,0,0,165,3.99,6.79,-21.56,0.73,0.69,0.24
0.0,0.0,0.0,0.0,0.0,0.0,0.0,5403,9963.60,0,0,0,3.08,3.99,-17.29,0.72,0.70,0.25
0.0,0.0,0.0,0.0,0.0,0.0,0.0,5411,9963.60,0,0,165,2.38,0.77,-12.60,0.73,0.70,0.25
0.0,0.0,0.0,0.0,0.0,0.0,0.0,5426,9965.80,0,0,0,1.75,-3.36,-5.81,0.71,0.70,0.24
0.0,0.0,0.0,0.0,0.0,0.0,0.0,5442,9964.90,0,0,165,0.63,-3.08,0.28,0.71,0.71,0.24
0.0,0.0,0.0,0.0,0.0,0.0,0.0,5452,9964.60,0,0,0,-0.91,-3.71,6.09,0.71,0.70,0.24
0.0,0.0,0.0,0.0,0.0,0.0,0.0,5464,9964.90,0,0,165,-1.61,-3.50,10.01,0.71,0.69,0.24
0.0,0.0,0.0,0.0,0.0,0.0,0.0,5478,9964.90,0,0,0,-1.82,-3.78,11.41,0.72,0.68,0.24
0.0,0.0,0.0,0.0,0.0,0.0,0.0,5486,9964.90,0,0,165,-1.89,-3.71,10.78,0.72,0.67,0.23
0.0,0.0,0.0,0.0,0.0,0.0,0.0,5500,9964.90,0,0,0,-1.33,-3.57,8.61,0.72,0.67,0.24
0.0,0.0,0.0,0.0,0.0,0.0,0.0,5516,9964.90,0,0,165,-0.77,-3.50,6.23,0.72,0.67,0.24
0.0,0.0,0.0,0.0,0.0,0.0,0.0,5523,9964.90,0,0,0,-0.70,-3.50,3.78,0.72,0.67,0.24
0.0,0.0,0.0,0.0,0.0,0.0,0.0,5539,9964.90,0,0,165,0.07,-3.50,1.47,0.72,0.67,0.24
0.0,0.0,0.0,0.0,0.0,0.0,0.0,5553,9965.80,0,0,0,0.56,-3.08,-0.35,0.72,0.67,0.24
0.0,0.0,0.0,0.0,0.0,0.0,0.0,5561,9965.80,0,0,165,0.98,-3.50,-1.68,0.72,0.67,0.24
0.0,0.0,0.0,0.0,0.0,0.0,0.0,5576,9965.80,0,0,0,1.12,-3.85,-2.94,0.72,0.67,0.24
0.0,0.0,0.0,0.0,0.0,0.0,0.0,5591,9964.90,0,0,165,1.26,-2.87,-4.20,0.72,0.67,0.24
0.0,0.0,0.0,0.0,0.0,0.0,0.0,5599,9963.00,0,0,0,1.82,-2.73,-5.88,0.72,0.67,0.24
0.0,0.0,0.0,0.0,0.0,0.0,0.0,5614,9965.80,0,0,165,1.68,-2.80,-6.72,0.72,0.68,0.24
0.0,0.0,0.0,0.0,0.0,0.0,0.0,5628,9964.90,0,0,0,1.68,-2.73,-5.88,0.72,0.68,0.24
0.0,0.0,0.0,0.0,0.0,0.0,0.0,5636,9964.90,0,0,165,1.19,-2.80,-4.27,0.71,0.69,0.24
0.0,0.0,0.0,0.0,0.0,0.0,0.0,5652,9964.90,0,0,0,0.70,-2.94,-1.89,0.71,0.69,0.24
0.0,0.0,0.0,0.0,0.0,0.0,0.0,5667,9964.60,0,0,165,0.28,-3.08,-0.35,0.71,0.69,0.24
0.0,0.0,0.0,0.0,0.0,0.0,0.0,5674,9964.90,0,0,0,-0.14,-3.15,1.19,0.72,0.68,0.24
0.0,0.0,0.0,0.0,0.0,0.0,0.0,5689,9964.60,0,0,165,-0.07,-3.15,1.96,0.71,0.68,0.24
0.0,0.0,0.0,0.0,0.0,0.0,0.0,5703,9964.90,0,0,0,-0.21,-3.22,1.75,0.72,0.68,0.24
0.0,0.0,0.0,0.0,0.0,0.0,0.0,5711,9964.90,0,0,165,0.14,-3.15,1.26,0.72,0.68,0.24
0.0,0.0,0.0,0.0,0.0,0.0,0.0,5726,9964.90,0,0,0,0.14,-3.22,0.84,0.72,0.68,0.24
0.0,0.0,0.0,0.0,0.0,0.0,0.0,5741,9964.90,0,0,165,0.21,-3.01,0.70,0.72,0.68,0.24
0.0,0.0,0.0,0.0,0.0,0.0,0.0,5751,9964.90,0,0,0,0.28,-3.15,0.21,0.72,0.68,0.24
0.0,0.0,0.0,0.0,0.0,0.0,0.0,5764,9965.80,0,0,165,0.49,-3.29,-0.49,0.72,0.68,0.24
0.0,0.0,0.0,0.0,0.0,0.0,0.0,5778,9964.90,0,0,0,0.77,-3.01,-1.05,0.72,0.68,0.24
0.0,0.0,0.0,0.0,0.0,0.0,0.0,5786,9964.90,0,0,165,0.84,-3.08,-1.54,0.72,0.68,0.24
0.0,0.0,0.0,0.0,0.0,0.0,0.0,5801,9966.80,0,0,0,0.84,-3.22,-1.19,0.72,0.68,0.24
0.0,0.0,0.0,0.0,0.0,0.0,0.0,5817,9964.90,0,0,165,0.77,-3.08,-1.33,0.72,0.68,0.24
0.0,0.0,0.0,0.0,0.0,0.0,0.0,5823,9963.60,0,0,0,0.63,-3.15,-0.56,0.72,0.68,0.24
0.0,0.0,0.0,0.0,0.0,0.0,0.0,5838,9965.80,0,0,165,0.42,-3.22,0.49,0.71,0.68,0.24
0.0,0.0,0.0,0.0,0.0,0.0,0.0,5854,9964.90,0,0,0,0.28,-3.08,1.19,0.72,0.68,0.24
0.0,0.0,0.0,0.0,0.0,0.0,0.0,5861,9965.80,0,0,165,-17.92,-3.22,1.96,0.72,0.68,0.24
0.0,0.0,0.0,0.0,0.0,0.0,0.0,5876,9964.90,0,0,0,-0.14,-3.15,2.10,0.72,0.68,0.24
0.0,0.0,0.0,0.0,0.0,0.0,0.0,5891,9964.60,0,0,165,-0.21,-3.22,1.89,0.72,0.68,0.24
0.0,0.0,0.0,0.0,0.0,0.0,0.0,5898,9964.90,0,0,0,0.00,-3.15,1.82,0.71,0.68,0.24
0.0,0.0,0.0,0.0,0.0,0.0,0.0,5913,9965.80,0,0,165,0.00,-3.22,1.75,0.72,0.68,0.24
0.0,0.0,0.0,0.0,0.0,0.0,0.0,5928,9966.20,0,0,0,0.14,-3.15,1.12,0.72,0.68,0.24
0.0,0.0,0.0,0.0,0.0,0.0,0.0,5936,9965.80,0,0,165,0.21,-3.22,0.35,0.72,0.68,0.24
0.0,0.0,0.0,0.0,0.0,0.0,0.0,5952,9966.80,0,0,0,0.56,-3.08,-1.12,0.72,0.68,0.24
0.0,0.0,0.0,0.0,0.0,0.0,0.0,5967,9965.80,0,0,165,0.84,-3.08,-1.89,0.72,0.68,0.24
0.0,0.0,0.0,0.0,0.0,0.0,0.0,5981,9965.80,0,0,0,1.05,-2.94,-2.73,0.71,0.68,0.24
0.0,0.0,0.0,0.0,0.0,0.0,0.0,5989,9964.90,0,0,165,1.05,-2.94,-2.73,0.72,0.68,0.24
0.0,0.0,0.0,0.0,0.0,0.0,0.0,6004,9964.90,0,0,0,0.84,-3.01,-2.31,0.72,0.68,0.24
0.0,0.0,0.0,0.0,0.0,0.0,0.0,6011,9966.20,0,0,165,0.77,-3.08,-1.40,0.72,0.68,0.24
0.0,0.0,0.0,0.0,0.0,0.0,0.0,6026,9966.80,0,0,0,0.63,-3.08,-0.35,0.72,0.68,0.24
0.0,0.0,0.0,0.0,0.0,0.0,0.0,6041,9964.90,0,0,165,0.35,-3.15,0.42,0.71,0.68,0.24
0.0,0.0,0.0,0.0,0.0,0.0,0.0,6049,9966.80,0,0,0,0.07,-3.22,1.19,0.71,0.68,0.24
0.0,0.0,0.0,0.0,0.0,0.0,0.0,6063,9965.80,0,0,165,-0.07,-3.15,1.68,0.72,0.68,0.24
0.0,0.0,0.0,0.0,0.0,0.0,0.0,6086,9965.80,0,0,0,-0.07,-3.22,2.31,0.71,0.68,0.24
0.0,0.0,0.0,0.0,0.0,0.0,0.0,6089,9965.80,0,0,165,-0.14,-3.29,2.66,0.72,0.68,0.24
0.0,0.0,0.0,0.0,0.0,0.0,0.0,6101,9965.80,0,0,0,-0.28,-3.22,2.73,0.72,0.68,0.24
0.0,0.0,0.0,0.0,0.0,0.0,0.0,6116,9965.20,0,0,165,-0.21,-3.22,2.10,0.72,0.67,0.24
0.0,0.0,0.0,0.0,0.0,0.0,0.0,6123,9965.80,0,0,0,0.14,-3.15,1.12,0.72,0.67,0.24
0.0,0.0,0.0,0.0,0.0,0.0,0.0,6138,9966.80,0,0,165,0.42,-3.15,0.14,0.72,0.68,0.24
0.0,0.0,0.0,0.0,0.0,0.0,0.0,6153,9966.80,0,0,0,0.56,-3.15,-0.84,0.72,0.67,0.24
0.0,0.0,0.0,0.0,0.0,0.0,0.0,6161,9966.20,0,0,165,0.70,-3.08,-1.54,0.72,0.68,0.24
0.0,0.0,0.0,0.0,0.0,0.0,0.0,6176,9964.90,0,0,0,0.91,-3.01,-2.03,0.72,0.68,0.24
0.0,0.0,0.0,0.0,0.0,0.0,0.0,6191,9967.10,0,0,165,0.77,-3.08,-1.82,0.72,0.68,0.24
0.0,0.0,0.0,0.0,0.0,0.0,0.0,6199,9965.80,0,0,0,0.63,-3.15,-1.33,0.71,0.68,0.24
0.0,0.0,0.0,0.0,0.0,0.0,0.0,6214,9966.80,0,0,165,0.77,-3.08,-0.77,0.71,0.68,0.24
0.0,0.0,0.0,0.0,0.0,0.0,0.0,6228,9967.10,0,0,0,0.49,-3.15,-0.21,0.72,0.68,0.24
0.0,0.0,0.0,0.0,0.0,0.0,0.0,6236,9966.80,0,0,165,0.35,-3.15,0.14,0.72,0.68,0.24
0.0,0.0,0.0,0.0,0.0,0.0,0.0,6251,9966.80,0,0,0,0.28,-3.15,0.35,0.71,0.68,0.24
0.0,0.0,0.0,0.0,0.0,0.0,0.0,6266,9965.80,0,0,165,0.42,-3.15,0.56,0.72,0.68,0.24
0.0,0.0,0.0,0.0,0.0,0.0,0.0,6274,9967.10,0,0,0,0.21,-3.08,0.98,0.71,0.68,0.24
0.0,0.0,0.0,0.0,0.0,0.0,0.0,6289,9966.20,0,0,165,0.00,-3.08,1.40,0.71,0.68,0.24
0.0,0.0,0.0,0.0,0.0,0.0,0.0,6304,9967.10,0,0,0,0.00,-3.22,1.68,0.72,0.68,0.24
0.0,0.0,0.0,0.0,0.0,0.0,0.0,6317,9967.10,0,0,165,0.00,-3.22,1.68,0.72,0.68,0.24
0.0,0.0,0.0,0.0,0.0,0.0,0.0,6326,9967.10,0,0,0,0.14,-3.22,1.40,0.72,0.68,0.24
0.0,0.0,0.0,0.0,0.0,0.0,0.0,6334,9966.40,0,0,165,0.28,-3.15,0.70,0.72,0.68,0.24
0.0,0.0,0.0,0.0,0.0,0.0,0.0,6348,9968.10,0,0,0,0.35,-3.08,-0.21,0.72,0.68,0.24
0.0,0.0,0.0,0.0,0.0,0.0,0.0,6363,9966.20,0,0,165,0.49,-3.08,-0.70,0.72,0.68,0.24
0.0,0.0,0.0,0.0,0.0,0.0,0.0,6371,9967.10,0,0,0,0.63,-3.08,-1.05,0.72,0.68,0.24
0.0,0.0,0.0,0.0,0.0,0.0,0.0,6387,9967.10,0,0,165,0.63,-3.15,-0.77,0.72,0.68,0.24
0.0,0.0,0.0,0.0,0.0,0.0,0.0,6401,9968.40,0,0,0,0.49,-3.15,-0.56,0.72,0.68,0.24
0.0,0.0,0.0,0.0,0.0,0.0,0.0,6409,9968.40,0,0,165,0.56,-3.22,-0.42,0.71,0.68,0.24
0.0,0.0,0.0,0.0,0.0,0.0,0.0,6423,9967.40,0,0,0,0.56,-3.08,-0.21,0.71,0.68,0.23
0.0,0.0,0.0,0.0,0.0,0.0,0.0,6439,9968.40,0,0,165,0.49,-3.08,-0.35,0.71,0.68,0.24
0.0,0.0,0.0,0.0,0.0,0.0,0.0,6446,9967.10,0,0,0,0.42,-3.08,-0.35,0.71,0.68,0.24
0.0,0.0,0.0,0.0,0.0,0.0,0.0,6461,9968.40,0,0,165,0.42,-3.08,0.14,0.72,0.68,0.24
0.0,0.0,0.0,0.0,0.0,0.0,0.0,6477,9968.40,0,0,0,0.14,-3.15,0.56,0.72,0.68,0.24
0.0,0.0,0.0,0.0,0.0,0.0,0.0,6484,9967.40,0,0,165,0.21,-3.15,1.19,0.72,0.68,0.23
0.0,0.0,0.0,0.0,0.0,0.0,0.0,6499,9968.40,0,0,0,0.00,-3.08,1.47,0.71,0.68,0.24
0.0,0.0,0.0,0.0,0.0,0.0,0.0,6514,9968.40,0,0,165,0.00,-3.22,1.33,0.72,0.68,0.24
0.0,0.0,0.0,0.0,0.0,0.0,0.0,6522,9968.40,0,0,0,0.28,-3.22,0.77,0.72,0.68,0.24
0.0,0.0,0.0,0.0,0.0,0.0,0.0,6537,9969.30,0,0,165,0.21,-3.15,0.14,0.72,0.68,0.24
0.0,0.0,0.0,0.0,0.0,0.0,0.0,6551,9968.40,0,0,0,0.28,-3.08,-0.28,0.72,0.68,0.24
0.0,0.0,0.0,0.0,0.0,0.0,0.0,6558,9968.40,0,0,165,0.56,-3.08,-0.49,0.72,0.68,0.23
0.0,0.0,0.0,0.0,0.0,0.0,0.0,6573,9970.30,0,0,0,0.56,-3.08,-0.77,0.72,0.68,0.24
0.0,0.0,0.0,0.0,0.0,0.0,0.0,6589,9969.70,0,0,165,0.49,-3.15,-0.49,0.72,0.68,0.24
0.0,0.0,0.0,0.0,0.0,0.0,0.0,6596,9970.30,0,0,0,0.49,-3.15,-0.35,0.72,0.68,0.24
0.0,0.0,0.0,0.0,0.0,0.0,0.0,6611,9969.30,0,0,165,0.49,-3.15,-0.21,0.72,0.68,0.24
0.0,0.0,0.0,0.0,0.0,0.0,0.0,6627,9969.30,0,0,0,0.35,-3.22,-0.35,0.72,0.68,0.24
0.0,0.0,0.0,0.0,0.0,0.0,0.0,6633,9969.30,0,0,165,0.42,-3.01,-0.07,0.71,0.68,0.24
0.0,0.0,0.0,0.0,0.0,0.0,0.0,6650,9971.20,0,0,0,0.35,-3.01,0.07,0.72,0.68,0.24
0.0,0.0,0.0,0.0,0.0,0.0,0.0,6664,9969.30,0,0,165,0.21,-3.15,0.35,0.72,0.68,0.24
0.0,0.0,0.0,0.0,0.0,0.0,0.0,6671,9969.70,0,0,0,0.21,-3.15,1.19,0.72,0.68,0.24
0.0,0.0,0.0,0.0,0.0,0.0,0.0,6687,9970.60,0,0,165,0.00,-3.29,1.47,0.72,0.68,0.24
0.0,0.0,0.0,0.0,0.0,0.0,0.0,6701,9970.30,0,0,0,0.14,-3.22,1.40,0.72,0.68,0.23
0.0,0.0,0.0,0.0,0.0,0.0,0.0,6708,9970.60,0,0,165,0.14,-3.15,1.05,0.72,0.68,0.24
0.0,0.0,0.0,0.0,0.0,0.0,0.0,6723,9970.30,0,0,0,0.28,-3.08,0.21,0.72,0.68,0.24
0.0,0.0,0.0,0.0,0.0,0.0,0.0,6739,9970.60,0,0,165,0.56,-3.15,-0.28,0.72,0.68,0.24
0.0,0.0,0.0,0.0,0.0,0.0,0.0,6746,9970.60,0,0,0,0.49,-3.08,-0.84,0.72,0.68,0.24
0.0,0.0,0.0,0.0,0.0,0.0,0.0,6761,9970.60,0,0,165,0.56,-3.15,-0.77,0.72,0.68,0.24
0.0,0.0,0.0,0.0,0.0,0.0,0.0,6776,9970.90,0,0,0,0.56,-3.15,-0.63,0.72,0.68,0.24
0.0,0.0,0.0,0.0,0.0,0.0,0.0,6784,9971.90,0,0,165,0.49,-3.15,-0.42,0.72,0.68,0.24
0.0,0.0,0.0,0.0,0.0,0.0,0.0,6798,9970.00,0,0,0,0.49,-3.15,-0.28,0.72,0.68,0.24
0.0,0.0,0.0,0.0,0.0,0.0,0.0,6814,9971.90,0,0,165,0.56,-3.08,-0.28,0.71,0.68,0.23
0.0,0.0,0.0,0.0,0.0,0.0,0.0,6821,9971.90,0,0,0,0.42,-3.08,-0.14,0.72,0.68,0.24
0.0,0.0,0.0,0.0,0.0,0.0,0.0,6836,9973.50,0,0,165,0.49,-3.15,0.07,0.71,0.68,0.24
0.0,0.0,0.0,0.0,0.0,0.0,0.0,6851,9971.90,0,0,0,0.42,-3.15,0.35,0.71,0.68,0.24
0.0,0.0,0.0,0.0,0.0,0.0,0.0,6858,9971.90,0,0,165,0.14,-3.22,0.98,0.72,0.68,0.24
0.0,0.0,0.0,0.0,0.0,0.0,0.0,6873,9971.90,0,0,0,0.21,-3.15,1.26,0.71,0.68,0.24
0.0,0.0,0.0,0.0,0.0,0.0,0.0,6890,9972.80,0,0,165,0.07,-3.15,1.12,0.71,0.68,0.24
0.0,0.0,0.0,0.0,0.0,0.0,0.0,6896,9972.80,0,0,0,0.21,-3.15,1.05,0.72,0.67,0.24
0.0,0.0,0.0,0.0,0.0,0.0,0.0,6911,9972.80,0,0,165,0.21,-3.15,0.56,0.72,0.68,0.24
0.0,0.0,0.0,0.0,0.0,0.0,0.0,6926,9975.10,0,0,0,0.42,-3.15,0.00,0.72,0.68,0.23
0.0,0.0,0.0,0.0,0.0,0.0,0.0,6934,9975.10,0,0,165,0.42,-3.15,-0.28,0.72,0.68,0.24
0.0,0.0,0.0,0.0,0.0,0.0,0.0,6948,9974.10,0,0,0,0.49,-3.08,-0.42,0.72,0.68,0.24
0.0,0.0,0.0,0.0,0.0,0.0,0.0,6964,9974.10,0,0,165,0.42,-3.15,-0.21,0.71,0.68,0.24
0.0,0.0,0.0,0.0,0.0,0.0,0.0,6971,9973.20,0,0,0,0.49,-3.15,-0.14,0.72,0.68,0.24
0.0,0.0,0.0,0.0,0.0,0.0,0.0,6986,9975.10,0,0,165,0.42,-3.01,-0.28,0.72,0.68,0.24
0.0,0.0,0.0,0.0,0.0,0.0,0.0,7001,9974.10,0,0,0,0.49,-3.15,-0.35,0.71,0.68,0.24
0.0,0.0,0.0,0.0,0.0,0.0,0.0,7008,9976.00,0,0,165,0.63,-3.08,-0.49,0.71,0.68,0.24
0.0,0.0,0.0,0.0,0.0,0.0,0.0,7023,9975.40,0,0,0,0.49,-3.15,-0.28,0.72,0.68,0.24
0.0,0.0,0.0,0.0,0.0,0.0,0.0,7038,9976.30,0,0,165,0.35,-3.15,0.21,0.72,0.68,0.24
0.0,0.0,0.0,0.0,0.0,0.0,0.0,7046,9975.10,0,0,0,0.21,-3.29,0.42,0.72,0.68,0.24
0.0,0.0,0.0,0.0,0.0,0.0,0.0,7078,9976.30,0,0,165,0.07,-3.15,0.91,0.72,0.68,0.24
0.0,0.0,0.0,0.0,0.0,0.0,0.0,7079,9976.30,0,0,0,0.21,-3.15,0.98,0.72,0.68,0.24
0.0,0.0,0.0,0.0,0.0,0.0,0.0,7084,9976.30,0,0,165,0.35,-3.08,0.84,0.72,0.68,0.24
0.0,0.0,0.0,0.0,0.0,0.0,0.0,7098,9977.30,0,0,0,0.21,-3.15,0.28,0.72,0.68,0.24
0.0,0.0,0.0,0.0,0.0,0.0,0.0,7113,9977.30,0,0,165,0.35,-3.01,0.21,0.72,0.68,0.23
0.0,0.0,0.0,0.0,0.0,0.0,0.0,7121,9975.40,0,0,0,0.42,-3.15,0.00,0.71,0.68,0.24
0.0,0.0,0.0,0.0,0.0,0.0,0.0,7136,9978.20,0,0,165,0.35,-3.15,0.14,0.71,0.68,0.24
0.0,0.0,0.0,0.0,0.0,0.0,0.0,7151,9975.70,0,0,0,0.35,-3.15,0.42,0.71,0.68,0.24
0.0,0.0,0.0,0.0,0.0,0.0,0.0,7158,9977.30,0,0,165,0.35,-3.15,0.28,0.72,0.68,0.24
0.0,0.0,0.0,0.0,0.0,0.0,0.0,7173,9976.30,0,0,0,0.42,-3.15,0.07,0.72,0.68,0.24
0.0,0.0,0.0,0.0,0.0,0.0,0.0,7196,9977.30,0,0,165,0.63,-3.08,-0.14,0.72,0.68,0.24
0.0,0.0,0.0,0.0,0.0,0.0,0.0,7197,9976.30,0,0,0,0.56,-3.08,-0.63,0.71,0.68,0.24
0.0,0.0,0.0,0.0,0.0,0.0,0.0,7211,9976.30,0,0,165,0.63,-3.15,-0.77,0.72,0.68,0.24
0.0,0.0,0.0,0.0,0.0,0.0,0.0,7226,9976.30,0,0,0,0.56,-3.08,-0.63,0.71,0.68,0.24
0.0,0.0,0.0,0.0,0.0,0.0,0.0,7234,9975.10,0,0,165,0.42,-3.22,0.00,0.71,0.68,0.24
0.0,0.0,0.0,0.0,0.0,0.0,0.0,7249,9975.10,0,0,0,0.28,-3.29,0.70,0.71,0.68,0.24
0.0,0.0,0.0,0.0,0.0,0.0,0.0,7264,9974.40,0,0,165,0.21,-3.15,1.12,0.71,0.68,0.24
0.0,0.0,0.0,0.0,0.0,0.0,0.0,7271,9974.10,0,0,0,0.07,-3.29,1.19,0.72,0.68,0.24
0.0,0.0,0.0,0.0,0.0,0.0,0.0,7287,9974.10,0,0,165,0.21,-3.22,0.84,0.71,0.68,0.23
0.0,0.0,0.0,0.0,0.0,0.0,0.0,7301,9974.10,0,0,0,0.28,-3.15,0.35,0.72,0.68,0.24
0.0,0.0,0.0,0.0,0.0,0.0,0.0,7308,9973.20,0,0,165,0.42,-3.08,0.00,0.72,0.68,0.23
0.0,0.0,0.0,0.0,0.0,0.0,0.0,7323,9976.00,0,0,0,0.42,-3.22,17.78,0.72,0.68,0.23
0.0,0.0,0.0,0.0,0.0,0.0,0.0,7341,9973.80,0,0,165,0.49,-3.08,-0.14,0.72,0.68,0.24
0.0,0.0,0.0,0.0,0.0,0.0,0.0,7346,9973.20,0,0,0,0.35,-3.15,0.07,0.72,0.68,0.24
0.0,0.0,0.0,0.0,0.0,0.0,0.0,7361,9974.10,0,0,165,0.49,-3.08,0.21,0.71,0.68,0.24
0.0,0.0,0.0,0.0,0.0,0.0,0.0,7375,9972.20,0,0,0,0.42,-3.08,0.00,0.72,0.68,0.24
0.0,0.0,0.0,0.0,0.0,0.0,0.0,7384,9973.20,0,0,165,0.35,-3.08,-0.21,0.72,0.68,0.24
0.0,0.0,0.0,0.0,0.0,0.0,0.0,7399,9974.10,0,0,0,0.35,-3.15,-0.35,0.71,0.68,0.24
0.0,0.0,0.0,0.0,0.0,0.0,0.0,7413,9972.80,0,0,165,0.56,-3.08,-0.28,0.72,0.68,0.24
0.0,0.0,0.0,0.0,0.0,0.0,0.0,7421,9973.20,0,0,0,0.49,-3.22,-0.07,0.72,0.68,0.23
0.0,0.0,0.0,0.0,0.0,0.0,0.0,7437,9972.80,0,0,165,0.35,-3.29,0.28,0.72,0.68,0.23
0.0,0.0,0.0,0.0,0.0,0.0,0.0,7452,9970.00,0,0,0,0.14,-3.22,0.70,0.72,0.68,0.23
-5.5351562,-4.1274354E-4,-3.7534907E-4,0.0015561106,0.71,0.68,0.23,17470,9956.90,0,0,165,0.35,-3.15,0.28,0.71,0.68,0.23
-4.5351562,-4.1274354E-4,6.2465295E-4,-0.0014438896,0.72,0.68,0.24,17486,9957.90,0,0,0,0.35,-3.08,0.07,0.72,0.68,0.24
-4.5351562,-4.1274354E-4,-0.0013753474,5.561102E-4,0.72,0.68,0.24,17501,9957.90,0,0,165,0.35,-3.22,0.21,0.72,0.68,0.24
-5.5351562,-0.0014127432,6.2465295E-4,5.561102E-4,0.72,0.68,0.24,17508,9956.90,0,0,0,0.28,-3.08,0.21,0.72,0.68,0.24
-4.5351562,5.8725616E-4,6.2465295E-4,-4.4388953E-4,0.72,0.68,0.24,17523,9957.90,0,0,165,0.42,-3.08,0.14,0.72,0.68,0.24
-4.5351562,-4.1274354E-4,-0.0013753474,-0.0014438896,0.72,0.68,0.24,17538,9957.90,0,0,0,0.35,-3.22,0.07,0.72,0.68,0.24
-5.5351562,-4.1274354E-4,6.2465295E-4,0.0025561103,0.72,0.68,0.24,17553,9956.90,0,0,165,0.35,-3.08,0.35,0.72,0.68,0.24
-5.5351562,-4.1274354E-4,6.2465295E-4,5.561102E-4,0.72,0.68,0.23,17560,9956.90,0,0,0,0.35,-3.08,0.21,0.72,0.68,0.23
-4.5351562,0.0015872568,0.0016246513,0.0015561106,0.71,0.68,0.24,17575,9957.90,0,0,165,0.49,-3.01,0.28,0.71,0.68,0.24
-5.5351562,5.8725616E-4,6.2465295E-4,0.0015561106,0.72,0.68,0.24,17583,9956.90,0,0,0,0.42,-3.08,0.28,0.72,0.68,0.24
-5.5351562,-4.1274354E-4,6.2465295E-4,-0.0014438896,0.72,0.68,0.23,17598,9956.90,0,0,165,0.35,-3.08,0.07,0.72,0.68,0.23
-5.8359375,-4.1274354E-4,6.2465295E-4,-0.0014438896,0.72,0.68,0.24,17606,9956.60,0,0,0,0.35,-3.08,0.07,0.72,0.68,0.24
-5.8359375,5.8725616E-4,0.0016246513,-0.0014438896,0.71,0.68,0.23,17621,9956.60,0,0,165,0.42,-3.01,0.07,0.71,0.68,0.23
-5.8359375,5.8725616E-4,6.2465295E-4,0.0015561106,0.71,0.68,0.24,17636,9956.60,0,0,0,0.42,-3.08,0.28,0.71,0.68,0.24
-6.435547,-0.0014127432,6.2465295E-4,-4.4388953E-4,0.71,0.68,0.24,17643,9956.00,0,0,165,0.28,-3.08,0.14,0.71,0.68,0.24
-5.5351562,-4.1274354E-4,0.0026246533,0.0015561106,0.71,0.68,0.24,17659,9956.90,0,0,0,0.35,-2.94,0.28,0.71,0.68,0.24
-4.935547,-4.1274354E-4,-0.0013753474,-4.4388953E-4,0.71,0.68,0.24,17674,9957.50,0,0,165,0.35,-3.22,0.14,0.71,0.68,0.24
-5.8359375,5.8725616E-4,6.2465295E-4,0.0015561106,0.72,0.68,0.24,17681,9956.60,0,0,0,0.42,-3.08,0.28,0.72,0.68,0.24
-5.8359375,0.0015872568,6.2465295E-4,-4.4388953E-4,0.72,0.68,0.24,17695,9956.60,0,0,165,0.49,-3.08,0.14,0.72,0.68,0.24
-5.8359375,5.8725616E-4,6.2465295E-4,-4.4388953E-4,0.71,0.68,0.23,17710,9956.60,0,0,0,0.42,-3.08,0.14,0.71,0.68,0.23
-5.8359375,-4.1274354E-4,-0.0013753474,-4.4388953E-4,0.72,0.68,0.24,17719,9956.60,0,0,165,0.35,-3.22,0.14,0.72,0.68,0.24
-6.8359375,0.0015872568,-3.7534907E-4,-4.4388953E-4,0.71,0.68,0.23,17734,9955.60,0,0,0,0.49,-3.15,0.14,0.71,0.68,0.23
-5.8359375,-4.1274354E-4,-3.7534907E-4,5.561102E-4,0.71,0.68,0.23,17749,9956.60,0,0,165,0.35,-3.15,0.21,0.71,0.68,0.23
-5.8359375,-4.1274354E-4,0.0016246513,5.561102E-4,0.71,0.68,0.24,17756,9956.60,0,0,0,0.35,-3.01,0.21,0.71,0.68,0.24
-6.8359375,-0.0014127432,-3.7534907E-4,0.0025561103,0.72,0.68,0.24,17771,9955.60,0,0,165,0.28,-3.15,0.35,0.72,0.68,0.24
-5.8359375,5.8725616E-4,-3.7534907E-4,0.0015561106,0.71,0.68,0.24,17786,9956.60,0,0,0,0.42,-3.15,0.28,0.71,0.68,0.24
-6.8359375,0.0015872568,6.2465295E-4,-4.4388953E-4,0.71,0.68,0.24,17793,9955.60,0,0,165,0.49,-3.08,0.14,0.71,0.68,0.24
-6.8359375,-4.1274354E-4,-0.0013753474,-0.0014438896,0.72,0.68,0.24,17808,9955.60,0,0,0,0.35,-3.22,0.07,0.72,0.68,0.24
-5.8359375,5.8725616E-4,6.2465295E-4,-0.0024438896,0.71,0.68,0.23,17823,9956.60,0,0,165,0.42,-3.08,0.00,0.71,0.68,0.23
-5.8359375,-0.0014127432,-3.7534907E-4,5.561102E-4,0.71,0.68,0.24,17831,9956.60,0,0,0,0.28,-3.15,0.21,0.71,0.68,0.24
-5.8359375,5.8725616E-4,0.0016246513,5.561102E-4,0.71,0.68,0.23,17846,9956.60,0,0,165,0.42,-3.01,0.21,0.71,0.68,0.23
-5.8359375,-4.1274354E-4,-3.7534907E-4,5.561102E-4,0.71,0.68,0.24,17861,9956.60,0,0,0,0.35,-3.15,0.21,0.71,0.68,0.24
-5.5351562,0.0015872568,-3.7534907E-4,-4.4388953E-4,0.72,0.68,0.24,17868,9956.90,0,0,165,0.49,-3.15,0.14,0.72,0.68,0.24
-5.8359375,0.0015872568,6.2465295E-4,0.0015561106,0.71,0.68,0.24,17883,9956.60,0,0,0,0.49,-3.08,0.28,0.71,0.68,0.24
-5.8359375,5.8725616E-4,-0.0013753474,-4.4388953E-4,0.71,0.68,0.24,17890,9956.60,0,0,165,0.42,-3.22,0.14,0.71,0.68,0.24
-6.8359375,-4.1274354E-4,-3.7534907E-4,5.561102E-4,0.71,0.68,0.23,17906,9955.60,0,0,0,0.35,-3.15,0.21,0.71,0.68,0.23
-5.8359375,5.8725616E-4,-3.7534907E-4,-4.4388953E-4,0.72,0.68,0.24,17921,9956.60,0,0,165,0.42,-3.15,0.14,0.72,0.68,0.24
-6.8359375,5.8725616E-4,0.0036246553,5.561102E-4,0.72,0.68,0.24,17929,9955.60,0,0,0,0.42,-2.87,0.21,0.72,0.68,0.24
-7.135742,0.002587257,-3.7534907E-4,-4.4388953E-4,0.72,0.68,0.24,17943,9955.30,0,0,165,0.56,-3.15,0.14,0.72,0.68,0.24
-6.8359375,0.0015872568,0.0016246513,5.561102E-4,0.71,0.68,0.24,17958,9955.60,0,0,0,0.49,-3.01,0.21,0.71,0.68,0.24
-6.8359375,-4.1274354E-4,-3.7534907E-4,0.0015561106,0.71,0.68,0.24,17966,9955.60,0,0,165,0.35,-3.15,0.28,0.71,0.68,0.24
-6.8359375,-4.1274354E-4,-3.7534907E-4,5.561102E-4,0.71,0.68,0.24,17980,9955.60,0,0,0,0.35,-3.15,0.21,0.71,0.68,0.24
-7.135742,-0.0014127432,-0.0013753474,-4.4388953E-4,0.72,0.68,0.24,17995,9955.30,0,0,165,0.28,-3.22,0.14,0.72,0.68,0.24
-6.8359375,-4.1274354E-4,6.2465295E-4,5.561102E-4,0.71,0.68,0.24,18003,9955.60,0,0,0,0.35,-3.08,0.21,0.71,0.68,0.24
-6.8359375,-4.1274354E-4,-3.7534907E-4,-0.0024438896,0.71,0.68,0.24,18019,9955.60,0,0,165,0.35,-3.15,0.00,0.71,0.68,0.24
-6.8359375,-4.1274354E-4,-0.0013753474,-0.0014438896,0.72,0.68,0.23,18034,9955.60,0,0,0,0.35,-3.22,0.07,0.72,0.68,0.23
-6.8359375,-4.1274354E-4,0.0016246513,0.0015561106,0.72,0.68,0.23,18042,9955.60,0,0,165,0.35,-3.01,0.28,0.72,0.68,0.23
-5.8359375,0.0015872568,-3.7534907E-4,0.0015561106,0.71,0.68,0.24,18064,9956.60,0,0,0,0.49,-3.15,0.28,0.71,0.68,0.24
-6.8359375,5.8725616E-4,6.2465295E-4,5.561102E-4,0.72,0.68,0.24,18071,9955.60,0,0,165,0.42,-3.08,0.21,0.72,0.68,0.24
-6.8359375,5.8725616E-4,-0.0013753474,-4.4388953E-4,0.71,0.68,0.24,18079,9955.60,0,0,0,0.42,-3.22,0.14,0.71,0.68,0.24
-6.8359375,-4.1274354E-4,0.0016246513,0.0025561103,0.71,0.68,0.24,18093,9955.60,0,0,165,0.35,-3.01,0.35,0.71,0.68,0.24
-7.135742,-0.0014127432,-3.7534907E-4,-4.4388953E-4,0.72,0.68,0.23,18108,9955.30,0,0,0,0.28,-3.15,0.14,0.72,0.68,0.23
-7.135742,0.0015872568,6.2465295E-4,5.561102E-4,0.71,0.68,0.24,18115,9955.30,0,0,165,0.49,-3.08,0.21,0.71,0.68,0.24
-7.135742,5.8725616E-4,-3.7534907E-4,0.0025561103,0.71,0.68,0.24,18131,9955.30,0,0,0,0.42,-3.15,0.35,0.71,0.68,0.24
-6.8359375,5.8725616E-4,6.2465295E-4,5.561102E-4,0.71,0.68,0.24,18146,9955.60,0,0,165,0.42,-3.08,0.21,0.71,0.68,0.24
-6.8359375,0.0015872568,0.0026246533,0.0025561103,0.72,0.68,0.24,18153,9955.60,0,0,0,0.49,-2.94,0.35,0.72,0.68,0.24
-8.035156,5.8725616E-4,6.2465295E-4,0.0015561106,0.71,0.68,0.24,18168,9954.40,0,0,165,0.42,-3.08,0.28,0.71,0.68,0.24
-7.7353516,0.002587257,0.0026246533,0.0015561106,0.71,0.68,0.24,18183,9954.70,0,0,0,0.56,-2.94,0.28,0.71,0.68,0.24
-8.035156,5.8725616E-4,-3.7534907E-4,-4.4388953E-4,0.71,0.68,0.24,18190,9954.40,0,0,165,0.42,-3.15,0.14,0.71,0.68,0.24
-6.8359375,-4.1274354E-4,6.2465295E-4,-4.4388953E-4,0.72,0.68,0.24,18206,9955.60,0,0,0,0.35,-3.08,0.14,0.72,0.68,0.24
-5.8359375,-4.1274354E-4,6.2465295E-4,-0.0034438898,0.71,0.68,0.24,18220,9956.60,0,0,165,0.35,-3.08,-0.07,0.71,0.68,0.24
-6.8359375,0.0015872568,0.0016246513,0.0015561106,0.71,0.68,0.24,18228,9955.60,0,0,0,0.49,-3.01,0.28,0.71,0.68,0.24
-7.135742,-4.1274354E-4,0.0016246513,0.0015561106,0.72,0.68,0.23,18243,9955.30,0,0,165,0.35,-3.01,0.28,0.72,0.68,0.23
-8.035156,-4.1274354E-4,6.2465295E-4,0.0025561103,0.71,0.68,0.24,18258,9954.40,0,0,0,0.35,-3.08,0.35,0.71,0.68,0.24
-8.035156,5.8725616E-4,-0.0013753474,0.0015561106,0.72,0.68,0.24,18265,9954.40,0,0,165,0.42,-3.22,0.28,0.72,0.68,0.24
-7.135742,5.8725616E-4,6.2465295E-4,5.561102E-4,0.71,0.68,0.24,18280,9955.30,0,0,0,0.42,-3.08,0.21,0.71,0.68,0.24
-8.035156,-4.1274354E-4,6.2465295E-4,5.561102E-4,0.71,0.68,0.24,18295,9954.40,0,0,165,0.35,-3.08,0.21,0.71,0.68,0.24
-8.035156,5.8725616E-4,0.0016246513,-4.4388953E-4,0.71,0.68,0.24,18304,9954.40,0,0,0,0.42,-3.01,0.14,0.71,0.68,0.24
-7.135742,5.8725616E-4,6.2465295E-4,-0.0014438896,0.71,0.68,0.24,18318,9955.30,0,0,165,0.42,-3.08,0.07,0.71,0.68,0.24
-9.035156,5.8725616E-4,0.0026246533,5.561102E-4,0.72,0.68,0.24,18333,9953.40,0,0,0,0.42,-2.94,0.21,0.72,0.68,0.24
-5.8359375,0.0015872568,0.0016246513,5.561102E-4,0.72,0.68,0.24,18341,9956.60,0,0,165,0.49,-3.01,0.21,0.72,0.68,0.24
-7.135742,-4.1274354E-4,6.2465295E-4,0.0025561103,0.72,0.68,0.24,18355,9955.30,0,0,0,0.35,-3.08,0.35,0.72,0.68,0.24
-7.135742,5.8725616E-4,-3.7534907E-4,5.561102E-4,0.72,0.68,0.24,18371,9955.30,0,0,165,0.42,-3.15,0.21,0.72,0.68,0.24
-8.035156,5.8725616E-4,-3.7534907E-4,5.561102E-4,0.71,0.68,0.24,18378,9954.40,0,0,0,0.42,-3.15,0.21,0.71,0.68,0.24
-7.135742,-4.1274354E-4,6.2465295E-4,-4.4388953E-4,0.72,0.68,0.24,18392,9955.30,0,0,165,0.35,-3.08,0.14,0.72,0.68,0.24
-8.035156,0.0015872568,-3.7534907E-4,5.561102E-4,0.71,0.68,0.23,18408,9954.40,0,0,0,0.49,-3.15,0.21,0.71,0.68,0.23
-7.135742,0.002587257,6.2465295E-4,5.561102E-4,0.72,0.68,0.24,18417,9955.30,0,0,165,0.56,-3.08,0.21,0.72,0.68,0.24
-8.035156,-4.1274354E-4,6.2465295E-4,5.561102E-4,0.71,0.68,0.24,18431,9954.40,0,0,0,0.35,-3.08,0.21,0.71,0.68,0.24
-6.8359375,-0.0014127432,0.0016246513,5.561102E-4,0.72,0.68,0.24,18447,9955.60,0,0,165,0.28,-3.01,0.21,0.72,0.68,0.24
-6.135742,-0.0014127432,-3.7534907E-4,0.0015561106,0.72,0.68,0.24,18453,9956.30,0,0,0,0.28,-3.15,0.28,0.72,0.68,0.24
-7.135742,5.8725616E-4,-3.7534907E-4,5.561102E-4,0.71,0.68,0.24,18469,9955.30,0,0,165,0.42,-3.15,0.21,0.71,0.68,0.24
-7.135742,-0.0014127432,-3.7534907E-4,-0.0014438896,0.71,0.68,0.24,18483,9955.30,0,0,0,0.28,-3.15,0.07,0.71,0.68,0.24
-8.035156,-4.1274354E-4,-3.7534907E-4,-0.0014438896,0.71,0.68,0.24,18491,9954.40,0,0,165,0.35,-3.15,0.07,0.71,0.68,0.24
-7.135742,-4.1274354E-4,-3.7534907E-4,-4.4388953E-4,0.72,0.68,0.24,18506,9955.30,0,0,0,0.35,-3.15,0.14,0.72,0.68,0.24
-8.035156,-0.0014127432,-3.7534907E-4,-4.4388953E-4,0.71,0.68,0.24,18521,9954.40,0,0,165,0.28,-3.15,0.14,0.71,0.68,0.24
-8.035156,-4.1274354E-4,6.2465295E-4,-4.4388953E-4,0.72,0.68,0.23,18528,9954.40,0,0,0,0.35,-3.08,0.14,0.72,0.68,0.23
-8.035156,-4.1274354E-4,-3.7534907E-4,-0.0014438896,0.72,0.68,0.24,18543,9954.40,0,0,165,0.35,-3.15,0.07,0.72,0.68,0.24
-8.035156,0.0015872568,0.0016246513,-4.4388953E-4,0.71,0.68,0.24,18558,9954.40,0,0,0,0.49,-3.01,0.14,0.71,0.68,0.24
-8.035156,-0.0014127432,0.0016246513,-4.4388953E-4,0.72,0.68,0.24,18565,9954.40,0,0,165,0.28,-3.01,0.14,0.72,0.68,0.24
-8.035156,5.8725616E-4,6.2465295E-4,-4.4388953E-4,0.72,0.68,0.24,18581,9954.40,0,0,0,0.42,-3.08,0.14,0.72,0.68,0.24
-7.135742,-0.0014127432,6.2465295E-4,-4.4388953E-4,0.71,0.68,0.24,18596,9955.30,0,0,165,0.28,-3.08,0.14,0.71,0.68,0.24
-8.035156,0.002587257,0.0026246533,5.561102E-4,0.73,0.68,0.24,18603,9954.40,0,0,0,0.56,-2.94,0.21,0.73,0.68,0.24
-8.035156,5.8725616E-4,0.0036246553,0.0025561103,0.71,0.68,0.24,18633,9954.40,0,0,165,0.42,-2.87,0.35,0.71,0.68,0.24
-8.035156,5.8725616E-4,-0.0013753474,0.0015561106,0.71,0.68,0.24,18634,9954.40,0,0,0,0.42,-3.22,0.28,0.71,0.68,0.24
-7.135742,5.8725616E-4,0.0026246533,-0.0014438896,0.72,0.68,0.24,18641,9955.30,0,0,165,0.42,-2.94,0.07,0.72,0.68,0.24
-7.135742,-0.0024127436,-0.0023753457,-0.0024438896,0.71,0.68,0.23,18655,9955.30,0,0,0,0.21,-3.29,0.00,0.71,0.68,0.23
-8.035156,-0.0024127436,-3.7534907E-4,0.0015561106,0.71,0.68,0.24,18663,9954.40,0,0,165,0.21,-3.15,0.28,0.71,0.68,0.24
-7.135742,0.0015872568,0.0016246513,0.0015561106,0.71,0.68,0.23,18678,9955.30,0,0,0,0.49,-3.01,0.28,0.71,0.68,0.23
-8.035156,5.8725616E-4,-0.0013753474,-0.0024438896,0.71,0.68,0.24,18693,9954.40,0,0,165,0.42,-3.22,0.00,0.71,0.68,0.24
-8.035156,-4.1274354E-4,0.0016246513,5.561102E-4,0.72,0.68,0.24,18700,9954.40,0,0,0,0.35,-3.01,0.21,0.72,0.68,0.24
-7.135742,-4.1274354E-4,-3.7534907E-4,0.0025561103,0.71,0.68,0.24,18716,9955.30,0,0,165,0.35,-3.15,0.35,0.71,0.68,0.24
-7.7353516,5.8725616E-4,6.2465295E-4,-0.0024438896,0.72,0.68,0.24,18730,9954.70,0,0,0,0.42,-3.08,0.00,0.72,0.68,0.24
-7.135742,0.002587257,6.2465295E-4,0.0015561106,0.72,0.68,0.24,18738,9955.30,0,0,165,0.56,-3.08,0.28,0.72,0.68,0.24
-7.135742,5.8725616E-4,-0.0013753474,0.0015561106,0.71,0.68,0.24,18753,9955.30,0,0,0,0.42,-3.22,0.28,0.71,0.68,0.24
-8.035156,-4.1274354E-4,6.2465295E-4,-0.0024438896,0.72,0.68,0.24,18769,9954.40,0,0,165,0.35,-3.08,0.00,0.72,0.68,0.24
-7.135742,5.8725616E-4,-0.0013753474,5.561102E-4,0.71,0.68,0.24,18775,9955.30,0,0,0,0.42,-3.22,0.21,0.71,0.68,0.24
-8.035156,5.8725616E-4,-3.7534907E-4,5.561102E-4,0.72,0.68,0.24,18790,9954.40,0,0,165,0.42,-3.15,0.21,0.72,0.68,0.24
-8.035156,0.0015872568,0.0016246513,-4.4388953E-4,0.72,0.68,0.23,18805,9954.40,0,0,0,0.49,-3.01,0.14,0.72,0.68,0.23
-8.035156,0.002587257,0.0016246513,5.561102E-4,0.72,0.68,0.24,18813,9954.40,0,0,165,0.56,-3.01,0.21,0.72,0.68,0.24
-8.035156,0.0015872568,0.0016246513,5.561102E-4,0.71,0.68,0.23,18828,9954.40,0,0,0,0.49,-3.01,0.21,0.71,0.68,0.23
-7.435547,5.8725616E-4,0.0016246513,-4.4388953E-4,0.71,0.68,0.24,18843,9955.00,0,0,165,0.42,-3.01,0.14,0.71,0.68,0.24
-8.035156,-4.1274354E-4,6.2465295E-4,0.0025561103,0.72,0.68,0.24,18851,9954.40,0,0,0,0.35,-3.08,0.35,0.72,0.68,0.24
-9.035156,-4.1274354E-4,-3.7534907E-4,-0.0014438896,0.71,0.68,0.24,18866,9953.40,0,0,165,0.35,-3.15,0.07,0.71,0.68,0.24
-9.035156,-4.1274354E-4,6.2465295E-4,0.0015561106,0.72,0.68,0.24,18881,9953.40,0,0,0,0.35,-3.08,0.28,0.72,0.68,0.24
-8.035156,-4.1274354E-4,6.2465295E-4,5.561102E-4,0.72,0.68,0.24,18889,9954.40,0,0,165,0.35,-3.08,0.21,0.72,0.68,0.24
-9.035156,0.0015872568,6.2465295E-4,-0.0024438896,0.72,0.68,0.23,18903,9953.40,0,0,0,0.49,-3.08,0.00,0.72,0.68,0.23
-8.035156,0.0015872568,6.2465295E-4,0.0015561106,0.71,0.68,0.23,18917,9954.40,0,0,165,0.49,-3.08,0.28,0.71,0.68,0.23
-8.035156,5.8725616E-4,-3.7534907E-4,0.0025561103,0.71,0.68,0.24,18926,9954.40,0,0,0,0.42,-3.15,0.35,0.71,0.68,0.24
-8.035156,-4.1274354E-4,6.2465295E-4,0.0015561106,0.72,0.68,0.23,18941,9954.40,0,0,165,0.35,-3.08,0.28,0.72,0.68,0.23
-8.035156,5.8725616E-4,-3.7534907E-4,0.0015561106,0.71,0.68,0.23,18956,9954.40,0,0,0,0.42,-3.15,0.28,0.71,0.68,0.23
-8.035156,5.8725616E-4,-3.7534907E-4,0.0015561106,0.71,0.68,0.24,18963,9954.40,0,0,165,0.42,-3.15,0.28,0.71,0.68,0.24
-8.035156,5.8725616E-4,6.2465295E-4,5.561102E-4,0.72,0.68,0.24,18986,9954.40,0,0,0,0.42,-3.08,0.21,0.72,0.68,0.24
-9.035156,5.8725616E-4,0.0016246513,-4.4388953E-4,0.71,0.68,0.24,18993,9953.40,0,0,165,0.42,-3.01,0.14,0.71,0.68,0.24
-8.435547,0.002587257,0.0016246513,5.561102E-4,0.72,0.68,0.23,19001,9954.00,0,0,0,0.56,-3.01,0.21,0.72,0.68,0.23
-8.035156,0.0015872568,6.2465295E-4,0.0015561106,0.71,0.68,0.24,19016,9954.40,0,0,165,0.49,-3.08,0.28,0.71,0.68,0.24
-8.035156,5.8725616E-4,6.2465295E-4,-4.4388953E-4,0.72,0.68,0.24,19030,9954.40,0,0,0,0.42,-3.08,0.14,0.72,0.68,0.24
-7.135742,0.0015872568,0.0016246513,-4.4388953E-4,0.72,0.68,0.24,19038,9955.30,0,0,165,0.49,-3.01,0.14,0.72,0.68,0.24
-8.035156,0.0015872568,0.0016246513,0.0015561106,0.72,0.68,0.24,19053,9954.40,0,0,0,0.49,-3.01,0.28,0.72,0.68,0.24
-9.035156,-4.1274354E-4,-3.7534907E-4,-4.4388953E-4,0.71,0.68,0.24,19068,9953.40,0,0,165,0.35,-3.15,0.14,0.71,0.68,0.24
-8.035156,0.0015872568,0.0016246513,-4.4388953E-4,0.71,0.68,0.24,19075,9954.40,0,0,0,0.49,-3.01,0.14,0.71,0.68,0.24
-7.435547,-4.1274354E-4,-3.7534907E-4,5.561102E-4,0.72,0.68,0.24,19091,9955.00,0,0,165,0.35,-3.15,0.21,0.72,0.68,0.24
-8.035156,5.8725616E-4,6.2465295E-4,0.0015561106,0.71,0.68,0.24,19105,9954.40,0,0,0,0.42,-3.08,0.28,0.71,0.68,0.24
-9.035156,5.8725616E-4,6.2465295E-4,-0.0014438896,0.71,0.68,0.24,19113,9953.40,0,0,165,0.42,-3.08,0.07,0.71,0.68,0.24
-8.035156,-0.0014127432,6.2465295E-4,0.0015561106,0.71,0.68,0.24,19128,9954.40,0,0,0,0.28,-3.08,0.28,0.71,0.68,0.24
-8.035156,-4.1274354E-4,6.2465295E-4,-4.4388953E-4,0.72,0.68,0.24,19142,9954.40,0,0,165,0.35,-3.08,0.14,0.72,0.68,0.24
-8.035156,5.8725616E-4,0.0016246513,-0.0024438896,0.72,0.68,0.24,19150,9954.40,0,0,0,0.42,-3.01,0.00,0.72,0.68,0.24
-8.035156,-4.1274354E-4,0.0016246513,-0.0014438896,0.72,0.68,0.23,19166,9954.40,0,0,165,0.35,-3.01,0.07,0.72,0.68,0.23
-8.035156,0.0015872568,6.2465295E-4,-4.4388953E-4,0.72,0.68,0.24,19180,9954.40,0,0,0,0.49,-3.08,0.14,0.72,0.68,0.24
-8.035156,-4.1274354E-4,-3.7534907E-4,5.561102E-4,0.72,0.68,0.24,19188,9954.40,0,0,165,0.35,-3.15,0.21,0.72,0.68,0.24
-8.035156,5.8725616E-4,-3.7534907E-4,-4.4388953E-4,0.72,0.68,0.24,19204,9954.40,0,0,0,0.42,-3.15,0.14,0.72,0.68,0.24
-7.435547,5.8725616E-4,6.2465295E-4,-4.4388953E-4,0.71,0.68,0.23,19219,9955.00,0,0,165,0.42,-3.08,0.14,0.71,0.68,0.23
-8.035156,5.8725616E-4,6.2465295E-4,0.0025561103,0.71,0.68,0.23,19225,9954.40,0,0,0,0.42,-3.08,0.35,0.71,0.68,0.23
-8.035156,5.8725616E-4,-3.7534907E-4,0.0015561106,0.72,0.68,0.24,19241,9954.40,0,0,165,0.42,-3.15,0.28,0.72,0.68,0.24
-8.435547,-4.1274354E-4,-0.0023753457,-0.0014438896,0.71,0.68,0.23,19256,9954.00,0,0,0,0.35,-3.29,0.07,0.71,0.68,0.23
-8.035156,-4.1274354E-4,6.2465295E-4,-4.4388953E-4,0.72,0.68,0.24,19263,9954.40,0,0,165,0.35,-3.08,0.14,0.72,0.68,0.24
-6.135742,5.8725616E-4,0.0016246513,-0.0014438896,0.71,0.68,0.24,19278,9956.30,0,0,0,0.42,-3.01,0.07,0.71,0.68,0.24
-8.035156,5.8725616E-4,6.2465295E-4,5.561102E-4,0.71,0.68,0.24,19293,9954.40,0,0,165,0.42,-3.08,0.21,0.71,0.68,0.24
-9.3359375,-4.1274354E-4,6.2465295E-4,5.561102E-4,0.71,0.68,0.23,19301,9953.10,0,0,0,0.35,-3.08,0.21,0.71,0.68,0.23
-8.435547,5.8725616E-4,6.2465295E-4,0.0015561106,0.71,0.68,0.24,19315,9954.00,0,0,165,0.42,-3.08,0.28,0.71,0.68,0.24
-8.435547,0.0015872568,0.0016246513,0.0025561103,0.71,0.68,0.24,19331,9954.00,0,0,0,0.49,-3.01,0.35,0.71,0.68,0.24
-8.035156,-4.1274354E-4,-3.7534907E-4,0.0025561103,0.71,0.68,0.24,19338,9954.40,0,0,165,0.35,-3.15,0.35,0.71,0.68,0.24
-9.935547,5.8725616E-4,6.2465295E-4,5.561102E-4,0.72,0.68,0.24,19352,9952.50,0,0,0,0.42,-3.08,0.21,0.72,0.68,0.24
-8.035156,5.8725616E-4,-3.7534907E-4,5.561102E-4,0.72,0.68,0.24,19367,9954.40,0,0,165,0.42,-3.15,0.21,0.72,0.68,0.24
-8.435547,-4.1274354E-4,-3.7534907E-4,-4.4388953E-4,0.71,0.68,0.24,19375,9954.00,0,0,0,0.35,-3.15,0.14,0.71,0.68,0.24
-8.435547,-4.1274354E-4,6.2465295E-4,-0.0014438896,0.72,0.68,0.24,19391,9954.00,0,0,165,0.35,-3.08,0.07,0.72,0.68,0.24
-9.035156,0.0015872568,6.2465295E-4,-4.4388953E-4,0.71,0.68,0.24,19407,9953.40,0,0,0,0.49,-3.08,0.14,0.71,0.68,0.24
-9.3359375,5.8725616E-4,-3.7534907E-4,0.0015561106,0.71,0.68,0.23,19413,9953.10,0,0,165,0.42,-3.15,0.28,0.71,0.68,0.23
-8.635742,5.8725616E-4,-3.7534907E-4,-0.0024438896,0.71,0.68,0.24,19428,9953.80,0,0,0,0.42,-3.15,0.00,0.71,0.68,0.24
-8.035156,5.8725616E-4,6.2465295E-4,5.561102E-4,0.71,0.68,0.24,19443,9954.40,0,0,165,0.42,-3.08,0.21,0.71,0.68,0.24
-9.3359375,5.8725616E-4,6.2465295E-4,-0.0014438896,0.71,0.68,0.24,19451,9953.10,0,0,0,0.42,-3.08,0.07,0.71,0.68,0.24
-9.035156,-4.1274354E-4,-3.7534907E-4,5.561102E-4,0.71,0.68,0.24,19466,9953.40,0,0,165,0.35,-3.15,0.21,0.71,0.68,0.24
-9.3359375,0.0015872568,6.2465295E-4,-4.4388953E-4,0.71,0.68,0.24,19481,9953.10,0,0,0,0.49,-3.08,0.14,0.71,0.68,0.24
-9.035156,5.8725616E-4,6.2465295E-4,5.561102E-4,0.72,0.68,0.24,19488,9953.40,0,0,165,0.42,-3.08,0.21,0.72,0.68,0.24
-8.435547,-0.0014127432,6.2465295E-4,5.561102E-4,0.71,0.68,0.24,19503,9954.00,0,0,0,0.28,-3.08,0.21,0.71,0.68,0.24
-9.3359375,-0.0024127436,-3.7534907E-4,5.561102E-4,0.71,0.68,0.23,19518,9953.10,0,0,165,0.21,-3.15,0.21,0.71,0.68,0.23
-9.035156,5.8725616E-4,0.0016246513,5.561102E-4,0.71,0.68,0.24,19525,9953.40,0,0,0,0.42,-3.01,0.21,0.71,0.68,0.24
-9.3359375,-4.1274354E-4,6.2465295E-4,-4.4388953E-4,0.71,0.68,0.24,19541,9953.10,0,0,165,0.35,-3.08,0.14,0.71,0.68,0.24
-9.3359375,0.0015872568,-3.7534907E-4,-0.0014438896,0.71,0.68,0.24,19556,9953.10,0,0,0,0.49,-3.15,0.07,0.71,0.68,0.24
-8.435547,-4.1274354E-4,6.2465295E-4,-4.4388953E-4,0.71,0.68,0.24,19563,9954.00,0,0,165,0.35,-3.08,0.14,0.71,0.68,0.24
-8.435547,-4.1274354E-4,-0.0013753474,-0.0014438896,0.71,0.68,0.23,19577,9954.00,0,0,0,0.35,-3.22,0.07,0.71,0.68,0.23
-8.035156,-4.1274354E-4,-3.7534907E-4,-0.0014438896,0.72,0.68,0.24,19593,9954.40,0,0,165,0.35,-3.15,0.07,0.72,0.68,0.24
-8.435547,-4.1274354E-4,-3.7534907E-4,-4.4388953E-4,0.71,0.68,0.23,19601,9954.00,0,0,0,0.35,-3.15,0.14,0.71,0.68,0.23
-8.035156,0.0015872568,6.2465295E-4,5.561102E-4,0.72,0.68,0.24,19615,9954.40,0,0,165,0.49,-3.08,0.21,0.72,0.68,0.24
-9.3359375,0.0015872568,6.2465295E-4,0.0015561106,0.71,0.68,0.24,19630,9953.10,0,0,0,0.49,-3.08,0.28,0.71,0.68,0.24
-8.435547,-4.1274354E-4,-0.0013753474,-0.0024438896,0.71,0.68,0.24,19638,9954.00,0,0,165,0.35,-3.22,0.00,0.71,0.68,0.24
-9.035156,-4.1274354E-4,-3.7534907E-4,-4.4388953E-4,0.72,0.68,0.24,19653,9953.40,0,0,0,0.35,-3.15,0.14,0.72,0.68,0.24
-8.435547,-4.1274354E-4,6.2465295E-4,5.561102E-4,0.72,0.68,0.24,19668,9954.00,0,0,165,0.35,-3.08,0.21,0.72,0.68,0.24
-9.035156,0.0015872568,6.2465295E-4,-0.0014438896,0.72,0.68,0.24,19675,9953.40,0,0,0,0.49,-3.08,0.07,0.72,0.68,0.24
-9.3359375,5.8725616E-4,6.2465295E-4,-4.4388953E-4,0.71,0.68,0.23,19690,9953.10,0,0,165,0.42,-3.08,0.14,0.71,0.68,0.23
-9.3359375,0.0015872568,-3.7534907E-4,0.0025561103,0.72,0.68,0.24,19705,9953.10,0,0,0,0.49,-3.15,0.35,0.72,0.68,0.24
-9.3359375,-0.0014127432,-3.7534907E-4,5.561102E-4,0.72,0.68,0.23,19713,9953.10,0,0,165,0.28,-3.15,0.21,0.72,0.68,0.23
-8.035156,5.8725616E-4,-3.7534907E-4,0.0025561103,0.71,0.68,0.24,19728,9954.40,0,0,0,0.42,-3.15,0.35,0.71,0.68,0.24
-9.035156,5.8725616E-4,-0.0013753474,5.561102E-4,0.72,0.68,0.24,19743,9953.40,0,0,165,0.42,-3.22,0.21,0.72,0.68,0.24
-8.435547,5.8725616E-4,-3.7534907E-4,-0.0024438896,0.71,0.68,0.24,19751,9954.00,0,0,0,0.42,-3.15,0.00,0.71,0.68,0.24
-8.435547,5.8725616E-4,-3.7534907E-4,0.0015561106,0.71,0.68,0.24,19766,9954.00,0,0,165,0.42,-3.15,0.28,0.71,0.68,0.24
-9.035156,0.0015872568,0.0016246513,0.0015561106,0.71,0.68,0.24,19781,9953.40,0,0,0,0.49,-3.01,0.28,0.71,0.68,0.24
-9.035156,-4.1274354E-4,6.2465295E-4,5.561102E-4,0.71,0.68,0.24,19788,9953.40,0,0,165,0.35,-3.08,0.21,0.71,0.68,0.24
-8.435547,-0.0014127432,-3.7534907E-4,5.561102E-4,0.71,0.68,0.24,19803,9954.00,0,0,0,0.28,-3.15,0.21,0.71,0.68,0.24
-8.035156,5.8725616E-4,6.2465295E-4,5.561102E-4,0.71,0.68,0.24,19818,9954.40,0,0,165,0.42,-3.08,0.21,0.71,0.68,0.24
-9.3359375,-4.1274354E-4,6.2465295E-4,-0.0024438896,0.71,0.68,0.24,19825,9953.10,0,0,0,0.35,-3.08,0.00,0.71,0.68,0.24
-9.3359375,0.0015872568,6.2465295E-4,-4.4388953E-4,0.71,0.68,0.24,19841,9953.10,0,0,165,0.49,-3.08,0.14,0.71,0.68,0.24
-9.3359375,5.8725616E-4,-3.7534907E-4,-4.4388953E-4,0.71,0.68,0.24,19856,9953.10,0,0,0,0.42,-3.15,0.14,0.71,0.68,0.24
-8.435547,5.8725616E-4,-3.7534907E-4,-0.0014438896,0.71,0.68,0.24,19863,9954.00,0,0,165,0.42,-3.15,0.07,0.71,0.68,0.24
-10.3359375,5.8725616E-4,-3.7534907E-4,-4.4388953E-4,0.71,0.68,0.24,19878,9952.10,0,0,0,0.42,-3.15,0.14,0.71,0.68,0.24
-8.435547,-4.1274354E-4,6.2465295E-4,-4.4388953E-4,0.71,0.68,0.24,19893,9954.00,0,0,165,0.35,-3.08,0.14,0.71,0.68,0.24
-9.035156,5.8725616E-4,0.0016246513,0.0015561106,0.72,0.68,0.24,19908,9953.40,0,0,0,0.42,-3.01,0.28,0.72,0.68,0.24
-8.035156,-4.1274354E-4,6.2465295E-4,5.561102E-4,0.72,0.68,0.24,19916,9954.40,0,0,165,0.35,-3.08,0.21,0.72,0.68,0.24
-8.435547,-4.1274354E-4,6.2465295E-4,5.561102E-4,0.72,0.68,0.24,19931,9954.00,0,0,0,0.35,-3.08,0.21,0.72,0.68,0.24
-9.035156,0.0015872568,-3.7534907E-4,-4.4388953E-4,0.71,0.68,0.24,19938,9953.40,0,0,165,0.49,-3.15,0.14,0.71,0.68,0.24
-9.3359375,-4.1274354E-4,6.2465295E-4,-4.4388953E-4,0.72,0.68,0.23,19953,9953.10,0,0,0,0.35,-3.08,0.14,0.72,0.68,0.23
-9.035156,-4.1274354E-4,-3.7534907E-4,0.0015561106,0.71,0.68,0.23,19968,9953.40,0,0,165,0.35,-3.15,0.28,0.71,0.68,0.23
-9.035156,-4.1274354E-4,6.2465295E-4,5.561102E-4,0.71,0.68,0.24,19976,9953.40,0,0,0,0.35,-3.08,0.21,0.71,0.68,0.24
-9.3359375,0.0015872568,-3.7534907E-4,0.0015561106,0.73,0.69,0.24,19991,9953.10,0,0,165,0.49,-3.15,0.28,0.73,0.69,0.24
-8.035156,0.0015872568,6.2465295E-4,-4.4388953E-4,0.71,0.68,0.24,20006,9954.40,0,0,0,0.49,-3.08,0.14,0.71,0.68,0.24
-9.035156,0.002587257,6.2465295E-4,0.25255612,0.72,0.68,0.24,20013,9953.40,0,0,165,0.56,-3.08,17.85,0.72,0.68,0.24
-9.035156,0.002587257,6.2465295E-4,-0.008443889,0.71,0.68,0.24,20028,9953.40,0,0,0,0.56,-3.08,-0.42,0.71,0.68,0.24
-10.3359375,-0.0014127432,0.0046246536,5.561102E-4,0.71,0.68,0.24,20043,9952.10,0,0,165,0.28,-2.80,0.21,0.71,0.68,0.24
-9.3359375,0.002587257,0.0046246536,0.00755611,0.72,0.68,0.24,20052,9953.10,0,0,0,0.56,-2.80,0.70,0.72,0.68,0.24
-8.035156,-0.0014127432,0.0016246513,0.00755611,0.71,0.67,0.24,20066,9954.40,0,0,165,0.28,-3.01,0.70,0.71,0.67,0.24
-8.435547,-4.1274354E-4,-0.003375344,-4.4388953E-4,0.71,0.68,0.24,20081,9954.00,0,0,0,0.35,-3.36,0.14,0.71,0.68,0.24
-8.435547,0.002587257,0.0016246513,-4.4388953E-4,0.71,0.68,0.24,20088,9954.00,0,0,165,0.56,-3.01,0.14,0.71,0.68,0.24
-10.3359375,-0.0024127436,-0.0043753497,-0.0034438898,0.71,0.68,0.23,20103,9952.10,0,0,0,0.21,-3.43,-0.07,0.71,0.68,0.23
-9.3359375,5.8725616E-4,-3.7534907E-4,0.0045561106,0.71,0.68,0.24,20118,9953.10,0,0,165,0.42,-3.15,0.49,0.71,0.68,0.24
-8.035156,-4.1274354E-4,0.0026246533,0.010556111,0.71,0.68,0.24,20126,9954.40,0,0,0,0.35,-2.94,0.91,0.71,0.68,0.24
-9.3359375,-0.0014127432,0.0016246513,0.008556111,0.71,0.68,0.24,20141,9953.10,0,0,165,0.28,-3.01,0.77,0.71,0.68,0.24
-9.035156,0.0015872568,0.0046246536,0.0025561103,0.72,0.68,0.24,20156,9953.40,0,0,0,0.49,-2.80,0.35,0.72,0.68,0.24
-9.3359375,0.002587257,0.0036246553,-0.00644389,0.72,0.68,0.24,20162,9953.10,0,0,165,0.56,-2.87,-0.28,0.72,0.68,0.24
-9.3359375,0.002587257,0.0036246553,-0.00644389,0.72,0.68,0.24,20178,9953.10,0,0,0,0.56,-2.87,-0.28,0.72,0.68,0.24
-9.035156,0.0035872562,0.0016246513,-0.00944389,0.71,0.68,0.23,20193,9953.40,0,0,165,0.63,-3.01,-0.49,0.71,0.68,0.23
-9.035156,-4.1274354E-4,6.2465295E-4,-0.0054438896,0.72,0.68,0.23,20201,9953.40,0,0,0,0.35,-3.08,-0.21,0.72,0.68,0.23
-8.435547,-0.0014127432,-3.7534907E-4,0.00355611,0.71,0.68,0.24,20215,9954.00,0,0,165,0.28,-3.15,0.42,0.71,0.68,0.24
-9.3359375,-0.0024127436,-0.0013753474,0.0025561103,0.71,0.68,0.24,20230,9953.10,0,0,0,0.21,-3.22,0.35,0.71,0.68,0.24
-9.035156,5.8725616E-4,6.2465295E-4,-4.4388953E-4,0.71,0.68,0.24,20238,9953.40,0,0,165,0.42,-3.08,0.14,0.71,0.68,0.24
-9.3359375,5.8725616E-4,-3.7534907E-4,-4.4388953E-4,0.72,0.68,0.24,20253,9953.10,0,0,0,0.42,-3.15,0.14,0.72,0.68,0.24
-9.035156,0.0015872568,6.2465295E-4,5.561102E-4,0.71,0.68,0.24,20268,9953.40,0,0,165,0.49,-3.08,0.21,0.71,0.68,0.24
-8.035156,-4.1274354E-4,-0.0013753474,-0.0024438896,0.72,0.68,0.24,20275,9954.40,0,0,0,0.35,-3.22,0.00,0.72,0.68,0.24
-9.935547,5.8725616E-4,-3.7534907E-4,5.561102E-4,0.72,0.68,0.23,20290,9952.50,0,0,165,0.42,-3.15,0.21,0.72,0.68,0.23
-9.035156,-0.0014127432,-3.7534907E-4,5.561102E-4,0.71,0.68,0.24,20305,9953.40,0,0,0,0.28,-3.15,0.21,0.71,0.68,0.24
-9.035156,-4.1274354E-4,6.2465295E-4,0.00355611,0.72,0.68,0.24,20313,9953.40,0,0,165,0.35,-3.08,0.42,0.72,0.68,0.24
-9.3359375,-4.1274354E-4,-0.0013753474,0.00655611,0.71,0.68,0.24,20328,9953.10,0,0,0,0.35,-3.22,0.63,0.71,0.68,0.24
-9.035156,-4.1274354E-4,-0.0023753457,0.008556111,0.72,0.68,0.23,20343,9953.40,0,0,165,0.35,-3.29,0.77,0.72,0.68,0.23
-9.035156,-0.0014127432,-3.7534907E-4,0.00655611,0.72,0.68,0.23,20351,9953.40,0,0,0,0.28,-3.15,0.63,0.72,0.68,0.23
-9.3359375,-4.1274354E-4,0.0036246553,0.0025561103,0.72,0.68,0.24,20366,9953.10,0,0,165,0.35,-2.87,0.35,0.72,0.68,0.24
-9.3359375,0.0035872562,0.0026246533,-0.00644389,0.71,0.68,0.24,20380,9953.10,0,0,0,0.63,-2.94,-0.28,0.71,0.68,0.24
-9.3359375,-4.1274354E-4,0.0026246533,-0.00944389,0.71,0.68,0.24,20388,9953.10,0,0,165,0.35,-2.94,-0.49,0.71,0.68,0.24
-8.035156,0.0015872568,-3.7534907E-4,-0.0074438895,0.71,0.68,0.24,20403,9954.40,0,0,0,0.49,-3.15,-0.35,0.71,0.68,0.24
-9.035156,-0.0014127432,6.2465295E-4,5.561102E-4,0.71,0.68,0.24,20418,9953.40,0,0,165,0.28,-3.08,0.21,0.71,0.68,0.24
-8.035156,-0.0014127432,-0.0023753457,0.00755611,0.71,0.68,0.24,20425,9954.40,0,0,0,0.28,-3.29,0.70,0.71,0.68,0.24
-9.035156,5.8725616E-4,-3.7534907E-4,0.009556109,0.72,0.68,0.23,20440,9953.40,0,0,165,0.42,-3.15,0.84,0.72,0.68,0.23
-9.3359375,-4.1274354E-4,6.2465295E-4,0.0015561106,0.72,0.68,0.23,20455,9953.10,0,0,0,0.35,-3.08,0.28,0.72,0.68,0.23
-8.035156,5.8725616E-4,-0.0013753474,-0.0074438895,0.71,0.68,0.24,20462,9954.40,0,0,165,0.42,-3.22,-0.35,0.71,0.68,0.24
-9.035156,0.0045872563,0.0016246513,-0.01844389,0.72,0.68,0.24,20478,9953.40,0,0,0,0.70,-3.01,-1.12,0.72,0.68,0.24
-8.635742,0.0035872562,0.0016246513,-0.01844389,0.71,0.68,0.24,20493,9953.80,0,0,165,0.63,-3.01,-1.12,0.71,0.68,0.24
-8.035156,0.0015872568,0.0026246533,-0.011443889,0.71,0.69,0.24,20508,9954.40,0,0,0,0.49,-2.94,-0.63,0.71,0.69,0.24
-9.3359375,-0.0014127432,6.2465295E-4,0.0025561103,0.71,0.69,0.24,20523,9953.10,0,0,165,0.28,-3.08,0.35,0.71,0.69,0.24
-9.035156,-0.0044127433,-3.7534907E-4,0.02155611,0.71,0.68,0.24,20530,9953.40,0,0,0,0.07,-3.15,1.68,0.71,0.68,0.24
-9.3359375,-0.0054127434,-0.0013753474,0.03155611,0.72,0.68,0.24,20538,9953.10,0,0,165,0.00,-3.22,2.38,0.72,0.68,0.24
-8.435547,-0.0054127434,-0.0023753457,0.02655611,0.72,0.68,0.23,20553,9954.00,0,0,0,0.00,-3.29,2.03,0.72,0.68,0.23
-9.035156,-0.0024127436,-0.0013753474,0.011556111,0.72,0.67,0.24,20560,9953.40,0,0,165,0.21,-3.22,0.98,0.72,0.67,0.24
-8.435547,-4.1274354E-4,6.2465295E-4,-0.011443889,0.72,0.68,0.24,20575,9954.00,0,0,0,0.35,-3.08,-0.63,0.72,0.68,0.24
-8.035156,0.002587257,0.0016246513,-0.020443888,0.71,0.68,0.24,20590,9954.40,0,0,165,0.56,-3.01,-1.26,0.71,0.68,0.24
-9.3359375,0.0035872562,0.0026246533,-0.01944389,0.71,0.68,0.23,20598,9953.10,0,0,0,0.63,-2.94,-1.19,0.71,0.68,0.23
-9.3359375,0.0015872568,0.0016246513,-0.0054438896,0.71,0.69,0.24,20613,9953.10,0,0,165,0.49,-3.01,-0.21,0.71,0.69,0.24
-9.935547,-4.1274354E-4,6.2465295E-4,0.0055561108,0.71,0.69,0.24,20628,9952.50,0,0,0,0.35,-3.08,0.56,0.71,0.69,0.24
-9.035156,-0.0024127436,-3.7534907E-4,0.009556109,0.71,0.68,0.24,20636,9953.40,0,0,165,0.21,-3.15,0.84,0.71,0.68,0.24
-8.435547,-4.1274354E-4,-3.7534907E-4,0.0045561106,0.71,0.68,0.24,20651,9954.00,0,0,0,0.35,-3.15,0.49,0.71,0.68,0.24
-8.035156,0.002587257,-3.7534907E-4,-0.0054438896,0.72,0.68,0.24,20665,9954.40,0,0,165,0.56,-3.15,-0.21,0.72,0.68,0.24
-8.435547,0.002587257,6.2465295E-4,-0.011443889,0.71,0.68,0.23,20673,9954.00,0,0,0,0.56,-3.08,-0.63,0.71,0.68,0.23
-9.035156,0.0045872563,-3.7534907E-4,-0.012443889,0.72,0.68,0.23,20688,9953.40,0,0,165,0.70,-3.15,-0.70,0.72,0.68,0.23
-9.3359375,5.8725616E-4,6.2465295E-4,-0.00644389,0.72,0.68,0.23,20703,9953.10,0,0,0,0.42,-3.08,-0.28,0.72,0.68,0.23
-9.3359375,-4.1274354E-4,6.2465295E-4,0.0045561106,0.72,0.68,0.23,20710,9953.10,0,0,165,0.35,-3.08,0.49,0.72,0.68,0.23
-9.3359375,-0.0054127434,-3.7534907E-4,0.014556112,0.72,0.68,0.24,20725,9953.10,0,0,0,0.00,-3.15,1.19,0.72,0.68,0.24
-9.035156,-0.0054127434,6.2465295E-4,0.016556112,0.71,0.68,0.24,20741,9953.40,0,0,165,0.00,-3.08,1.33,0.71,0.68,0.24
-9.3359375,-0.0034127433,-3.7534907E-4,0.009556109,0.71,0.68,0.24,20748,9953.10,0,0,0,0.14,-3.15,0.84,0.71,0.68,0.24
-9.3359375,-4.1274354E-4,-0.0013753474,0.0045561106,0.71,0.68,0.24,20763,9953.10,0,0,165,0.35,-3.22,0.49,0.71,0.68,0.24
-9.3359375,0.0015872568,6.2465295E-4,-0.0034438898,0.71,0.68,0.24,20778,9953.10,0,0,0,0.49,-3.08,-0.07,0.71,0.68,0.24
-9.035156,5.8725616E-4,-3.7534907E-4,5.561102E-4,0.72,0.69,0.23,20786,9953.40,0,0,165,0.42,-3.15,0.21,0.72,0.69,0.23
-9.935547,-4.1274354E-4,-3.7534907E-4,5.561102E-4,0.71,0.68,0.23,20801,9952.50,0,0,0,0.35,-3.15,0.21,0.71,0.68,0.23
-9.935547,-4.1274354E-4,6.2465295E-4,0.0025561103,0.72,0.68,0.23,20816,9952.50,0,0,165,0.35,-3.08,0.35,0.72,0.68,0.23
-9.935547,5.8725616E-4,6.2465295E-4,-0.0044438895,0.72,0.68,0.24,20823,9952.50,0,0,0,0.42,-3.08,-0.14,0.72,0.68,0.24
-9.3359375,0.0035872562,0.0016246513,-0.0104438905,0.72,0.68,0.24,20839,9953.10,0,0,165,0.63,-3.01,-0.56,0.72,0.68,0.24
-9.3359375,0.0035872562,0.0016246513,-0.01744389,0.72,0.68,0.24,20853,9953.10,0,0,0,0.63,-3.01,-1.05,0.72,0.68,0.24
-10.3359375,0.0035872562,0.0036246553,-0.015443889,0.71,0.68,0.24,20861,9952.10,0,0,165,0.63,-2.87,-0.91,0.71,0.68,0.24
-9.3359375,5.8725616E-4,6.2465295E-4,-0.00644389,0.72,0.69,0.23,20876,9953.10,0,0,0,0.42,-3.08,-0.28,0.72,0.69,0.23
-8.435547,-4.1274354E-4,0.0026246533,0.0055561108,0.71,0.69,0.24,20891,9954.00,0,0,165,0.35,-2.94,0.56,0.71,0.69,0.24
-9.035156,-0.0034127433,-0.0023753457,0.016556112,0.71,0.69,0.24,20899,9953.40,0,0,0,0.14,-3.29,1.33,0.71,0.69,0.24
-9.3359375,-0.0024127436,-0.0013753474,0.02155611,0.71,0.68,0.24,20913,9953.10,0,0,165,0.21,-3.22,1.68,0.71,0.68,0.24
-9.3359375,-0.0034127433,-3.7534907E-4,0.02155611,0.71,0.68,0.24,20928,9953.10,0,0,0,0.14,-3.15,1.68,0.71,0.68,0.24
-9.3359375,-0.0034127433,-3.7534907E-4,0.009556109,0.72,0.68,0.23,20936,9953.10,0,0,165,0.14,-3.15,0.84,0.72,0.68,0.23
-9.035156,-4.1274354E-4,6.2465295E-4,-0.0024438896,0.72,0.68,0.23,20950,9953.40,0,0,0,0.35,-3.08,0.00,0.72,0.68,0.23
-9.3359375,0.0035872562,0.0016246513,-0.01644389,0.71,0.68,0.23,20965,9953.10,0,0,165,0.63,-3.01,-0.98,0.71,0.68,0.23
-9.3359375,0.0035872562,0.0026246533,-0.01844389,0.71,0.68,0.24,20972,9953.10,0,0,0,0.63,-2.94,-1.12,0.71,0.68,0.24
-9.035156,0.0045872563,6.2465295E-4,-0.01744389,0.71,0.68,0.24,20988,9953.40,0,0,165,0.70,-3.08,-1.05,0.71,0.68,0.24
-9.035156,5.8725616E-4,6.2465295E-4,-0.0014438896,0.71,0.68,0.24,21003,9953.40,0,0,0,0.42,-3.08,0.07,0.71,0.68,0.24
-8.635742,-0.0014127432,6.2465295E-4,0.00755611,0.72,0.68,0.24,21011,9953.80,0,0,165,0.28,-3.08,0.70,0.72,0.68,0.24
-9.3359375,-0.0014127432,-3.7534907E-4,0.009556109,0.71,0.68,0.23,21033,9953.10,0,0,0,0.28,-3.15,0.84,0.71,0.68,0.23
-9.3359375,0.0015872568,6.2465295E-4,0.0055561108,0.71,0.68,0.24,21041,9953.10,0,0,165,0.49,-3.08,0.56,0.71,0.68,0.24
-8.435547,0.0015872568,6.2465295E-4,-0.0014438896,0.71,0.68,0.24,21048,9954.00,0,0,0,0.49,-3.08,0.07,0.71,0.68,0.24
-10.3359375,0.0015872568,6.2465295E-4,-0.0054438896,0.71,0.68,0.24,21063,9952.10,0,0,165,0.49,-3.08,-0.21,0.71,0.68,0.24
-8.435547,0.002587257,-3.7534907E-4,-0.0034438898,0.71,0.68,0.24,21078,9954.00,0,0,0,0.56,-3.15,-0.07,0.71,0.68,0.24
-9.935547,-0.0014127432,6.2465295E-4,0.0045561106,0.71,0.68,0.24,21086,9952.50,0,0,165,0.28,-3.08,0.49,0.71,0.68,0.24
-9.3359375,-0.0014127432,-3.7534907E-4,0.011556111,0.71,0.68,0.24,21101,9953.10,0,0,0,0.28,-3.15,0.98,0.71,0.68,0.24
-9.935547,-0.0024127436,-3.7534907E-4,0.010556111,0.72,0.68,0.24,21116,9952.50,0,0,165,0.21,-3.15,0.91,0.72,0.68,0.24
-9.3359375,-4.1274354E-4,6.2465295E-4,0.00755611,0.71,0.68,0.24,21122,9953.10,0,0,0,0.35,-3.08,0.70,0.71,0.68,0.24
-8.035156,5.8725616E-4,-3.7534907E-4,-0.0034438898,0.72,0.68,0.23,21137,9954.40,0,0,165,0.42,-3.15,-0.07,0.72,0.68,0.23
-9.3359375,0.002587257,6.2465295E-4,-0.011443889,0.72,0.68,0.24,21153,9953.10,0,0,0,0.56,-3.08,-0.63,0.72,0.68,0.24
-9.3359375,0.0035872562,0.0026246533,-0.015443889,0.71,0.68,0.24,21160,9953.10,0,0,165,0.63,-2.94,-0.91,0.71,0.68,0.24
-9.3359375,0.002587257,0.0016246513,-0.00944389,0.72,0.68,0.24,21175,9953.10,0,0,0,0.56,-3.01,-0.49,0.72,0.68,0.24
-9.3359375,0.0015872568,6.2465295E-4,-0.0034438898,0.71,0.68,0.24,21191,9953.10,0,0,165,0.49,-3.08,-0.07,0.71,0.68,0.24
-9.3359375,-0.0024127436,-3.7534907E-4,0.00655611,0.71,0.68,0.24,21198,9953.10,0,0,0,0.21,-3.15,0.63,0.71,0.68,0.24
-9.035156,-4.1274354E-4,6.2465295E-4,0.01255611,0.71,0.68,0.24,21213,9953.40,0,0,165,0.35,-3.08,1.05,0.71,0.68,0.24
-10.935547,-0.0024127436,-0.0013753474,0.010556111,0.71,0.68,0.24,21228,9951.50,0,0,0,0.21,-3.22,0.91,0.71,0.68,0.24
-9.3359375,-4.1274354E-4,6.2465295E-4,0.0045561106,0.72,0.68,0.24,21235,9953.10,0,0,165,0.35,-3.08,0.49,0.72,0.68,0.24
-9.035156,5.8725616E-4,0.0016246513,-0.0034438898,0.72,0.68,0.24,21250,9953.40,0,0,0,0.42,-3.01,-0.07,0.72,0.68,0.24
-9.3359375,0.002587257,-3.7534907E-4,-0.00944389,0.72,0.68,0.23,21265,9953.10,0,0,165,0.56,-3.15,-0.49,0.72,0.68,0.23
-8.035156,0.0015872568,0.0016246513,-0.0074438895,0.72,0.68,0.23,21272,9954.40,0,0,0,0.49,-3.01,-0.35,0.72,0.68,0.23
-9.635742,0.0015872568,6.2465295E-4,-0.0054438896,0.72,0.68,0.23,21288,9952.80,0,0,165,0.49,-3.08,-0.21,0.72,0.68,0.23
-9.3359375,5.8725616E-4,-3.7534907E-4,5.561102E-4,0.71,0.68,0.24,21304,9953.10,0,0,0,0.42,-3.15,0.21,0.71,0.68,0.24
-10.3359375,-4.1274354E-4,0.0016246513,0.0025561103,0.71,0.68,0.24,21311,9952.10,0,0,165,0.35,-3.01,0.35,0.71,0.68,0.24
-9.3359375,-0.0014127432,6.2465295E-4,-4.4388953E-4,0.71,0.68,0.24,21325,9953.10,0,0,0,0.28,-3.08,0.14,0.71,0.68,0.24
-9.035156,5.8725616E-4,6.2465295E-4,-4.4388953E-4,0.72,0.68,0.24,21340,9953.40,0,0,165,0.42,-3.08,0.14,0.72,0.68,0.24
-9.3359375,5.8725616E-4,-3.7534907E-4,-4.4388953E-4,0.71,0.68,0.24,21348,9953.10,0,0,0,0.42,-3.15,0.14,0.71,0.68,0.24
-9.3359375,-4.1274354E-4,-3.7534907E-4,0.00355611,0.72,0.68,0.23,21363,9953.10,0,0,165,0.35,-3.15,0.42,0.72,0.68,0.23
-10.3359375,-4.1274354E-4,-0.0023753457,0.0045561106,0.72,0.68,0.24,21378,9952.10,0,0,0,0.35,-3.29,0.49,0.72,0.68,0.24
-10.3359375,-0.0024127436,-0.0013753474,0.0055561108,0.71,0.68,0.23,21386,9952.10,0,0,165,0.21,-3.22,0.56,0.71,0.68,0.23
-9.3359375,-0.0014127432,6.2465295E-4,0.00655611,0.72,0.68,0.24,21400,9953.10,0,0,0,0.28,-3.08,0.63,0.72,0.68,0.24
-9.3359375,-4.1274354E-4,0.0016246513,5.561102E-4,0.72,0.68,0.24,21416,9953.10,0,0,165,0.35,-3.01,0.21,0.72,0.68,0.24
-8.435547,5.8725616E-4,0.0016246513,-0.00644389,0.72,0.68,0.24,21423,9954.00,0,0,0,0.42,-3.01,-0.28,0.72,0.68,0.24
-9.035156,0.0015872568,0.0016246513,-0.00944389,0.71,0.68,0.24,21438,9953.40,0,0,165,0.49,-3.01,-0.49,0.71,0.68,0.24
-9.3359375,0.0015872568,-3.7534907E-4,-0.00944389,0.71,0.68,0.24,21453,9953.10,0,0,0,0.49,-3.15,-0.49,0.71,0.68,0.24
-9.935547,0.0015872568,6.2465295E-4,-0.0044438895,0.71,0.68,0.23,21460,9952.50,0,0,165,0.49,-3.08,-0.14,0.71,0.68,0.23
-11.235352,-0.0014127432,-3.7534907E-4,0.0015561106,0.71,0.68,0.24,21475,9951.20,0,0,0,0.28,-3.15,0.28,0.71,0.68,0.24
-9.935547,-4.1274354E-4,6.2465295E-4,0.0055561108,0.71,0.68,0.24,21490,9952.50,0,0,165,0.35,-3.08,0.56,0.71,0.68,0.24
-9.035156,-0.0014127432,-3.7534907E-4,0.00755611,0.72,0.68,0.24,21498,9953.40,0,0,0,0.28,-3.15,0.70,0.72,0.68,0.24
-10.3359375,-0.0024127436,-3.7534907E-4,0.00655611,0.72,0.68,0.24,21513,9952.10,0,0,165,0.21,-3.15,0.63,0.72,0.68,0.24
-9.3359375,5.8725616E-4,-3.7534907E-4,0.0025561103,0.72,0.68,0.24,21528,9953.10,0,0,0,0.42,-3.15,0.35,0.72,0.68,0.24
-9.3359375,0.0015872568,6.2465295E-4,-4.4388953E-4,0.71,0.68,0.24,21536,9953.10,0,0,165,0.49,-3.08,0.14,0.71,0.68,0.24
-9.3359375,-4.1274354E-4,6.2465295E-4,-0.0054438896,0.71,0.68,0.24,21550,9953.10,0,0,0,0.35,-3.08,-0.21,0.71,0.68,0.24
-9.3359375,0.0015872568,0.0016246513,-0.0044438895,0.71,0.68,0.24,21566,9953.10,0,0,165,0.49,-3.01,-0.14,0.71,0.68,0.24
-9.3359375,0.0015872568,-3.7534907E-4,-0.0014438896,0.71,0.68,0.24,21572,9953.10,0,0,0,0.49,-3.15,0.07,0.71,0.68,0.24
-10.3359375,5.8725616E-4,-3.7534907E-4,0.0025561103,0.71,0.68,0.24,21588,9952.10,0,0,165,0.42,-3.15,0.35,0.71,0.68,0.24
-8.435547,-0.0034127433,6.2465295E-4,0.0055561108,0.71,0.68,0.23,21603,9954.00,0,0,0,0.14,-3.08,0.56,0.71,0.68,0.23
-10.3359375,-4.1274354E-4,-3.7534907E-4,0.00655611,0.72,0.68,0.24,21611,9952.10,0,0,165,0.35,-3.15,0.63,0.72,0.68,0.24
-9.3359375,-4.1274354E-4,-3.7534907E-4,5.561102E-4,0.71,0.68,0.24,21626,9953.10,0,0,0,0.35,-3.15,0.21,0.71,0.68,0.24
-9.3359375,0.0015872568,6.2465295E-4,-0.0074438895,0.71,0.68,0.24,21641,9953.10,0,0,165,0.49,-3.08,-0.35,0.71,0.68,0.24
-9.035156,0.0015872568,0.0016246513,-0.0074438895,0.71,0.68,0.24,21650,9953.40,0,0,0,0.49,-3.01,-0.35,0.71,0.68,0.24
-9.3359375,0.0015872568,6.2465295E-4,-0.00944389,0.72,0.68,0.24,21663,9953.10,0,0,165,0.49,-3.08,-0.49,0.72,0.68,0.24
-9.3359375,5.8725616E-4,6.2465295E-4,-0.0024438896,0.71,0.68,0.23,21677,9953.10,0,0,0,0.42,-3.08,0.00,0.71,0.68,0.23
-10.3359375,-0.0014127432,-3.7534907E-4,0.00655611,0.71,0.68,0.24,21686,9952.10,0,0,165,0.28,-3.15,0.63,0.71,0.68,0.24
-8.035156,-0.0024127436,-3.7534907E-4,0.008556111,0.72,0.68,0.24,21701,9954.40,0,0,0,0.21,-3.15,0.77,0.72,0.68,0.24
-9.035156,-4.1274354E-4,-3.7534907E-4,0.00655611,0.71,0.68,0.24,21709,9953.40,0,0,165,0.35,-3.15,0.63,0.71,0.68,0.24
-9.3359375,-4.1274354E-4,-3.7534907E-4,0.0025561103,0.71,0.68,0.24,21723,9953.10,0,0,0,0.35,-3.15,0.35,0.71,0.68,0.24
-10.3359375,0.0015872568,-3.7534907E-4,-0.0014438896,0.71,0.68,0.24,21738,9952.10,0,0,165,0.49,-3.15,0.07,0.71,0.68,0.24
-10.3359375,0.0015872568,6.2465295E-4,-0.0044438895,0.71,0.68,0.23,21746,9952.10,0,0,0,0.49,-3.08,-0.14,0.71,0.68,0.23
-8.435547,0.0015872568,6.2465295E-4,-0.0044438895,0.71,0.68,0.23,21761,9954.00,0,0,165,0.49,-3.08,-0.14,0.71,0.68,0.23
-9.035156,5.8725616E-4,6.2465295E-4,-0.0014438896,0.71,0.68,0.23,21775,9953.40,0,0,0,0.42,-3.08,0.07,0.71,0.68,0.23
-9.3359375,-4.1274354E-4,-3.7534907E-4,0.0015561106,0.71,0.68,0.24,21783,9953.10,0,0,165,0.35,-3.15,0.28,0.71,0.68,0.24
-9.3359375,-4.1274354E-4,6.2465295E-4,0.00355611,0.71,0.68,0.24,21798,9953.10,0,0,0,0.35,-3.08,0.42,0.71,0.68,0.24
-9.3359375,-4.1274354E-4,-3.7534907E-4,0.00355611,0.71,0.68,0.24,21813,9953.10,0,0,165,0.35,-3.15,0.42,0.71,0.68,0.24
-10.3359375,-4.1274354E-4,6.2465295E-4,0.0015561106,0.71,0.68,0.24,21821,9952.10,0,0,0,0.35,-3.08,0.28,0.71,0.68,0.24
-10.3359375,5.8725616E-4,-0.0013753474,-0.0024438896,0.71,0.68,0.23,21835,9952.10,0,0,165,0.42,-3.22,0.00,0.71,0.68,0.23
-9.3359375,0.002587257,-3.7534907E-4,-0.0054438896,0.71,0.68,0.23,21851,9953.10,0,0,0,0.56,-3.15,-0.21,0.71,0.68,0.23
-10.3359375,0.0015872568,-3.7534907E-4,-0.0014438896,0.72,0.68,0.23,21858,9952.10,0,0,165,0.49,-3.15,0.07,0.72,0.68,0.23
-10.3359375,0.0015872568,-0.0013753474,0.0015561106,0.72,0.68,0.24,21873,9952.10,0,0,0,0.49,-3.22,0.28,0.72,0.68,0.24
-9.3359375,-4.1274354E-4,-3.7534907E-4,0.0025561103,0.72,0.68,0.24,21889,9953.10,0,0,165,0.35,-3.15,0.35,0.72,0.68,0.24
-10.3359375,-4.1274354E-4,-0.0013753474,0.0015561106,0.72,0.68,0.24,21896,9952.10,0,0,0,0.35,-3.22,0.28,0.72,0.68,0.24
-10.3359375,0.0015872568,6.2465295E-4,-0.0074438895,0.71,0.68,0.24,21922,9952.10,0,0,165,0.49,-3.08,-0.35,0.71,0.68,0.24
-10.935547,0.002587257,6.2465295E-4,-0.014443889,0.71,0.68,0.24,21935,9951.50,0,0,0,0.56,-3.08,-0.84,0.71,0.68,0.24
-10.3359375,0.0015872568,6.2465295E-4,-0.008443889,0.71,0.69,0.23,21936,9952.10,0,0,165,0.49,-3.08,-0.42,0.71,0.69,0.23
-9.3359375,5.8725616E-4,-3.7534907E-4,-4.4388953E-4,0.71,0.69,0.24,21954,9953.10,0,0,0,0.42,-3.15,0.14,0.71,0.69,0.24
-9.3359375,-0.0014127432,-3.7534907E-4,0.010556111,0.71,0.68,0.24,21962,9953.10,0,0,165,0.28,-3.15,0.91,0.71,0.68,0.24
-10.3359375,-0.0044127433,-0.0013753474,0.016556112,0.72,0.68,0.24,21970,9952.10,0,0,0,0.07,-3.22,1.33,0.72,0.68,0.24
-9.3359375,-0.0014127432,-0.0013753474,0.011556111,0.72,0.68,0.24,21986,9953.10,0,0,165,0.28,-3.22,0.98,0.72,0.68,0.24
-9.935547,-0.0014127432,-0.0013753474,0.0015561106,0.72,0.67,0.23,22001,9952.50,0,0,0,0.28,-3.22,0.28,0.72,0.67,0.23
-9.3359375,5.8725616E-4,-3.7534907E-4,-0.0104438905,0.72,0.68,0.23,22008,9953.10,0,0,165,0.42,-3.15,-0.56,0.72,0.68,0.23
-9.3359375,0.0035872562,0.0026246533,-0.014443889,0.71,0.68,0.23,22022,9953.10,0,0,0,0.63,-2.94,-0.84,0.71,0.68,0.23
-10.635742,0.002587257,0.0016246513,-0.011443889,0.72,0.69,0.23,22038,9951.80,0,0,165,0.56,-3.01,-0.63,0.72,0.69,0.23
-9.3359375,0.0015872568,0.0026246533,-0.0014438896,0.71,0.69,0.24,22045,9953.10,0,0,0,0.49,-2.94,0.07,0.71,0.69,0.24
-10.3359375,-0.0014127432,6.2465295E-4,0.009556109,0.71,0.69,0.24,22060,9952.10,0,0,165,0.28,-3.08,0.84,0.71,0.69,0.24
-9.3359375,-0.0034127433,-3.7534907E-4,0.014556112,0.71,0.68,0.24,22075,9953.10,0,0,0,0.14,-3.15,1.19,0.71,0.68,0.24
-9.3359375,-0.0044127433,-0.0013753474,0.013556112,0.72,0.68,0.24,22083,9953.10,0,0,165,0.07,-3.22,1.12,0.72,0.68,0.24
-7.435547,0.002587257,-0.0023753457,0.0015561106,0.72,0.68,0.24,22098,9955.00,0,0,0,0.56,-3.29,0.28,0.72,0.68,0.24
-9.3359375,0.002587257,-3.7534907E-4,-0.011443889,0.71,0.68,0.23,22114,9953.10,0,0,165,0.56,-3.15,-0.63,0.71,0.68,0.23
-10.3359375,0.0055872565,0.0026246533,-0.022443889,0.72,0.68,0.23,22121,9952.10,0,0,0,0.77,-2.94,-1.40,0.72,0.68,0.23
-10.3359375,0.0055872565,0.0026246533,-0.02144389,0.71,0.69,0.24,22136,9952.10,0,0,165,0.77,-2.94,-1.33,0.71,0.69,0.24
-10.3359375,0.0015872568,0.0016246513,-0.00944389,0.71,0.69,0.23,22151,9952.10,0,0,0,0.49,-3.01,-0.49,0.71,0.69,0.23
-10.3359375,0.0015872568,6.2465295E-4,0.0045561106,0.71,0.68,0.24,22158,9952.10,0,0,165,0.49,-3.08,0.49,0.71,0.68,0.24
-9.3359375,-0.0014127432,-0.0023753457,0.013556112,0.72,0.68,0.24,22173,9953.10,0,0,0,0.28,-3.29,1.12,0.72,0.68,0.24
-10.3359375,-4.1274354E-4,-3.7534907E-4,0.01555611,0.72,0.68,0.24,22188,9952.10,0,0,165,0.35,-3.15,1.26,0.72,0.68,0.24
-10.635742,-0.0024127436,-3.7534907E-4,0.0055561108,0.72,0.68,0.24,22195,9951.80,0,0,0,0.21,-3.15,0.56,0.72,0.68,0.24
-9.635742,0.002587257,6.2465295E-4,-0.0054438896,0.71,0.68,0.24,22211,9952.80,0,0,165,0.56,-3.08,-0.21,0.71,0.68,0.24
-10.3359375,0.0035872562,0.0016246513,-0.00944389,0.71,0.68,0.23,22225,9952.10,0,0,0,0.63,-3.01,-0.49,0.71,0.68,0.23
-9.3359375,5.8725616E-4,6.2465295E-4,-0.0054438896,0.72,0.68,0.23,22233,9953.10,0,0,165,0.42,-3.08,-0.21,0.72,0.68,0.23
-10.3359375,-0.0014127432,-3.7534907E-4,0.00755611,0.72,0.68,0.23,22248,9952.10,0,0,0,0.28,-3.15,0.70,0.72,0.68,0.23
-9.3359375,-0.0024127436,-3.7534907E-4,0.014556112,0.71,0.68,0.23,22264,9953.10,0,0,165,0.21,-3.15,1.19,0.71,0.68,0.23
-10.3359375,-0.0024127436,-0.0013753474,0.011556111,0.72,0.68,0.24,22270,9952.10,0,0,0,0.21,-3.22,0.98,0.72,0.68,0.24
-9.3359375,-4.1274354E-4,6.2465295E-4,0.00355611,0.72,0.68,0.24,22285,9953.10,0,0,165,0.35,-3.08,0.42,0.72,0.68,0.24
-10.3359375,0.0035872562,0.0016246513,-0.011443889,0.71,0.68,0.24,22301,9952.10,0,0,0,0.63,-3.01,-0.63,0.71,0.68,0.24
-10.3359375,0.0045872563,6.2465295E-4,-0.014443889,0.71,0.68,0.24,22307,9952.10,0,0,165,0.70,-3.08,-0.84,0.71,0.68,0.24
-9.3359375,0.0045872563,6.2465295E-4,-0.014443889,0.71,0.69,0.24,22323,9953.10,0,0,0,0.70,-3.08,-0.84,0.71,0.69,0.24
-10.3359375,0.0015872568,6.2465295E-4,-4.4388953E-4,0.71,0.69,0.24,22338,9952.10,0,0,165,0.49,-3.08,0.14,0.71,0.69,0.24
-9.3359375,-0.0014127432,-3.7534907E-4,0.013556112,0.72,0.68,0.23,22345,9953.10,0,0,0,0.28,-3.15,1.12,0.72,0.68,0.23
-10.3359375,-0.0024127436,6.2465295E-4,0.01755611,0.72,0.68,0.23,22360,9952.10,0,0,165,0.21,-3.08,1.40,0.72,0.68,0.23
-10.3359375,-0.0024127436,-3.7534907E-4,0.009556109,0.72,0.68,0.24,22375,9952.10,0,0,0,0.21,-3.15,0.84,0.72,0.68,0.24
-9.3359375,0.0015872568,0.0026246533,-0.008443889,0.72,0.68,0.24,22384,9953.10,0,0,165,0.49,-2.94,-0.42,0.72,0.68,0.24
-9.3359375,0.0055872565,0.0026246533,-0.01944389,0.71,0.68,0.24,22398,9953.10,0,0,0,0.77,-2.94,-1.19,0.71,0.68,0.24
-9.3359375,0.0035872562,6.2465295E-4,-0.022443889,0.71,0.68,0.24,22413,9953.10,0,0,165,0.63,-3.08,-1.40,0.71,0.68,0.24
-10.3359375,0.0035872562,0.0016246513,-0.012443889,0.71,0.69,0.24,22420,9952.10,0,0,0,0.63,-3.01,-0.70,0.71,0.69,0.24
-9.3359375,-4.1274354E-4,-3.7534907E-4,0.00655611,0.71,0.69,0.24,22435,9953.10,0,0,165,0.35,-3.15,0.63,0.71,0.69,0.24
-10.3359375,-0.0024127436,-0.0013753474,0.01955611,0.72,0.68,0.24,22451,9952.10,0,0,0,0.21,-3.22,1.54,0.72,0.68,0.24
-10.3359375,-0.0044127433,-0.0013753474,0.024556112,0.72,0.68,0.24,22458,9952.10,0,0,165,0.07,-3.22,1.89,0.72,0.68,0.24
-10.3359375,-0.0014127432,-0.0013753474,0.013556112,0.72,0.68,0.24,22473,9952.10,0,0,0,0.28,-3.22,1.12,0.72,0.68,0.24
-10.3359375,-4.1274354E-4,0.0026246533,-0.0024438896,0.72,0.67,0.23,22488,9952.10,0,0,165,0.35,-2.94,0.00,0.72,0.67,0.23
-10.3359375,0.0035872562,0.0026246533,-0.01944389,0.72,0.68,0.24,22496,9952.10,0,0,0,0.63,-2.94,-1.19,0.72,0.68,0.24
-10.3359375,0.0055872565,0.0016246513,-0.02544389,0.71,0.68,0.24,22510,9952.10,0,0,165,0.77,-3.01,-1.61,0.71,0.68,0.24
-10.635742,0.0015872568,0.0016246513,-0.014443889,0.71,0.69,0.24,22525,9951.80,0,0,0,0.49,-3.01,-0.84,0.71,0.69,0.24
-10.3359375,0.0015872568,6.2465295E-4,0.0015561106,0.71,0.69,0.24,22535,9952.10,0,0,165,0.49,-3.08,0.28,0.71,0.69,0.24
-10.3359375,-0.0044127433,-0.0013753474,0.01855611,0.71,0.68,0.24,22549,9952.10,0,0,0,0.07,-3.22,1.47,0.71,0.68,0.24
-9.635742,-0.0034127433,-0.0023753457,0.02055611,0.71,0.68,0.24,22563,9952.80,0,0,165,0.14,-3.29,1.61,0.71,0.68,0.24
-9.3359375,-4.1274354E-4,-3.7534907E-4,0.01255611,0.71,0.68,0.24,22570,9953.10,0,0,0,0.35,-3.15,1.05,0.71,0.68,0.24
-9.3359375,5.8725616E-4,-3.7534907E-4,-0.0024438896,0.71,0.68,0.23,22586,9953.10,0,0,165,0.42,-3.15,0.00,0.71,0.68,0.23
-10.3359375,0.0055872565,0.0016246513,-0.01644389,0.72,0.68,0.23,22601,9952.10,0,0,0,0.77,-3.01,-0.98,0.72,0.68,0.23
-11.235352,0.007587257,0.0026246533,-0.020443888,0.72,0.68,0.23,22607,9951.20,0,0,165,0.91,-2.94,-1.26,0.72,0.68,0.23
-10.3359375,0.002587257,6.2465295E-4,-0.013443889,0.72,0.69,0.24,22622,9952.10,0,0,0,0.56,-3.08,-0.77,0.72,0.69,0.24
-10.635742,5.8725616E-4,6.2465295E-4,0.0015561106,0.71,0.69,0.24,22638,9951.80,0,0,165,0.42,-3.08,0.28,0.71,0.69,0.24
-10.635742,-0.0034127433,6.2465295E-4,0.01555611,0.71,0.68,0.24,22646,9951.80,0,0,0,0.14,-3.08,1.26,0.71,0.68,0.24
-10.3359375,-0.0034127433,-3.7534907E-4,0.01755611,0.71,0.68,0.24,22660,9952.10,0,0,165,0.14,-3.15,1.40,0.71,0.68,0.24
-11.235352,-0.0014127432,-3.7534907E-4,0.0055561108,0.71,0.68,0.24,22675,9951.20,0,0,0,0.28,-3.15,0.56,0.71,0.68,0.24
-10.3359375,5.8725616E-4,-3.7534907E-4,-0.0074438895,0.71,0.68,0.24,22683,9952.10,0,0,165,0.42,-3.15,-0.35,0.71,0.68,0.24
-10.635742,0.002587257,0.0016246513,-0.01644389,0.72,0.68,0.23,22698,9951.80,0,0,0,0.56,-3.01,-0.98,0.72,0.68,0.23
-10.3359375,0.002587257,0.0016246513,-0.014443889,0.72,0.69,0.24,22713,9952.10,0,0,165,0.56,-3.01,-0.84,0.72,0.69,0.24
-10.3359375,0.0015872568,6.2465295E-4,-0.0044438895,0.71,0.69,0.23,22720,9952.10,0,0,0,0.49,-3.08,-0.14,0.71,0.69,0.23
-9.3359375,-0.0014127432,6.2465295E-4,0.008556111,0.72,0.69,0.23,22735,9953.10,0,0,165,0.28,-3.08,0.77,0.72,0.69,0.23
-11.535156,-0.0054127434,-3.7534907E-4,0.01755611,0.72,0.68,0.24,22751,9950.90,0,0,0,0.00,-3.15,1.40,0.72,0.68,0.24
-10.3359375,-0.0024127436,-3.7534907E-4,0.01255611,0.72,0.68,0.24,22757,9952.10,0,0,165,0.21,-3.15,1.05,0.72,0.68,0.24
-10.635742,5.8725616E-4,-3.7534907E-4,-4.4388953E-4,0.71,0.68,0.24,22773,9951.80,0,0,0,0.42,-3.15,0.14,0.71,0.68,0.24
-9.635742,0.0035872562,0.0036246553,-0.014443889,0.71,0.68,0.24,22787,9952.80,0,0,165,0.63,-2.87,-0.84,0.71,0.68,0.24
-10.635742,0.0055872565,0.0026246533,-0.02144389,0.71,0.68,0.23,22795,9951.80,0,0,0,0.77,-2.94,-1.33,0.71,0.68,0.23
-11.535156,0.0035872562,0.0016246513,-0.01744389,0.71,0.68,0.24,22810,9950.90,0,0,165,0.63,-3.01,-1.05,0.71,0.68,0.24
-11.235352,5.8725616E-4,-3.7534907E-4,-0.0024438896,0.72,0.68,0.23,22826,9951.20,0,0,0,0.42,-3.15,0.00,0.72,0.68,0.23
-11.535156,-0.0034127433,-3.7534907E-4,0.013556112,0.72,0.68,0.24,22834,9950.90,0,0,165,0.14,-3.15,1.12,0.72,0.68,0.24
-11.235352,-0.0034127433,-0.0013753474,0.02055611,0.72,0.68,0.24,22848,9951.20,0,0,0,0.14,-3.22,1.61,0.72,0.68,0.24
-10.3359375,-0.0044127433,-3.7534907E-4,0.01555611,0.72,0.68,0.24,22863,9952.10,0,0,165,0.07,-3.15,1.26,0.72,0.68,0.24
-10.635742,-4.1274354E-4,6.2465295E-4,0.0055561108,0.72,0.68,0.23,22870,9951.80,0,0,0,0.35,-3.08,0.56,0.72,0.68,0.23
-11.535156,0.002587257,6.2465295E-4,-0.012443889,0.71,0.68,0.24,22886,9950.90,0,0,165,0.56,-3.08,-0.70,0.71,0.68,0.24
-10.3359375,0.0035872562,0.0016246513,-0.01844389,0.72,0.68,0.24,22901,9952.10,0,0,0,0.63,-3.01,-1.12,0.72,0.68,0.24
-10.635742,0.0045872563,0.0016246513,-0.015443889,0.71,0.69,0.24,22908,9951.80,0,0,165,0.70,-3.01,-0.91,0.71,0.69,0.24
-11.235352,0.0015872568,0.0016246513,5.561102E-4,0.71,0.68,0.24,22923,9951.20,0,0,0,0.49,-3.01,0.21,0.71,0.68,0.24
-10.635742,5.8725616E-4,-3.7534907E-4,0.011556111,0.71,0.68,0.24,22938,9951.80,0,0,165,0.42,-3.15,0.98,0.71,0.68,0.24
-10.635742,-0.0014127432,-0.0013753474,0.016556112,0.72,0.68,0.24,22945,9951.80,0,0,0,0.28,-3.22,1.33,0.72,0.68,0.24
-10.3359375,5.8725616E-4,-3.7534907E-4,0.009556109,0.72,0.68,0.24,22960,9952.10,0,0,165,0.42,-3.15,0.84,0.72,0.68,0.24
-11.235352,0.0035872562,6.2465295E-4,-0.00644389,0.72,0.68,0.24,22975,9951.20,0,0,0,0.63,-3.08,-0.28,0.72,0.68,0.24
-10.3359375,0.002587257,0.0026246533,-0.01644389,0.72,0.68,0.23,22983,9952.10,0,0,165,0.56,-2.94,-0.98,0.72,0.68,0.23
-10.635742,0.0045872563,6.2465295E-4,-0.01844389,0.72,0.68,0.23,22998,9951.80,0,0,0,0.70,-3.08,-1.12,0.72,0.68,0.23
-10.3359375,0.0035872562,0.0016246513,-0.0074438895,0.72,0.68,0.23,23013,9952.10,0,0,165,0.63,-3.01,-0.35,0.72,0.68,0.23
-10.3359375,5.8725616E-4,0.0016246513,0.0055561108,0.71,0.68,0.24,23021,9952.10,0,0,0,0.42,-3.01,0.56,0.71,0.68,0.24
-10.635742,-0.0044127433,6.2465295E-4,0.02055611,0.72,0.68,0.24,23036,9951.80,0,0,165,0.07,-3.08,1.61,0.72,0.68,0.24
-10.635742,-0.0044127433,-3.7534907E-4,0.02055611,0.71,0.68,0.24,23051,9951.80,0,0,0,0.07,-3.15,1.61,0.71,0.68,0.24
-10.635742,-0.0034127433,-3.7534907E-4,0.01555611,0.71,0.68,0.24,23058,9951.80,0,0,165,0.14,-3.15,1.26,0.71,0.68,0.24
-10.635742,0.002587257,6.2465295E-4,5.561102E-4,0.71,0.68,0.24,23073,9951.80,0,0,0,0.56,-3.08,0.21,0.71,0.68,0.24
-11.235352,0.002587257,-3.7534907E-4,-0.0104438905,0.71,0.68,0.24,23088,9951.20,0,0,165,0.56,-3.15,-0.56,0.71,0.68,0.24
-10.3359375,0.002587257,0.0016246513,-0.013443889,0.71,0.68,0.24,23095,9952.10,0,0,0,0.56,-3.01,-0.77,0.71,0.68,0.24
-9.3359375,0.0045872563,6.2465295E-4,-0.00944389,0.71,0.69,0.24,23111,9953.10,0,0,165,0.70,-3.08,-0.49,0.71,0.69,0.24
-11.535156,0.002587257,6.2465295E-4,0.0025561103,0.71,0.68,0.23,23125,9950.90,0,0,0,0.56,-3.08,0.35,0.71,0.68,0.23
-10.3359375,-4.1274354E-4,6.2465295E-4,0.008556111,0.72,0.68,0.24,23133,9952.10,0,0,165,0.35,-3.08,0.77,0.72,0.68,0.24
-10.635742,5.8725616E-4,6.2465295E-4,0.0025561103,0.72,0.68,0.24,23148,9951.80,0,0,0,0.42,-3.08,0.35,0.72,0.68,0.24
-11.535156,0.0015872568,6.2465295E-4,-0.008443889,0.72,0.68,0.24,23163,9950.90,0,0,165,0.49,-3.08,-0.42,0.72,0.68,0.24
-11.535156,0.0035872562,0.0026246533,-0.01744389,0.72,0.68,0.24,23171,9950.90,0,0,0,0.63,-2.94,-1.05,0.72,0.68,0.24
-11.535156,0.0045872563,6.2465295E-4,-0.015443889,0.71,0.69,0.24,23186,9950.90,0,0,165,0.70,-3.08,-0.91,0.71,0.69,0.24
-10.3359375,0.0015872568,-3.7534907E-4,-0.0034438898,0.71,0.69,0.24,23201,9952.10,0,0,0,0.49,-3.15,-0.07,0.71,0.69,0.24
-11.535156,-0.0014127432,-3.7534907E-4,0.014556112,0.71,0.69,0.23,23208,9950.90,0,0,165,0.28,-3.15,1.19,0.71,0.69,0.23
-10.3359375,-0.0054127434,-3.7534907E-4,0.02755611,0.72,0.68,0.23,23223,9952.10,0,0,0,0.00,-3.15,2.10,0.72,0.68,0.23
-11.235352,-0.0074127438,-0.0013753474,0.029556112,0.72,0.68,0.24,23238,9951.20,0,0,165,-0.14,-3.22,2.24,0.72,0.68,0.24
-10.3359375,-0.0054127434,-3.7534907E-4,0.01555611,0.72,0.68,0.24,23245,9952.10,0,0,0,0.00,-3.15,1.26,0.72,0.68,0.24
-11.535156,5.8725616E-4,-3.7534907E-4,-0.0014438896,0.72,0.68,0.24,23260,9950.90,0,0,165,0.42,-3.15,0.07,0.72,0.68,0.24
-10.635742,0.0045872563,0.0016246513,-0.01744389,0.71,0.68,0.24,23275,9951.80,0,0,0,0.70,-3.01,-1.05,0.71,0.68,0.24
-11.535156,0.0055872565,-3.7534907E-4,-0.024443889,0.71,0.68,0.24,23284,9950.90,0,0,165,0.77,-3.15,-1.54,0.71,0.68,0.24
-10.635742,0.0045872563,0.0016246513,-0.015443889,0.71,0.69,0.24,23298,9951.80,0,0,0,0.70,-3.01,-0.91,0.71,0.69,0.24
-11.535156,5.8725616E-4,-3.7534907E-4,-0.0044438895,0.71,0.69,0.24,23313,9950.90,0,0,165,0.42,-3.15,-0.14,0.71,0.69,0.24
-11.535156,-0.0014127432,6.2465295E-4,0.010556111,0.72,0.68,0.24,23321,9950.90,0,0,0,0.28,-3.08,0.91,0.72,0.68,0.24
-10.3359375,-0.0024127436,-3.7534907E-4,0.011556111,0.72,0.68,0.24,23337,9952.10,0,0,165,0.21,-3.15,0.98,0.72,0.68,0.24
-10.635742,-0.0014127432,-3.7534907E-4,0.0055561108,0.71,0.68,0.24,23350,9951.80,0,0,0,0.28,-3.15,0.56,0.71,0.68,0.24
-11.535156,0.002587257,-3.7534907E-4,-0.00644389,0.72,0.68,0.24,23357,9950.90,0,0,165,0.56,-3.15,-0.28,0.72,0.68,0.24
-11.535156,0.0035872562,0.0016246513,-0.012443889,0.72,0.68,0.23,23373,9950.90,0,0,0,0.63,-3.01,-0.70,0.72,0.68,0.23
-10.3359375,0.0035872562,6.2465295E-4,-0.013443889,0.71,0.68,0.23,23388,9952.10,0,0,165,0.63,-3.08,-0.77,0.71,0.68,0.23
-10.635742,0.0015872568,6.2465295E-4,-0.0044438895,0.71,0.69,0.24,23396,9951.80,0,0,0,0.49,-3.08,-0.14,0.71,0.69,0.24
-11.535156,-0.0044127433,-0.0013753474,0.01255611,0.71,0.69,0.24,23410,9950.90,0,0,165,0.07,-3.22,1.05,0.71,0.69,0.24
-10.3359375,-0.0044127433,-3.7534907E-4,0.022556111,0.71,0.68,0.24,23425,9952.10,0,0,0,0.07,-3.15,1.75,0.71,0.68,0.24
-11.535156,-0.0054127434,-0.0013753474,0.024556112,0.71,0.68,0.24,23433,9950.90,0,0,165,0.00,-3.22,1.89,0.71,0.68,0.24
-10.635742,-0.0024127436,0.0016246513,0.01255611,0.72,0.68,0.24,23448,9951.80,0,0,0,0.21,-3.01,1.05,0.72,0.68,0.24
-12.535156,5.8725616E-4,0.0016246513,-0.00644389,0.72,0.68,0.24,23463,9949.90,0,0,165,0.42,-3.01,-0.28,0.72,0.68,0.24
-12.535156,0.0035872562,0.0016246513,-0.01944389,0.72,0.68,0.24,23470,9949.90,0,0,0,0.63,-3.01,-1.19,0.72,0.68,0.24
-11.535156,0.0045872563,0.0016246513,-0.024443889,0.72,0.68,0.24,23485,9950.90,0,0,165,0.70,-3.01,-1.54,0.72,0.68,0.24
-11.535156,0.0015872568,6.2465295E-4,-0.011443889,0.71,0.69,0.24,23501,9950.90,0,0,0,0.49,-3.08,-0.63,0.71,0.69,0.24
-11.535156,5.8725616E-4,-3.7534907E-4,0.0045561106,0.72,0.69,0.23,23507,9950.90,0,0,165,0.42,-3.15,0.49,0.72,0.69,0.23
-10.635742,-0.0024127436,-0.0013753474,0.01255611,0.72,0.68,0.24,23523,9951.80,0,0,0,0.21,-3.22,1.05,0.72,0.68,0.24
-11.535156,-0.0024127436,6.2465295E-4,0.013556112,0.72,0.68,0.24,23538,9950.90,0,0,165,0.21,-3.08,1.12,0.72,0.68,0.24
-11.535156,5.8725616E-4,0.0016246513,0.0045561106,0.72,0.68,0.24,23545,9950.90,0,0,0,0.42,-3.01,0.49,0.72,0.68,0.24
-10.635742,0.0015872568,-3.7534907E-4,-0.008443889,0.71,0.68,0.24,23561,9951.80,0,0,165,0.49,-3.15,-0.42,0.71,0.68,0.24
-10.635742,0.0015872568,-0.0013753474,-0.011443889,0.71,0.68,0.24,23576,9951.80,0,0,0,0.49,-3.22,-0.63,0.71,0.68,0.24
-10.935547,0.002587257,-3.7534907E-4,-0.00644389,0.71,0.68,0.24,23583,9951.50,0,0,165,0.56,-3.15,-0.28,0.71,0.68,0.24
-11.535156,-0.0014127432,6.2465295E-4,0.0045561106,0.71,0.68,0.24,23598,9950.90,0,0,0,0.28,-3.08,0.49,0.71,0.68,0.24
-11.235352,-0.0014127432,6.2465295E-4,0.013556112,0.72,0.68,0.23,23612,9951.20,0,0,165,0.28,-3.08,1.12,0.72,0.68,0.23
-11.535156,-0.0044127433,-3.7534907E-4,0.013556112,0.72,0.68,0.24,23621,9950.90,0,0,0,0.07,-3.15,1.12,0.72,0.68,0.24
-11.535156,-0.0034127433,6.2465295E-4,0.0025561103,0.72,0.68,0.24,23636,9950.90,0,0,165,0.14,-3.08,0.35,0.72,0.68,0.24
-10.635742,0.0015872568,0.0016246513,-0.0044438895,0.71,0.68,0.24,23650,9951.80,0,0,0,0.49,-3.01,-0.14,0.71,0.68,0.24
-12.535156,0.002587257,-3.7534907E-4,-0.0104438905,0.71,0.68,0.24,23658,9949.90,0,0,165,0.56,-3.15,-0.56,0.71,0.68,0.24
-10.635742,0.0015872568,6.2465295E-4,-0.008443889,0.72,0.68,0.24,23673,9951.80,0,0,0,0.49,-3.08,-0.42,0.72,0.68,0.24
-11.535156,0.0015872568,6.2465295E-4,-0.0024438896,0.72,0.68,0.24,23688,9950.90,0,0,165,0.49,-3.08,0.00,0.72,0.68,0.24
-11.235352,-4.1274354E-4,-3.7534907E-4,0.008556111,0.72,0.68,0.24,23696,9951.20,0,0,0,0.35,-3.15,0.77,0.72,0.68,0.24
-11.535156,-4.1274354E-4,-3.7534907E-4,0.008556111,0.72,0.68,0.24,23710,9950.90,0,0,165,0.35,-3.15,0.77,0.72,0.68,0.24
-10.635742,-0.0014127432,-3.7534907E-4,0.00355611,0.72,0.68,0.24,23725,9951.80,0,0,0,0.28,-3.15,0.42,0.72,0.68,0.24
-10.635742,0.002587257,0.0016246513,-0.0034438898,0.72,0.68,0.23,23736,9951.80,0,0,165,0.56,-3.01,-0.07,0.72,0.68,0.23
-10.635742,0.0015872568,6.2465295E-4,-0.0104438905,0.71,0.68,0.23,23748,9951.80,0,0,0,0.49,-3.08,-0.56,0.71,0.68,0.23
-11.535156,5.8725616E-4,0.0016246513,-0.00944389,0.71,0.68,0.24,23763,9950.90,0,0,165,0.42,-3.01,-0.49,0.71,0.68,0.24
-10.635742,5.8725616E-4,6.2465295E-4,-0.0024438896,0.71,0.69,0.24,23771,9951.80,0,0,0,0.42,-3.08,0.00,0.71,0.69,0.24
-10.3359375,5.8725616E-4,6.2465295E-4,0.00755611,0.72,0.68,0.24,23786,9952.10,0,0,165,0.42,-3.08,0.70,0.72,0.68,0.24
-10.3359375,-4.1274354E-4,-0.0013753474,0.009556109,0.72,0.69,0.24,23802,9952.10,0,0,0,0.35,-3.22,0.84,0.72,0.69,0.24
-12.535156,-4.1274354E-4,-0.0023753457,0.009556109,0.72,0.68,0.24,23808,9949.90,0,0,165,0.35,-3.29,0.84,0.72,0.68,0.24
-10.635742,-0.0014127432,-3.7534907E-4,0.0045561106,0.71,0.68,0.24,23830,9951.80,0,0,0,0.28,-3.15,0.49,0.71,0.68,0.24
-10.635742,-4.1274354E-4,6.2465295E-4,-0.0044438895,0.72,0.68,0.23,23838,9951.80,0,0,165,0.35,-3.08,-0.14,0.72,0.68,0.23
-11.535156,0.002587257,0.0016246513,-0.008443889,0.72,0.68,0.23,23845,9950.90,0,0,0,0.56,-3.01,-0.42,0.72,0.68,0.23
-10.3359375,0.0015872568,0.0016246513,-0.00944389,0.71,0.68,0.23,23860,9952.10,0,0,165,0.49,-3.01,-0.49,0.71,0.68,0.23
-12.535156,0.0015872568,0.0016246513,-0.0044438895,0.71,0.68,0.24,23875,9949.90,0,0,0,0.49,-3.01,-0.14,0.71,0.68,0.24
-11.535156,-4.1274354E-4,-3.7534907E-4,-0.0014438896,0.72,0.68,0.24,23886,9950.90,0,0,165,0.35,-3.15,0.07,0.72,0.68,0.24
-10.3359375,0.0015872568,6.2465295E-4,0.0025561103,0.71,0.68,0.24,23898,9952.10,0,0,0,0.49,-3.08,0.35,0.71,0.68,0.24
-11.535156,-4.1274354E-4,-0.0013753474,5.561102E-4,0.72,0.68,0.24,23913,9950.90,0,0,165,0.35,-3.22,0.21,0.72,0.68,0.24
-11.535156,0.002587257,6.2465295E-4,0.0015561106,0.72,0.68,0.24,23920,9950.90,0,0,0,0.56,-3.08,0.28,0.72,0.68,0.24
-11.535156,0.0015872568,6.2465295E-4,-0.0024438896,0.72,0.68,0.24,23937,9950.90,0,0,165,0.49,-3.08,0.00,0.72,0.68,0.24
-10.635742,-4.1274354E-4,6.2465295E-4,-0.0024438896,0.71,0.68,0.24,23951,9951.80,0,0,0,0.35,-3.08,0.00,0.71,0.68,0.24
-11.535156,5.8725616E-4,6.2465295E-4,5.561102E-4,0.72,0.68,0.24,23961,9950.90,0,0,165,0.42,-3.08,0.21,0.72,0.68,0.24
-11.535156,5.8725616E-4,0.0016246513,0.0025561103,0.72,0.68,0.24,23973,9950.90,0,0,0,0.42,-3.01,0.35,0.72,0.68,0.24
-11.535156,5.8725616E-4,0.0016246513,0.00355611,0.72,0.68,0.24,23988,9950.90,0,0,165,0.42,-3.01,0.42,0.72,0.68,0.24
-11.535156,-4.1274354E-4,6.2465295E-4,0.0025561103,0.71,0.68,0.24,23995,9950.90,0,0,0,0.35,-3.08,0.35,0.71,0.68,0.24
-11.535156,-4.1274354E-4,6.2465295E-4,-0.0014438896,0.71,0.68,0.24,24010,9950.90,0,0,165,0.35,-3.08,0.07,0.71,0.68,0.24
-11.535156,0.0015872568,6.2465295E-4,5.561102E-4,0.71,0.68,0.24,24026,9950.90,0,0,0,0.49,-3.08,0.21,0.71,0.68,0.24
-10.635742,5.8725616E-4,-3.7534907E-4,5.561102E-4,0.71,0.68,0.24,24035,9951.80,0,0,165,0.42,-3.15,0.21,0.71,0.68,0.24
-11.535156,-4.1274354E-4,-3.7534907E-4,5.561102E-4,0.71,0.68,0.24,24048,9950.90,0,0,0,0.35,-3.15,0.21,0.71,0.68,0.24
-11.235352,-4.1274354E-4,-3.7534907E-4,0.00355611,0.71,0.68,0.24,24062,9951.20,0,0,165,0.35,-3.15,0.42,0.71,0.68,0.24
-11.535156,-4.1274354E-4,6.2465295E-4,0.0045561106,0.72,0.68,0.24,24071,9950.90,0,0,0,0.35,-3.08,0.49,0.72,0.68,0.24
-11.535156,-4.1274354E-4,6.2465295E-4,0.0015561106,0.72,0.68,0.24,24086,9950.90,0,0,165,0.35,-3.08,0.28,0.72,0.68,0.24
-10.635742,5.8725616E-4,6.2465295E-4,-0.0014438896,0.72,0.68,0.24,24134,9951.80,0,0,0,0.42,-3.08,0.07,0.72,0.68,0.24
-10.635742,0.0015872568,0.0016246513,-0.0024438896,0.72,0.68,0.24,24135,9951.80,0,0,165,0.49,-3.01,0.00,0.72,0.68,0.24
-11.535156,0.002587257,0.0016246513,-0.00644389,0.72,0.68,0.24,24135,9950.90,0,0,0,0.56,-3.01,-0.28,0.72,0.68,0.24
-11.535156,0.0035872562,0.0026246533,-0.0074438895,0.71,0.68,0.24,24144,9950.90,0,0,165,0.63,-2.94,-0.35,0.71,0.68,0.24
-11.535156,0.0015872568,6.2465295E-4,-0.0024438896,0.71,0.68,0.24,24145,9950.90,0,0,0,0.49,-3.08,0.00,0.71,0.68,0.24
-11.535156,-0.0024127436,6.2465295E-4,0.0025561103,0.71,0.68,0.24,24160,9950.90,0,0,165,0.21,-3.08,0.35,0.71,0.68,0.24
-11.535156,-0.0014127432,6.2465295E-4,0.010556111,0.71,0.68,0.24,24175,9950.90,0,0,0,0.28,-3.08,0.91,0.71,0.68,0.24
-11.535156,-4.1274354E-4,-3.7534907E-4,0.011556111,0.72,0.68,0.24,24183,9950.90,0,0,165,0.35,-3.15,0.98,0.72,0.68,0.24
-11.535156,-0.0014127432,6.2465295E-4,0.00655611,0.72,0.68,0.24,24198,9950.90,0,0,0,0.28,-3.08,0.63,0.72,0.68,0.24
-11.235352,5.8725616E-4,-3.7534907E-4,-0.0014438896,0.72,0.68,0.23,24213,9951.20,0,0,165,0.42,-3.15,0.07,0.72,0.68,0.23
-11.535156,0.002587257,0.0016246513,-0.00644389,0.71,0.68,0.23,24220,9950.90,0,0,0,0.56,-3.01,-0.28,0.71,0.68,0.23
-11.535156,0.002587257,0.0016246513,-0.0074438895,0.71,0.68,0.24,24235,9950.90,0,0,165,0.56,-3.01,-0.35,0.71,0.68,0.24
-11.235352,0.002587257,0.0016246513,-0.0034438898,0.71,0.68,0.24,24250,9951.20,0,0,0,0.56,-3.01,-0.07,0.71,0.68,0.24
-12.535156,5.8725616E-4,6.2465295E-4,5.561102E-4,0.71,0.68,0.24,24258,9949.90,0,0,165,0.42,-3.08,0.21,0.71,0.68,0.24
-11.535156,-4.1274354E-4,-3.7534907E-4,0.0045561106,0.72,0.69,0.24,24273,9950.90,0,0,0,0.35,-3.15,0.49,0.72,0.69,0.24
-11.535156,-4.1274354E-4,-3.7534907E-4,0.00355611,0.71,0.68,0.24,24288,9950.90,0,0,165,0.35,-3.15,0.42,0.71,0.68,0.24
-11.535156,5.8725616E-4,-3.7534907E-4,0.0015561106,0.72,0.68,0.24,24296,9950.90,0,0,0,0.42,-3.15,0.28,0.72,0.68,0.24
-11.535156,0.0015872568,6.2465295E-4,-0.0034438898,0.71,0.68,0.24,24310,9950.90,0,0,165,0.49,-3.08,-0.07,0.71,0.68,0.24
-11.535156,-4.1274354E-4,6.2465295E-4,-0.0054438896,0.72,0.68,0.24,24325,9950.90,0,0,0,0.35,-3.08,-0.21,0.72,0.68,0.24
-11.535156,5.8725616E-4,6.2465295E-4,-0.00644389,0.72,0.68,0.24,24332,9950.90,0,0,165,0.42,-3.08,-0.28,0.72,0.68,0.24
-11.535156,-4.1274354E-4,-3.7534907E-4,-0.0034438898,0.71,0.68,0.24,24348,9950.90,0,0,0,0.35,-3.15,-0.07,0.71,0.68,0.24
-11.535156,-4.1274354E-4,0.0016246513,0.0045561106,0.72,0.68,0.24,24363,9950.90,0,0,165,0.35,-3.01,0.49,0.72,0.68,0.24
-10.635742,-4.1274354E-4,6.2465295E-4,0.0045561106,0.71,0.68,0.24,24370,9951.80,0,0,0,0.35,-3.08,0.49,0.71,0.68,0.24
-11.535156,5.8725616E-4,6.2465295E-4,0.0045561106,0.71,0.68,0.24,24385,9950.90,0,0,165,0.42,-3.08,0.49,0.71,0.68,0.24
-10.635742,-4.1274354E-4,6.2465295E-4,0.0025561103,0.71,0.68,0.24,24400,9951.80,0,0,0,0.35,-3.08,0.35,0.71,0.68,0.24
-11.535156,5.8725616E-4,6.2465295E-4,0.00355611,0.71,0.68,0.24,24407,9950.90,0,0,165,0.42,-3.08,0.42,0.71,0.68,0.24
-10.635742,5.8725616E-4,0.0016246513,-0.0034438898,0.71,0.68,0.24,24423,9951.80,0,0,0,0.42,-3.01,-0.07,0.71,0.68,0.24
-11.535156,5.8725616E-4,6.2465295E-4,-0.0024438896,0.71,0.68,0.24,24438,9950.90,0,0,165,0.42,-3.08,0.00,0.71,0.68,0.24
-11.535156,-4.1274354E-4,-3.7534907E-4,-0.0034438898,0.72,0.68,0.23,24445,9950.90,0,0,0,0.35,-3.15,-0.07,0.72,0.68,0.23
-12.535156,5.8725616E-4,-3.7534907E-4,5.561102E-4,0.72,0.68,0.24,24461,9949.90,0,0,165,0.42,-3.15,0.21,0.72,0.68,0.24
-11.535156,5.8725616E-4,6.2465295E-4,-0.0014438896,0.71,0.68,0.24,24475,9950.90,0,0,0,0.42,-3.08,0.07,0.71,0.68,0.24
-11.535156,-0.0014127432,6.2465295E-4,5.561102E-4,0.71,0.68,0.24,24483,9950.90,0,0,165,0.28,-3.08,0.21,0.71,0.68,0.24
-11.535156,0.0015872568,6.2465295E-4,5.561102E-4,0.72,0.68,0.24,24498,9950.90,0,0,0,0.49,-3.08,0.21,0.72,0.68,0.24
-11.535156,-4.1274354E-4,6.2465295E-4,-0.0014438896,0.71,0.68,0.24,24512,9950.90,0,0,165,0.35,-3.08,0.07,0.71,0.68,0.24
-11.535156,5.8725616E-4,0.0016246513,0.0015561106,0.72,0.68,0.24,24520,9950.90,0,0,0,0.42,-3.01,0.28,0.72,0.68,0.24
-11.535156,-4.1274354E-4,-3.7534907E-4,5.561102E-4,0.72,0.68,0.23,24535,9950.90,0,0,165,0.35,-3.15,0.21,0.72,0.68,0.23
-11.535156,0.0015872568,6.2465295E-4,0.0025561103,0.72,0.68,0.23,24550,9950.90,0,0,0,0.49,-3.08,0.35,0.72,0.68,0.23
-11.535156,-0.0014127432,6.2465295E-4,0.0015561106,0.71,0.68,0.23,24558,9950.90,0,0,165,0.28,-3.08,0.28,0.71,0.68,0.23
-11.535156,-4.1274354E-4,6.2465295E-4,5.561102E-4,0.71,0.68,0.24,24573,9950.90,0,0,0,0.35,-3.08,0.21,0.71,0.68,0.24
-11.535156,-4.1274354E-4,-3.7534907E-4,-4.4388953E-4,0.71,0.68,0.24,24588,9950.90,0,0,165,0.35,-3.15,0.14,0.71,0.68,0.24
-12.535156,5.8725616E-4,6.2465295E-4,-4.4388953E-4,0.72,0.68,0.24,24595,9949.90,0,0,0,0.42,-3.08,0.14,0.72,0.68,0.24
-11.535156,5.8725616E-4,0.0016246513,-0.0024438896,0.71,0.68,0.24,24618,9950.90,0,0,165,0.42,-3.01,0.00,0.71,0.68,0.24
-12.235352,5.8725616E-4,6.2465295E-4,-0.0014438896,0.71,0.68,0.24,24626,9950.20,0,0,0,0.42,-3.08,0.07,0.71,0.68,0.24
-11.535156,5.8725616E-4,6.2465295E-4,-0.0014438896,0.71,0.68,0.24,24633,9950.90,0,0,165,0.42,-3.08,0.07,0.71,0.68,0.24
-11.535156,0.0015872568,6.2465295E-4,-4.4388953E-4,0.72,0.69,0.24,24648,9950.90,0,0,0,0.49,-3.08,0.14,0.72,0.69,0.24
-10.635742,5.8725616E-4,-3.7534907E-4,0.0025561103,0.71,0.68,0.24,24663,9951.80,0,0,165,0.42,-3.15,0.35,0.71,0.68,0.24
-11.235352,-4.1274354E-4,-3.7534907E-4,0.0025561103,0.72,0.68,0.24,24670,9951.20,0,0,0,0.35,-3.15,0.35,0.72,0.68,0.24
-11.535156,-0.0014127432,-3.7534907E-4,0.00355611,0.71,0.68,0.24,24685,9950.90,0,0,165,0.28,-3.15,0.42,0.71,0.68,0.24
-11.535156,0.0015872568,6.2465295E-4,-4.4388953E-4,0.72,0.68,0.24,24701,9950.90,0,0,0,0.49,-3.08,0.14,0.72,0.68,0.24
-11.535156,0.0015872568,6.2465295E-4,-0.0034438898,0.71,0.68,0.24,24708,9950.90,0,0,165,0.49,-3.08,-0.07,0.71,0.68,0.24
-11.535156,0.0015872568,6.2465295E-4,-0.0034438898,0.71,0.68,0.24,24723,9950.90,0,0,0,0.49,-3.08,-0.07,0.71,0.68,0.24
-11.535156,-4.1274354E-4,-3.7534907E-4,-0.0034438898,0.71,0.68,0.24,24737,9950.90,0,0,165,0.35,-3.15,-0.07,0.71,0.68,0.24
-11.535156,-4.1274354E-4,-0.0013753474,0.0025561103,0.71,0.68,0.24,24745,9950.90,0,0,0,0.35,-3.22,0.35,0.71,0.68,0.24
-11.535156,-0.0014127432,-3.7534907E-4,0.0025561103,0.71,0.68,0.24,24761,9950.90,0,0,165,0.28,-3.15,0.35,0.71,0.68,0.24
-10.635742,-0.0014127432,-3.7534907E-4,0.00655611,0.71,0.68,0.24,24775,9951.80,0,0,0,0.28,-3.15,0.63,0.71,0.68,0.24
-10.635742,-0.0014127432,6.2465295E-4,0.00655611,0.71,0.68,0.24,24783,9951.80,0,0,165,0.28,-3.08,0.63,0.71,0.68,0.24
-11.535156,5.8725616E-4,0.0016246513,-4.4388953E-4,0.72,0.68,0.24,24798,9950.90,0,0,0,0.42,-3.01,0.14,0.72,0.68,0.24
-11.535156,0.002587257,6.2465295E-4,-0.0024438896,0.72,0.68,0.24,24812,9950.90,0,0,165,0.56,-3.08,0.00,0.72,0.68,0.24
-11.535156,5.8725616E-4,6.2465295E-4,-0.0044438895,0.72,0.68,0.24,24821,9950.90,0,0,0,0.42,-3.08,-0.14,0.72,0.68,0.24
-11.535156,0.0015872568,0.0016246513,-0.0034438898,0.72,0.68,0.24,24835,9950.90,0,0,165,0.49,-3.01,-0.07,0.72,0.68,0.24
-11.935547,-4.1274354E-4,6.2465295E-4,-4.4388953E-4,0.71,0.68,0.24,24850,9950.50,0,0,0,0.35,-3.08,0.14,0.71,0.68,0.24
-11.535156,-4.1274354E-4,-3.7534907E-4,-4.4388953E-4,0.71,0.68,0.23,24858,9950.90,0,0,165,0.35,-3.15,0.14,0.71,0.68,0.23
-11.535156,5.8725616E-4,0.0016246513,0.0015561106,0.71,0.68,0.24,24873,9950.90,0,0,0,0.42,-3.01,0.28,0.71,0.68,0.24
-11.535156,0.0015872568,6.2465295E-4,0.0015561106,0.71,0.68,0.24,24888,9950.90,0,0,165,0.49,-3.08,0.28,0.71,0.68,0.24
-12.235352,0.0015872568,6.2465295E-4,-0.0014438896,0.71,0.68,0.23,24895,9950.20,0,0,0,0.49,-3.08,0.07,0.71,0.68,0.23
-10.635742,0.0015872568,0.0016246513,5.561102E-4,0.72,0.68,0.24,24910,9951.80,0,0,165,0.49,-3.01,0.21,0.72,0.68,0.24
-11.535156,-4.1274354E-4,6.2465295E-4,-4.4388953E-4,0.72,0.68,0.24,24925,9950.90,0,0,0,0.35,-3.08,0.14,0.72,0.68,0.24
-11.535156,-0.0014127432,-3.7534907E-4,0.0015561106,0.72,0.68,0.24,24933,9950.90,0,0,165,0.28,-3.15,0.28,0.72,0.68,0.24
-11.535156,5.8725616E-4,0.0016246513,0.0025561103,0.71,0.68,0.23,24948,9950.90,0,0,0,0.42,-3.01,0.35,0.71,0.68,0.23
-11.535156,-4.1274354E-4,6.2465295E-4,-4.4388953E-4,0.71,0.68,0.24,24963,9950.90,0,0,165,0.35,-3.08,0.14,0.71,0.68,0.24
-11.535156,5.8725616E-4,6.2465295E-4,-0.0014438896,0.71,0.68,0.23,24970,9950.90,0,0,0,0.42,-3.08,0.07,0.71,0.68,0.23
-10.635742,0.0015872568,6.2465295E-4,0.0015561106,0.71,0.68,0.24,24986,9951.80,0,0,165,0.49,-3.08,0.28,0.71,0.68,0.24
-12.535156,5.8725616E-4,6.2465295E-4,-4.4388953E-4,0.71,0.68,0.24,25001,9949.90,0,0,0,0.42,-3.08,0.14,0.71,0.68,0.24
-11.535156,-4.1274354E-4,6.2465295E-4,0.0025561103,0.72,0.68,0.24,25008,9950.90,0,0,165,0.35,-3.08,0.35,0.72,0.68,0.24
-11.535156,0.0015872568,0.0016246513,0.00355611,0.71,0.68,0.23,25023,9950.90,0,0,0,0.49,-3.01,0.42,0.71,0.68,0.23
-10.635742,-4.1274354E-4,6.2465295E-4,0.0015561106,0.72,0.68,0.24,25038,9951.80,0,0,165,0.35,-3.08,0.28,0.72,0.68,0.24
-11.535156,-4.1274354E-4,-3.7534907E-4,5.561102E-4,0.72,0.68,0.23,25045,9950.90,0,0,0,0.35,-3.15,0.21,0.72,0.68,0.23
-12.535156,0.0015872568,6.2465295E-4,-0.0024438896,0.71,0.68,0.24,25061,9949.90,0,0,165,0.49,-3.08,0.00,0.71,0.68,0.24
-11.535156,0.0015872568,6.2465295E-4,-0.00644389,0.72,0.68,0.24,25075,9950.90,0,0,0,0.49,-3.08,-0.28,0.72,0.68,0.24
-9.635742,0.002587257,0.0016246513,-0.0034438898,0.71,0.68,0.24,25083,9952.80,0,0,165,0.56,-3.01,-0.07,0.71,0.68,0.24
-11.935547,5.8725616E-4,6.2465295E-4,-4.4388953E-4,0.71,0.68,0.24,25097,9950.50,0,0,0,0.42,-3.08,0.14,0.71,0.68,0.24
-12.535156,-4.1274354E-4,-3.7534907E-4,0.0025561103,0.71,0.68,0.24,25113,9949.90,0,0,165,0.35,-3.15,0.35,0.71,0.68,0.24
-10.635742,-4.1274354E-4,-3.7534907E-4,0.0045561106,0.71,0.68,0.24,25120,9951.80,0,0,0,0.35,-3.15,0.49,0.71,0.68,0.24
-11.535156,-4.1274354E-4,0.0016246513,0.00655611,0.72,0.68,0.23,25135,9950.90,0,0,165,0.35,-3.01,0.63,0.72,0.68,0.23
-11.535156,-0.0014127432,-3.7534907E-4,0.0015561106,0.72,0.68,0.23,25150,9950.90,0,0,0,0.28,-3.15,0.28,0.72,0.68,0.23
-11.535156,5.8725616E-4,0.0016246513,-4.4388953E-4,0.71,0.68,0.24,25158,9950.90,0,0,165,0.42,-3.01,0.14,0.71,0.68,0.24
-11.535156,0.0015872568,6.2465295E-4,-0.0034438898,0.71,0.68,0.23,25173,9950.90,0,0,0,0.49,-3.08,-0.07,0.71,0.68,0.23
-10.635742,0.0015872568,6.2465295E-4,-0.0054438896,0.71,0.68,0.24,25188,9951.80,0,0,165,0.49,-3.08,-0.21,0.71,0.68,0.24
-11.535156,0.0015872568,0.0016246513,-0.0034438898,0.71,0.68,0.24,25195,9950.90,0,0,0,0.49,-3.01,-0.07,0.71,0.68,0.24
-12.535156,5.8725616E-4,0.0016246513,0.0025561103,0.71,0.68,0.24,25211,9949.90,0,0,165,0.42,-3.01,0.35,0.71,0.68,0.24
-12.535156,-0.0014127432,-3.7534907E-4,0.0045561106,0.71,0.68,0.24,25226,9949.90,0,0,0,0.28,-3.15,0.49,0.71,0.68,0.24
-11.235352,-4.1274354E-4,6.2465295E-4,0.00655611,0.72,0.68,0.24,25239,9951.20,0,0,165,0.35,-3.08,0.63,0.72,0.68,0.24
-11.535156,5.8725616E-4,-3.7534907E-4,0.0025561103,0.72,0.68,0.24,25252,9950.90,0,0,0,0.42,-3.15,0.35,0.72,0.68,0.24
-10.635742,5.8725616E-4,-3.7534907E-4,-4.4388953E-4,0.72,0.68,0.23,25262,9951.80,0,0,165,0.42,-3.15,0.14,0.72,0.68,0.23
-11.535156,0.0015872568,6.2465295E-4,-0.0034438898,0.72,0.68,0.23,25270,9950.90,0,0,0,0.49,-3.08,-0.07,0.72,0.68,0.23
-11.535156,0.002587257,6.2465295E-4,-0.0024438896,0.72,0.68,0.23,25285,9950.90,0,0,165,0.56,-3.08,0.00,0.72,0.68,0.23
-12.535156,0.0015872568,0.0016246513,-0.0034438898,0.71,0.68,0.23,25302,9949.90,0,0,0,0.49,-3.01,-0.07,0.71,0.68,0.23
-11.535156,0.0015872568,6.2465295E-4,5.561102E-4,0.72,0.68,0.23,25308,9950.90,0,0,165,0.49,-3.08,0.21,0.72,0.68,0.23
-10.635742,5.8725616E-4,-3.7534907E-4,-4.4388953E-4,0.71,0.68,0.24,25323,9951.80,0,0,0,0.42,-3.15,0.14,0.71,0.68,0.24
-11.535156,-0.0014127432,6.2465295E-4,0.00355611,0.71,0.68,0.24,25338,9950.90,0,0,165,0.28,-3.08,0.42,0.71,0.68,0.24
-11.235352,5.8725616E-4,6.2465295E-4,-4.4388953E-4,0.71,0.68,0.24,25345,9951.20,0,0,0,0.42,-3.08,0.14,0.71,0.68,0.24
-10.635742,0.0015872568,6.2465295E-4,0.0015561106,0.71,0.68,0.24,25361,9951.80,0,0,165,0.49,-3.08,0.28,0.71,0.68,0.24
-11.535156,5.8725616E-4,6.2465295E-4,-0.0014438896,0.71,0.68,0.23,25376,9950.90,0,0,0,0.42,-3.08,0.07,0.71,0.68,0.23
-11.535156,0.0015872568,6.2465295E-4,0.0015561106,0.72,0.68,0.24,25384,9950.90,0,0,165,0.49,-3.08,0.28,0.72,0.68,0.24
-10.635742,5.8725616E-4,-3.7534907E-4,0.0025561103,0.72,0.68,0.23,25398,9951.80,0,0,0,0.42,-3.15,0.35,0.72,0.68,0.23
-11.535156,5.8725616E-4,6.2465295E-4,5.561102E-4,0.72,0.68,0.23,25413,9950.90,0,0,165,0.42,-3.08,0.21,0.72,0.68,0.23
-11.535156,-0.0014127432,-3.7534907E-4,-0.0014438896,0.72,0.68,0.23,25421,9950.90,0,0,0,0.28,-3.15,0.07,0.72,0.68,0.23
-11.535156,5.8725616E-4,0.0016246513,-0.0054438896,0.71,0.68,0.24,25436,9950.90,0,0,165,0.42,-3.01,-0.21,0.71,0.68,0.24
-10.635742,0.002587257,0.0016246513,-0.00644389,0.71,0.68,0.24,25451,9951.80,0,0,0,0.56,-3.01,-0.28,0.71,0.68,0.24
-11.535156,5.8725616E-4,6.2465295E-4,-0.0054438896,0.72,0.68,0.24,25458,9950.90,0,0,165,0.42,-3.08,-0.21,0.72,0.68,0.24
-11.535156,5.8725616E-4,-3.7534907E-4,5.561102E-4,0.71,0.68,0.24,25472,9950.90,0,0,0,0.42,-3.15,0.21,0.71,0.68,0.24
-11.535156,0.0015872568,6.2465295E-4,0.0055561108,0.71,0.68,0.24,25487,9950.90,0,0,165,0.49,-3.08,0.56,0.71,0.68,0.24
-11.535156,-0.0014127432,-0.0013753474,0.011556111,0.72,0.68,0.23,25496,9950.90,0,0,0,0.28,-3.22,0.98,0.72,0.68,0.23
-11.535156,-0.0014127432,6.2465295E-4,0.009556109,0.72,0.68,0.23,25511,9950.90,0,0,165,0.28,-3.08,0.84,0.72,0.68,0.23
-11.535156,-4.1274354E-4,6.2465295E-4,0.00355611,0.72,0.68,0.23,25526,9950.90,0,0,0,0.35,-3.08,0.42,0.72,0.68,0.23
-11.535156,5.8725616E-4,-3.7534907E-4,-0.0034438898,0.72,0.68,0.24,25535,9950.90,0,0,165,0.42,-3.15,-0.07,0.72,0.68,0.24
-11.535156,-4.1274354E-4,0.0026246533,-0.00944389,0.71,0.68,0.24,25548,9950.90,0,0,0,0.35,-2.94,-0.49,0.71,0.68,0.24
-11.535156,0.0015872568,6.2465295E-4,-0.00944389,0.71,0.68,0.24,25563,9950.90,0,0,165,0.49,-3.08,-0.49,0.71,0.68,0.24
-12.535156,0.0015872568,6.2465295E-4,-0.0034438898,0.71,0.68,0.24,25570,9949.90,0,0,0,0.49,-3.08,-0.07,0.71,0.68,0.24
-11.535156,-4.1274354E-4,6.2465295E-4,0.0045561106,0.71,0.68,0.24,25585,9950.90,0,0,165,0.35,-3.08,0.49,0.71,0.68,0.24
-11.535156,5.8725616E-4,-3.7534907E-4,0.008556111,0.71,0.68,0.24,25602,9950.90,0,0,0,0.42,-3.15,0.77,0.71,0.68,0.24
-11.535156,-4.1274354E-4,6.2465295E-4,0.009556109,0.71,0.68,0.24,25608,9950.90,0,0,165,0.35,-3.08,0.84,0.71,0.68,0.24
-11.535156,5.8725616E-4,6.2465295E-4,0.00355611,0.71,0.68,0.24,25622,9950.90,0,0,0,0.42,-3.08,0.42,0.71,0.68,0.24
-12.535156,0.0035872562,6.2465295E-4,-0.0054438896,0.72,0.68,0.23,25637,9949.90,0,0,165,0.63,-3.08,-0.21,0.72,0.68,0.23
-10.635742,0.0035872562,0.0016246513,-0.00644389,0.72,0.68,0.23,25645,9951.80,0,0,0,0.63,-3.01,-0.28,0.72,0.68,0.23
-11.535156,0.0015872568,0.0016246513,-0.00944389,0.72,0.68,0.23,25660,9950.90,0,0,165,0.49,-3.01,-0.49,0.72,0.68,0.23
-11.535156,5.8725616E-4,0.0026246533,-0.0014438896,0.72,0.69,0.24,25676,9950.90,0,0,0,0.42,-2.94,0.07,0.72,0.69,0.24
-11.535156,5.8725616E-4,0.0016246513,0.00655611,0.71,0.68,0.24,25685,9950.90,0,0,165,0.42,-3.01,0.63,0.71,0.68,0.24
-12.535156,-0.0024127436,6.2465295E-4,0.008556111,0.71,0.68,0.24,25698,9949.90,0,0,0,0.21,-3.08,0.77,0.71,0.68,0.24
-12.535156,-0.0014127432,-3.7534907E-4,0.009556109,0.72,0.68,0.24,25713,9949.90,0,0,165,0.28,-3.15,0.84,0.72,0.68,0.24
-11.235352,-4.1274354E-4,-3.7534907E-4,0.0045561106,0.71,0.68,0.24,25721,9951.20,0,0,0,0.35,-3.15,0.49,0.71,0.68,0.24
-11.535156,0.0015872568,6.2465295E-4,-0.0014438896,0.72,0.68,0.24,25736,9950.90,0,0,165,0.49,-3.08,0.07,0.72,0.68,0.24
-12.535156,0.0015872568,0.0016246513,-0.0054438896,0.72,0.68,0.23,25752,9949.90,0,0,0,0.49,-3.01,-0.21,0.72,0.68,0.23
-11.535156,5.8725616E-4,6.2465295E-4,-0.0074438895,0.72,0.68,0.23,25758,9950.90,0,0,165,0.42,-3.08,-0.35,0.72,0.68,0.23
-12.235352,0.0015872568,6.2465295E-4,-0.0014438896,0.71,0.68,0.24,25773,9950.20,0,0,0,0.49,-3.08,0.07,0.71,0.68,0.24
-11.535156,-0.0014127432,6.2465295E-4,0.0015561106,0.71,0.68,0.24,25787,9950.90,0,0,165,0.28,-3.08,0.28,0.71,0.68,0.24
-11.235352,-4.1274354E-4,6.2465295E-4,0.0015561106,0.71,0.68,0.24,25795,9951.20,0,0,0,0.35,-3.08,0.28,0.71,0.68,0.24
-11.535156,-4.1274354E-4,-3.7534907E-4,5.561102E-4,0.71,0.68,0.24,25811,9950.90,0,0,165,0.35,-3.15,0.21,0.71,0.68,0.24
-10.635742,0.0015872568,6.2465295E-4,-0.0024438896,0.71,0.68,0.24,25825,9951.80,0,0,0,0.49,-3.08,0.00,0.71,0.68,0.24
-11.535156,0.0015872568,-0.0013753474,-0.0054438896,0.71,0.68,0.24,25835,9950.90,0,0,165,0.49,-3.22,-0.21,0.71,0.68,0.24
-11.535156,5.8725616E-4,0.0016246513,-0.0024438896,0.71,0.68,0.24,25850,9950.90,0,0,0,0.42,-3.01,0.00,0.71,0.68,0.24
-11.535156,-4.1274354E-4,-3.7534907E-4,0.0015561106,0.71,0.68,0.24,25863,9950.90,0,0,165,0.35,-3.15,0.28,0.71,0.68,0.24
-10.635742,-0.0014127432,6.2465295E-4,0.0055561108,0.72,0.68,0.24,25870,9951.80,0,0,0,0.28,-3.08,0.56,0.72,0.68,0.24
-11.535156,-0.0014127432,-3.7534907E-4,0.00655611,0.72,0.68,0.23,25886,9950.90,0,0,165,0.28,-3.15,0.63,0.72,0.68,0.23
-11.535156,-4.1274354E-4,-3.7534907E-4,0.0045561106,0.72,0.68,0.24,25902,9950.90,0,0,0,0.35,-3.15,0.49,0.72,0.68,0.24
-12.535156,-0.0014127432,6.2465295E-4,-0.0024438896,0.72,0.68,0.24,25907,9949.90,0,0,165,0.28,-3.08,0.00,0.72,0.68,0.24
-12.535156,0.0015872568,6.2465295E-4,-0.008443889,0.71,0.68,0.23,25923,9949.90,0,0,0,0.49,-3.08,-0.42,0.71,0.68,0.23
-11.535156,0.002587257,6.2465295E-4,-0.0074438895,0.71,0.68,0.24,25938,9950.90,0,0,165,0.56,-3.08,-0.35,0.71,0.68,0.24
-11.535156,5.8725616E-4,6.2465295E-4,-0.0024438896,0.71,0.68,0.24,25953,9950.90,0,0,0,0.42,-3.08,0.00,0.71,0.68,0.24
-11.535156,0.0015872568,6.2465295E-4,0.00355611,0.71,0.68,0.24,25962,9950.90,0,0,165,0.49,-3.08,0.42,0.71,0.68,0.24
-12.535156,-4.1274354E-4,-3.7534907E-4,0.008556111,0.71,0.68,0.24,25975,9949.90,0,0,0,0.35,-3.15,0.77,0.71,0.68,0.24
-10.635742,-4.1274354E-4,6.2465295E-4,0.008556111,0.72,0.68,0.23,25997,9951.80,0,0,165,0.35,-3.08,0.77,0.72,0.68,0.23
-11.535156,-4.1274354E-4,6.2465295E-4,0.00355611,0.72,0.68,0.23,25998,9950.90,0,0,0,0.35,-3.08,0.42,0.72,0.68,0.23
-10.635742,5.8725616E-4,0.0016246513,-0.0054438896,0.72,0.68,0.23,26012,9951.80,0,0,165,0.42,-3.01,-0.21,0.72,0.68,0.23
-11.535156,0.0015872568,6.2465295E-4,-0.0104438905,0.72,0.68,0.23,26020,9950.90,0,0,0,0.49,-3.08,-0.56,0.72,0.68,0.23
-10.635742,5.8725616E-4,6.2465295E-4,-0.011443889,0.71,0.68,0.24,26035,9951.80,0,0,165,0.42,-3.08,-0.63,0.71,0.68,0.24
-11.535156,0.0035872562,0.0016246513,-0.0044438895,0.71,0.68,0.24,26051,9950.90,0,0,0,0.63,-3.01,-0.14,0.71,0.68,0.24
-11.535156,-4.1274354E-4,0.0016246513,0.0055561108,0.71,0.68,0.24,26058,9950.90,0,0,165,0.35,-3.01,0.56,0.71,0.68,0.24
-12.535156,-0.0014127432,-0.0013753474,0.01255611,0.71,0.68,0.24,26073,9949.90,0,0,0,0.28,-3.22,1.05,0.71,0.68,0.24
-11.535156,-0.0024127436,6.2465295E-4,0.014556112,0.72,0.68,0.24,26087,9950.90,0,0,165,0.21,-3.08,1.19,0.72,0.68,0.24
-11.535156,-0.0014127432,6.2465295E-4,0.00755611,0.72,0.68,0.23,26095,9950.90,0,0,0,0.28,-3.08,0.70,0.72,0.68,0.23
-11.235352,-4.1274354E-4,0.0026246533,-0.0034438898,0.72,0.68,0.23,26110,9951.20,0,0,165,0.35,-2.94,-0.07,0.72,0.68,0.23
-12.535156,0.002587257,0.0016246513,-0.00944389,0.71,0.68,0.23,26125,9949.90,0,0,0,0.56,-3.01,-0.49,0.71,0.68,0.23
-11.235352,0.002587257,0.0016246513,-0.00944389,0.71,0.68,0.23,26141,9951.20,0,0,165,0.56,-3.01,-0.49,0.71,0.68,0.23
-9.635742,0.0035872562,6.2465295E-4,-0.0044438895,0.71,0.68,0.23,26156,9952.80,0,0,0,0.63,-3.08,-0.14,0.71,0.68,0.23
-11.535156,-4.1274354E-4,6.2465295E-4,5.561102E-4,0.71,0.68,0.24,26162,9950.90,0,0,165,0.35,-3.08,0.21,0.71,0.68,0.24
-11.535156,-0.0014127432,6.2465295E-4,0.0055561108,0.71,0.68,0.24,26171,9950.90,0,0,0,0.28,-3.08,0.56,0.71,0.68,0.24
-10.635742,-4.1274354E-4,6.2465295E-4,0.008556111,0.71,0.68,0.24,26186,9951.80,0,0,165,0.35,-3.08,0.77,0.71,0.68,0.24
-11.535156,5.8725616E-4,6.2465295E-4,0.0055561108,0.71,0.68,0.24,26200,9950.90,0,0,0,0.42,-3.08,0.56,0.71,0.68,0.24
-11.535156,5.8725616E-4,-3.7534907E-4,-0.0024438896,0.72,0.68,0.24,26208,9950.90,0,0,165,0.42,-3.15,0.00,0.72,0.68,0.24
-11.535156,0.0015872568,6.2465295E-4,-0.0074438895,0.72,0.68,0.23,26222,9950.90,0,0,0,0.49,-3.08,-0.35,0.72,0.68,0.23
-12.535156,5.8725616E-4,6.2465295E-4,-0.0054438896,0.72,0.68,0.24,26238,9949.90,0,0,165,0.42,-3.08,-0.21,0.72,0.68,0.24
-11.535156,5.8725616E-4,6.2465295E-4,-4.4388953E-4,0.71,0.68,0.24,26245,9950.90,0,0,0,0.42,-3.08,0.14,0.71,0.68,0.24
-11.535156,-4.1274354E-4,-3.7534907E-4,0.0025561103,0.72,0.68,0.24,26260,9950.90,0,0,165,0.35,-3.15,0.35,0.72,0.68,0.24
-11.535156,-0.0014127432,6.2465295E-4,0.00655611,0.71,0.68,0.24,26275,9950.90,0,0,0,0.28,-3.08,0.63,0.71,0.68,0.24
-11.535156,-0.0024127436,6.2465295E-4,0.0025561103,0.71,0.68,0.24,26283,9950.90,0,0,165,0.21,-3.08,0.35,0.71,0.68,0.24
-11.535156,5.8725616E-4,6.2465295E-4,0.0015561106,0.72,0.68,0.24,26298,9950.90,0,0,0,0.42,-3.08,0.28,0.72,0.68,0.24
-12.235352,0.0015872568,-3.7534907E-4,-0.0034438898,0.71,0.68,0.24,26312,9950.20,0,0,165,0.49,-3.15,-0.07,0.71,0.68,0.24
-12.535156,0.0015872568,6.2465295E-4,-0.0034438898,0.71,0.68,0.23,26320,9949.90,0,0,0,0.49,-3.08,-0.07,0.71,0.68,0.23
-11.535156,0.0015872568,0.0016246513,0.0015561106,0.71,0.68,0.24,26338,9950.90,0,0,165,0.49,-3.01,0.28,0.71,0.68,0.24
-12.535156,-4.1274354E-4,6.2465295E-4,0.00355611,0.72,0.68,0.23,26358,9949.90,0,0,0,0.35,-3.08,0.42,0.72,0.68,0.23
-12.535156,5.8725616E-4,-3.7534907E-4,0.00655611,0.71,0.68,0.24,26359,9949.90,0,0,165,0.42,-3.15,0.63,0.71,0.68,0.24
-12.535156,-4.1274354E-4,6.2465295E-4,0.0055561108,0.72,0.68,0.24,26373,9949.90,0,0,0,0.35,-3.08,0.56,0.72,0.68,0.24
-12.535156,5.8725616E-4,0.0016246513,-0.0024438896,0.72,0.68,0.24,26387,9949.90,0,0,165,0.42,-3.01,0.00,0.72,0.68,0.24
-12.535156,0.0015872568,6.2465295E-4,-0.0044438895,0.71,0.68,0.24,26395,9949.90,0,0,0,0.49,-3.08,-0.14,0.71,0.68,0.24
-11.535156,0.0035872562,6.2465295E-4,-0.008443889,0.72,0.68,0.24,26410,9950.90,0,0,165,0.63,-3.08,-0.42,0.72,0.68,0.24
-11.535156,0.0015872568,0.0016246513,-0.00644389,0.71,0.68,0.24,26418,9950.90,0,0,0,0.49,-3.01,-0.28,0.71,0.68,0.24
-11.535156,5.8725616E-4,-3.7534907E-4,-4.4388953E-4,0.71,0.68,0.24,26433,9950.90,0,0,165,0.42,-3.15,0.14,0.71,0.68,0.24
-12.535156,-0.0024127436,-3.7534907E-4,0.00755611,0.71,0.68,0.24,26447,9949.90,0,0,0,0.21,-3.15,0.70,0.71,0.68,0.24
-12.535156,-4.1274354E-4,6.2465295E-4,0.010556111,0.72,0.68,0.23,26463,9949.90,0,0,165,0.35,-3.08,0.91,0.72,0.68,0.23
-11.535156,-0.0014127432,6.2465295E-4,0.008556111,0.72,0.68,0.23,26470,9950.90,0,0,0,0.28,-3.08,0.77,0.72,0.68,0.23
-11.535156,0.0015872568,6.2465295E-4,-4.4388953E-4,0.72,0.68,0.24,26485,9950.90,0,0,165,0.49,-3.08,0.14,0.72,0.68,0.24
-13.435547,0.0045872563,0.0036246553,-0.0054438896,0.71,0.68,0.24,26493,9949.00,0,0,0,0.70,-2.87,-0.21,0.71,0.68,0.24
-11.535156,0.0045872563,0.0016246513,-0.0104438905,0.71,0.68,0.23,26507,9950.90,0,0,165,0.70,-3.01,-0.56,0.71,0.68,0.23
-11.535156,-4.1274354E-4,6.2465295E-4,-0.0074438895,0.71,0.68,0.24,26516,9950.90,0,0,0,0.35,-3.08,-0.35,0.71,0.68,0.24
-11.535156,0.0015872568,0.0026246533,5.561102E-4,0.71,0.68,0.24,26530,9950.90,0,0,165,0.49,-2.94,0.21,0.71,0.68,0.24
-11.535156,0.0015872568,6.2465295E-4,0.00355611,0.71,0.68,0.24,26545,9950.90,0,0,0,0.49,-3.08,0.42,0.71,0.68,0.24
-13.435547,-0.0034127433,-0.0023753457,0.009556109,0.72,0.69,0.23,26553,9949.00,0,0,165,0.14,-3.29,0.84,0.72,0.69,0.23
-11.535156,0.0015872568,0.0036246553,0.009556109,0.72,0.68,0.24,26568,9950.90,0,0,0,0.49,-2.87,0.84,0.72,0.68,0.24
-11.535156,5.8725616E-4,6.2465295E-4,-4.4388953E-4,0.71,0.68,0.24,26583,9950.90,0,0,165,0.42,-3.08,0.14,0.71,0.68,0.24
-11.535156,5.8725616E-4,6.2465295E-4,-0.00644389,0.72,0.68,0.23,26590,9950.90,0,0,0,0.42,-3.08,-0.28,0.72,0.68,0.23
-11.935547,0.0035872562,0.0026246533,-0.0104438905,0.71,0.68,0.24,26605,9950.50,0,0,165,0.63,-2.94,-0.56,0.71,0.68,0.24
-11.535156,0.002587257,-3.7534907E-4,-0.008443889,0.71,0.68,0.24,26620,9950.90,0,0,0,0.56,-3.15,-0.42,0.71,0.68,0.24
-11.535156,0.0015872568,6.2465295E-4,-0.0014438896,0.71,0.68,0.23,26628,9950.90,0,0,165,0.49,-3.08,0.07,0.71,0.68,0.23
-11.535156,0.0015872568,6.2465295E-4,0.009556109,0.71,0.68,0.24,26643,9950.90,0,0,0,0.49,-3.08,0.84,0.71,0.68,0.24
-10.635742,-0.0014127432,-0.0023753457,0.010556111,0.71,0.68,0.24,26658,9951.80,0,0,165,0.28,-3.29,0.91,0.71,0.68,0.24
-11.535156,-4.1274354E-4,6.2465295E-4,0.008556111,0.72,0.68,0.24,26665,9950.90,0,0,0,0.35,-3.08,0.77,0.72,0.68,0.24
-12.535156,-4.1274354E-4,6.2465295E-4,0.00355611,0.71,0.68,0.24,26681,9949.90,0,0,165,0.35,-3.08,0.42,0.71,0.68,0.24
-10.635742,0.0015872568,-3.7534907E-4,-0.0044438895,0.71,0.68,0.23,26695,9951.80,0,0,0,0.49,-3.15,-0.14,0.71,0.68,0.23
-11.535156,0.0015872568,6.2465295E-4,-0.0074438895,0.72,0.68,0.23,26703,9950.90,0,0,165,0.49,-3.08,-0.35,0.72,0.68,0.23
-11.535156,0.0015872568,-3.7534907E-4,-0.0054438896,0.72,0.68,0.24,26718,9950.90,0,0,0,0.49,-3.15,-0.21,0.72,0.68,0.24
-11.535156,0.002587257,0.0026246533,-0.0024438896,0.71,0.68,0.24,26733,9950.90,0,0,165,0.56,-2.94,0.00,0.71,0.68,0.24
-12.535156,5.8725616E-4,6.2465295E-4,0.00355611,0.71,0.68,0.23,26740,9949.90,0,0,0,0.42,-3.08,0.42,0.71,0.68,0.23
-12.235352,-4.1274354E-4,-3.7534907E-4,0.00355611,0.72,0.68,0.24,26755,9950.20,0,0,165,0.35,-3.15,0.42,0.72,0.68,0.24
-11.535156,-4.1274354E-4,-3.7534907E-4,0.0015561106,0.72,0.68,0.24,26771,9950.90,0,0,0,0.35,-3.15,0.28,0.72,0.68,0.24
-11.535156,0.002587257,6.2465295E-4,-0.0034438898,0.71,0.68,0.24,26778,9950.90,0,0,165,0.56,-3.08,-0.07,0.71,0.68,0.24
-11.535156,5.8725616E-4,-3.7534907E-4,-0.0044438895,0.72,0.68,0.24,26793,9950.90,0,0,0,0.42,-3.15,-0.14,0.72,0.68,0.24
-12.535156,0.0015872568,6.2465295E-4,-0.0024438896,0.71,0.68,0.23,26808,9949.90,0,0,165,0.49,-3.08,0.00,0.71,0.68,0.23
-11.535156,0.0015872568,6.2465295E-4,0.00355611,0.71,0.68,0.23,26815,9950.90,0,0,0,0.49,-3.08,0.42,0.71,0.68,0.23
-11.535156,-4.1274354E-4,-3.7534907E-4,0.00355611,0.72,0.68,0.23,26830,9950.90,0,0,165,0.35,-3.15,0.42,0.72,0.68,0.23
-12.535156,-0.0014127432,6.2465295E-4,0.00655611,0.72,0.68,0.23,26845,9949.90,0,0,0,0.28,-3.08,0.63,0.72,0.68,0.23
-11.535156,-4.1274354E-4,-0.0013753474,0.0015561106,0.72,0.68,0.24,26853,9950.90,0,0,165,0.35,-3.22,0.28,0.72,0.68,0.24
-12.535156,5.8725616E-4,0.0016246513,-0.0024438896,0.71,0.68,0.24,26868,9949.90,0,0,0,0.42,-3.01,0.00,0.71,0.68,0.24
-11.535156,0.002587257,6.2465295E-4,-0.0074438895,0.71,0.68,0.24,26883,9950.90,0,0,165,0.56,-3.08,-0.35,0.71,0.68,0.24
-12.535156,0.0015872568,0.0016246513,-0.0034438898,0.71,0.68,0.24,26890,9949.90,0,0,0,0.49,-3.01,-0.07,0.71,0.68,0.24
-12.535156,0.0015872568,6.2465295E-4,-0.0014438896,0.71,0.68,0.24,26905,9949.90,0,0,165,0.49,-3.08,0.07,0.71,0.68,0.24
-11.235352,-0.0024127436,6.2465295E-4,0.0045561106,0.72,0.68,0.24,26920,9951.20,0,0,0,0.21,-3.08,0.49,0.72,0.68,0.24
-11.535156,-0.0014127432,-3.7534907E-4,0.008556111,0.71,0.68,0.24,26927,9950.90,0,0,165,0.28,-3.15,0.77,0.71,0.68,0.24
-11.535156,5.8725616E-4,6.2465295E-4,0.00755611,0.72,0.68,0.23,26943,9950.90,0,0,0,0.42,-3.08,0.70,0.72,0.68,0.23
-12.535156,5.8725616E-4,0.0016246513,0.0015561106,0.71,0.68,0.23,26957,9949.90,0,0,165,0.42,-3.01,0.28,0.71,0.68,0.23
-12.535156,0.0015872568,6.2465295E-4,-0.00644389,0.72,0.68,0.23,26965,9949.90,0,0,0,0.49,-3.08,-0.28,0.72,0.68,0.23
-12.535156,0.0045872563,0.0026246533,-0.008443889,0.71,0.68,0.24,26981,9949.90,0,0,165,0.70,-2.94,-0.42,0.71,0.68,0.24
-11.535156,0.0015872568,6.2465295E-4,-0.008443889,0.71,0.68,0.23,26995,9950.90,0,0,0,0.49,-3.08,-0.42,0.71,0.68,0.23
-11.535156,0.0015872568,-3.7534907E-4,-0.0014438896,0.71,0.68,0.24,27002,9950.90,0,0,165,0.49,-3.15,0.07,0.71,0.68,0.24
-11.535156,-4.1274354E-4,6.2465295E-4,0.00755611,0.72,0.68,0.24,27018,9950.90,0,0,0,0.35,-3.08,0.70,0.72,0.68,0.24
-11.235352,5.8725616E-4,6.2465295E-4,0.00755611,0.72,0.68,0.24,27033,9951.20,0,0,165,0.42,-3.08,0.70,0.72,0.68,0.24
-12.535156,-4.1274354E-4,-3.7534907E-4,0.00655611,0.71,0.68,0.24,27040,9949.90,0,0,0,0.35,-3.15,0.63,0.71,0.68,0.24
-11.535156,5.8725616E-4,-3.7534907E-4,5.561102E-4,0.72,0.68,0.23,27055,9950.90,0,0,165,0.42,-3.15,0.21,0.72,0.68,0.23
-11.535156,0.0015872568,0.0016246513,-0.0054438896,0.72,0.68,0.23,27070,9950.90,0,0,0,0.49,-3.01,-0.21,0.72,0.68,0.23
-11.535156,0.0015872568,6.2465295E-4,-0.00644389,0.72,0.68,0.23,27077,9950.90,0,0,165,0.49,-3.08,-0.28,0.72,0.68,0.23
-11.535156,0.0015872568,6.2465295E-4,-0.00644389,0.71,0.68,0.23,27092,9950.90,0,0,0,0.49,-3.08,-0.28,0.71,0.68,0.23
-11.535156,0.0015872568,0.0016246513,0.0015561106,0.71,0.68,0.24,27107,9950.90,0,0,165,0.49,-3.01,0.28,0.71,0.68,0.24
-10.635742,5.8725616E-4,0.0016246513,0.0045561106,0.71,0.68,0.24,27115,9951.80,0,0,0,0.42,-3.01,0.49,0.71,0.68,0.24
-11.535156,5.8725616E-4,6.2465295E-4,0.00755611,0.71,0.68,0.24,27130,9950.90,0,0,165,0.42,-3.08,0.70,0.71,0.68,0.24
-11.535156,-4.1274354E-4,0.0016246513,0.0045561106,0.71,0.68,0.24,27145,9950.90,0,0,0,0.35,-3.01,0.49,0.71,0.68,0.24
-11.535156,5.8725616E-4,6.2465295E-4,5.561102E-4,0.71,0.68,0.24,27152,9950.90,0,0,165,0.42,-3.08,0.21,0.71,0.68,0.24
-12.235352,5.8725616E-4,-3.7534907E-4,-0.0044438895,0.72,0.68,0.23,27168,9950.20,0,0,0,0.42,-3.15,-0.14,0.72,0.68,0.23
-11.535156,5.8725616E-4,0.0016246513,-0.0054438896,0.72,0.68,0.23,27183,9950.90,0,0,165,0.42,-3.01,-0.21,0.72,0.68,0.23
-11.535156,5.8725616E-4,-3.7534907E-4,-0.0024438896,0.72,0.68,0.23,27190,9950.90,0,0,0,0.42,-3.15,0.00,0.72,0.68,0.23
-12.535156,5.8725616E-4,0.0016246513,0.0025561103,0.72,0.68,0.23,27206,9949.90,0,0,165,0.42,-3.01,0.35,0.72,0.68,0.23
-11.535156,5.8725616E-4,6.2465295E-4,0.0025561103,0.71,0.68,0.23,27220,9950.90,0,0,0,0.42,-3.08,0.35,0.71,0.68,0.23
-11.535156,-0.0014127432,6.2465295E-4,-4.4388953E-4,0.71,0.68,0.24,27227,9950.90,0,0,165,0.28,-3.08,0.14,0.71,0.68,0.24
-12.235352,0.0015872568,0.0016246513,-4.4388953E-4,0.72,0.68,0.24,27242,9950.20,0,0,0,0.49,-3.01,0.14,0.72,0.68,0.24
-11.535156,5.8725616E-4,6.2465295E-4,-0.0014438896,0.71,0.68,0.24,27257,9950.90,0,0,165,0.42,-3.08,0.07,0.71,0.68,0.24
-10.635742,0.002587257,-3.7534907E-4,0.0025561103,0.71,0.68,0.24,27265,9951.80,0,0,0,0.56,-3.15,0.35,0.71,0.68,0.24
-11.535156,-4.1274354E-4,6.2465295E-4,0.00355611,0.72,0.68,0.24,27281,9950.90,0,0,165,0.35,-3.08,0.42,0.72,0.68,0.24
-12.535156,-4.1274354E-4,6.2465295E-4,0.0045561106,0.71,0.68,0.24,27295,9949.90,0,0,0,0.35,-3.08,0.49,0.71,0.68,0.24
-12.535156,0.002587257,0.0016246513,5.561102E-4,0.71,0.68,0.23,27303,9949.90,0,0,165,0.56,-3.01,0.21,0.71,0.68,0.23
-11.535156,5.8725616E-4,6.2465295E-4,-0.0034438898,0.72,0.68,0.24,27318,9950.90,0,0,0,0.42,-3.08,-0.07,0.72,0.68,0.24
-11.535156,0.0015872568,-3.7534907E-4,-0.008443889,0.71,0.68,0.23,27334,9950.90,0,0,165,0.49,-3.15,-0.42,0.71,0.68,0.23
-12.535156,5.8725616E-4,0.0026246533,-0.008443889,0.71,0.68,0.23,27341,9949.90,0,0,0,0.42,-2.94,-0.42,0.71,0.68,0.23
-11.535156,0.0015872568,0.0016246513,-0.0054438896,0.71,0.68,0.24,27356,9950.90,0,0,165,0.49,-3.01,-0.21,0.71,0.68,0.24
-11.535156,-4.1274354E-4,6.2465295E-4,5.561102E-4,0.71,0.68,0.24,27371,9950.90,0,0,0,0.35,-3.08,0.21,0.71,0.68,0.24
-11.535156,-0.0014127432,6.2465295E-4,0.0055561108,0.71,0.68,0.24,27378,9950.90,0,0,165,0.28,-3.08,0.56,0.71,0.68,0.24
-11.535156,-0.0014127432,-3.7534907E-4,0.011556111,0.72,0.68,0.24,27392,9950.90,0,0,0,0.28,-3.15,0.98,0.72,0.68,0.24
-11.535156,-0.0014127432,6.2465295E-4,0.01255611,0.71,0.68,0.24,27407,9950.90,0,0,165,0.28,-3.08,1.05,0.71,0.68,0.24
-11.535156,-4.1274354E-4,0.0016246513,0.00355611,0.71,0.68,0.23,27416,9950.90,0,0,0,0.35,-3.01,0.42,0.71,0.68,0.23
-10.635742,-4.1274354E-4,6.2465295E-4,-0.0024438896,0.72,0.68,0.23,27430,9951.80,0,0,165,0.35,-3.08,0.00,0.72,0.68,0.23
-10.635742,5.8725616E-4,-3.7534907E-4,-0.0054438896,0.72,0.68,0.24,27445,9951.80,0,0,0,0.42,-3.15,-0.21,0.72,0.68,0.24
-10.3359375,0.002587257,6.2465295E-4,-0.008443889,0.71,0.68,0.24,27453,9952.10,0,0,165,0.56,-3.08,-0.42,0.71,0.68,0.24
-11.535156,5.8725616E-4,-0.0013753474,-0.00644389,0.71,0.68,0.24,27468,9950.90,0,0,0,0.42,-3.22,-0.28,0.71,0.68,0.24
-11.535156,0.0015872568,0.0026246533,-0.0014438896,0.72,0.68,0.24,27483,9950.90,0,0,165,0.49,-2.94,0.07,0.72,0.68,0.24
-11.235352,-4.1274354E-4,6.2465295E-4,0.0015561106,0.72,0.68,0.24,27490,9951.20,0,0,0,0.35,-3.08,0.28,0.72,0.68,0.24
-11.535156,-4.1274354E-4,-0.0013753474,-4.4388953E-4,0.71,0.68,0.24,27506,9950.90,0,0,165,0.35,-3.22,0.14,0.71,0.68,0.24
-11.535156,-0.0014127432,0.0016246513,5.561102E-4,0.71,0.68,0.24,27520,9950.90,0,0,0,0.28,-3.01,0.21,0.71,0.68,0.24
-11.535156,5.8725616E-4,-3.7534907E-4,0.0015561106,0.71,0.68,0.24,27527,9950.90,0,0,165,0.42,-3.15,0.28,0.71,0.68,0.24
-10.635742,5.8725616E-4,-3.7534907E-4,0.00355611,0.71,0.68,0.23,27542,9951.80,0,0,0,0.42,-3.15,0.42,0.71,0.68,0.23
-12.235352,-4.1274354E-4,6.2465295E-4,0.00355611,0.71,0.68,0.23,27557,9950.20,0,0,165,0.35,-3.08,0.42,0.71,0.68,0.23
-10.3359375,-4.1274354E-4,6.2465295E-4,0.008556111,0.71,0.68,0.23,27565,9952.10,0,0,0,0.35,-3.08,0.77,0.71,0.68,0.23
-11.535156,-0.0024127436,0.0016246513,0.00655611,0.72,0.68,0.23,27588,9950.90,0,0,165,0.21,-3.01,0.63,0.72,0.68,0.23
-11.535156,0.0015872568,6.2465295E-4,-0.0044438895,0.72,0.68,0.23,27595,9950.90,0,0,0,0.49,-3.08,-0.14,0.72,0.68,0.23
-12.535156,0.0015872568,0.0016246513,-0.008443889,0.71,0.68,0.24,27602,9949.90,0,0,165,0.49,-3.01,-0.42,0.71,0.68,0.24
-12.535156,0.0015872568,6.2465295E-4,-0.013443889,0.71,0.68,0.24,27618,9949.90,0,0,0,0.49,-3.08,-0.77,0.71,0.68,0.24
-11.535156,0.002587257,0.0016246513,-0.00644389,0.71,0.68,0.24,27633,9950.90,0,0,165,0.56,-3.01,-0.28,0.71,0.68,0.24
-11.535156,5.8725616E-4,-3.7534907E-4,5.561102E-4,0.71,0.69,0.24,27640,9950.90,0,0,0,0.42,-3.15,0.21,0.71,0.69,0.24
-11.535156,-0.0014127432,6.2465295E-4,0.009556109,0.72,0.68,0.24,27655,9950.90,0,0,165,0.28,-3.08,0.84,0.72,0.68,0.24
-11.535156,-4.1274354E-4,6.2465295E-4,0.009556109,0.72,0.68,0.24,27670,9950.90,0,0,0,0.35,-3.08,0.84,0.72,0.68,0.24
-12.535156,-4.1274354E-4,6.2465295E-4,0.00655611,0.72,0.68,0.23,27678,9949.90,0,0,165,0.35,-3.08,0.63,0.72,0.68,0.23
-11.535156,5.8725616E-4,0.0026246533,-0.0034438898,0.72,0.68,0.23,27693,9950.90,0,0,0,0.42,-2.94,-0.07,0.72,0.68,0.23
-12.535156,0.0035872562,6.2465295E-4,-0.0104438905,0.71,0.68,0.24,27708,9949.90,0,0,165,0.63,-3.08,-0.56,0.71,0.68,0.24
-11.535156,0.0015872568,-3.7534907E-4,-0.013443889,0.72,0.68,0.23,27716,9950.90,0,0,0,0.49,-3.15,-0.77,0.72,0.68,0.23
-13.435547,0.002587257,0.0016246513,-0.00644389,0.72,0.68,0.23,27731,9949.00,0,0,165,0.56,-3.01,-0.28,0.72,0.68,0.23
-11.535156,5.8725616E-4,6.2465295E-4,0.0055561108,0.71,0.68,0.24,27746,9950.90,0,0,0,0.42,-3.08,0.56,0.71,0.68,0.24
-11.535156,-0.0024127436,6.2465295E-4,0.01255611,0.71,0.68,0.24,27752,9950.90,0,0,165,0.21,-3.08,1.05,0.71,0.68,0.24
-11.535156,-4.1274354E-4,6.2465295E-4,0.013556112,0.72,0.68,0.24,27768,9950.90,0,0,0,0.35,-3.08,1.12,0.72,0.68,0.24
-12.535156,5.8725616E-4,-0.0013753474,0.0055561108,0.72,0.68,0.24,27783,9949.90,0,0,165,0.42,-3.22,0.56,0.72,0.68,0.24
-12.535156,0.0015872568,6.2465295E-4,-0.0014438896,0.72,0.68,0.23,27791,9949.90,0,0,0,0.49,-3.08,0.07,0.72,0.68,0.23
-11.235352,0.002587257,6.2465295E-4,-0.008443889,0.72,0.68,0.23,27805,9951.20,0,0,165,0.56,-3.08,-0.42,0.72,0.68,0.23
-11.535156,0.0035872562,0.0016246513,-0.00944389,0.72,0.68,0.23,27820,9950.90,0,0,0,0.63,-3.01,-0.49,0.72,0.68,0.23
-11.535156,0.0015872568,6.2465295E-4,-0.008443889,0.71,0.68,0.23,27828,9950.90,0,0,165,0.49,-3.08,-0.42,0.71,0.68,0.23
-11.535156,5.8725616E-4,0.0016246513,0.00355611,0.71,0.68,0.23,27842,9950.90,0,0,0,0.42,-3.01,0.42,0.71,0.68,0.23
-12.535156,-4.1274354E-4,6.2465295E-4,0.00655611,0.71,0.68,0.24,27857,9949.90,0,0,165,0.35,-3.08,0.63,0.71,0.68,0.24
-11.535156,-4.1274354E-4,6.2465295E-4,0.00755611,0.71,0.68,0.24,27865,9950.90,0,0,0,0.35,-3.08,0.70,0.71,0.68,0.24
-12.535156,-4.1274354E-4,6.2465295E-4,0.0025561103,0.71,0.68,0.24,27881,9949.90,0,0,165,0.35,-3.08,0.35,0.71,0.68,0.24
-12.535156,0.0015872568,-3.7534907E-4,-0.0034438898,0.71,0.68,0.24,27895,9949.90,0,0,0,0.49,-3.15,-0.07,0.71,0.68,0.24
-12.535156,0.0015872568,0.0016246513,-0.00644389,0.72,0.68,0.23,27903,9949.90,0,0,165,0.49,-3.01,-0.28,0.72,0.68,0.23
-11.535156,0.0015872568,6.2465295E-4,-0.0044438895,0.71,0.68,0.23,27918,9950.90,0,0,0,0.49,-3.08,-0.14,0.71,0.68,0.23
-11.535156,5.8725616E-4,-3.7534907E-4,-0.0044438895,0.72,0.68,0.23,27934,9950.90,0,0,165,0.42,-3.15,-0.14,0.72,0.68,0.23
-11.535156,5.8725616E-4,6.2465295E-4,0.0045561106,0.71,0.68,0.23,27940,9950.90,0,0,0,0.42,-3.08,0.49,0.71,0.68,0.23
-12.8359375,-0.0014127432,6.2465295E-4,0.00655611,0.72,0.68,0.23,27955,9949.60,0,0,165,0.28,-3.08,0.63,0.72,0.68,0.23
-12.535156,5.8725616E-4,0.0016246513,0.0055561108,0.72,0.68,0.24,27970,9949.90,0,0,0,0.42,-3.01,0.56,0.72,0.68,0.24
-12.535156,-4.1274354E-4,6.2465295E-4,-0.0034438898,0.71,0.68,0.24,27977,9949.90,0,0,165,0.35,-3.08,-0.07,0.71,0.68,0.24
-12.535156,0.0015872568,0.0016246513,-0.00644389,0.72,0.68,0.24,27992,9949.90,0,0,0,0.49,-3.01,-0.28,0.72,0.68,0.24
-11.535156,0.0015872568,6.2465295E-4,-0.0044438895,0.71,0.68,0.23,28007,9950.90,0,0,165,0.49,-3.08,-0.14,0.71,0.68,0.23
-12.535156,5.8725616E-4,-0.0013753474,-4.4388953E-4,0.71,0.68,0.23,28015,9949.90,0,0,0,0.42,-3.22,0.14,0.71,0.68,0.23
-11.535156,-4.1274354E-4,-3.7534907E-4,0.0055561108,0.72,0.68,0.24,28031,9950.90,0,0,165,0.35,-3.15,0.56,0.72,0.68,0.24
-11.535156,-4.1274354E-4,-0.0013753474,0.00755611,0.72,0.68,0.23,28045,9950.90,0,0,0,0.35,-3.22,0.70,0.72,0.68,0.23
-12.535156,-0.0034127433,-3.7534907E-4,0.00655611,0.72,0.68,0.23,28052,9949.90,0,0,165,0.14,-3.15,0.63,0.72,0.68,0.23
-12.535156,5.8725616E-4,0.0016246513,-0.0014438896,0.71,0.68,0.24,28068,9949.90,0,0,0,0.42,-3.01,0.07,0.71,0.68,0.24
-11.535156,0.002587257,0.0016246513,-0.00644389,0.71,0.68,0.24,28083,9950.90,0,0,165,0.56,-3.01,-0.28,0.71,0.68,0.24
-12.535156,0.0045872563,6.2465295E-4,-0.0104438905,0.71,0.68,0.24,28090,9949.90,0,0,0,0.70,-3.08,-0.56,0.71,0.68,0.24
-11.535156,0.0045872563,0.0016246513,-0.0074438895,0.71,0.68,0.23,28105,9950.90,0,0,165,0.70,-3.01,-0.35,0.71,0.68,0.23
-11.535156,5.8725616E-4,6.2465295E-4,-0.0024438896,0.72,0.69,0.24,28121,9950.90,0,0,0,0.42,-3.08,0.00,0.72,0.69,0.24
-12.535156,-4.1274354E-4,0.0016246513,0.008556111,0.72,0.68,0.23,28128,9949.90,0,0,165,0.35,-3.01,0.77,0.72,0.68,0.23
-12.535156,-4.1274354E-4,-3.7534907E-4,0.01255611,0.72,0.68,0.24,28142,9949.90,0,0,0,0.35,-3.15,1.05,0.72,0.68,0.24
-11.935547,-0.0024127436,6.2465295E-4,0.010556111,0.72,0.68,0.23,28150,9950.50,0,0,165,0.21,-3.08,0.91,0.72,0.68,0.23
-12.535156,5.8725616E-4,6.2465295E-4,0.0045561106,0.72,0.68,0.23,28167,9949.90,0,0,0,0.42,-3.08,0.49,0.72,0.68,0.23
