Pressure_Rel,GyroX_Rel,GyroY_Rel,GyroZ_Rel,AccX_Rel,AccY_Rel,AccZ_Rel,Timestamp,Pressure_abs,HeartRate,Oxygen,Status,GyroX,GyroY,GyroZ,AccX,AccY,AccZ
0.0,0.0,0.0,0.0,0.0,0.0,0.0,6992,10114.70,0,0,0,-43.82,-15.40,20.02,0.75,0.33,0.49
0.0,0.0,0.0,0.0,0.0,0.0,0.0,7008,10116.00,0,0,0,-248.36,-213.29,122.43,0.74,0.37,0.46
0.0,0.0,0.0,0.0,0.0,0.0,0.0,7022,10115.60,0,0,165,-190.75,-82.25,-233.10,0.83,0.31,0.34
0.0,0.0,0.0,0.0,0.0,0.0,0.0,7030,10116.00,0,0,0,-217.14,-51.59,-240.73,0.92,0.54,0.29
0.0,0.0,0.0,0.0,0.0,0.0,0.0,7044,10114.70,0,0,165,-179.20,-35.63,-191.94,0.96,0.78,0.29
0.0,0.0,0.0,0.0,0.0,0.0,0.0,7060,10116.00,0,0,0,-156.24,-32.97,-131.60,0.91,0.55,0.28
0.0,0.0,0.0,0.0,0.0,0.0,0.0,7067,10114.00,0,0,165,-193.97,-17.15,-132.93,0.79,0.37,0.43
0.0,0.0,0.0,0.0,0.0,0.0,0.0,7083,10115.60,0,0,0,-194.81,-21.21,-118.37,0.54,0.52,0.64
0.0,0.0,0.0,0.0,0.0,0.0,0.0,7097,10115.00,0,0,165,-92.96,-21.28,-145.18,0.49,0.21,0.60
0.0,0.0,0.0,0.0,0.0,0.0,0.0,7105,10114.70,0,0,0,-115.57,-20.23,-181.79,0.44,0.32,0.61
0.0,0.0,0.0,0.0,0.0,0.0,0.0,7120,10116.00,0,0,165,-148.12,-21.98,-206.08,0.51,0.48,0.59
0.0,0.0,0.0,0.0,0.0,0.0,0.0,7134,10116.00,0,0,0,-149.31,-21.91,-217.63,0.59,0.76,0.56
0.0,0.0,0.0,0.0,0.0,0.0,0.0,7142,10116.00,0,0,165,-141.54,-22.75,-208.11,0.66,0.83,0.50
0.0,0.0,0.0,0.0,0.0,0.0,0.0,7158,10116.00,0,0,0,-159.53,-21.42,-188.37,0.66,0.84,0.52
0.0,0.0,0.0,0.0,0.0,0.0,0.0,7171,10116.00,0,0,165,-142.94,-24.15,-153.23,0.65,0.84,0.59
0.0,0.0,0.0,0.0,0.0,0.0,0.0,7179,10116.00,0,0,0,-82.11,-13.51,-149.03,0.61,0.62,0.47
0.0,0.0,0.0,0.0,0.0,0.0,0.0,7194,10114.70,0,0,165,-104.79,-10.08,-133.28,0.57,0.63,0.55
0.0,0.0,0.0,0.0,0.0,0.0,0.0,7210,10116.00,0,0,0,-95.48,-11.62,-127.61,0.52,0.60,0.60
0.0,0.0,0.0,0.0,0.0,0.0,0.0,7217,10116.00,0,0,165,-98.63,-15.19,-130.27,0.45,0.60,0.63
0.0,0.0,0.0,0.0,0.0,0.0,0.0,7232,10114.70,0,0,0,-115.50,-25.62,-136.57,0.42,0.66,0.65
0.0,0.0,0.0,0.0,0.0,0.0,0.0,7246,10115.00,0,0,165,-136.15,-36.82,-133.42,0.44,0.77,0.65
0.0,0.0,0.0,0.0,0.0,0.0,0.0,7254,10115.60,0,0,0,-140.63,-33.74,-126.63,0.47,0.81,0.64
0.0,0.0,0.0,0.0,0.0,0.0,0.0,7269,10115.00,0,0,165,-125.51,-23.73,-123.97,0.49,0.74,0.63
0.0,0.0,0.0,0.0,0.0,0.0,0.0,7284,10115.00,0,0,0,-129.08,-15.40,-118.37,0.45,0.73,0.67
0.0,0.0,0.0,0.0,0.0,0.0,0.0,7292,10116.00,0,0,165,-121.31,-11.69,-111.09,0.45,0.76,0.69
0.0,0.0,0.0,0.0,0.0,0.0,0.0,7307,10115.00,0,0,0,-90.72,-8.96,-90.30,0.47,0.73,0.68
0.0,0.0,0.0,0.0,0.0,0.0,0.0,7322,10115.00,0,0,165,-76.23,-6.79,-69.23,0.45,0.72,0.68
0.0,0.0,0.0,0.0,0.0,0.0,0.0,7329,10115.00,0,0,0,-60.83,-7.63,-53.90,0.47,0.69,0.67
0.0,0.0,0.0,0.0,0.0,0.0,0.0,7345,10114.70,0,0,165,-61.67,-7.49,-43.26,0.42,0.66,0.69
0.0,0.0,0.0,0.0,0.0,0.0,0.0,7360,10116.00,0,0,0,-65.73,-12.11,-30.80,0.44,0.69,0.70
0.0,0.0,0.0,0.0,0.0,0.0,0.0,7367,10115.00,0,0,165,-141.68,-24.71,-16.17,0.36,0.62,0.79
0.0,0.0,0.0,0.0,0.0,0.0,0.0,7382,10115.60,0,0,0,-82.95,-19.46,-16.59,0.39,0.57,0.72
0.0,0.0,0.0,0.0,0.0,0.0,0.0,7397,10116.00,0,0,165,-51.52,-15.82,-17.01,0.40,0.56,0.72
0.0,0.0,0.0,0.0,0.0,0.0,0.0,7405,10116.00,0,0,0,-31.43,-16.38,-14.28,0.39,0.47,0.70
0.0,0.0,0.0,0.0,0.0,0.0,0.0,7420,10114.70,0,0,165,-25.62,-8.75,-16.24,0.41,0.53,0.72
0.0,0.0,0.0,0.0,0.0,0.0,0.0,7434,10116.00,0,0,0,-13.37,-5.67,-10.92,0.43,0.63,0.76
0.0,0.0,0.0,0.0,0.0,0.0,0.0,7445,10116.00,0,0,165,6.16,-1.19,-4.34,0.42,0.59,0.75
0.0,0.0,0.0,0.0,0.0,0.0,0.0,7456,10115.60,0,0,0,20.72,0.91,3.78,0.42,0.60,0.76
0.0,0.0,0.0,0.0,0.0,0.0,0.0,7472,10115.00,0,0,165,28.35,2.17,10.43,0.39,0.52,0.74
0.0,0.0,0.0,0.0,0.0,0.0,0.0,7480,10116.00,0,0,0,21.21,6.51,9.66,0.38,0.53,0.75
0.0,0.0,0.0,0.0,0.0,0.0,0.0,7495,10115.00,0,0,165,12.04,8.89,7.70,0.38,0.51,0.75
0.0,0.0,0.0,0.0,0.0,0.0,0.0,7514,10115.00,0,0,0,-0.14,8.61,1.33,0.37,0.54,0.75
0.0,0.0,0.0,0.0,0.0,0.0,0.0,7517,10115.00,0,0,165,-6.16,7.56,-3.50,0.38,0.56,0.76
0.0,0.0,0.0,0.0,0.0,0.0,0.0,7532,10115.00,0,0,0,-16.52,3.64,-6.65,0.40,0.62,0.79
0.0,0.0,0.0,0.0,0.0,0.0,0.0,7547,10115.00,0,0,165,-19.46,-1.19,-4.83,0.38,0.59,0.78
0.0,0.0,0.0,0.0,0.0,0.0,0.0,7554,10114.70,0,0,0,-21.91,-3.01,-5.53,0.38,0.56,0.76
0.0,0.0,0.0,0.0,0.0,0.0,0.0,7571,10115.00,0,0,165,-17.15,-1.68,-9.24,0.39,0.54,0.74
0.0,0.0,0.0,0.0,0.0,0.0,0.0,7584,10116.00,0,0,0,-16.17,-1.05,-13.93,0.42,0.56,0.74
0.0,0.0,0.0,0.0,0.0,0.0,0.0,7591,10116.00,0,0,165,-16.80,0.91,-10.99,0.40,0.55,0.75
0.0,0.0,0.0,0.0,0.0,0.0,0.0,7606,10115.00,0,0,0,-7.98,0.07,-10.15,0.39,0.53,0.75
0.0,0.0,0.0,0.0,0.0,0.0,0.0,7623,10114.70,0,0,165,-10.71,2.52,-12.25,0.37,0.58,0.80
0.0,0.0,0.0,0.0,0.0,0.0,0.0,7629,10115.00,0,0,0,-13.37,0.49,-7.42,0.38,0.58,0.80
0.0,0.0,0.0,0.0,0.0,0.0,0.0,7644,10116.00,0,0,165,-10.78,-4.55,-3.15,0.36,0.57,0.78
0.0,0.0,0.0,0.0,0.0,0.0,0.0,7659,10116.00,0,0,0,-3.92,-7.42,1.19,0.37,0.56,0.78
0.0,0.0,0.0,0.0,0.0,0.0,0.0,7674,10115.00,0,0,165,-0.07,-4.06,-2.03,0.36,0.52,0.76
0.0,0.0,0.0,0.0,0.0,0.0,0.0,7681,10116.30,0,0,0,-13.16,-3.08,-5.74,0.37,0.60,0.84
0.0,0.0,0.0,0.0,0.0,0.0,0.0,7689,10115.00,0,0,165,-13.02,-4.69,4.69,0.41,0.57,0.79
0.0,0.0,0.0,0.0,0.0,0.0,0.0,7704,10115.30,0,0,0,3.29,-10.71,12.11,0.39,0.55,0.75
0.0,0.0,0.0,0.0,0.0,0.0,0.0,7719,10115.00,0,0,165,14.77,-8.33,13.44,0.44,0.60,0.77
0.0,0.0,0.0,0.0,0.0,0.0,0.0,7727,10114.70,0,0,0,25.34,-8.19,19.67,0.41,0.55,0.70
0.0,0.0,0.0,0.0,0.0,0.0,0.0,7742,10115.60,0,0,165,24.43,0.28,20.16,0.46,0.60,0.73
0.0,0.0,0.0,0.0,0.0,0.0,0.0,7756,10116.00,0,0,0,24.64,1.61,26.74,0.45,0.62,0.75
0.0,0.0,0.0,0.0,0.0,0.0,0.0,7764,10115.00,0,0,165,27.79,-0.63,35.98,0.49,0.69,0.71
0.0,0.0,0.0,0.0,0.0,0.0,0.0,7780,10115.00,0,0,0,39.06,0.91,49.07,0.47,0.68,0.74
0.0,0.0,0.0,0.0,0.0,0.0,0.0,7794,10115.00,0,0,165,46.13,-1.33,65.73,0.56,0.73,0.73
0.0,0.0,0.0,0.0,0.0,0.0,0.0,7801,10115.00,0,0,0,48.93,3.78,86.38,0.54,0.63,0.63
0.0,0.0,0.0,0.0,0.0,0.0,0.0,7824,10115.00,0,0,165,53.83,8.26,98.63,0.54,0.73,0.71
0.0,0.0,0.0,0.0,0.0,0.0,0.0,7832,10115.00,0,0,0,70.63,5.25,116.83,0.48,0.65,0.69
0.0,0.0,0.0,0.0,0.0,0.0,0.0,7838,10114.00,0,0,165,80.64,5.11,121.73,0.49,0.62,0.65
0.0,0.0,0.0,0.0,0.0,0.0,0.0,7854,10116.00,0,0,0,85.05,9.17,123.69,0.54,0.60,0.60
0.0,0.0,0.0,0.0,0.0,0.0,0.0,7868,10115.00,0,0,165,82.32,18.55,123.97,0.55,0.63,0.64
0.0,0.0,0.0,0.0,0.0,0.0,0.0,7877,10115.00,0,0,0,80.78,24.43,126.56,0.58,0.65,0.59
0.0,0.0,0.0,0.0,0.0,0.0,0.0,7896,10115.00,0,0,165,82.88,28.07,137.83,0.61,0.68,0.63
0.0,0.0,0.0,0.0,0.0,0.0,0.0,7907,10116.00,0,0,0,91.70,32.76,147.63,0.57,0.64,0.62
0.0,0.0,0.0,0.0,0.0,0.0,0.0,7922,10115.00,0,0,165,93.17,44.45,145.74,0.54,0.60,0.66
0.0,0.0,0.0,0.0,0.0,0.0,0.0,7936,10116.00,0,0,0,98.07,40.53,145.32,0.59,0.63,0.63
0.0,0.0,0.0,0.0,0.0,0.0,0.0,7945,10115.00,0,0,165,102.20,40.74,145.74,0.60,0.62,0.62
0.0,0.0,0.0,0.0,0.0,0.0,0.0,7959,10114.70,0,0,0,104.93,43.40,143.08,0.62,0.62,0.62
0.0,0.0,0.0,0.0,0.0,0.0,0.0,7974,10114.70,0,0,165,115.99,42.00,139.16,0.61,0.57,0.62
0.0,0.0,0.0,0.0,0.0,0.0,0.0,7982,10116.00,0,0,0,111.79,44.52,133.14,0.56,0.49,0.65
0.0,0.0,0.0,0.0,0.0,0.0,0.0,7989,10116.00,0,0,165,110.74,48.23,121.87,0.58,0.52,0.66
0.0,0.0,0.0,0.0,0.0,0.0,0.0,8003,10115.00,0,0,0,111.65,48.93,119.63,0.57,0.53,0.67
0.0,0.0,0.0,0.0,0.0,0.0,0.0,8019,10116.00,0,0,165,111.09,47.46,114.80,0.59,0.53,0.64
0.0,0.0,0.0,0.0,0.0,0.0,0.0,8027,10115.00,0,0,0,116.41,46.13,112.70,0.56,0.52,0.69
0.0,0.0,0.0,0.0,0.0,0.0,0.0,8043,10115.00,0,0,165,113.47,42.56,111.23,0.53,0.47,0.66
0.0,0.0,0.0,0.0,0.0,0.0,0.0,8056,10115.00,0,0,0,112.21,42.84,108.22,0.51,0.47,0.69
0.0,0.0,0.0,0.0,0.0,0.0,0.0,8063,10115.60,0,0,165,102.06,40.88,94.78,0.49,0.44,0.69
0.0,0.0,0.0,0.0,0.0,0.0,0.0,8078,10115.00,0,0,0,82.04,40.25,80.29,0.53,0.53,0.73
0.0,0.0,0.0,0.0,0.0,0.0,0.0,8095,10115.00,0,0,165,69.93,43.54,68.53,0.54,0.52,0.64
0.0,0.0,0.0,0.0,0.0,0.0,0.0,8110,10115.00,0,0,0,73.22,35.98,57.89,0.54,0.53,0.67
0.0,0.0,0.0,0.0,0.0,0.0,0.0,8117,10115.00,0,0,165,60.13,31.99,58.80,0.57,0.62,0.61
0.0,0.0,0.0,0.0,0.0,0.0,0.0,8132,10115.00,0,0,0,67.62,26.11,67.13,0.62,0.64,0.54
0.0,0.0,0.0,0.0,0.0,0.0,0.0,8139,10114.70,0,0,165,92.54,23.66,82.11,0.65,0.67,0.57
0.0,0.0,0.0,0.0,0.0,0.0,0.0,8154,10116.00,0,0,0,110.25,24.71,101.99,0.61,0.59,0.56
0.0,0.0,0.0,0.0,0.0,0.0,0.0,8169,10115.00,0,0,165,114.59,24.15,105.84,0.60,0.56,0.57
0.0,0.0,0.0,0.0,0.0,0.0,0.0,8177,10114.00,0,0,0,112.00,23.52,107.03,0.60,0.55,0.59
0.0,0.0,0.0,0.0,0.0,0.0,0.0,8199,10114.70,0,0,165,113.75,22.61,102.41,0.61,0.58,0.61
0.0,0.0,0.0,0.0,0.0,0.0,0.0,8208,10114.70,0,0,0,119.35,18.90,100.66,0.63,0.56,0.56
0.0,0.0,0.0,0.0,0.0,0.0,0.0,8214,10114.00,0,0,165,112.07,28.84,94.71,0.65,0.58,0.55
0.0,0.0,0.0,0.0,0.0,0.0,0.0,8229,10115.00,0,0,0,116.97,38.22,103.46,0.73,0.73,0.55
0.0,0.0,0.0,0.0,0.0,0.0,0.0,8245,10114.70,0,0,165,131.67,40.18,123.27,0.69,0.63,0.53
0.0,0.0,0.0,0.0,0.0,0.0,0.0,8251,10114.70,0,0,0,121.31,34.86,140.28,0.71,0.52,0.37
0.0,0.0,0.0,0.0,0.0,0.0,0.0,8266,10116.00,0,0,165,111.44,45.50,127.26,0.70,0.46,0.45
0.0,0.0,0.0,0.0,0.0,0.0,0.0,8281,10116.00,0,0,0,111.02,55.16,106.47,0.55,0.44,0.58
0.0,0.0,0.0,0.0,0.0,0.0,0.0,8289,10113.70,0,0,165,112.91,58.24,100.87,0.71,0.47,0.51
0.0,0.0,0.0,0.0,0.0,0.0,0.0,8326,10115.00,0,0,0,101.71,65.17,93.24,0.67,0.40,0.55
0.0,0.0,0.0,0.0,0.0,0.0,0.0,8328,10115.00,0,0,165,76.86,77.21,80.29,0.60,0.36,0.66
0.0,0.0,0.0,0.0,0.0,0.0,0.0,8329,10114.70,0,0,0,55.86,80.64,52.08,0.70,0.30,0.54
0.0,0.0,0.0,0.0,0.0,0.0,0.0,8342,10113.70,0,0,165,32.83,100.59,28.56,0.73,0.31,0.51
0.0,0.0,0.0,0.0,0.0,0.0,0.0,8356,10115.00,0,0,0,1.89,124.81,7.35,0.72,0.42,0.58
0.0,0.0,0.0,0.0,0.0,0.0,0.0,8364,10114.70,0,0,165,-14.70,121.10,14.70,0.71,0.47,0.60
0.0,0.0,0.0,0.0,0.0,0.0,0.0,8387,10114.70,0,0,0,-22.12,126.28,35.21,0.84,0.53,0.65
0.0,0.0,0.0,0.0,0.0,0.0,0.0,8394,10114.00,0,0,165,-42.77,122.64,57.75,0.82,0.51,0.64
0.0,0.0,0.0,0.0,0.0,0.0,0.0,8402,10115.00,0,0,0,-67.55,104.30,50.12,0.61,0.36,0.65
0.0,0.0,0.0,0.0,0.0,0.0,0.0,8417,10115.00,0,0,165,-12.81,71.61,36.33,0.39,0.35,0.74
0.0,0.0,0.0,0.0,0.0,0.0,0.0,8431,10115.00,0,0,0,22.82,38.92,15.05,0.51,0.26,0.66
0.0,0.0,0.0,0.0,0.0,0.0,0.0,8439,10114.70,0,0,165,2.52,44.10,19.88,0.70,0.40,0.66
0.0,0.0,0.0,0.0,0.0,0.0,0.0,8454,10115.00,0,0,0,31.01,31.08,27.44,0.67,0.44,0.66
0.0,0.0,0.0,0.0,0.0,0.0,0.0,8468,10115.00,0,0,165,57.40,15.54,15.54,0.69,0.45,0.67
0.0,0.0,0.0,0.0,0.0,0.0,0.0,8484,10114.70,0,0,0,69.93,14.21,7.49,0.65,0.41,0.65
0.0,0.0,0.0,0.0,0.0,0.0,0.0,8492,10115.00,0,0,165,70.21,7.42,-1.89,0.55,0.50,0.69
0.0,0.0,0.0,0.0,0.0,0.0,0.0,8507,10115.00,0,0,0,70.98,-6.79,-9.94,0.52,0.45,0.72
0.0,0.0,0.0,0.0,0.0,0.0,0.0,8514,10114.70,0,0,165,68.60,-15.12,-5.46,0.58,0.51,0.70
0.0,0.0,0.0,0.0,0.0,0.0,0.0,8529,10114.70,0,0,0,61.25,-16.17,-7.56,0.54,0.46,0.68
0.0,0.0,0.0,0.0,0.0,0.0,0.0,8544,10112.70,0,0,165,49.49,-14.49,-19.18,0.57,0.45,0.67
0.0,0.0,0.0,0.0,0.0,0.0,0.0,8551,10114.70,0,0,0,25.62,-4.69,-30.66,0.62,0.50,0.63
0.0,0.0,0.0,0.0,0.0,0.0,0.0,8574,10113.70,0,0,165,23.52,4.27,-27.65,0.68,0.60,0.61
0.0,0.0,0.0,0.0,0.0,0.0,0.0,8581,10115.00,0,0,0,36.33,4.27,-17.22,0.68,0.57,0.57
0.0,0.0,0.0,0.0,0.0,0.0,0.0,8589,10114.00,0,0,165,50.47,1.68,-7.77,0.68,0.57,0.57
0.0,0.0,0.0,0.0,0.0,0.0,0.0,8604,10114.70,0,0,0,59.43,-0.98,2.10,0.66,0.52,0.56
0.0,0.0,0.0,0.0,0.0,0.0,0.0,8619,10114.70,0,0,165,55.51,0.00,4.20,0.64,0.56,0.62
0.0,0.0,0.0,0.0,0.0,0.0,0.0,8627,10114.70,0,0,0,65.73,-6.16,12.04,0.60,0.56,0.61
0.0,0.0,0.0,0.0,0.0,0.0,0.0,8642,10114.70,0,0,165,56.98,-14.56,15.47,0.62,0.55,0.58
0.0,0.0,0.0,0.0,0.0,0.0,0.0,8657,10114.00,0,0,0,45.36,-17.71,15.82,0.66,0.60,0.55
0.0,0.0,0.0,0.0,0.0,0.0,0.0,8664,10114.70,0,0,165,51.10,-20.86,20.16,0.66,0.58,0.57
0.0,0.0,0.0,0.0,0.0,0.0,0.0,8679,10115.00,0,0,0,40.46,-17.01,19.39,0.67,0.59,0.54
0.0,0.0,0.0,0.0,0.0,0.0,0.0,8694,10115.60,0,0,165,46.90,-15.61,19.81,0.66,0.57,0.58
0.0,0.0,0.0,0.0,0.0,0.0,0.0,8701,10114.70,0,0,0,54.81,-25.34,18.97,0.64,0.53,0.55
0.0,0.0,0.0,0.0,0.0,0.0,0.0,8716,10114.70,0,0,165,41.44,-31.71,15.47,0.66,0.54,0.58
0.0,0.0,0.0,0.0,0.0,0.0,0.0,8731,10113.70,0,0,0,36.26,-39.27,15.40,0.65,0.57,0.58
0.0,0.0,0.0,0.0,0.0,0.0,0.0,8738,10115.00,0,0,165,40.18,-39.69,11.48,0.64,0.55,0.57
0.0,0.0,0.0,0.0,0.0,0.0,0.0,8753,10115.00,0,0,0,42.28,-44.66,1.96,0.66,0.51,0.54
0.0,0.0,0.0,0.0,0.0,0.0,0.0,8769,10114.70,0,0,165,27.58,-41.16,-4.13,0.68,0.54,0.48
0.0,0.0,0.0,0.0,0.0,0.0,0.0,8776,10114.70,0,0,0,27.65,-36.68,-6.86,0.71,0.53,0.45
0.0,0.0,0.0,0.0,0.0,0.0,0.0,8792,10114.70,0,0,165,31.29,-34.58,-19.11,0.74,0.52,0.44
0.0,0.0,0.0,0.0,0.0,0.0,0.0,8807,10114.70,0,0,0,27.86,-32.69,-29.54,0.72,0.54,0.44
0.0,0.0,0.0,0.0,0.0,0.0,0.0,8814,10113.70,0,0,165,27.16,-25.62,-27.37,0.75,0.60,0.47
0.0,0.0,0.0,0.0,0.0,0.0,0.0,8828,10114.00,0,0,0,33.67,-23.03,-18.27,0.74,0.64,0.49
0.0,0.0,0.0,0.0,0.0,0.0,0.0,8836,10115.00,0,0,165,33.39,-22.75,-13.09,0.73,0.60,0.46
0.0,0.0,0.0,0.0,0.0,0.0,0.0,8851,10114.70,0,0,0,29.05,-19.32,-10.08,0.72,0.62,0.44
0.0,0.0,0.0,0.0,0.0,0.0,0.0,8866,10114.70,0,0,165,33.32,-16.80,-9.52,0.72,0.56,0.41
0.0,0.0,0.0,0.0,0.0,0.0,0.0,8874,10114.70,0,0,0,20.44,-11.13,-17.15,0.72,0.56,0.40
0.0,0.0,0.0,0.0,0.0,0.0,0.0,8889,10113.70,0,0,165,12.81,-4.48,-16.59,0.70,0.61,0.42
0.0,0.0,0.0,0.0,0.0,0.0,0.0,8904,10114.70,0,0,0,13.72,-0.14,-10.71,0.68,0.59,0.42
0.0,0.0,0.0,0.0,0.0,0.0,0.0,8912,10114.70,0,0,165,12.39,2.10,-14.84,0.67,0.59,0.45
0.0,0.0,0.0,0.0,0.0,0.0,0.0,8928,10114.70,0,0,0,6.30,-2.45,-22.96,0.67,0.74,0.46
0.0,0.0,0.0,0.0,0.0,0.0,0.0,8942,10114.00,0,0,165,5.67,-4.69,-22.68,0.67,0.67,0.47
0.0,0.0,0.0,0.0,0.0,0.0,0.0,8949,10114.70,0,0,0,6.09,-4.69,-13.23,0.69,0.69,0.47
0.0,0.0,0.0,0.0,0.0,0.0,0.0,8964,10114.70,0,0,165,6.02,-3.01,-7.56,0.69,0.67,0.43
0.0,0.0,0.0,0.0,0.0,0.0,0.0,8980,10114.70,0,0,0,-1.82,-2.24,-6.30,0.68,0.68,0.43
0.0,0.0,0.0,0.0,0.0,0.0,0.0,8987,10114.70,0,0,165,-1.96,-2.45,-5.11,0.67,0.67,0.44
0.0,0.0,0.0,0.0,0.0,0.0,0.0,9002,10114.70,0,0,0,-2.52,-2.80,-2.24,0.65,0.65,0.45
0.0,0.0,0.0,0.0,0.0,0.0,0.0,9016,10114.70,0,0,165,-0.35,-5.25,-0.56,0.65,0.66,0.47
0.0,0.0,0.0,0.0,0.0,0.0,0.0,9023,10114.70,0,0,0,3.71,-9.38,-1.19,0.64,0.64,0.47
0.0,0.0,0.0,0.0,0.0,0.0,0.0,9038,10113.70,0,0,165,6.51,-14.00,-1.61,0.67,0.64,0.47
0.0,0.0,0.0,0.0,0.0,0.0,0.0,9053,10114.70,0,0,0,4.27,-16.73,0.00,0.67,0.61,0.46
0.0,0.0,0.0,0.0,0.0,0.0,0.0,9061,10114.70,0,0,165,3.85,-18.69,-3.85,0.68,0.56,0.44
0.0,0.0,0.0,0.0,0.0,0.0,0.0,9077,10114.70,0,0,0,2.73,-16.45,-10.99,0.74,0.57,0.37
0.0,0.0,0.0,0.0,0.0,0.0,0.0,9093,10114.30,0,0,165,5.74,-7.70,-11.48,0.74,0.64,0.37
0.0,0.0,0.0,0.0,0.0,0.0,0.0,9099,10114.70,0,0,0,8.96,-1.12,-3.22,0.75,0.65,0.36
0.0,0.0,0.0,0.0,0.0,0.0,0.0,9121,10114.70,0,0,165,9.80,3.01,2.45,0.72,0.67,0.39
0.0,0.0,0.0,0.0,0.0,0.0,0.0,9129,10113.70,0,0,0,11.69,2.17,7.00,0.69,0.66,0.42
0.0,0.0,0.0,0.0,0.0,0.0,0.0,9136,10114.70,0,0,165,10.15,0.35,6.86,0.65,0.65,0.44
0.0,0.0,0.0,0.0,0.0,0.0,0.0,9152,10114.70,0,0,0,7.42,-0.91,4.55,0.65,0.64,0.43
0.0,0.0,0.0,0.0,0.0,0.0,0.0,9166,10114.70,0,0,165,8.61,-3.43,3.50,0.66,0.65,0.43
0.0,0.0,0.0,0.0,0.0,0.0,0.0,9173,10115.00,0,0,0,7.70,-5.39,3.15,0.66,0.68,0.41
0.0,0.0,0.0,0.0,0.0,0.0,0.0,9189,10115.00,0,0,165,5.95,-5.39,5.04,0.67,0.65,0.39
0.0,0.0,0.0,0.0,0.0,0.0,0.0,9204,10113.70,0,0,0,1.68,-4.06,3.64,0.68,0.65,0.41
0.0,0.0,0.0,0.0,0.0,0.0,0.0,9211,10114.70,0,0,165,3.22,-5.60,4.34,0.66,0.64,0.42
0.0,0.0,0.0,0.0,0.0,0.0,0.0,9226,10114.70,0,0,0,6.44,-6.16,0.91,0.68,0.62,0.42
0.0,0.0,0.0,0.0,0.0,0.0,0.0,9242,10114.70,0,0,165,0.91,-6.72,-1.33,0.69,0.65,0.43
0.0,0.0,0.0,0.0,0.0,0.0,0.0,9248,10114.70,0,0,0,2.94,-8.40,0.21,0.69,0.65,0.42
0.0,0.0,0.0,0.0,0.0,0.0,0.0,9264,10114.70,0,0,165,4.69,-8.33,1.82,0.70,0.63,0.39
0.0,0.0,0.0,0.0,0.0,0.0,0.0,9279,10112.70,0,0,0,1.96,-5.81,0.35,0.72,0.62,0.36
0.0,0.0,0.0,0.0,0.0,0.0,0.0,9285,10114.70,0,0,165,2.80,-2.45,-0.56,0.72,0.64,0.38
0.0,0.0,0.0,0.0,0.0,0.0,0.0,9301,10114.70,0,0,0,5.60,-1.12,3.92,0.70,0.65,0.40
0.0,0.0,0.0,0.0,0.0,0.0,0.0,9316,10113.70,0,0,165,11.55,-2.59,7.49,0.68,0.66,0.44
0.0,0.0,0.0,0.0,0.0,0.0,0.0,9324,10114.70,0,0,0,11.83,-6.51,8.68,0.68,0.64,0.44
0.0,0.0,0.0,0.0,0.0,0.0,0.0,9339,10113.70,0,0,165,6.37,-6.65,4.90,0.67,0.59,0.41
0.0,0.0,0.0,0.0,0.0,0.0,0.0,9354,10114.70,0,0,0,0.00,-4.90,-1.89,0.68,0.62,0.40
0.0,0.0,0.0,0.0,0.0,0.0,0.0,9361,10114.70,0,0,165,1.05,-4.83,-2.87,0.70,0.63,0.38
0.0,0.0,0.0,0.0,0.0,0.0,0.0,9377,10113.70,0,0,0,3.50,-4.13,-0.21,0.70,0.64,0.38
0.0,0.0,0.0,0.0,0.0,0.0,0.0,9391,10113.70,0,0,165,2.03,-2.73,0.84,0.70,0.63,0.37
0.0,0.0,0.0,0.0,0.0,0.0,0.0,9398,10114.70,0,0,0,4.27,-1.12,0.28,0.71,0.63,0.38
0.0,0.0,0.0,0.0,0.0,0.0,0.0,9413,10113.70,0,0,165,2.10,0.42,-0.77,0.69,0.63,0.39
0.0,0.0,0.0,0.0,0.0,0.0,0.0,9430,10113.70,0,0,0,3.22,-1.54,-1.82,0.68,0.67,0.41
0.0,0.0,0.0,0.0,0.0,0.0,0.0,9437,10114.70,0,0,165,1.68,-1.54,-1.75,0.67,0.67,0.40
0.0,0.0,0.0,0.0,0.0,0.0,0.0,9459,10112.70,0,0,0,-2.94,-0.98,17.78,0.67,0.70,0.40
0.0,0.0,0.0,0.0,0.0,0.0,0.0,9467,10113.70,0,0,165,1.05,-1.96,4.97,0.66,0.70,0.40
0.0,0.0,0.0,0.0,0.0,0.0,0.0,9474,10113.40,0,0,0,1.12,-3.15,6.51,0.65,0.64,0.40
0.0,0.0,0.0,0.0,0.0,0.0,0.0,9489,10113.70,0,0,165,-3.71,-2.45,1.89,0.66,0.63,0.39
0.0,0.0,0.0,0.0,0.0,0.0,0.0,9504,10112.70,0,0,0,-9.87,-1.19,-4.20,0.66,0.63,0.40
0.0,0.0,0.0,0.0,0.0,0.0,0.0,9512,10114.70,0,0,165,-12.11,-2.10,-6.72,0.68,0.67,0.41
0.0,0.0,0.0,0.0,0.0,0.0,0.0,9527,10114.70,0,0,0,-5.88,-3.71,-0.77,0.70,0.69,0.43
0.0,0.0,0.0,0.0,0.0,0.0,0.0,9542,10113.70,0,0,165,-2.52,-5.46,5.32,0.71,0.65,0.42
0.0,0.0,0.0,0.0,0.0,0.0,0.0,9549,10114.70,0,0,0,-4.69,-5.95,6.65,0.72,0.62,0.41
0.0,0.0,0.0,0.0,0.0,0.0,0.0,9564,10113.70,0,0,165,0.77,-7.49,7.56,0.72,0.59,0.39
0.0,0.0,0.0,0.0,0.0,0.0,0.0,9579,10112.70,0,0,0,1.75,-5.46,7.91,0.72,0.59,0.39
0.0,0.0,0.0,0.0,0.0,0.0,0.0,9586,10113.40,0,0,165,2.73,-4.20,5.95,0.73,0.57,0.36
0.0,0.0,0.0,0.0,0.0,0.0,0.0,9601,10114.70,0,0,0,1.47,-2.38,5.46,0.72,0.60,0.40
0.0,0.0,0.0,0.0,0.0,0.0,0.0,9616,10115.60,0,0,165,3.85,0.98,7.14,0.69,0.61,0.41
0.0,0.0,0.0,0.0,0.0,0.0,0.0,9624,10113.70,0,0,0,3.36,1.89,4.13,0.71,0.57,0.40
0.0,0.0,0.0,0.0,0.0,0.0,0.0,9639,10113.70,0,0,165,0.28,1.61,-0.14,0.69,0.62,0.42
0.0,0.0,0.0,0.0,0.0,0.0,0.0,9654,10113.70,0,0,0,4.62,-0.49,1.54,0.70,0.65,0.41
0.0,0.0,0.0,0.0,0.0,0.0,0.0,9662,10113.40,0,0,165,5.60,-1.19,4.76,0.69,0.64,0.40
0.0,0.0,0.0,0.0,0.0,0.0,0.0,9677,10113.70,0,0,0,0.63,-0.98,4.69,0.68,0.64,0.40
0.0,0.0,0.0,0.0,0.0,0.0,0.0,9692,10114.70,0,0,165,2.59,-2.10,4.48,0.68,0.65,0.40
0.0,0.0,0.0,0.0,0.0,0.0,0.0,9699,10114.70,0,0,0,3.64,-2.66,5.46,0.66,0.64,0.40
0.0,0.0,0.0,0.0,0.0,0.0,0.0,9714,10114.70,0,0,165,2.59,-2.59,4.90,0.68,0.68,0.40
0.0,0.0,0.0,0.0,0.0,0.0,0.0,9728,10114.70,0,0,0,3.43,-3.43,4.41,0.68,0.65,0.38
0.0,0.0,0.0,0.0,0.0,0.0,0.0,9744,10113.70,0,0,165,0.98,-3.15,3.29,0.69,0.66,0.39
0.0,0.0,0.0,0.0,0.0,0.0,0.0,9751,10113.40,0,0,0,-4.20,-2.24,4.41,0.69,0.66,0.39
0.0,0.0,0.0,0.0,0.0,0.0,0.0,9758,10114.70,0,0,165,-6.09,-3.50,10.92,0.68,0.68,0.43
0.0,0.0,0.0,0.0,0.0,0.0,0.0,9773,10113.70,0,0,0,-5.60,-2.24,14.84,0.67,0.67,0.42
0.0,0.0,0.0,0.0,0.0,0.0,0.0,9789,10114.70,0,0,165,-4.13,-2.87,12.74,0.67,0.63,0.41
0.0,0.0,0.0,0.0,0.0,0.0,0.0,9796,10113.70,0,0,0,-6.37,-6.09,10.57,0.68,0.60,0.40
0.0,0.0,0.0,0.0,0.0,0.0,0.0,9811,10114.70,0,0,165,-8.26,-6.02,6.09,0.69,0.59,0.40
-1.5068359,0.10723912,0.017496992,0.18352179,0.09,1.01,0.09,13846,10111.40,0,0,0,0.49,-2.73,0.21,0.09,1.01,0.09
-1.2070312,0.10723912,0.016496994,0.18252179,0.09,1.0,0.09,13862,10111.70,0,0,165,0.49,-2.80,0.14,0.09,1.00,0.09
-0.50683594,0.10523912,0.016496994,0.18052179,0.09,1.0,0.09,13877,10112.40,0,0,0,0.35,-2.80,0.00,0.09,1.00,0.09
-1.5068359,0.10723912,0.014496993,0.18152179,0.09,1.0,0.09,13883,10111.40,0,0,165,0.49,-2.94,0.07,0.09,1.00,0.09
-0.50683594,0.10623912,0.014496993,0.18352179,0.09,1.01,0.09,13902,10112.40,0,0,0,0.42,-2.94,0.21,0.09,1.01,0.09
-0.20703125,0.10923912,0.017496992,0.18252179,0.09,1.0,0.09,13914,10112.70,0,0,165,0.63,-2.73,0.14,0.09,1.00,0.09
-1.5068359,0.10823912,0.015496995,0.18152179,0.09,1.0,0.09,13921,10111.40,0,0,0,0.56,-2.87,0.07,0.09,1.00,0.09
-1.2070312,0.10823912,0.015496995,0.18452178,0.09,1.01,0.09,13937,10111.70,0,0,165,0.56,-2.87,0.28,0.09,1.01,0.09
-1.5068359,0.10823912,0.015496995,0.18452178,0.09,1.01,0.09,13952,10111.40,0,0,0,0.56,-2.87,0.28,0.09,1.01,0.09
-1.5068359,0.10723912,0.016496994,0.18352179,0.09,1.01,0.09,13959,10111.40,0,0,165,0.49,-2.80,0.21,0.09,1.01,0.09
-1.8076172,0.10723912,0.015496995,0.18252179,0.09,1.0,0.09,13979,10111.10,0,0,0,0.49,-2.87,0.14,0.09,1.00,0.09
-1.5068359,0.10823912,0.016496994,0.18252179,0.09,1.01,0.09,13995,10111.40,0,0,165,0.56,-2.80,0.14,0.09,1.01,0.09
-1.5068359,0.10823912,0.016496994,0.18252179,0.09,1.0,0.09,13997,10111.40,0,0,0,0.56,-2.80,0.14,0.09,1.00,0.09
-1.5068359,0.10723912,0.016496994,0.18352179,0.09,1.0,0.09,14012,10111.40,0,0,165,0.49,-2.80,0.21,0.09,1.00,0.09
-1.5068359,0.10723912,0.015496995,0.18352179,0.09,1.01,0.09,14041,10111.40,0,0,0,0.49,-2.87,0.21,0.09,1.01,0.09
-1.5068359,0.10523912,0.016496994,0.18252179,0.1,1.0,0.09,14046,10111.40,0,0,165,0.35,-2.80,0.14,0.10,1.00,0.09
-1.5068359,0.10723912,0.017496992,0.18352179,0.1,1.0,0.09,14055,10111.40,0,0,0,0.49,-2.73,0.21,0.10,1.00,0.09
-0.50683594,0.10723912,0.017496992,0.18352179,0.1,1.01,0.09,14064,10112.40,0,0,165,0.49,-2.73,0.21,0.10,1.01,0.09
-1.5068359,0.10723912,0.016496994,0.18252179,0.1,1.0,0.09,14071,10111.40,0,0,0,0.49,-2.80,0.14,0.10,1.00,0.09
-1.5068359,0.10823912,0.016496994,0.18352179,0.1,1.01,0.1,14086,10111.40,0,0,165,0.56,-2.80,0.21,0.10,1.01,0.10
-0.50683594,0.10823912,0.015496995,0.18252179,0.09,1.0,0.09,14101,10112.40,0,0,0,0.56,-2.87,0.14,0.09,1.00,0.09
-1.5068359,0.10723912,0.016496994,0.18152179,0.09,1.01,0.09,14109,10111.40,0,0,165,0.49,-2.80,0.07,0.09,1.01,0.09
-1.5068359,0.10723912,0.015496995,0.18252179,0.09,1.01,0.09,14124,10111.40,0,0,0,0.49,-2.87,0.14,0.09,1.01,0.09
-1.5068359,0.10823912,0.014496993,0.17852178,0.09,1.01,0.09,14139,10111.40,0,0,165,0.56,-2.94,-0.14,0.09,1.01,0.09
-1.2070312,0.10723912,0.016496994,0.18252179,0.09,1.01,0.09,14147,10111.70,0,0,0,0.49,-2.80,0.14,0.09,1.01,0.09
-0.50683594,0.10723912,0.015496995,0.18352179,0.09,1.0,0.09,14162,10112.40,0,0,165,0.49,-2.87,0.21,0.09,1.00,0.09
-1.5068359,0.10623912,0.015496995,0.18252179,0.1,1.0,0.09,14180,10111.40,0,0,0,0.42,-2.87,0.14,0.10,1.00,0.09
-1.5068359,0.10523912,0.013496991,0.18552178,0.1,1.0,0.09,14184,10111.40,0,0,165,0.35,-3.01,0.35,0.10,1.00,0.09
-0.20703125,0.10723912,0.016496994,0.18352179,0.1,1.01,0.09,14200,10112.70,0,0,0,0.49,-2.80,0.21,0.10,1.01,0.09
-1.5068359,0.10723912,0.016496994,0.18252179,0.1,1.0,0.09,14214,10111.40,0,0,165,0.49,-2.80,0.14,0.10,1.00,0.09
-1.8076172,0.10723912,0.016496994,0.18452178,0.1,1.01,0.09,14221,10111.10,0,0,0,0.49,-2.80,0.28,0.10,1.01,0.09
-1.5068359,0.10823912,0.016496994,0.18352179,0.09,1.01,0.09,14236,10111.40,0,0,165,0.56,-2.80,0.21,0.09,1.01,0.09
-0.50683594,0.10623912,0.015496995,0.18252179,0.1,1.0,0.09,14251,10112.40,0,0,0,0.42,-2.87,0.14,0.10,1.00,0.09
-1.5068359,0.10723912,0.014496993,0.18252179,0.09,1.0,0.09,14263,10111.40,0,0,165,0.49,-2.94,0.14,0.09,1.00,0.09
-1.5068359,0.10723912,0.014496993,0.18252179,0.09,1.0,0.09,14274,10111.40,0,0,0,0.49,-2.94,0.14,0.09,1.00,0.09
-1.5068359,0.10723912,0.015496995,0.18252179,0.09,1.01,0.09,14289,10111.40,0,0,165,0.49,-2.87,0.14,0.09,1.01,0.09
-0.50683594,0.10823912,0.015496995,0.18052179,0.09,1.0,0.09,14296,10112.40,0,0,0,0.56,-2.87,0.00,0.09,1.00,0.09
-1.5068359,0.10623912,0.016496994,0.18352179,0.09,1.01,0.09,14312,10111.40,0,0,165,0.42,-2.80,0.21,0.09,1.01,0.09
-1.5068359,0.10923912,0.016496994,0.18252179,0.09,1.01,0.09,14327,10111.40,0,0,0,0.63,-2.80,0.14,0.09,1.01,0.09
-1.5068359,0.10623912,0.017496992,0.18452178,0.1,1.01,0.09,14334,10111.40,0,0,165,0.42,-2.73,0.28,0.10,1.01,0.09
-0.90722656,0.10523912,0.016496994,0.18252179,0.1,1.0,0.09,14349,10112.00,0,0,0,0.35,-2.80,0.14,0.10,1.00,0.09
-0.50683594,0.10623912,0.016496994,0.18452178,0.1,1.0,0.09,14364,10112.40,0,0,165,0.42,-2.80,0.28,0.10,1.00,0.09
-0.50683594,0.10523912,0.015496995,0.18052179,0.1,1.0,0.09,14372,10112.40,0,0,0,0.35,-2.87,0.00,0.10,1.00,0.09
-1.8076172,0.10723912,0.015496995,0.18252179,0.1,1.01,0.1,14387,10111.10,0,0,165,0.49,-2.87,0.14,0.10,1.01,0.10
-1.8076172,0.10923912,0.016496994,0.17952178,0.09,1.0,0.1,14401,10111.10,0,0,0,0.63,-2.80,-0.07,0.09,1.00,0.10
-2.506836,0.10823912,0.015496995,0.18152179,0.1,1.0,0.09,14409,10110.40,0,0,165,0.56,-2.87,0.07,0.10,1.00,0.09
-2.506836,0.10923912,0.016496994,0.18352179,0.09,1.0,0.09,14424,10110.40,0,0,0,0.63,-2.80,0.21,0.09,1.00,0.09
-2.506836,0.10823912,0.017496992,0.18252179,0.09,1.01,0.09,14440,10110.40,0,0,165,0.56,-2.73,0.14,0.09,1.01,0.09
-1.5068359,0.10723912,0.016496994,0.18452178,0.09,1.0,0.09,14446,10111.40,0,0,0,0.49,-2.80,0.28,0.09,1.00,0.09
-1.5068359,0.10723912,0.016496994,0.18352179,0.09,1.0,0.09,14462,10111.40,0,0,165,0.49,-2.80,0.21,0.09,1.00,0.09
-0.50683594,0.10823912,0.016496994,0.18352179,0.09,1.0,0.09,14476,10112.40,0,0,0,0.56,-2.80,0.21,0.09,1.00,0.09
-1.5068359,0.10823912,0.017496992,0.18452178,0.09,1.01,0.09,14484,10111.40,0,0,165,0.56,-2.73,0.28,0.09,1.01,0.09
-1.8076172,0.10623912,0.015496995,0.18452178,0.09,1.01,0.09,14498,10111.10,0,0,0,0.42,-2.87,0.28,0.09,1.01,0.09
-2.8076172,0.10623912,0.015496995,0.18252179,0.1,1.0,0.09,14513,10110.10,0,0,165,0.42,-2.87,0.14,0.10,1.00,0.09
-2.506836,0.10623912,0.016496994,0.18452178,0.1,1.01,0.09,14521,10110.40,0,0,0,0.42,-2.80,0.28,0.10,1.01,0.09
-2.506836,0.10623912,0.015496995,0.18152179,0.1,1.01,0.09,14536,10110.40,0,0,165,0.42,-2.87,0.07,0.10,1.01,0.09
-1.5068359,0.10923912,0.016496994,0.18152179,0.1,1.01,0.1,14551,10111.40,0,0,0,0.63,-2.80,0.07,0.10,1.01,0.10
-1.5068359,0.10723912,0.014496993,0.18052179,0.1,1.01,0.1,14559,10111.40,0,0,165,0.49,-2.94,0.00,0.10,1.01,0.10
-2.506836,0.10823912,0.017496992,0.18252179,0.1,1.01,0.1,14574,10110.40,0,0,0,0.56,-2.73,0.14,0.10,1.01,0.10
-1.8076172,0.10723912,0.016496994,0.18052179,0.1,1.01,0.09,14589,10111.10,0,0,165,0.49,-2.80,0.00,0.10,1.01,0.09
-1.8076172,0.10923912,0.015496995,0.18252179,0.09,1.01,0.09,14597,10111.10,0,0,0,0.63,-2.87,0.14,0.09,1.01,0.09
-1.5068359,0.10823912,0.016496994,0.18352179,0.09,1.01,0.09,14612,10111.40,0,0,165,0.56,-2.80,0.21,0.09,1.01,0.09
-1.5068359,0.10823912,0.016496994,0.18352179,0.09,1.0,0.09,14627,10111.40,0,0,0,0.56,-2.80,0.21,0.09,1.00,0.09
-1.5068359,0.10823912,0.017496992,0.18352179,0.1,1.01,0.09,14634,10111.40,0,0,165,0.56,-2.73,0.21,0.10,1.01,0.09
-1.8076172,0.10823912,0.016496994,0.18252179,0.09,1.01,0.09,14649,10111.10,0,0,0,0.56,-2.80,0.14,0.09,1.01,0.09
-1.8076172,0.10523912,0.014496993,0.18152179,0.09,1.0,0.09,14664,10111.10,0,0,165,0.35,-2.94,0.07,0.09,1.00,0.09
-1.8076172,0.10723912,0.015496995,0.18152179,0.1,1.0,0.09,14671,10111.10,0,0,0,0.49,-2.87,0.07,0.10,1.00,0.09
-0.50683594,0.10823912,0.015496995,0.18152179,0.1,1.01,0.09,14686,10112.40,0,0,165,0.56,-2.87,0.07,0.10,1.01,0.09
-1.5068359,0.10623912,0.015496995,0.18152179,0.1,1.01,0.09,14701,10111.40,0,0,0,0.42,-2.87,0.07,0.10,1.01,0.09
-1.5068359,0.10723912,0.015496995,0.18152179,0.1,1.01,0.09,14709,10111.40,0,0,165,0.49,-2.87,0.07,0.10,1.01,0.09
-1.8076172,0.10823912,0.017496992,0.18252179,0.1,1.01,0.09,14724,10111.10,0,0,0,0.56,-2.73,0.14,0.10,1.01,0.09
-2.8076172,0.10723912,0.017496992,0.18252179,0.1,1.01,0.09,14739,10110.10,0,0,165,0.49,-2.73,0.14,0.10,1.01,0.09
-1.8076172,0.10823912,0.015496995,0.18352179,0.1,1.0,0.09,14745,10111.10,0,0,0,0.56,-2.87,0.21,0.10,1.00,0.09
-1.8076172,0.10723912,0.015496995,0.18152179,0.1,1.01,0.09,14761,10111.10,0,0,165,0.49,-2.87,0.07,0.10,1.01,0.09
-1.8076172,0.10623912,0.015496995,0.18152179,0.09,1.0,0.09,14776,10111.10,0,0,0,0.42,-2.87,0.07,0.09,1.00,0.09
-0.50683594,0.10723912,0.014496993,0.18152179,0.1,1.01,0.09,14784,10112.40,0,0,165,0.49,-2.94,0.07,0.10,1.01,0.09
-1.8076172,0.10823912,0.015496995,0.18352179,0.1,1.0,0.09,14799,10111.10,0,0,0,0.56,-2.87,0.21,0.10,1.00,0.09
-0.90722656,0.10623912,0.015496995,0.18152179,0.1,1.01,0.09,14814,10112.00,0,0,165,0.42,-2.87,0.07,0.10,1.01,0.09
-0.90722656,0.10823912,0.017496992,0.18152179,0.1,1.0,0.09,14821,10112.00,0,0,0,0.56,-2.73,0.07,0.10,1.00,0.09
-1.5068359,0.10723912,0.017496992,0.18052179,0.1,1.0,0.09,14837,10111.40,0,0,165,0.49,-2.73,0.00,0.10,1.00,0.09
-1.8076172,0.10823912,0.015496995,0.18352179,0.1,1.01,0.09,14851,10111.10,0,0,0,0.56,-2.87,0.21,0.10,1.01,0.09
-0.90722656,0.10723912,0.016496994,0.18352179,0.1,1.01,0.09,14859,10112.00,0,0,165,0.49,-2.80,0.21,0.10,1.01,0.09
-1.8076172,0.10723912,0.016496994,0.18452178,0.1,1.01,0.1,14874,10111.10,0,0,0,0.49,-2.80,0.28,0.10,1.01,0.10
-1.8076172,0.10823912,0.015496995,0.18252179,0.09,1.0,0.09,14889,10111.10,0,0,165,0.56,-2.87,0.14,0.09,1.00,0.09
-1.5068359,0.10523912,0.015496995,0.18252179,0.1,1.01,0.09,14896,10111.40,0,0,0,0.35,-2.87,0.14,0.10,1.01,0.09
-1.8076172,0.10723912,0.015496995,0.18352179,0.09,1.01,0.09,14912,10111.10,0,0,165,0.49,-2.87,0.21,0.09,1.01,0.09
-2.506836,0.10723912,0.015496995,0.18252179,0.1,1.0,0.09,14926,10110.40,0,0,0,0.49,-2.87,0.14,0.10,1.00,0.09
-1.8076172,0.10823912,0.016496994,0.18052179,0.1,1.01,0.09,14933,10111.10,0,0,165,0.56,-2.80,0.00,0.10,1.01,0.09
-1.8076172,0.10823912,0.014496993,0.18352179,0.09,1.0,0.09,14948,10111.10,0,0,0,0.56,-2.94,0.21,0.09,1.00,0.09
-1.5068359,0.10623912,0.015496995,0.18152179,0.1,1.01,0.09,14963,10111.40,0,0,165,0.42,-2.87,0.07,0.10,1.01,0.09
-1.5068359,0.10723912,0.015496995,0.18252179,0.09,1.01,0.1,14970,10111.40,0,0,0,0.49,-2.87,0.14,0.09,1.01,0.10
-2.506836,0.10723912,0.015496995,0.18252179,0.1,1.0,0.09,14986,10110.40,0,0,165,0.49,-2.87,0.14,0.10,1.00,0.09
-1.8076172,0.11023912,0.015496995,0.18052179,0.09,1.01,0.09,15001,10111.10,0,0,0,0.70,-2.87,0.00,0.09,1.01,0.09
-0.50683594,0.11123912,0.017496992,0.18352179,0.1,1.01,0.09,15009,10112.40,0,0,165,0.77,-2.73,0.21,0.10,1.01,0.09
-1.8076172,0.10823912,0.016496994,0.18252179,0.1,1.0,0.09,15023,10111.10,0,0,0,0.56,-2.80,0.14,0.10,1.00,0.09
-1.8076172,0.10823912,0.015496995,0.18252179,0.09,1.01,0.09,15038,10111.10,0,0,165,0.56,-2.87,0.14,0.09,1.01,0.09
-1.8076172,0.10623912,0.015496995,0.18252179,0.1,1.0,0.09,15046,10111.10,0,0,0,0.42,-2.87,0.14,0.10,1.00,0.09
-1.8076172,0.10723912,0.015496995,0.18052179,0.1,1.0,0.09,15061,10111.10,0,0,165,0.49,-2.87,0.00,0.10,1.00,0.09
-1.8076172,0.10723912,0.016496994,0.18052179,0.09,1.0,0.09,15076,10111.10,0,0,0,0.49,-2.80,0.00,0.09,1.00,0.09
-1.8076172,0.10623912,0.016496994,0.18352179,0.09,1.01,0.09,15083,10111.10,0,0,165,0.42,-2.80,0.21,0.09,1.01,0.09
-1.8076172,0.10723912,0.015496995,0.18252179,0.1,1.01,0.09,15099,10111.10,0,0,0,0.49,-2.87,0.14,0.10,1.01,0.09
-1.8076172,0.10723912,0.016496994,0.18352179,0.09,1.01,0.1,15113,10111.10,0,0,165,0.49,-2.80,0.21,0.09,1.01,0.10
-0.90722656,0.10723912,0.016496994,0.18352179,0.1,1.01,0.1,15121,10112.00,0,0,0,0.49,-2.80,0.21,0.10,1.01,0.10
-1.8076172,0.10923912,0.016496994,0.18152179,0.1,1.01,0.1,15144,10111.10,0,0,165,0.63,-2.80,0.07,0.10,1.01,0.10
-1.8076172,0.10723912,0.015496995,0.18252179,0.1,1.0,0.1,15151,10111.10,0,0,0,0.49,-2.87,0.14,0.10,1.00,0.10
-1.8076172,0.10723912,0.013496991,0.18252179,0.1,1.0,0.1,15158,10111.10,0,0,165,0.49,-3.01,0.14,0.10,1.00,0.10
-1.8076172,0.10823912,0.015496995,0.18152179,0.1,1.01,0.09,15174,10111.10,0,0,0,0.56,-2.87,0.07,0.10,1.01,0.09
-0.90722656,0.10723912,0.015496995,0.18052179,0.09,1.01,0.09,15188,10112.00,0,0,165,0.49,-2.87,0.00,0.09,1.01,0.09
-1.8076172,0.10723912,0.017496992,0.18152179,0.09,1.0,0.09,15196,10111.10,0,0,0,0.49,-2.73,0.07,0.09,1.00,0.09
-1.8076172,0.10623912,0.015496995,0.18152179,0.1,1.0,0.09,15212,10111.10,0,0,165,0.42,-2.87,0.07,0.10,1.00,0.09
0.09277344,0.10923912,0.014496993,0.18152179,0.09,1.01,0.09,15227,10113.00,0,0,0,0.63,-2.94,0.07,0.09,1.01,0.09
-1.8076172,0.10923912,0.015496995,0.18152179,0.09,1.0,0.09,15233,10111.10,0,0,165,0.63,-2.87,0.07,0.09,1.00,0.09
-1.8076172,0.10723912,0.016496994,0.18352179,0.09,1.01,0.09,15248,10111.10,0,0,0,0.49,-2.80,0.21,0.09,1.01,0.09
-1.8076172,0.10723912,0.015496995,0.18252179,0.09,1.01,0.09,15264,10111.10,0,0,165,0.49,-2.87,0.14,0.09,1.01,0.09
-2.2070312,0.10723912,0.017496992,0.18552178,0.09,1.01,0.09,15271,10110.70,0,0,0,0.49,-2.73,0.35,0.09,1.01,0.09
-1.5068359,0.10823912,0.016496994,0.18452178,0.1,1.01,0.09,15287,10111.40,0,0,165,0.56,-2.80,0.28,0.10,1.01,0.09
-1.8076172,0.10823912,0.014496993,0.18352179,0.1,1.01,0.09,15301,10111.10,0,0,0,0.56,-2.94,0.21,0.10,1.01,0.09
-1.8076172,0.10923912,0.015496995,0.18452178,0.1,1.0,0.09,15311,10111.10,0,0,165,0.63,-2.87,0.28,0.10,1.00,0.09
-1.8076172,0.10723912,0.014496993,0.18252179,0.1,1.0,0.09,15324,10111.10,0,0,0,0.49,-2.94,0.14,0.10,1.00,0.09
-1.8076172,0.10723912,0.016496994,0.18352179,0.1,1.0,0.09,15339,10111.10,0,0,165,0.49,-2.80,0.21,0.10,1.00,0.09
-0.90722656,0.10723912,0.016496994,0.18352179,0.1,1.0,0.09,15346,10112.00,0,0,0,0.49,-2.80,0.21,0.10,1.00,0.09
-0.90722656,0.10723912,0.016496994,0.18152179,0.1,1.01,0.09,15361,10112.00,0,0,165,0.49,-2.80,0.07,0.10,1.01,0.09
-0.90722656,0.10523912,0.015496995,0.18152179,0.1,1.0,0.1,15377,10112.00,0,0,0,0.35,-2.87,0.07,0.10,1.00,0.10
-1.8076172,0.10723912,0.015496995,0.18152179,0.09,1.0,0.09,15384,10111.10,0,0,165,0.49,-2.87,0.07,0.09,1.00,0.09
-1.8076172,0.10823912,0.015496995,0.18152179,0.1,1.0,0.1,15398,10111.10,0,0,0,0.56,-2.87,0.07,0.10,1.00,0.10
-1.8076172,0.10823912,0.016496994,0.18052179,0.09,1.01,0.1,15414,10111.10,0,0,165,0.56,-2.80,0.00,0.09,1.01,0.10
-1.8076172,0.10923912,0.016496994,0.18152179,0.09,1.01,0.1,15421,10111.10,0,0,0,0.63,-2.80,0.07,0.09,1.01,0.10
-2.8076172,0.10723912,0.016496994,0.18252179,0.09,1.01,0.1,15436,10110.10,0,0,165,0.49,-2.80,0.14,0.09,1.01,0.10
-2.2070312,0.10823912,0.014496993,0.18252179,0.09,1.0,0.1,15451,10110.70,0,0,0,0.56,-2.94,0.14,0.09,1.00,0.10
-1.8076172,0.10723912,0.016496994,0.18252179,0.09,1.01,0.09,15458,10111.10,0,0,165,0.49,-2.80,0.14,0.09,1.01,0.09
-1.8076172,0.10723912,0.016496994,0.18152179,0.1,1.01,0.09,15474,10111.10,0,0,0,0.49,-2.80,0.07,0.10,1.01,0.09
-1.8076172,0.10923912,0.015496995,0.18352179,0.1,1.01,0.09,15489,10111.10,0,0,165,0.63,-2.87,0.21,0.10,1.01,0.09
-1.8076172,0.10823912,0.016496994,0.18252179,0.1,1.0,0.09,15497,10111.10,0,0,0,0.56,-2.80,0.14,0.10,1.00,0.09
-2.8076172,0.10623912,0.015496995,0.18152179,0.1,1.0,0.09,15513,10110.10,0,0,165,0.42,-2.87,0.07,0.10,1.00,0.09
-2.8076172,0.10623912,0.016496994,0.18252179,0.1,1.01,0.09,15527,10110.10,0,0,0,0.42,-2.80,0.14,0.10,1.01,0.09
-1.8076172,0.10623912,0.016496994,0.18052179,0.09,1.01,0.1,15534,10111.10,0,0,165,0.42,-2.80,0.00,0.09,1.01,0.10
-1.8076172,0.10623912,0.015496995,0.18252179,0.09,1.0,0.1,15549,10111.10,0,0,0,0.42,-2.87,0.14,0.09,1.00,0.10
-0.90722656,0.10723912,0.015496995,0.18152179,0.1,1.0,0.1,15563,10112.00,0,0,165,0.49,-2.87,0.07,0.10,1.00,0.10
-2.8076172,0.10823912,0.014496993,0.18152179,0.1,1.01,0.1,15571,10110.10,0,0,0,0.56,-2.94,0.07,0.10,1.01,0.10
-1.8076172,0.10823912,0.015496995,0.18352179,0.09,1.01,0.09,15588,10111.10,0,0,165,0.56,-2.87,0.21,0.09,1.01,0.09
-0.90722656,0.10823912,0.016496994,0.18352179,0.1,1.01,0.09,15601,10112.00,0,0,0,0.56,-2.80,0.21,0.10,1.01,0.09
-1.8076172,0.10723912,0.015496995,0.18252179,0.1,1.0,0.09,15609,10111.10,0,0,165,0.49,-2.87,0.14,0.10,1.00,0.09
0.09277344,0.10723912,0.015496995,0.18352179,0.1,1.01,0.09,15631,10113.00,0,0,0,0.49,-2.87,0.21,0.10,1.01,0.09
-1.8076172,0.10723912,0.015496995,0.18352179,0.1,1.01,0.09,15638,10111.10,0,0,165,0.49,-2.87,0.21,0.10,1.01,0.09
-0.90722656,0.10823912,0.016496994,0.18352179,0.1,1.0,0.09,15646,10112.00,0,0,0,0.56,-2.80,0.21,0.10,1.00,0.09
-1.8076172,0.10823912,0.015496995,0.18352179,0.1,1.01,0.09,15662,10111.10,0,0,165,0.56,-2.87,0.21,0.10,1.01,0.09
-1.8076172,0.10723912,0.016496994,0.18252179,0.1,1.0,0.09,15676,10111.10,0,0,0,0.49,-2.80,0.14,0.10,1.00,0.09
-1.8076172,0.10823912,0.015496995,0.18252179,0.1,1.0,0.1,15694,10111.10,0,0,165,0.56,-2.87,0.14,0.10,1.00,0.10
-0.90722656,0.10723912,0.014496993,0.18152179,0.09,1.01,0.1,15698,10112.00,0,0,0,0.49,-2.94,0.07,0.09,1.01,0.10
-1.8076172,0.10723912,0.016496994,0.18152179,0.1,1.01,0.1,15714,10111.10,0,0,165,0.49,-2.80,0.07,0.10,1.01,0.10
-0.90722656,0.10823912,0.016496994,0.18252179,0.09,1.0,0.1,15721,10112.00,0,0,0,0.56,-2.80,0.14,0.09,1.00,0.10
-1.8076172,0.10723912,0.016496994,0.18152179,0.09,1.0,0.1,15736,10111.10,0,0,165,0.49,-2.80,0.07,0.09,1.00,0.10
-1.8076172,0.10823912,0.015496995,0.18252179,0.1,1.01,0.1,15751,10111.10,0,0,0,0.56,-2.87,0.14,0.10,1.01,0.10
-1.8076172,0.10723912,0.015496995,0.18252179,0.09,1.01,0.09,15759,10111.10,0,0,165,0.49,-2.87,0.14,0.09,1.01,0.09
-2.2070312,0.10823912,0.015496995,0.18252179,0.09,1.01,0.09,15774,10110.70,0,0,0,0.56,-2.87,0.14,0.09,1.01,0.09
-0.90722656,0.10823912,0.015496995,0.18252179,0.1,1.01,0.09,15789,10112.00,0,0,165,0.56,-2.87,0.14,0.10,1.01,0.09
-1.8076172,0.10723912,0.016496994,0.18352179,0.1,1.0,0.09,15796,10111.10,0,0,0,0.49,-2.80,0.21,0.10,1.00,0.09
-2.2070312,0.10823912,0.017496992,0.18452178,0.1,1.01,0.09,15812,10110.70,0,0,165,0.56,-2.73,0.28,0.10,1.01,0.09
-1.8076172,0.10723912,0.015496995,0.18152179,0.1,1.0,0.1,15827,10111.10,0,0,0,0.49,-2.87,0.07,0.10,1.00,0.10
-3.1074219,0.10923912,0.014496993,0.18152179,0.09,1.0,0.1,15834,10109.80,0,0,165,0.63,-2.94,0.07,0.09,1.00,0.10
-1.8076172,0.10723912,0.015496995,0.18252179,0.1,1.01,0.1,15849,10111.10,0,0,0,0.49,-2.87,0.14,0.10,1.01,0.10
-1.8076172,0.10923912,0.015496995,0.18152179,0.1,1.0,0.1,15864,10111.10,0,0,165,0.63,-2.87,0.07,0.10,1.00,0.10
-2.2070312,0.10923912,0.016496994,0.18252179,0.1,1.0,0.1,15871,10110.70,0,0,0,0.63,-2.80,0.14,0.10,1.00,0.10
-2.2070312,0.10823912,0.015496995,0.18152179,0.1,1.01,0.1,15886,10110.70,0,0,165,0.56,-2.87,0.07,0.10,1.01,0.10
-2.8076172,0.10723912,0.016496994,0.18352179,0.1,1.01,0.09,15902,10110.10,0,0,0,0.49,-2.80,0.21,0.10,1.01,0.09
-0.90722656,0.10823912,0.014496993,0.18152179,0.1,1.01,0.09,15909,10112.00,0,0,165,0.56,-2.94,0.07,0.10,1.01,0.09
-2.2070312,0.10723912,0.016496994,0.18252179,0.1,1.0,0.09,15925,10110.70,0,0,0,0.49,-2.80,0.14,0.10,1.00,0.09
-1.2070312,0.10923912,0.015496995,0.18452178,0.1,1.0,0.09,15938,10111.70,0,0,165,0.63,-2.87,0.28,0.10,1.00,0.09
-1.8076172,0.10823912,0.016496994,0.18252179,0.1,1.0,0.1,15946,10111.10,0,0,0,0.56,-2.80,0.14,0.10,1.00,0.10
-1.8076172,0.10823912,0.016496994,0.18152179,0.1,1.0,0.09,15961,10111.10,0,0,165,0.56,-2.80,0.07,0.10,1.00,0.09
-0.90722656,0.10823912,0.015496995,0.18152179,0.1,1.0,0.1,15976,10112.00,0,0,0,0.56,-2.87,0.07,0.10,1.00,0.10
-1.8076172,0.10823912,0.015496995,0.18052179,0.1,1.0,0.1,15984,10111.10,0,0,165,0.56,-2.87,0.00,0.10,1.00,0.10
-1.8076172,0.10723912,0.016496994,0.18152179,0.1,1.01,0.1,15998,10111.10,0,0,0,0.49,-2.80,0.07,0.10,1.01,0.10
-1.8076172,0.10823912,0.015496995,0.17952178,0.1,1.01,0.1,16013,10111.10,0,0,165,0.56,-2.87,-0.07,0.10,1.01,0.10
-3.1074219,0.10923912,0.014496993,0.18052179,0.09,1.0,0.09,16020,10109.80,0,0,0,0.63,-2.94,0.00,0.09,1.00,0.09
-2.2070312,0.10823912,0.017496992,0.18152179,0.1,1.0,0.09,16036,10110.70,0,0,165,0.56,-2.73,0.07,0.10,1.00,0.09
-1.8076172,0.10823912,0.015496995,0.18152179,0.1,1.01,0.1,16052,10111.10,0,0,0,0.56,-2.87,0.07,0.10,1.01,0.10
-2.2070312,0.10823912,0.015496995,0.18352179,0.1,1.0,0.09,16059,10110.70,0,0,165,0.56,-2.87,0.21,0.10,1.00,0.09
-2.2070312,0.10723912,0.015496995,0.18352179,0.1,1.01,0.1,16075,10110.70,0,0,0,0.49,-2.87,0.21,0.10,1.01,0.10
-0.90722656,0.10823912,0.014496993,0.18352179,0.1,1.01,0.09,16089,10112.00,0,0,165,0.56,-2.94,0.21,0.10,1.01,0.09
-1.8076172,0.10723912,0.017496992,0.18352179,0.1,1.01,0.09,16096,10111.10,0,0,0,0.49,-2.73,0.21,0.10,1.01,0.09
-2.2070312,0.10723912,0.015496995,0.18252179,0.1,1.0,0.09,16111,10110.70,0,0,165,0.49,-2.87,0.14,0.10,1.00,0.09
-1.2070312,0.10723912,0.015496995,0.18052179,0.1,1.0,0.1,16126,10111.70,0,0,0,0.49,-2.87,0.00,0.10,1.00,0.10
-1.8076172,0.10823912,0.014496993,0.18152179,0.1,1.01,0.09,16133,10111.10,0,0,165,0.56,-2.94,0.07,0.10,1.01,0.09
-2.2070312,0.10823912,0.015496995,0.17952178,0.1,1.0,0.1,16148,10110.70,0,0,0,0.56,-2.87,-0.07,0.10,1.00,0.10
-2.2070312,0.10823912,0.015496995,0.18052179,0.1,1.0,0.1,16156,10110.70,0,0,165,0.56,-2.87,0.00,0.10,1.00,0.10
-2.2070312,0.10923912,0.016496994,0.18152179,0.1,1.0,0.1,16171,10110.70,0,0,0,0.63,-2.80,0.07,0.10,1.00,0.10
-2.8076172,0.10723912,0.015496995,0.18152179,0.1,1.01,0.1,16186,10110.10,0,0,165,0.49,-2.87,0.07,0.10,1.01,0.10
-2.2070312,0.10823912,0.015496995,0.18252179,0.09,1.0,0.09,16194,10110.70,0,0,0,0.56,-2.87,0.14,0.09,1.00,0.09
-2.2070312,0.10923912,0.015496995,0.18052179,0.09,1.01,0.09,16209,10110.70,0,0,165,0.63,-2.87,0.00,0.09,1.01,0.09
-1.8076172,0.10923912,0.016496994,0.18252179,0.1,1.01,0.09,16226,10111.10,0,0,0,0.63,-2.80,0.14,0.10,1.01,0.09
-1.2070312,0.10723912,0.015496995,0.18252179,0.1,1.01,0.09,16231,10111.70,0,0,165,0.49,-2.87,0.14,0.10,1.01,0.09
-1.8076172,0.10623912,0.015496995,0.18252179,0.1,1.0,0.09,16246,10111.10,0,0,0,0.42,-2.87,0.14,0.10,1.00,0.09
-2.2070312,0.10823912,0.015496995,0.18352179,0.1,1.01,0.09,16261,10110.70,0,0,165,0.56,-2.87,0.21,0.10,1.01,0.09
-1.8076172,0.10723912,0.015496995,0.18152179,0.1,1.01,0.09,16269,10111.10,0,0,0,0.49,-2.87,0.07,0.10,1.01,0.09
-1.2070312,0.10823912,0.015496995,0.18352179,0.1,1.0,0.1,16283,10111.70,0,0,165,0.56,-2.87,0.21,0.10,1.00,0.10
-2.2070312,0.10723912,0.015496995,0.18052179,0.1,1.01,0.1,16299,10110.70,0,0,0,0.49,-2.87,0.00,0.10,1.01,0.10
-0.90722656,0.10723912,0.016496994,0.18052179,0.1,1.0,0.1,16306,10112.00,0,0,165,0.49,-2.80,0.00,0.10,1.00,0.10
-2.2070312,0.10823912,0.015496995,0.18052179,0.1,1.01,0.09,16321,10110.70,0,0,0,0.56,-2.87,0.00,0.10,1.01,0.09
-1.8076172,0.10823912,0.015496995,0.18252179,0.1,1.0,0.09,16336,10111.10,0,0,165,0.56,-2.87,0.14,0.10,1.00,0.09
-2.2070312,0.10823912,0.015496995,0.18152179,0.1,1.01,0.1,16344,10110.70,0,0,0,0.56,-2.87,0.07,0.10,1.01,0.10
-2.2070312,0.10823912,0.016496994,0.18152179,0.1,1.0,0.09,16358,10110.70,0,0,165,0.56,-2.80,0.07,0.10,1.00,0.09
-1.8076172,0.10823912,0.015496995,0.18352179,0.09,1.0,0.1,16374,10111.10,0,0,0,0.56,-2.87,0.21,0.09,1.00,0.10
-2.2070312,0.10723912,0.015496995,0.18252179,0.1,1.0,0.09,16381,10110.70,0,0,165,0.49,-2.87,0.14,0.10,1.00,0.09
-2.2070312,0.10723912,0.015496995,0.18152179,0.1,1.01,0.09,16395,10110.70,0,0,0,0.49,-2.87,0.07,0.10,1.01,0.09
-2.2070312,0.10923912,0.016496994,0.18252179,0.1,1.01,0.09,16410,10110.70,0,0,165,0.63,-2.80,0.14,0.10,1.01,0.09
-1.8076172,0.10923912,0.017496992,0.18152179,0.09,1.01,0.09,16419,10111.10,0,0,0,0.63,-2.73,0.07,0.09,1.01,0.09
-2.2070312,0.10623912,0.015496995,0.18152179,0.1,1.01,0.1,16434,10110.70,0,0,165,0.42,-2.87,0.07,0.10,1.01,0.10
-3.1074219,0.10723912,0.016496994,0.18352179,0.09,1.01,0.1,16448,10109.80,0,0,0,0.49,-2.80,0.21,0.09,1.01,0.10
-2.2070312,0.10823912,0.016496994,0.18252179,0.1,1.01,0.1,16456,10110.70,0,0,165,0.56,-2.80,0.14,0.10,1.01,0.10
-3.1074219,0.10723912,0.015496995,0.18052179,0.1,1.01,0.1,16471,10109.80,0,0,0,0.49,-2.87,0.00,0.10,1.01,0.10
-2.2070312,0.10723912,0.015496995,0.18152179,0.09,1.0,0.1,16486,10110.70,0,0,165,0.49,-2.87,0.07,0.09,1.00,0.10
-2.2070312,0.10923912,0.015496995,0.18352179,0.1,1.0,0.1,16502,10110.70,0,0,0,0.63,-2.87,0.21,0.10,1.00,0.10
-2.2070312,0.10723912,0.016496994,0.18152179,0.1,1.01,0.1,16512,10110.70,0,0,165,0.49,-2.80,0.07,0.10,1.01,0.10
-2.2070312,0.10823912,0.014496993,0.18252179,0.1,1.01,0.1,16524,10110.70,0,0,0,0.56,-2.94,0.14,0.10,1.01,0.10
-2.2070312,0.10823912,0.016496994,0.18252179,0.1,1.0,0.1,16531,10110.70,0,0,165,0.56,-2.80,0.14,0.10,1.00,0.10
-1.2070312,0.10723912,0.014496993,0.18152179,0.1,1.01,0.1,16546,10111.70,0,0,0,0.49,-2.94,0.07,0.10,1.01,0.10
-2.2070312,0.10723912,0.015496995,0.18052179,0.1,1.0,0.1,16561,10110.70,0,0,165,0.49,-2.87,0.00,0.10,1.00,0.10
-2.2070312,0.10623912,0.015496995,0.18052179,0.1,1.01,0.1,16568,10110.70,0,0,0,0.42,-2.87,0.00,0.10,1.01,0.10
-2.2070312,0.11023912,0.015496995,0.18252179,0.1,1.01,0.09,16583,10110.70,0,0,165,0.70,-2.87,0.14,0.10,1.01,0.09
-1.2070312,0.10623912,0.015496995,0.18052179,0.1,1.01,0.09,16600,10111.70,0,0,0,0.42,-2.87,0.00,0.10,1.01,0.09
-1.8076172,0.10823912,0.016496994,0.18252179,0.1,1.01,0.09,16606,10111.10,0,0,165,0.56,-2.80,0.14,0.10,1.01,0.09
-2.2070312,0.10823912,0.016496994,0.18252179,0.1,1.01,0.1,16621,10110.70,0,0,0,0.56,-2.80,0.14,0.10,1.01,0.10
-2.2070312,0.10823912,0.016496994,0.18352179,0.1,1.0,0.09,16636,10110.70,0,0,165,0.56,-2.80,0.21,0.10,1.00,0.09
-2.2070312,0.11023912,0.015496995,0.18152179,0.1,1.01,0.09,16643,10110.70,0,0,0,0.70,-2.87,0.07,0.10,1.01,0.09
-1.2070312,0.10723912,0.016496994,0.18052179,0.1,1.0,0.09,16661,10111.70,0,0,165,0.49,-2.80,0.00,0.10,1.00,0.09
-2.2070312,0.10823912,0.015496995,0.18352179,0.1,1.0,0.09,16674,10110.70,0,0,0,0.56,-2.87,0.21,0.10,1.00,0.09
-2.2070312,0.10723912,0.015496995,0.18152179,0.1,1.01,0.1,16681,10110.70,0,0,165,0.49,-2.87,0.07,0.10,1.01,0.10
-1.2070312,0.10723912,0.014496993,0.18052179,0.1,1.01,0.1,16696,10111.70,0,0,0,0.49,-2.94,0.00,0.10,1.01,0.10
-2.2070312,0.10823912,0.015496995,0.18152179,0.1,1.0,0.1,16711,10110.70,0,0,165,0.56,-2.87,0.07,0.10,1.00,0.10
-2.2070312,0.10723912,0.015496995,0.18052179,0.1,1.0,0.1,16718,10110.70,0,0,0,0.49,-2.87,0.00,0.10,1.00,0.10
-2.2070312,0.11123912,0.016496994,0.18252179,0.1,1.0,0.1,16733,10110.70,0,0,165,0.77,-2.80,0.14,0.10,1.00,0.10
-2.2070312,0.10723912,0.016496994,0.18152179,0.1,1.01,0.1,16748,10110.70,0,0,0,0.49,-2.80,0.07,0.10,1.01,0.10
-2.2070312,0.10823912,0.015496995,0.18152179,0.1,1.01,0.09,16756,10110.70,0,0,165,0.56,-2.87,0.07,0.10,1.01,0.09
-2.2070312,0.10823912,0.015496995,0.18352179,0.1,1.01,0.09,16771,10110.70,0,0,0,0.56,-2.87,0.21,0.10,1.01,0.09
-2.2070312,0.10823912,0.014496993,0.18352179,0.1,1.01,0.09,16786,10110.70,0,0,165,0.56,-2.94,0.21,0.10,1.01,0.09
-2.2070312,0.10823912,0.017496992,0.18352179,0.1,1.0,0.09,16793,10110.70,0,0,0,0.56,-2.73,0.21,0.10,1.00,0.09
-2.2070312,0.10923912,0.016496994,0.18252179,0.1,1.01,0.1,16809,10110.70,0,0,165,0.63,-2.80,0.14,0.10,1.01,0.10
-3.1074219,0.10623912,0.015496995,0.18152179,0.1,1.0,0.1,16824,10109.80,0,0,0,0.42,-2.87,0.07,0.10,1.00,0.10
-2.2070312,0.10623912,0.017496992,0.18152179,0.1,1.01,0.1,16831,10110.70,0,0,165,0.42,-2.73,0.07,0.10,1.01,0.10
-3.1074219,0.10623912,0.015496995,0.18252179,0.1,1.01,0.1,16846,10109.80,0,0,0,0.42,-2.87,0.14,0.10,1.01,0.10
-1.2070312,0.10823912,0.016496994,0.18252179,0.1,1.01,0.1,16862,10111.70,0,0,165,0.56,-2.80,0.14,0.10,1.01,0.10
-2.2070312,0.10723912,0.015496995,0.18252179,0.1,1.0,0.1,16868,10110.70,0,0,0,0.49,-2.87,0.14,0.10,1.00,0.10
-2.2070312,0.10823912,0.017496992,0.18252179,0.1,1.0,0.1,16883,10110.70,0,0,165,0.56,-2.73,0.14,0.10,1.00,0.10
-2.2070312,0.10823912,0.015496995,0.18252179,0.1,1.01,0.1,16898,10110.70,0,0,0,0.56,-2.87,0.14,0.10,1.01,0.10
-2.506836,0.10723912,0.015496995,0.18452178,0.1,1.0,0.09,16906,10110.40,0,0,165,0.49,-2.87,0.28,0.10,1.00,0.09
-3.1074219,0.10723912,0.016496994,0.18152179,0.1,1.0,0.1,16923,10109.80,0,0,0,0.49,-2.80,0.07,0.10,1.00,0.10
-2.2070312,0.10723912,0.016496994,0.18252179,0.1,1.01,0.09,16936,10110.70,0,0,165,0.49,-2.80,0.14,0.10,1.01,0.09
-2.2070312,0.10923912,0.014496993,0.18152179,0.1,1.01,0.1,16943,10110.70,0,0,0,0.63,-2.94,0.07,0.10,1.01,0.10
-2.2070312,0.10623912,0.016496994,0.18152179,0.1,1.01,0.1,16958,10110.70,0,0,165,0.42,-2.80,0.07,0.10,1.01,0.10
-2.2070312,0.10723912,0.015496995,0.18152179,0.1,1.01,0.1,16981,10110.70,0,0,0,0.49,-2.87,0.07,0.10,1.01,0.10
-1.2070312,0.10823912,0.016496994,0.18152179,0.1,1.0,0.09,16982,10111.70,0,0,165,0.56,-2.80,0.07,0.10,1.00,0.09
-2.2070312,0.10823912,0.015496995,0.18152179,0.1,1.01,0.1,16996,10110.70,0,0,0,0.56,-2.87,0.07,0.10,1.01,0.10
-3.1074219,0.10823912,0.017496992,0.18252179,0.1,1.0,0.1,17004,10109.80,0,0,165,0.56,-2.73,0.14,0.10,1.00,0.10
-2.2070312,0.10723912,0.015496995,0.18352179,0.1,1.01,0.09,17019,10110.70,0,0,0,0.49,-2.87,0.21,0.10,1.01,0.09
-2.2070312,0.10923912,0.015496995,0.18152179,0.1,1.0,0.09,17034,10110.70,0,0,165,0.63,-2.87,0.07,0.10,1.00,0.09
-2.506836,0.10723912,0.015496995,0.18352179,0.1,1.01,0.1,17041,10110.40,0,0,0,0.49,-2.87,0.21,0.10,1.01,0.10
-2.2070312,0.10923912,0.015496995,0.18252179,0.1,1.01,0.09,17056,10110.70,0,0,165,0.63,-2.87,0.14,0.10,1.01,0.09
-2.2070312,0.10723912,0.016496994,0.18252179,0.1,1.01,0.09,17072,10110.70,0,0,0,0.49,-2.80,0.14,0.10,1.01,0.09
-3.1074219,0.10823912,0.015496995,0.18252179,0.1,1.0,0.09,17079,10109.80,0,0,165,0.56,-2.87,0.14,0.10,1.00,0.09
-2.2070312,0.10823912,0.016496994,0.18152179,0.1,1.01,0.1,17094,10110.70,0,0,0,0.56,-2.80,0.07,0.10,1.01,0.10
-2.2070312,0.10723912,0.014496993,0.18252179,0.1,1.01,0.1,17108,10110.70,0,0,165,0.49,-2.94,0.14,0.10,1.01,0.10
-2.2070312,0.10923912,0.014496993,0.18152179,0.1,1.0,0.1,17116,10110.70,0,0,0,0.63,-2.94,0.07,0.10,1.00,0.10
-1.2070312,0.10823912,0.015496995,0.18152179,0.1,1.01,0.09,17132,10111.70,0,0,165,0.56,-2.87,0.07,0.10,1.01,0.09
-4.506836,0.10723912,0.014496993,0.18152179,0.1,1.01,0.1,17146,10108.40,0,0,0,0.49,-2.94,0.07,0.10,1.01,0.10
-2.506836,0.10723912,0.015496995,0.18352179,0.1,1.01,0.1,17153,10110.40,0,0,165,0.49,-2.87,0.21,0.10,1.01,0.10
-2.2070312,0.10823912,0.015496995,0.18252179,0.1,1.0,0.1,17168,10110.70,0,0,0,0.56,-2.87,0.14,0.10,1.00,0.10
-2.2070312,0.10923912,0.015496995,0.18252179,0.1,1.0,0.09,17183,10110.70,0,0,165,0.63,-2.87,0.14,0.10,1.00,0.09
-2.2070312,0.10923912,0.016496994,0.18252179,0.1,1.0,0.09,17191,10110.70,0,0,0,0.63,-2.80,0.14,0.10,1.00,0.09
-2.2070312,0.10823912,0.014496993,0.18452178,0.1,1.01,0.1,17206,10110.70,0,0,165,0.56,-2.94,0.28,0.10,1.01,0.10
-2.506836,0.10723912,0.014496993,0.18252179,0.1,1.01,0.09,17221,10110.40,0,0,0,0.49,-2.94,0.14,0.10,1.01,0.09
-2.2070312,0.10723912,0.015496995,0.18152179,0.1,1.01,0.1,17228,10110.70,0,0,165,0.49,-2.87,0.07,0.10,1.01,0.10
-2.2070312,0.10623912,0.015496995,0.18052179,0.1,1.0,0.1,17244,10110.70,0,0,0,0.42,-2.87,0.00,0.10,1.00,0.10
-1.2070312,0.10623912,0.014496993,0.18052179,0.1,1.01,0.1,17259,10111.70,0,0,165,0.42,-2.94,0.00,0.10,1.01,0.10
-1.2070312,0.10823912,0.016496994,0.18352179,0.1,1.0,0.1,17266,10111.70,0,0,0,0.56,-2.80,0.21,0.10,1.00,0.10
-2.2070312,0.10823912,0.015496995,0.18352179,0.1,1.0,0.1,17281,10110.70,0,0,165,0.56,-2.87,0.21,0.10,1.00,0.10
-3.1074219,0.10823912,0.016496994,0.18252179,0.1,1.0,0.1,17296,10109.80,0,0,0,0.56,-2.80,0.14,0.10,1.00,0.10
-2.506836,0.10723912,0.015496995,0.18152179,0.1,1.0,0.09,17304,10110.40,0,0,165,0.49,-2.87,0.07,0.10,1.00,0.09
-2.2070312,0.10823912,0.015496995,0.18252179,0.1,1.01,0.09,17319,10110.70,0,0,0,0.56,-2.87,0.14,0.10,1.01,0.09
-2.506836,0.10923912,0.016496994,0.18352179,0.1,1.0,0.1,17333,10110.40,0,0,165,0.63,-2.80,0.21,0.10,1.00,0.10
-1.5068359,0.10723912,0.015496995,0.18352179,0.1,1.0,0.1,17341,10111.40,0,0,0,0.49,-2.87,0.21,0.10,1.00,0.10
-2.2070312,0.10623912,0.015496995,0.18252179,0.1,1.01,0.09,17356,10110.70,0,0,165,0.42,-2.87,0.14,0.10,1.01,0.09
-2.2070312,0.10623912,0.015496995,0.18152179,0.1,1.01,0.1,17371,10110.70,0,0,0,0.42,-2.87,0.07,0.10,1.01,0.10
-2.506836,0.10723912,0.013496991,0.18052179,0.1,1.0,0.1,17379,10110.40,0,0,165,0.49,-3.01,0.00,0.10,1.00,0.10
-2.506836,0.10723912,0.014496993,0.18052179,0.1,1.0,0.1,17395,10110.40,0,0,0,0.49,-2.94,0.00,0.10,1.00,0.10
-1.2070312,0.10923912,0.016496994,0.18052179,0.1,1.0,0.1,17411,10111.70,0,0,165,0.63,-2.80,0.00,0.10,1.00,0.10
-2.506836,0.10823912,0.016496994,0.18252179,0.09,1.01,0.1,17416,10110.40,0,0,0,0.56,-2.80,0.14,0.09,1.01,0.10
-2.2070312,0.10923912,0.016496994,0.18252179,0.09,1.01,0.1,17432,10110.70,0,0,165,0.63,-2.80,0.14,0.09,1.01,0.10
-2.506836,0.10923912,0.016496994,0.18552178,0.09,1.0,0.09,17446,10110.40,0,0,0,0.63,-2.80,0.35,0.09,1.00,0.09
-2.506836,0.11023912,0.016496994,0.18352179,0.09,1.01,0.09,17454,10110.40,0,0,165,0.70,-2.80,0.21,0.09,1.01,0.09
-2.506836,0.10823912,0.015496995,0.18352179,0.09,1.01,0.09,17469,10110.40,0,0,0,0.56,-2.87,0.21,0.09,1.01,0.09
-2.506836,0.10623912,0.015496995,0.18352179,0.1,1.0,0.08,17483,10110.40,0,0,165,0.42,-2.87,0.21,0.10,1.00,0.08
-3.1074219,0.10623912,0.015496995,0.18252179,0.09,1.01,0.09,17492,10109.80,0,0,0,0.42,-2.87,0.14,0.09,1.01,0.09
-1.5068359,0.10523912,0.016496994,0.18152179,0.1,1.0,0.1,17506,10111.40,0,0,165,0.35,-2.80,0.07,0.10,1.00,0.10
-3.1074219,0.10323912,0.014496993,0.18252179,0.1,1.0,0.1,17521,10109.80,0,0,0,0.21,-2.94,0.14,0.10,1.00,0.10
-2.506836,0.10323912,0.017496992,0.18052179,0.1,1.01,0.11,17528,10110.40,0,0,165,0.21,-2.73,0.00,0.10,1.01,0.11
-1.5068359,0.10723912,0.015496995,0.18052179,0.1,1.0,0.11,17543,10111.40,0,0,0,0.49,-2.87,0.00,0.10,1.00,0.11
-2.506836,0.10723912,0.016496994,0.18252179,0.1,1.01,0.11,17566,10110.40,0,0,165,0.49,-2.80,0.14,0.10,1.01,0.11
-2.506836,0.11023912,0.017496992,0.18352179,0.1,1.01,0.1,17567,10110.40,0,0,0,0.70,-2.73,0.21,0.10,1.01,0.10
-4.506836,0.11123912,0.014496993,0.18452178,0.1,1.01,0.1,17581,10108.40,0,0,165,0.77,-2.94,0.28,0.10,1.01,0.10
-1.2070312,0.11123912,0.015496995,0.18152179,0.1,1.01,0.09,17597,10111.70,0,0,0,0.77,-2.87,0.07,0.10,1.01,0.09
-2.506836,0.10923912,0.014496993,0.17852178,0.1,1.0,0.09,17603,10110.40,0,0,165,0.63,-2.94,-0.14,0.10,1.00,0.09
-1.5068359,0.10923912,0.015496995,0.17952178,0.09,1.01,0.09,17618,10111.40,0,0,0,0.63,-2.87,-0.07,0.09,1.01,0.09
-1.5068359,0.10923912,0.014496993,0.18052179,0.09,1.0,0.09,17633,10111.40,0,0,165,0.63,-2.94,0.00,0.09,1.00,0.09
-1.5068359,0.10623912,0.015496995,0.18252179,0.09,1.0,0.09,17641,10111.40,0,0,0,0.42,-2.87,0.14,0.09,1.00,0.09
-3.506836,0.10723912,0.016496994,0.18152179,0.09,1.0,0.09,17655,10109.40,0,0,165,0.49,-2.80,0.07,0.09,1.00,0.09
-2.2070312,0.10823912,0.016496994,0.18152179,0.09,1.01,0.1,17670,10110.70,0,0,0,0.56,-2.80,0.07,0.09,1.01,0.10
-2.506836,0.10723912,0.016496994,0.18252179,0.09,1.01,0.09,17679,10110.40,0,0,165,0.49,-2.80,0.14,0.09,1.01,0.09
-1.2070312,0.10623912,0.017496992,0.18452178,0.1,1.0,0.1,17694,10111.70,0,0,0,0.42,-2.73,0.28,0.10,1.00,0.10
-2.506836,0.10623912,0.016496994,0.18552178,0.1,1.0,0.1,17708,10110.40,0,0,165,0.42,-2.80,0.35,0.10,1.00,0.10
-2.506836,0.10823912,0.015496995,0.18352179,0.1,1.0,0.1,17715,10110.40,0,0,0,0.56,-2.87,0.21,0.10,1.00,0.10
-2.506836,0.10823912,0.017496992,0.18352179,0.1,1.0,0.1,17731,10110.40,0,0,165,0.56,-2.73,0.21,0.10,1.00,0.10
-2.506836,0.11023912,0.015496995,0.18252179,0.1,1.0,0.1,17746,10110.40,0,0,0,0.70,-2.87,0.14,0.10,1.00,0.10
-2.506836,0.11023912,0.017496992,0.18152179,0.1,1.01,0.1,17753,10110.40,0,0,165,0.70,-2.73,0.07,0.10,1.01,0.10
-2.506836,0.10823912,0.016496994,0.18152179,0.1,1.01,0.09,17768,10110.40,0,0,0,0.56,-2.80,0.07,0.10,1.01,0.09
-2.506836,0.10823912,0.016496994,0.18052179,0.1,1.01,0.09,17783,10110.40,0,0,165,0.56,-2.80,0.00,0.10,1.01,0.09
-2.506836,0.10823912,0.016496994,0.18252179,0.1,1.0,0.09,17791,10110.40,0,0,0,0.56,-2.80,0.14,0.10,1.00,0.09
-2.506836,0.10923912,0.016496994,0.18152179,0.09,1.01,0.09,17806,10110.40,0,0,165,0.63,-2.80,0.07,0.09,1.01,0.09
-1.5068359,0.10923912,0.015496995,0.18052179,0.09,1.0,0.09,17821,10111.40,0,0,0,0.63,-2.87,0.00,0.09,1.00,0.09
-2.506836,0.10523912,0.015496995,0.18152179,0.1,1.0,0.1,17829,10110.40,0,0,165,0.35,-2.87,0.07,0.10,1.00,0.10
-2.506836,0.10323912,0.015496995,0.18452178,0.1,1.01,0.1,17846,10110.40,0,0,0,0.21,-2.87,0.28,0.10,1.01,0.10
-2.506836,0.11123912,0.016496994,0.18152179,0.1,1.0,0.1,17859,10110.40,0,0,165,0.77,-2.80,0.07,0.10,1.00,0.10
-2.506836,0.11023912,0.015496995,0.18152179,0.1,1.01,0.1,17866,10110.40,0,0,0,0.70,-2.87,0.07,0.10,1.01,0.10
-1.5068359,0.11023912,0.015496995,0.18252179,0.1,1.01,0.1,17881,10111.40,0,0,165,0.70,-2.87,0.14,0.10,1.01,0.10
-3.506836,0.10823912,0.014496993,0.18252179,0.1,1.0,0.1,17896,10109.40,0,0,0,0.56,-2.94,0.14,0.10,1.00,0.10
-3.506836,0.11023912,0.015496995,0.18452178,0.1,1.01,0.09,17903,10109.40,0,0,165,0.70,-2.87,0.28,0.10,1.01,0.09
-2.506836,0.10923912,0.015496995,-0.072478205,0.1,1.01,0.09,17918,10110.40,0,0,0,0.63,-2.87,-17.71,0.10,1.01,0.09
-2.506836,0.10723912,0.015496995,0.18052179,0.1,1.0,0.09,17933,10110.40,0,0,165,0.49,-2.87,0.00,0.10,1.00,0.09
-2.506836,0.10723912,0.016496994,0.18252179,0.1,1.01,0.09,17941,10110.40,0,0,0,0.49,-2.80,0.14,0.10,1.01,0.09
-3.506836,0.10723912,0.015496995,0.18252179,0.1,1.0,0.09,17956,10109.40,0,0,165,0.49,-2.87,0.14,0.10,1.00,0.09
-1.5068359,0.10623912,0.017496992,0.18152179,0.1,1.0,0.1,17971,10111.40,0,0,0,0.42,-2.73,0.07,0.10,1.00,0.10
-3.506836,0.10723912,0.015496995,0.18052179,0.1,1.01,0.1,17979,10109.40,0,0,165,0.49,-2.87,0.00,0.10,1.01,0.10
-2.506836,0.10723912,0.015496995,0.18152179,0.1,1.0,0.1,17996,10110.40,0,0,0,0.49,-2.87,0.07,0.10,1.00,0.10
-1.5068359,0.10723912,0.015496995,0.18352179,0.1,1.0,0.1,18011,10111.40,0,0,165,0.49,-2.87,0.21,0.10,1.00,0.10
-3.506836,0.10823912,0.015496995,0.18352179,0.1,1.01,0.1,18016,10109.40,0,0,0,0.56,-2.87,0.21,0.10,1.01,0.10
-2.506836,0.10923912,0.015496995,0.18052179,0.1,1.0,0.1,18031,10110.40,0,0,165,0.63,-2.87,0.00,0.10,1.00,0.10
-2.506836,0.10923912,0.016496994,0.18252179,0.1,1.01,0.09,18046,10110.40,0,0,0,0.63,-2.80,0.14,0.10,1.01,0.09
-2.506836,0.11023912,0.015496995,0.18152179,0.1,1.0,0.09,18054,10110.40,0,0,165,0.70,-2.87,0.07,0.10,1.00,0.09
-1.5068359,0.10823912,0.016496994,0.18252179,0.1,1.01,0.09,18069,10111.40,0,0,0,0.56,-2.80,0.14,0.10,1.01,0.09
-2.506836,0.10723912,0.015496995,0.18252179,0.1,1.0,0.09,18084,10110.40,0,0,165,0.49,-2.87,0.14,0.10,1.00,0.09
-2.506836,0.10623912,0.015496995,0.18052179,0.1,1.01,0.09,18091,10110.40,0,0,0,0.42,-2.87,0.00,0.10,1.01,0.09
-2.506836,0.10823912,0.016496994,0.18252179,0.09,1.01,0.09,18106,10110.40,0,0,165,0.56,-2.80,0.14,0.09,1.01,0.09
-1.5068359,0.10923912,0.016496994,0.18252179,0.1,1.01,0.1,18121,10111.40,0,0,0,0.63,-2.80,0.14,0.10,1.01,0.10
-2.506836,0.10723912,0.016496994,0.18452178,0.1,1.0,0.1,18128,10110.40,0,0,165,0.49,-2.80,0.28,0.10,1.00,0.10
-2.506836,0.10823912,0.015496995,0.18252179,0.1,1.01,0.1,18143,10110.40,0,0,0,0.56,-2.87,0.14,0.10,1.01,0.10
-1.5068359,0.10923912,0.015496995,0.18152179,0.1,1.01,0.1,18158,10111.40,0,0,165,0.63,-2.87,0.07,0.10,1.01,0.10
-2.506836,0.10823912,0.015496995,0.18152179,0.09,1.01,0.1,18166,10110.40,0,0,0,0.56,-2.87,0.07,0.09,1.01,0.10
-2.506836,0.10823912,0.015496995,0.18152179,0.1,1.01,0.1,18181,10110.40,0,0,165,0.56,-2.87,0.07,0.10,1.01,0.10
-1.5068359,0.10923912,0.015496995,0.18252179,0.1,1.01,0.1,18196,10111.40,0,0,0,0.63,-2.87,0.14,0.10,1.01,0.10
-2.506836,0.10823912,0.015496995,0.18152179,0.1,1.01,0.09,18204,10110.40,0,0,165,0.56,-2.87,0.07,0.10,1.01,0.09
-2.506836,0.10923912,0.016496994,0.18352179,0.1,1.01,0.09,18219,10110.40,0,0,0,0.63,-2.80,0.21,0.10,1.01,0.09
-1.5068359,0.10723912,0.016496994,0.18352179,0.1,1.0,0.09,18234,10111.40,0,0,165,0.49,-2.80,0.21,0.10,1.00,0.09
-2.506836,0.10623912,0.015496995,0.18152179,0.1,1.0,0.1,18245,10110.40,0,0,0,0.42,-2.87,0.07,0.10,1.00,0.10
-2.2070312,0.10623912,0.016496994,0.18252179,0.1,1.01,0.1,18256,10110.70,0,0,165,0.42,-2.80,0.14,0.10,1.01,0.10
-3.506836,0.10823912,0.015496995,0.18152179,0.1,1.0,0.1,18272,10109.40,0,0,0,0.56,-2.87,0.07,0.10,1.00,0.10
-2.506836,0.10923912,0.015496995,0.18052179,0.1,1.0,0.1,18280,10110.40,0,0,165,0.63,-2.87,0.00,0.10,1.00,0.10
-1.5068359,0.10623912,0.015496995,0.18052179,0.1,1.01,0.1,18294,10111.40,0,0,0,0.42,-2.87,0.00,0.10,1.01,0.10
-2.8076172,0.10923912,0.015496995,0.17752178,0.1,1.0,0.1,18308,10110.10,0,0,165,0.63,-2.87,-0.21,0.10,1.00,0.10
-2.506836,0.10823912,0.014496993,0.18152179,0.1,1.0,0.1,18316,10110.40,0,0,0,0.56,-2.94,0.07,0.10,1.00,0.10
-2.506836,0.10823912,0.015496995,0.18152179,0.09,1.01,0.1,18331,10110.40,0,0,165,0.56,-2.87,0.07,0.09,1.01,0.10
-2.506836,0.10823912,0.017496992,0.18252179,0.1,1.01,0.09,18346,10110.40,0,0,0,0.56,-2.73,0.14,0.10,1.01,0.09
-2.506836,0.10923912,0.015496995,0.18452178,0.1,1.0,0.1,18353,10110.40,0,0,165,0.63,-2.87,0.28,0.10,1.00,0.10
-3.506836,0.10823912,0.015496995,0.18252179,0.1,1.0,0.1,18368,10109.40,0,0,0,0.56,-2.87,0.14,0.10,1.00,0.10
-2.506836,0.10923912,0.017496992,0.18352179,0.1,1.0,0.1,18384,10110.40,0,0,165,0.63,-2.73,0.21,0.10,1.00,0.10
-2.8076172,0.10723912,0.017496992,0.18252179,0.1,1.01,0.1,18391,10110.10,0,0,0,0.49,-2.73,0.14,0.10,1.01,0.10
-3.506836,0.10823912,0.016496994,0.18152179,0.1,1.01,0.1,18406,10109.40,0,0,165,0.56,-2.80,0.07,0.10,1.01,0.10
-1.5068359,0.10723912,0.016496994,0.18152179,0.1,1.01,0.1,18421,10111.40,0,0,0,0.49,-2.80,0.07,0.10,1.01,0.10
-2.506836,0.10923912,0.016496994,0.17952178,0.1,1.0,0.1,18428,10110.40,0,0,165,0.63,-2.80,-0.07,0.10,1.00,0.10
-2.506836,0.11123912,0.015496995,0.18252179,0.1,1.01,0.1,18445,10110.40,0,0,0,0.77,-2.87,0.14,0.10,1.01,0.10
-2.506836,0.10723912,0.014496993,0.18052179,0.1,1.0,0.1,18459,10110.40,0,0,165,0.49,-2.94,0.00,0.10,1.00,0.10
-2.506836,0.10823912,0.014496993,0.18252179,0.09,1.0,0.09,18466,10110.40,0,0,0,0.56,-2.94,0.14,0.09,1.00,0.09
-1.5068359,0.10923912,0.016496994,0.18252179,0.09,1.0,0.1,18481,10111.40,0,0,165,0.63,-2.80,0.14,0.09,1.00,0.10
-2.506836,0.10823912,0.016496994,0.18352179,0.1,1.0,0.1,18495,10110.40,0,0,0,0.56,-2.80,0.21,0.10,1.00,0.10
-2.506836,0.10923912,0.016496994,0.18352179,0.1,1.01,0.1,18512,10110.40,0,0,165,0.63,-2.80,0.21,0.10,1.01,0.10
-2.506836,0.10823912,0.016496994,0.18352179,0.1,1.0,0.1,18518,10110.40,0,0,0,0.56,-2.80,0.21,0.10,1.00,0.10
-2.506836,0.10623912,0.015496995,0.18252179,0.1,1.01,0.1,18526,10110.40,0,0,165,0.42,-2.87,0.14,0.10,1.01,0.10
-3.506836,0.10623912,0.015496995,0.18052179,0.1,1.01,0.1,18541,10109.40,0,0,0,0.42,-2.87,0.00,0.10,1.01,0.10
-0.50683594,0.10823912,0.015496995,0.18152179,0.1,1.0,0.1,18556,10112.40,0,0,165,0.56,-2.87,0.07,0.10,1.00,0.10
-2.506836,0.11023912,0.016496994,0.18252179,0.1,1.0,0.1,18563,10110.40,0,0,0,0.70,-2.80,0.14,0.10,1.00,0.10
-3.506836,0.10923912,0.015496995,0.18252179,0.1,1.01,0.1,18578,10109.40,0,0,165,0.63,-2.87,0.14,0.10,1.01,0.10
-1.5068359,0.11223912,0.014496993,0.17952178,0.1,1.0,0.09,18593,10111.40,0,0,0,0.84,-2.94,-0.07,0.10,1.00,0.09
-1.8076172,0.10923912,0.015496995,0.18052179,0.1,1.0,0.09,18601,10111.10,0,0,165,0.63,-2.87,0.00,0.10,1.00,0.09
-2.8076172,0.10323912,0.016496994,0.18352179,0.1,1.01,0.09,18616,10110.10,0,0,0,0.21,-2.80,0.21,0.10,1.01,0.09
-2.8076172,0.10623912,0.015496995,0.18252179,0.1,1.0,0.09,18631,10110.10,0,0,165,0.42,-2.87,0.14,0.10,1.00,0.09
-1.8076172,0.10523912,0.015496995,0.18152179,0.1,1.01,0.1,18639,10111.10,0,0,0,0.35,-2.87,0.07,0.10,1.01,0.10
-2.506836,0.10623912,0.014496993,0.18152179,0.1,1.01,0.1,18654,10110.40,0,0,165,0.42,-2.94,0.07,0.10,1.01,0.10
-2.506836,0.11023912,0.013496991,0.18052179,0.09,1.0,0.1,18669,10110.40,0,0,0,0.70,-3.01,0.00,0.09,1.00,0.10
-2.506836,0.11123912,0.013496991,0.18252179,0.09,1.01,0.1,18676,10110.40,0,0,165,0.77,-3.01,0.14,0.09,1.01,0.10
-1.8076172,0.10823912,0.014496993,0.43552178,0.09,1.0,0.09,18691,10111.10,0,0,0,0.56,-2.94,17.85,0.09,1.00,0.09
-1.8076172,0.11123912,0.016496994,0.18352179,0.1,1.0,0.09,18706,10111.10,0,0,165,0.77,-2.80,0.21,0.10,1.00,0.09
-1.8076172,0.10523912,0.017496992,0.18152179,0.1,1.01,0.1,18714,10111.10,0,0,0,0.35,-2.73,0.07,0.10,1.01,0.10
-2.8076172,0.10423912,0.017496992,0.18252179,0.1,1.0,0.09,18729,10110.10,0,0,165,0.28,-2.73,0.14,0.10,1.00,0.09
-1.5068359,0.10923912,0.015496995,0.18252179,0.1,1.0,0.09,18744,10111.40,0,0,0,0.63,-2.87,0.14,0.10,1.00,0.09
-2.506836,0.10723912,0.014496993,0.18352179,0.1,1.0,0.09,18751,10110.40,0,0,165,0.49,-2.94,0.21,0.10,1.00,0.09
-1.5068359,0.11023912,0.015496995,0.18152179,0.1,1.01,0.09,18767,10111.40,0,0,0,0.70,-2.87,0.07,0.10,1.01,0.09
-2.8076172,0.11023912,0.014496993,0.18152179,0.1,1.01,0.09,18781,10110.10,0,0,165,0.70,-2.94,0.07,0.10,1.01,0.09
-1.8076172,0.10723912,0.016496994,0.18152179,0.1,1.01,0.09,18788,10111.10,0,0,0,0.49,-2.80,0.07,0.10,1.01,0.09
-1.8076172,0.10623912,0.015496995,0.18252179,0.1,1.01,0.1,18804,10111.10,0,0,165,0.42,-2.87,0.14,0.10,1.01,0.10
-2.8076172,0.10423912,0.017496992,0.18252179,0.1,1.0,0.11,18819,10110.10,0,0,0,0.28,-2.73,0.14,0.10,1.00,0.11
-2.8076172,0.10523912,0.015496995,0.18252179,0.1,1.01,0.11,18828,10110.10,0,0,165,0.35,-2.87,0.14,0.10,1.01,0.11
-2.8076172,0.11023912,0.014496993,-0.075478226,0.1,1.0,0.1,18844,10110.10,0,0,0,0.70,-2.94,-17.92,0.10,1.00,0.10
-1.8076172,0.11423912,0.013496991,-0.075478226,0.09,1.0,0.1,18856,10111.10,0,0,165,0.98,-3.01,-17.92,0.09,1.00,0.10
-2.506836,0.113239124,0.014496993,0.18052179,0.09,1.01,0.09,18864,10110.40,0,0,0,0.91,-2.94,0.00,0.09,1.01,0.09
-1.8076172,0.11123912,0.015496995,0.18052179,0.09,1.0,0.09,18879,10111.10,0,0,165,0.77,-2.87,0.00,0.09,1.00,0.09
-1.8076172,0.10723912,0.015496995,0.18452178,0.1,1.0,0.09,18896,10111.10,0,0,0,0.49,-2.87,0.28,0.10,1.00,0.09
-2.8076172,0.10423912,0.017496992,0.18352179,0.1,1.01,0.09,18901,10110.10,0,0,165,0.28,-2.73,0.21,0.10,1.01,0.09
-2.8076172,0.10423912,0.017496992,0.18452178,0.1,1.0,0.1,18916,10110.10,0,0,0,0.28,-2.73,0.28,0.10,1.00,0.10
-1.5068359,0.10523912,0.015496995,0.18352179,0.1,1.0,0.1,18931,10111.40,0,0,165,0.35,-2.87,0.21,0.10,1.00,0.10
-2.8076172,0.10523912,0.014496993,0.18652178,0.11,1.03,0.11,18938,10110.10,0,0,0,0.35,-2.94,0.42,0.11,1.03,0.11
-1.5068359,0.12023912,0.012496993,0.17252178,0.1,0.98,0.09,18953,10111.40,0,0,165,1.40,-3.08,-0.56,0.10,0.98,0.09
-1.8076172,0.11623912,0.013496991,0.17952178,0.1,0.88,0.1,18968,10111.10,0,0,0,1.12,-3.01,-0.07,0.10,0.88,0.10
-1.8076172,0.10223912,0.01849699,0.18052179,0.1,1.04,0.1,18979,10111.10,0,0,165,0.14,-2.66,0.00,0.10,1.04,0.10
-2.8076172,0.098239124,0.019496992,0.17552179,0.09,1.0,0.1,18991,10110.10,0,0,0,-0.14,-2.59,-0.35,0.09,1.00,0.10
-2.8076172,0.10723912,0.013496991,0.18752179,0.09,1.01,0.1,19006,10110.10,0,0,165,0.49,-3.01,0.49,0.09,1.01,0.10
-2.8076172,0.10623912,0.015496995,0.18052179,0.09,1.01,0.1,19014,10110.10,0,0,0,0.42,-2.87,0.00,0.09,1.01,0.10
-2.8076172,0.10823912,0.014496993,0.18252179,0.09,1.0,0.09,19029,10110.10,0,0,165,0.56,-2.94,0.14,0.09,1.00,0.09
-2.506836,0.11423912,0.013496991,0.18552178,0.1,1.01,0.09,19046,10110.40,0,0,0,0.98,-3.01,0.35,0.10,1.01,0.09
-2.8076172,0.10723912,0.016496994,0.17852178,0.1,1.0,0.08,19051,10110.10,0,0,165,0.49,-2.80,-0.14,0.10,1.00,0.08
-2.8076172,0.10423912,0.015496995,0.18652178,0.1,1.01,0.09,19066,10110.10,0,0,0,0.28,-2.87,0.42,0.10,1.01,0.09
-3.8076172,0.10523912,0.01849699,0.18152179,0.1,1.01,0.1,19081,10109.10,0,0,165,0.35,-2.66,0.07,0.10,1.01,0.10
-2.506836,0.10223912,0.017496992,0.18252179,0.1,1.0,0.1,19089,10110.40,0,0,0,0.14,-2.73,0.14,0.10,1.00,0.10
-2.8076172,0.10623912,0.016496994,0.18252179,0.1,1.01,0.11,19103,10110.10,0,0,165,0.42,-2.80,0.14,0.10,1.01,0.11
-1.8076172,0.11123912,0.013496991,0.17752178,0.1,1.0,0.11,19118,10111.10,0,0,0,0.77,-3.01,-0.21,0.10,1.00,0.11
-2.8076172,0.113239124,0.013496991,0.18052179,0.1,1.0,0.1,19128,10110.10,0,0,165,0.91,-3.01,0.00,0.10,1.00,0.10
-2.8076172,0.11523912,0.013496991,0.18052179,0.1,1.01,0.09,19141,10110.10,0,0,0,1.05,-3.01,0.00,0.10,1.01,0.09
-2.8076172,0.10823912,0.016496994,0.18052179,0.09,1.0,0.09,19156,10110.10,0,0,165,0.56,-2.80,0.00,0.09,1.00,0.09
-3.8076172,0.10223912,0.016496994,0.18552178,0.09,1.01,0.09,19163,10109.10,0,0,0,0.14,-2.80,0.35,0.09,1.01,0.09
-2.8076172,0.11123912,0.016496994,0.18252179,0.1,1.01,0.09,19178,10110.10,0,0,165,0.77,-2.80,0.14,0.10,1.01,0.09
-2.8076172,0.10323912,0.017496992,0.18252179,0.1,1.0,0.1,19193,10110.10,0,0,0,0.21,-2.73,0.14,0.10,1.00,0.10
-2.8076172,0.10923912,0.016496994,0.18652178,0.1,1.01,0.1,19201,10110.10,0,0,165,0.63,-2.80,0.42,0.10,1.01,0.10
-2.8076172,0.11023912,0.014496993,0.18152179,0.1,1.0,0.1,19215,10110.10,0,0,0,0.70,-2.94,0.07,0.10,1.00,0.10
-2.8076172,0.11123912,0.015496995,0.18352179,0.1,1.0,0.09,19231,10110.10,0,0,165,0.77,-2.87,0.21,0.10,1.00,0.09
-2.8076172,0.10423912,0.015496995,0.18052179,0.1,1.01,0.09,19238,10110.10,0,0,0,0.28,-2.87,0.00,0.10,1.01,0.09
-2.506836,0.10623912,0.016496994,0.17952178,0.1,1.0,0.1,19253,10110.40,0,0,165,0.42,-2.80,-0.07,0.10,1.00,0.10
-2.8076172,0.10523912,0.016496994,0.17952178,0.1,1.01,0.1,19268,10110.10,0,0,0,0.35,-2.80,-0.07,0.10,1.01,0.10
-2.8076172,0.10923912,0.016496994,0.17952178,0.1,1.01,0.1,19276,10110.10,0,0,165,0.63,-2.80,-0.07,0.10,1.01,0.10
-2.8076172,0.10923912,0.016496994,0.18252179,0.1,1.0,0.1,19290,10110.10,0,0,0,0.63,-2.80,0.14,0.10,1.00,0.10
-2.8076172,0.11023912,0.014496993,0.18152179,0.1,1.01,0.1,19306,10110.10,0,0,165,0.70,-2.94,0.07,0.10,1.01,0.10
-0.90722656,1.4152392,0.33549702,0.50752175,0.11,1.39,0.53,19321,10112.00,0,0,0,92.05,19.53,22.89,0.11,1.39,0.53
-1.8076172,2.4032393,-0.305503,0.49852178,-0.02,0.88,-0.12,19328,10111.10,0,0,165,161.21,-25.34,22.26,-0.02,0.88,-0.12
-2.8076172,1.4462392,0.034496993,0.88652176,0.1,0.98,0.03,19344,10110.10,0,0,0,94.22,-1.54,49.42,0.10,0.98,0.03
-2.8076172,0.7802391,-0.22550301,1.4385219,0.07,1.15,0.03,19351,10110.10,0,0,165,47.60,-19.74,88.06,0.07,1.15,0.03
-1.8076172,1.3662392,-0.03250301,1.6085217,0.11,1.19,0.01,19366,10111.10,0,0,0,88.62,-6.23,99.96,0.11,1.19,0.01
-2.8076172,1.7162392,-0.160503,1.7555218,0.25,1.17,-0.15,19381,10110.10,0,0,165,113.12,-15.19,110.25,0.25,1.17,-0.15
-2.8076172,1.7342391,-0.102503,1.0675218,0.16,0.51,-0.1,19388,10110.10,0,0,0,114.38,-11.13,62.09,0.16,0.51,-0.10
-2.506836,-0.052760877,-0.333503,0.7355218,0.2,0.8,-0.15,19404,10110.40,0,0,165,-10.71,-27.30,38.85,0.20,0.80,-0.15
-2.8076172,-0.042760886,-0.496503,1.0085218,-0.05,1.18,-0.21,19419,10110.10,0,0,0,-10.01,-38.71,57.96,-0.05,1.18,-0.21
-1.8076172,0.20523912,-0.21550302,0.6505218,-0.31,1.17,-0.28,19426,10111.10,0,0,165,7.35,-19.04,32.90,-0.31,1.17,-0.28
-2.8076172,0.32423913,-0.333503,0.43152177,0.11,0.7,-0.15,19441,10110.10,0,0,0,15.68,-27.30,17.57,0.11,0.70,-0.15
-1.8076172,-0.39176086,-0.249503,0.2935218,0.21,0.88,0.08,19456,10111.10,0,0,165,-34.44,-21.42,7.91,0.21,0.88,0.08
-2.8076172,-0.68076086,-0.310503,0.4785218,0.51,1.26,0.27,19463,10110.10,0,0,0,-54.67,-25.69,20.86,0.51,1.26,0.27
-3.8076172,-0.20176086,-0.403503,0.3555218,0.5,0.91,0.35,19479,10109.10,0,0,165,-21.14,-32.20,12.25,0.50,0.91,0.35
-1.8076172,-0.5737609,-0.22250302,0.18352179,0.4,0.74,-0.04,19493,10111.10,0,0,0,-47.18,-19.53,0.21,0.40,0.74,-0.04
-1.8076172,-0.9657609,-0.015503004,-0.36347824,0.23,0.24,-0.19,19501,10111.10,0,0,165,-74.62,-5.04,-38.08,0.23,0.24,-0.19
-1.8076172,-1.3957609,0.35449702,-1.4154782,0.18,0.28,-0.18,19516,10111.10,0,0,0,-104.72,20.86,-111.72,0.18,0.28,-0.18
-2.8076172,-2.464761,0.578497,-2.4354782,0.55,1.29,-0.38,19531,10110.10,0,0,165,-179.55,36.54,-183.12,0.55,1.29,-0.38
-3.1074219,0.57323915,0.419497,-2.1384783,-0.13,0.91,0.02,19538,10109.80,0,0,0,33.11,25.41,-162.33,-0.13,0.91,0.02
-1.8076172,-1.8687608,0.45549703,-1.2904782,0.11,0.84,0.06,19553,10111.10,0,0,165,-137.83,27.93,-102.97,0.11,0.84,0.06
-2.8076172,-0.5337609,0.55849695,0.5185218,-0.0,2.0,0.43,19569,10110.10,0,0,0,-44.38,35.14,23.66,-0.00,2.00,0.43
-2.506836,0.10523912,-0.05550301,0.9425218,0.11,0.59,0.01,19578,10110.40,0,0,165,0.35,-7.84,53.34,0.11,0.59,0.01
-2.8076172,0.34223914,0.021496993,0.4415218,0.09,1.19,0.08,19591,10110.10,0,0,0,16.94,-2.45,18.27,0.09,1.19,0.08
-1.8076172,2.016239,0.553497,0.2445218,0.13,1.11,0.13,19606,10111.10,0,0,165,134.12,34.79,4.48,0.13,1.11,0.13
-2.8076172,1.5492392,0.23849699,0.10452178,0.14,0.57,0.1,19613,10110.10,0,0,0,101.43,12.74,-5.32,0.14,0.57,0.10
-1.8076172,0.47223914,0.20949699,-1.1524782,0.12,0.67,-0.07,19628,10111.10,0,0,165,26.04,10.71,-93.31,0.12,0.67,-0.07
-2.8076172,-0.27176088,0.121497,-1.1134782,-0.03,1.07,0.03,19643,10110.10,0,0,0,-26.04,4.55,-90.58,-0.03,1.07,0.03
-3.8076172,-0.18776086,0.120496996,-0.7714782,0.06,1.31,0.13,19651,10109.10,0,0,165,-20.16,4.48,-66.64,0.06,1.31,0.13
-2.8076172,0.42323914,0.09249699,-0.4954782,-0.07,1.03,0.01,19666,10110.10,0,0,0,22.61,2.52,-47.32,-0.07,1.03,0.01
-2.8076172,0.18923911,0.110497,-0.034478217,0.04,0.98,0.03,19681,10110.10,0,0,165,6.23,3.78,-15.05,0.04,0.98,0.03
-2.8076172,0.06123912,0.05049699,0.33852178,0.1,1.01,0.01,19688,10110.10,0,0,0,-2.73,-0.42,11.06,0.10,1.01,0.01
-2.8076172,-0.09076088,0.08149699,0.5875218,0.11,1.06,0.08,19704,10110.10,0,0,165,-13.37,1.75,28.49,0.11,1.06,0.08
-3.8076172,-0.18576089,0.21349698,0.7285218,0.28,0.98,0.01,19719,10109.10,0,0,0,-20.02,10.99,38.36,0.28,0.98,0.01
-2.8076172,-0.5637609,0.62249696,1.1805217,0.07,1.11,-0.04,19727,10110.10,0,0,165,-46.48,39.62,70.00,0.07,1.11,-0.04
-2.8076172,-0.4717609,0.89549696,1.7735219,-0.21,1.25,-0.02,19742,10110.10,0,0,0,-40.04,58.73,111.51,-0.21,1.25,-0.02
-3.8076172,-0.5327609,0.875497,2.2435217,0.06,1.59,0.01,19756,10109.10,0,0,165,-44.31,57.33,144.41,0.06,1.59,0.01
-3.8076172,0.37823913,0.642497,1.9945219,0.05,1.34,-0.01,19764,10109.10,0,0,0,19.46,41.02,126.98,0.05,1.34,-0.01
-2.8076172,0.49423912,0.398497,1.5485218,0.24,1.39,0.04,19779,10110.10,0,0,165,27.58,23.94,95.76,0.24,1.39,0.04
-2.8076172,0.8962391,0.281497,1.1805217,0.2,1.19,-0.01,19794,10110.10,0,0,0,55.72,15.75,70.00,0.20,1.19,-0.01
-3.8076172,1.2042391,0.23549698,1.0815217,0.24,1.08,-0.0,19801,10109.10,0,0,165,77.28,12.53,63.07,0.24,1.08,-0.00
-2.8076172,1.3962392,0.116496995,0.9645218,0.3,0.96,-0.05,19816,10110.10,0,0,0,90.72,4.20,54.88,0.30,0.96,-0.05
-2.8076172,1.3022392,0.095497,0.93252176,0.32,0.86,-0.06,19830,10110.10,0,0,165,84.14,2.73,52.64,0.32,0.86,-0.06
-2.8076172,1.0382391,-0.10450302,0.9965218,0.3,0.79,-0.04,19838,10110.10,0,0,0,65.66,-11.27,57.12,0.30,0.79,-0.04
-1.8076172,0.95523906,-0.18650301,0.9675218,0.3,0.75,-0.05,19853,10111.10,0,0,165,59.85,-17.01,55.09,0.30,0.75,-0.05
-1.8076172,0.8242391,-0.19950302,1.0095217,0.28,0.78,-0.04,19868,10111.10,0,0,0,50.68,-17.92,58.03,0.28,0.78,-0.04
-2.8076172,0.63423914,-0.328503,1.0805218,0.27,0.84,-0.08,19877,10110.10,0,0,165,37.38,-26.95,63.00,0.27,0.84,-0.08
-3.1074219,0.3702391,-0.404503,1.1305218,0.26,0.97,-0.13,19894,10109.80,0,0,0,18.90,-32.27,66.50,0.26,0.97,-0.13
-3.8076172,0.41223913,-0.34550297,1.3305218,0.24,1.07,-0.17,19906,10109.10,0,0,165,21.84,-28.14,80.50,0.24,1.07,-0.17
-2.8076172,0.6002391,-0.144503,1.4565217,0.24,1.06,-0.05,19913,10110.10,0,0,0,35.00,-14.07,89.32,0.24,1.06,-0.05
-3.8076172,0.8642391,0.028496992,1.4395218,0.31,1.02,-0.07,19928,10109.10,0,0,165,53.48,-1.96,88.13,0.31,1.02,-0.07
-2.8076172,1.1202391,0.06949699,1.3245218,0.42,1.03,-0.16,19944,10110.10,0,0,0,71.40,0.91,80.08,0.42,1.03,-0.16
-3.1074219,1.4612391,-0.16550301,1.0695218,0.47,0.87,-0.13,19951,10109.80,0,0,165,95.27,-15.54,62.23,0.47,0.87,-0.13
-2.8076172,1.3612391,-0.375503,0.8525218,0.39,0.86,-0.18,19965,10110.10,0,0,0,88.27,-30.24,47.04,0.39,0.86,-0.18
-2.8076172,1.2462392,-0.49450302,0.69752175,0.4,0.84,-0.18,19988,10110.10,0,0,165,80.22,-38.57,36.19,0.40,0.84,-0.18
-3.8076172,1.1632392,-0.508503,0.6435218,0.37,0.89,-0.18,19989,10109.10,0,0,0,74.41,-39.55,32.41,0.37,0.89,-0.18
-3.8076172,1.0462391,-0.53750306,0.5365218,0.37,0.86,-0.26,20011,10109.10,0,0,165,66.22,-41.58,24.92,0.37,0.86,-0.26
-3.8076172,0.86723906,-0.40050298,0.4715218,0.3,0.9,-0.26,20023,10109.10,0,0,0,53.69,-31.99,20.37,0.30,0.90,-0.26
-3.8076172,1.4302391,-0.09950301,0.66252184,0.22,0.85,-0.31,20028,10109.10,0,0,165,93.10,-10.92,33.74,0.22,0.85,-0.31
-3.1074219,1.6702392,0.466497,1.2565217,0.27,0.98,-0.32,20044,10109.80,0,0,0,109.90,28.70,75.32,0.27,0.98,-0.32
-2.8076172,1.8282392,0.72049695,1.6585219,0.51,0.87,-0.23,20056,10110.10,0,0,165,120.96,46.48,103.46,0.51,0.87,-0.23
-2.8076172,1.5952392,0.518497,1.7115219,0.69,0.74,-0.11,20070,10110.10,0,0,0,104.65,32.34,107.17,0.69,0.74,-0.11
-3.8076172,1.2872391,-0.05150301,1.4245219,0.54,0.67,-0.28,20082,10109.10,0,0,165,83.09,-7.56,87.08,0.54,0.67,-0.28
-2.8076172,0.5942391,-0.599503,1.0155218,0.57,0.62,-0.22,20101,10110.10,0,0,0,34.58,-45.92,58.45,0.57,0.62,-0.22
-3.8076172,0.24923912,-0.717503,0.6445218,0.49,0.68,-0.23,20102,10109.10,0,0,165,10.43,-54.18,32.48,0.49,0.68,-0.23
-4.807617,0.17323911,-0.694503,0.43952176,0.48,0.67,-0.27,20116,10108.10,0,0,0,5.11,-52.57,18.13,0.48,0.67,-0.27
-2.8076172,0.04923912,-0.66050303,0.4155218,0.49,0.73,-0.29,20131,10110.10,0,0,165,-3.57,-50.19,16.45,0.49,0.73,-0.29
-3.8076172,0.009239122,-0.574503,0.5335218,0.44,0.81,-0.31,20138,10109.10,0,0,0,-6.37,-44.17,24.71,0.44,0.81,-0.31
-2.8076172,0.0022391155,-0.47450298,0.6815218,0.42,0.82,-0.3,20153,10110.10,0,0,165,-6.86,-37.17,35.07,0.42,0.82,-0.30
-3.1074219,0.97223914,-0.37450302,-0.4814782,0.31,0.75,-0.31,20168,10109.80,0,0,0,61.04,-30.17,-46.34,0.31,0.75,-0.31
-3.8076172,0.42223915,0.174497,-0.5604782,0.48,1.54,-0.16,20176,10109.10,0,0,165,22.54,8.26,-51.87,0.48,1.54,-0.16
-3.8076172,0.7742391,0.28749698,-1.0404782,0.39,0.91,-0.31,20191,10109.10,0,0,0,47.18,16.17,-85.47,0.39,0.91,-0.31
-3.1074219,0.80223906,0.258497,-1.2064781,0.56,0.91,-0.26,20206,10109.80,0,0,165,49.14,14.14,-97.09,0.56,0.91,-0.26
-2.8076172,0.5672391,-0.008503012,-1.2924783,0.47,0.76,-0.4,20213,10110.10,0,0,0,32.69,-4.55,-103.11,0.47,0.76,-0.40
-3.8076172,0.26223913,-0.17950301,-1.1264782,0.52,0.76,-0.37,20228,10109.10,0,0,165,11.34,-16.52,-91.49,0.52,0.76,-0.37
-2.2070312,0.32423913,-0.160503,-0.6054782,0.49,0.72,-0.38,20244,10110.70,0,0,0,15.68,-15.19,-55.02,0.49,0.72,-0.38
-2.8076172,0.17123911,-0.06950301,-0.4464782,0.45,0.72,-0.42,20251,10110.10,0,0,165,4.97,-8.82,-43.89,0.45,0.72,-0.42
-2.8076172,-0.16676089,0.44049698,-0.3814782,-0.33,1.15,-0.65,20266,10110.10,0,0,0,-18.69,26.88,-39.34,-0.33,1.15,-0.65
-4.107422,0.21023911,0.10649699,0.10552178,0.34,1.03,-0.35,20281,10108.80,0,0,165,7.70,3.50,-5.25,0.34,1.03,-0.35
-3.1074219,0.4032391,0.31249702,0.03452179,0.45,0.92,-0.43,20290,10109.80,0,0,0,21.21,17.92,-10.22,0.45,0.92,-0.43
-4.107422,0.17723912,0.331497,-0.03847821,0.37,0.96,-0.33,20303,10108.80,0,0,165,5.39,19.25,-15.33,0.37,0.96,-0.33
-3.8076172,0.3592391,-0.019503012,-0.067478225,0.38,0.91,-0.34,20318,10109.10,0,0,0,18.13,-5.32,-17.36,0.38,0.91,-0.34
-3.8076172,0.4142391,-0.15250301,-0.1774782,0.34,0.65,-0.28,20327,10109.10,0,0,165,21.98,-14.63,-25.06,0.34,0.65,-0.28
-2.8076172,0.8642391,-0.124503,-0.3294782,0.4,0.8,-0.35,20344,10110.10,0,0,0,53.48,-12.67,-35.70,0.40,0.80,-0.35
-2.8076172,0.6892391,-0.10450302,-0.5694782,0.3,0.79,-0.31,20356,10110.10,0,0,165,41.23,-11.27,-52.50,0.30,0.79,-0.31
-4.107422,0.6642391,0.013496991,-0.6824782,0.28,0.82,-0.35,20363,10108.80,0,0,0,39.48,-3.01,-60.41,0.28,0.82,-0.35
-2.8076172,0.6842391,0.13949698,-0.64047825,0.41,0.78,-0.42,20378,10110.10,0,0,165,40.88,5.81,-57.47,0.41,0.78,-0.42
-3.1074219,0.6012391,0.167497,-0.5974782,0.26,0.89,-0.4,20394,10109.80,0,0,0,35.07,7.77,-54.46,0.26,0.89,-0.40
-2.8076172,0.8152391,0.345497,-0.45347822,0.42,0.95,-0.53,20401,10110.10,0,0,165,50.05,20.23,-44.38,0.42,0.95,-0.53
-4.107422,0.9812391,0.30249697,-0.42547816,0.3,0.92,-0.49,20416,10108.80,0,0,0,61.67,17.22,-42.42,0.30,0.92,-0.49
-4.107422,0.9422391,0.45449698,-0.3664782,0.26,0.9,-0.48,20431,10108.80,0,0,165,58.94,27.86,-38.29,0.26,0.90,-0.48
-3.1074219,0.9102391,0.593497,-0.11147821,0.39,0.79,-0.42,20438,10109.80,0,0,0,56.70,37.59,-20.44,0.39,0.79,-0.42
-3.1074219,0.16123912,0.80849695,0.0145217925,0.58,0.79,-0.3,20453,10109.80,0,0,165,4.27,52.64,-11.62,0.58,0.79,-0.30
-3.1074219,0.5802391,0.907497,5.2177906E-4,0.25,0.75,-0.33,20468,10109.80,0,0,0,33.60,59.57,-12.60,0.25,0.75,-0.33
-2.8076172,0.13823912,0.998497,-0.0704782,0.13,0.83,-0.43,20476,10110.10,0,0,165,2.66,65.94,-17.57,0.13,0.83,-0.43
-4.107422,-0.0077608824,1.082497,-0.18047822,0.31,0.92,-0.19,20491,10108.80,0,0,0,-7.56,71.82,-25.27,0.31,0.92,-0.19
-2.8076172,0.042239122,0.96449697,-0.20847821,0.23,0.87,-0.35,20506,10110.10,0,0,165,-4.06,63.56,-27.23,0.23,0.87,-0.35
-4.107422,-0.009760879,0.98349696,-0.2284782,0.23,0.85,-0.32,20514,10108.80,0,0,0,-7.70,64.89,-28.63,0.23,0.85,-0.32
-4.107422,0.03923912,1.029497,-0.16947821,0.27,0.83,-0.32,20528,10108.80,0,0,165,-4.27,68.11,-24.50,0.27,0.83,-0.32
-4.107422,0.16123912,1.0604969,-0.06647822,0.33,0.79,-0.32,20543,10108.80,0,0,0,4.27,70.28,-17.29,0.33,0.79,-0.32
-4.107422,0.22423913,1.019497,0.025521785,0.4,0.77,-0.38,20551,10108.80,0,0,165,8.68,67.41,-10.85,0.40,0.77,-0.38
-4.107422,0.076239124,0.92749697,0.023521796,0.37,0.77,-0.34,20566,10108.80,0,0,0,-1.68,60.97,-10.99,0.37,0.77,-0.34
-3.1074219,-0.02976089,0.79949695,-0.009478211,0.26,0.8,-0.33,20584,10109.80,0,0,165,-9.10,52.01,-13.30,0.26,0.80,-0.33
-4.107422,0.0052391216,0.746497,0.06452179,0.32,0.87,-0.43,20588,10108.80,0,0,0,-6.65,48.30,-8.12,0.32,0.87,-0.43
-3.1074219,-0.044760875,0.6994969,0.18052179,0.45,0.84,-0.42,20604,10109.80,0,0,165,-10.15,45.01,0.00,0.45,0.84,-0.42
-2.8076172,-0.0037608817,0.67349696,0.14252178,0.45,0.81,-0.43,20619,10110.10,0,0,0,-7.28,43.19,-2.66,0.45,0.81,-0.43
-4.107422,-0.027760886,0.74349695,0.029521793,0.4,0.82,-0.43,20629,10108.80,0,0,165,-8.96,48.09,-10.57,0.40,0.82,-0.43
-2.8076172,2.3911893E-4,0.833497,5.2177906E-4,0.37,0.89,-0.17,20642,10110.10,0,0,0,-7.00,54.39,-12.60,0.37,0.89,-0.17
-3.1074219,0.7092391,0.79349697,0.22052178,0.3,0.98,-0.35,20656,10109.80,0,0,165,42.63,51.59,2.80,0.30,0.98,-0.35
-3.1074219,0.66723907,0.76249695,0.27352178,0.34,0.91,-0.38,20664,10109.80,0,0,0,39.69,49.42,6.51,0.34,0.91,-0.38
-3.1074219,0.6082391,0.649497,0.25252178,0.62,0.89,-0.43,20680,10109.80,0,0,165,35.56,41.51,5.04,0.62,0.89,-0.43
-3.1074219,-0.10176089,1.158497,0.31152177,0.42,1.02,-0.36,20694,10109.80,0,0,0,-14.14,77.14,9.17,0.42,1.02,-0.36
-4.107422,0.44323912,0.915497,-4.7820807E-4,0.36,0.77,-0.41,20702,10108.80,0,0,165,24.01,60.13,-12.67,0.36,0.77,-0.41
-3.8076172,-0.17876089,0.48349696,0.38452178,0.21,0.91,-0.51,20716,10109.10,0,0,0,-19.53,29.89,14.28,0.21,0.91,-0.51
-2.2070312,-0.28076088,0.37249702,0.11452179,0.41,0.81,-0.44,20731,10110.70,0,0,165,-26.67,22.12,-4.62,0.41,0.81,-0.44
-3.1074219,-0.43976083,0.08949699,-0.2024782,0.5,0.94,-0.5,20738,10109.80,0,0,0,-37.80,2.31,-26.81,0.50,0.94,-0.50
-4.107422,-0.28276086,0.16349699,-0.2714782,0.44,0.96,-0.54,20753,10108.80,0,0,165,-26.81,7.49,-31.64,0.44,0.96,-0.54
-3.1074219,-0.26376086,0.42349702,-0.1534782,0.41,0.97,-0.54,20768,10109.80,0,0,0,-25.48,25.69,-23.38,0.41,0.97,-0.54
-3.8076172,-0.25076085,0.60849696,-0.067478225,0.47,0.92,-0.49,20776,10109.10,0,0,165,-24.57,38.64,-17.36,0.47,0.92,-0.49
-3.1074219,-0.28576088,0.620497,-0.0074782073,0.53,0.89,-0.48,20791,10109.80,0,0,0,-27.02,39.48,-13.16,0.53,0.89,-0.48
-3.8076172,-0.28276086,0.70049703,0.011521786,0.49,0.92,-0.48,20805,10109.10,0,0,165,-26.81,45.08,-11.83,0.49,0.92,-0.48
-3.1074219,-0.3287609,0.83549696,0.1325218,0.52,0.94,-0.48,20813,10109.80,0,0,0,-30.03,54.53,-3.36,0.52,0.94,-0.48
-4.107422,-0.26976088,0.99349695,0.2565218,0.52,0.92,-0.44,20828,10108.80,0,0,165,-25.90,65.59,5.32,0.52,0.92,-0.44
-3.1074219,-0.23876086,1.041497,0.29952177,0.49,0.87,-0.38,20843,10109.80,0,0,0,-23.73,68.95,8.33,0.49,0.87,-0.38
-3.1074219,-0.31576088,0.925497,0.19052179,0.51,0.85,-0.32,20850,10109.80,0,0,165,-29.12,60.83,0.70,0.51,0.85,-0.32
-3.506836,-0.3707609,0.78449696,0.08152179,0.51,0.86,-0.3,20866,10109.40,0,0,0,-32.97,50.96,-6.93,0.51,0.86,-0.30
-4.107422,-0.33876085,0.70549697,0.05652178,0.52,0.88,-0.31,20882,10108.80,0,0,165,-30.73,45.43,-8.68,0.52,0.88,-0.31
-4.107422,-0.4347609,0.670497,0.001521796,0.57,0.86,-0.31,20889,10108.80,0,0,0,-37.45,42.98,-12.53,0.57,0.86,-0.31
-2.8076172,-0.5307609,0.755497,0.04952179,0.62,0.94,-0.34,20903,10110.10,0,0,165,-44.17,48.93,-9.17,0.62,0.94,-0.34
-2.2070312,-0.4707609,1.040497,0.1915218,0.62,0.92,-0.27,20918,10110.70,0,0,0,-39.97,68.88,0.77,0.62,0.92,-0.27
-3.1074219,-0.3947609,1.2614969,0.3045218,0.56,0.89,-0.2,20934,10109.80,0,0,165,-34.65,84.35,8.68,0.56,0.89,-0.20
-3.1074219,-0.36176088,1.5044969,0.3585218,0.53,0.84,-0.12,20942,10109.80,0,0,0,-32.34,101.36,12.46,0.53,0.84,-0.12
-2.2070312,-0.35176086,1.561497,0.3765218,0.49,0.84,-0.08,20957,10110.70,0,0,165,-31.64,105.35,13.72,0.49,0.84,-0.08
-4.107422,-0.31476086,1.575497,0.3765218,0.46,0.82,-0.05,20964,10108.80,0,0,0,-29.05,106.33,13.72,0.46,0.82,-0.05
-3.1074219,-0.29476085,1.506497,0.28052178,0.44,0.76,0.0,20979,10109.80,0,0,165,-27.65,101.50,7.00,0.44,0.76,0.00
-4.107422,-0.26076087,1.462497,0.20952179,0.39,0.79,-0.02,20994,10108.80,0,0,0,-25.27,98.42,2.03,0.39,0.79,-0.02
-3.1074219,-0.22876087,1.4914969,0.20952179,0.38,0.81,-0.02,21001,10109.80,0,0,165,-23.03,100.45,2.03,0.38,0.81,-0.02
-3.1074219,-0.21576089,1.508497,0.2145218,0.33,0.84,-0.03,21015,10109.80,0,0,0,-22.12,101.64,2.38,0.33,0.84,-0.03
-3.1074219,-0.25376087,1.473497,0.21052179,0.28,0.78,0.03,21031,10109.80,0,0,165,-24.78,99.19,2.10,0.28,0.78,0.03
-3.1074219,-0.34376088,1.4304969,0.23652178,0.26,0.8,0.06,21038,10109.80,0,0,0,-31.08,96.18,3.92,0.26,0.80,0.06
-3.1074219,-0.43876085,1.347497,0.21652178,0.26,0.81,0.06,21053,10109.80,0,0,165,-37.73,90.37,2.52,0.26,0.81,0.06
-4.107422,-0.4847609,1.144497,0.15752178,0.32,0.82,0.08,21068,10108.80,0,0,0,-40.95,76.16,-1.61,0.32,0.82,0.08
-3.1074219,-0.5537609,0.855497,-0.15647823,0.26,0.86,0.05,21076,10109.80,0,0,165,-45.78,55.93,-23.59,0.26,0.86,0.05
-3.1074219,-0.5747609,0.563497,-0.3094782,0.34,0.88,0.05,21091,10109.80,0,0,0,-47.25,35.49,-34.30,0.34,0.88,0.05
-4.107422,-0.93676084,0.639497,-0.26047823,0.49,0.82,0.09,21106,10108.80,0,0,165,-72.59,40.81,-30.87,0.49,0.82,0.09
-4.107422,-0.5007609,0.75749695,-0.07447821,0.47,0.89,0.02,21113,10108.80,0,0,0,-42.07,49.07,-17.85,0.47,0.89,0.02
-4.107422,-0.17876089,0.936497,0.11452179,0.42,0.91,0.01,21128,10108.80,0,0,165,-19.53,61.60,-4.62,0.42,0.91,0.01
-3.1074219,-0.14976087,0.95549697,0.23652178,0.41,0.92,0.01,21144,10109.80,0,0,0,-17.50,62.93,3.92,0.41,0.92,0.01
-3.1074219,-0.08976088,0.89749694,0.27152178,0.39,0.88,0.07,21150,10109.80,0,0,165,-13.30,58.87,6.37,0.39,0.88,0.07
-3.1074219,0.09723912,0.866497,0.34352177,0.4,0.86,0.13,21166,10109.80,0,0,0,-0.21,56.70,11.41,0.40,0.86,0.13
-3.1074219,0.14123912,0.781497,0.33352178,0.35,0.88,0.14,21181,10109.80,0,0,165,2.87,50.75,10.71,0.35,0.88,0.14
-4.107422,0.08723912,0.704497,0.27552179,0.38,0.9,0.13,21188,10108.80,0,0,0,-0.91,45.36,6.65,0.38,0.90,0.13
-3.1074219,0.020239122,0.58049697,0.18652178,0.38,0.91,0.13,21203,10109.80,0,0,165,-5.60,36.68,0.42,0.38,0.91,0.13
-4.107422,0.04023912,0.500497,0.12852179,0.39,0.92,0.12,21219,10108.80,0,0,0,-4.20,31.08,-3.64,0.39,0.92,0.12
-4.107422,-0.014760882,0.41249698,0.05652178,0.38,0.92,0.11,21226,10108.80,0,0,165,-8.05,24.92,-8.68,0.38,0.92,0.11
-4.107422,-0.06376087,0.364497,0.03552179,0.36,0.93,0.07,21241,10108.80,0,0,0,-11.48,21.56,-10.15,0.36,0.93,0.07
-3.1074219,-0.066760875,0.44649696,0.1325218,0.38,0.96,0.05,21256,10109.80,0,0,165,-11.69,27.30,-3.36,0.38,0.96,0.05
-3.1074219,2.3911893E-4,0.607497,0.3135218,0.36,0.92,0.08,21263,10109.80,0,0,0,-7.00,38.57,9.31,0.36,0.92,0.08
-3.506836,0.011239119,0.665497,0.3955218,0.35,0.9,0.11,21279,10109.40,0,0,165,-6.23,42.63,15.05,0.35,0.90,0.11
-3.1074219,0.022239119,0.61849695,0.4225218,0.5,0.89,-0.03,21294,10109.80,0,0,0,-5.46,39.34,16.94,0.50,0.89,-0.03
-3.1074219,-0.5137609,0.18549699,0.77152175,0.31,0.89,0.27,21308,10109.80,0,0,165,-42.98,9.03,41.37,0.31,0.89,0.27
-3.1074219,-0.107760884,0.218497,0.2935218,0.45,0.89,0.17,21316,10109.80,0,0,0,-14.56,11.34,7.91,0.45,0.89,0.17
-4.107422,-0.26376086,-0.024503008,0.27452177,0.41,0.9,0.18,21330,10108.80,0,0,165,-25.48,-5.67,6.58,0.41,0.90,0.18
-3.1074219,-0.064760886,0.090496995,0.13852179,0.47,0.88,0.21,21338,10109.80,0,0,0,-11.55,2.38,-2.94,0.47,0.88,0.21
-3.1074219,-0.06876088,0.09149699,0.1405218,0.55,0.9,0.2,21353,10109.80,0,0,165,-11.83,2.45,-2.80,0.55,0.90,0.20
-3.1074219,-0.020760886,0.16949698,0.21152179,0.53,0.87,0.25,21368,10109.80,0,0,0,-8.47,7.91,2.17,0.53,0.87,0.25
-3.1074219,0.059239123,0.214497,0.28052178,0.53,0.83,0.27,21376,10109.80,0,0,165,-2.87,11.06,7.00,0.53,0.83,0.27
-3.1074219,0.13323912,0.24549699,0.26052177,0.51,0.85,0.25,21391,10109.80,0,0,0,2.31,13.23,5.60,0.51,0.85,0.25
-3.1074219,0.19423911,0.261497,0.24652179,0.52,0.9,0.21,21406,10109.80,0,0,165,6.58,14.35,4.62,0.52,0.90,0.21
-4.107422,0.22223912,0.24849698,0.20652178,0.56,0.88,0.18,21413,10108.80,0,0,0,8.54,13.44,1.82,0.56,0.88,0.18
-4.506836,0.15023912,0.14849699,0.16252178,0.55,0.91,0.14,21428,10108.40,0,0,165,3.50,6.44,-1.26,0.55,0.91,0.14
-4.107422,0.09723912,0.08049699,0.15352179,0.53,0.91,0.15,21444,10108.80,0,0,0,-0.21,1.68,-1.89,0.53,0.91,0.15
-2.2070312,0.07423912,0.08249699,0.19252178,0.58,0.89,0.17,21451,10110.70,0,0,165,-1.82,1.82,0.84,0.58,0.89,0.17
-4.107422,0.0062391236,0.056496993,0.25952178,0.56,0.89,0.21,21466,10108.80,0,0,0,-6.58,0.00,5.53,0.56,0.89,0.21
-3.1074219,0.08523912,0.118497,0.25552177,0.56,0.87,0.23,21481,10109.80,0,0,165,-1.05,4.34,5.25,0.56,0.87,0.23
-4.107422,0.022239119,0.086496994,0.16052179,0.56,0.86,0.26,21489,10108.80,0,0,0,-5.46,2.10,-1.40,0.56,0.86,0.26
-4.506836,0.001239121,0.054496992,0.09352178,0.62,0.87,0.26,21503,10108.40,0,0,165,-6.93,-0.14,-6.09,0.62,0.87,0.26
-3.1074219,-0.057760887,0.035496995,0.032521784,0.57,0.88,0.22,21527,10109.80,0,0,0,-11.06,-1.47,-10.36,0.57,0.88,0.22
-3.1074219,-0.12976089,-0.034503005,0.08252178,0.6,0.85,0.27,21528,10109.80,0,0,165,-16.10,-6.37,-6.86,0.60,0.85,0.27
-4.107422,-0.07076088,-0.109503,0.113521785,0.52,0.89,0.27,21541,10108.80,0,0,0,-11.97,-11.62,-4.69,0.52,0.89,0.27
-4.506836,-0.07676088,-0.05550301,0.15352179,0.43,0.9,0.26,21556,10108.40,0,0,165,-12.39,-7.84,-1.89,0.43,0.90,0.26
-3.1074219,-0.05476088,0.014496993,0.20052178,0.45,0.93,0.22,21564,10109.80,0,0,0,-10.85,-2.94,1.40,0.45,0.93,0.22
-3.1074219,0.0032391176,0.026496993,0.11252178,0.52,0.91,0.21,21579,10109.80,0,0,165,-6.79,-2.10,-4.76,0.52,0.91,0.21
-4.107422,-0.066760875,-0.02950301,-0.02347821,0.5,0.94,0.18,21596,10108.80,0,0,0,-11.69,-6.02,-14.28,0.50,0.94,0.18
-4.107422,-0.11876088,0.010496993,-0.12447822,0.35,0.98,0.15,21601,10108.80,0,0,165,-15.33,-3.22,-21.35,0.35,0.98,0.15
-4.107422,0.012239121,0.104496986,-0.07347822,0.43,0.95,0.13,21616,10108.80,0,0,0,-6.16,3.36,-17.78,0.43,0.95,0.13
-3.506836,0.04823912,0.124497,-0.03547822,0.38,0.96,0.1,21631,10109.40,0,0,165,-3.64,4.76,-15.12,0.38,0.96,0.10
-4.107422,0.022239119,0.055496994,0.047521785,0.3,0.93,0.15,21638,10108.80,0,0,0,-5.46,-0.07,-9.31,0.30,0.93,0.15
-3.506836,0.13123912,0.118497,0.13652179,0.32,0.93,0.13,21654,10109.40,0,0,165,2.17,4.34,-3.08,0.32,0.93,0.13
-4.506836,0.23523912,0.11449699,0.22352178,0.26,0.9,0.18,21668,10108.40,0,0,0,9.45,4.06,3.01,0.26,0.90,0.18
-3.1074219,0.3142391,0.140497,0.18852179,0.28,0.89,0.16,21676,10109.80,0,0,165,14.98,5.88,0.56,0.28,0.89,0.16
-4.107422,0.3012391,0.04849699,0.095521785,0.39,0.89,0.11,21692,10108.80,0,0,0,14.07,-0.56,-5.95,0.39,0.89,0.11
-3.1074219,0.20923913,-0.009503007,0.009521782,0.31,0.91,0.13,21706,10109.80,0,0,165,7.63,-4.62,-11.97,0.31,0.91,0.13
-4.107422,0.16323912,0.054496992,-0.041478217,0.34,0.89,0.14,21713,10108.80,0,0,0,4.41,-0.14,-15.54,0.34,0.89,0.14
-3.506836,0.19523913,0.058496993,-0.08847821,0.31,0.9,0.12,21728,10109.40,0,0,165,6.65,0.14,-18.83,0.31,0.90,0.12
-3.506836,0.27623913,0.0024969913,-0.047478214,0.27,0.93,0.08,21744,10109.40,0,0,0,12.32,-3.78,-15.96,0.27,0.93,0.08
-4.107422,0.33923912,-0.003503006,0.069521785,0.22,0.93,0.05,21751,10108.80,0,0,165,16.73,-4.20,-7.77,0.22,0.93,0.05
-4.107422,0.35323912,-0.087503,0.24152179,0.27,0.94,0.05,21766,10108.80,0,0,0,17.71,-10.08,4.27,0.27,0.94,0.05
-3.1074219,0.3052391,-0.10550301,0.2985218,0.29,0.92,0.1,21781,10109.80,0,0,165,14.35,-11.34,8.26,0.29,0.92,0.10
-4.107422,0.21023911,-0.22550301,0.26952177,0.44,0.84,0.13,21789,10108.80,0,0,0,7.70,-19.74,6.23,0.44,0.84,0.13
-3.1074219,0.19823912,-0.33650303,0.18752179,0.43,0.82,0.19,21804,10109.80,0,0,165,6.86,-27.51,0.49,0.43,0.82,0.19
-4.506836,0.21723911,-0.32250303,0.02752179,0.43,0.86,0.17,21818,10108.40,0,0,0,8.19,-26.53,-10.71,0.43,0.86,0.17
-4.506836,0.11723912,-0.416503,-0.015478224,0.46,0.86,0.14,21826,10108.40,0,0,165,1.19,-33.11,-13.72,0.46,0.86,0.14
-4.506836,0.04023912,-0.34150302,0.063521795,0.38,0.95,0.06,21841,10108.40,0,0,0,-4.20,-27.86,-8.19,0.38,0.95,0.06
-4.107422,0.05723912,-0.116503,0.2565218,0.42,0.97,0.06,21857,10108.80,0,0,165,-3.01,-12.11,5.32,0.42,0.97,0.06
-4.107422,0.10423912,0.068496995,0.3885218,0.49,0.92,0.11,21863,10108.80,0,0,0,0.28,0.84,14.56,0.49,0.92,0.11
-3.1074219,0.20323911,0.19549699,0.3565218,0.58,0.88,0.17,21878,10109.80,0,0,165,7.21,9.73,12.32,0.58,0.88,0.17
-3.1074219,0.11823912,0.13649699,0.19652179,0.57,0.9,0.19,21894,10109.80,0,0,0,1.26,5.60,1.12,0.57,0.90,0.19
-3.506836,0.19123912,0.13449699,0.07552179,0.54,0.85,0.23,21901,10109.40,0,0,165,6.37,5.46,-7.35,0.54,0.85,0.23
-3.506836,0.20023912,0.065496996,-0.051478207,0.42,0.88,0.2,21916,10109.40,0,0,0,7.00,0.63,-16.24,0.42,0.88,0.20
-3.506836,0.22523913,0.024496991,-0.056478217,0.39,0.93,0.14,21931,10109.40,0,0,165,8.75,-2.24,-16.59,0.39,0.93,0.14
-3.1074219,0.20523912,0.009496994,-4.7820807E-4,0.42,0.94,0.11,21938,10109.80,0,0,0,7.35,-3.29,-12.67,0.42,0.94,0.11
-3.1074219,0.16123912,-0.057503007,-0.0644782,0.48,0.89,0.16,21953,10109.80,0,0,165,4.27,-7.98,-17.15,0.48,0.89,0.16
-4.107422,0.0062391236,-0.189503,-0.18647823,0.54,0.9,0.15,21969,10108.80,0,0,0,-6.58,-17.22,-25.69,0.54,0.90,0.15
-4.506836,-0.043760873,-0.109503,-0.2684782,0.52,0.96,0.1,21976,10108.40,0,0,165,-10.08,-11.62,-31.43,0.52,0.96,0.10
-4.506836,0.11823912,0.17849699,-0.16047823,0.35,0.97,0.14,21991,10108.40,0,0,0,1.26,8.54,-23.87,0.35,0.97,0.14
-4.506836,0.19623911,0.272497,-0.07447821,0.33,0.92,0.19,22006,10108.40,0,0,165,6.72,15.12,-17.85,0.33,0.92,0.19
-3.506836,0.28123912,0.23249699,-0.09547821,0.39,0.89,0.18,22014,10109.40,0,0,0,12.67,12.32,-19.32,0.39,0.89,0.18
-3.1074219,0.26123914,0.11449699,-0.14247823,0.38,0.91,0.14,22028,10109.80,0,0,165,11.27,4.06,-22.61,0.38,0.91,0.14
-4.506836,0.20923913,0.12749699,-0.12947822,0.35,0.97,0.07,22044,10108.40,0,0,0,7.63,4.97,-21.70,0.35,0.97,0.07
-3.1074219,0.23123911,0.23149699,-0.037478223,0.39,0.96,0.07,22058,10109.80,0,0,165,9.17,12.25,-15.26,0.39,0.96,0.07
-3.506836,0.09723912,0.21549699,0.009521782,0.51,0.93,0.07,22065,10109.40,0,0,0,-0.21,11.13,-11.97,0.51,0.93,0.07
-4.506836,0.18423912,0.32049698,-0.05047822,0.38,0.92,0.15,22081,10108.40,0,0,165,5.88,18.48,-16.17,0.38,0.92,0.15
-3.506836,0.20123912,0.24649699,-0.058478206,0.35,0.89,0.21,22088,10109.40,0,0,0,7.07,13.30,-16.73,0.35,0.89,0.21
-2.506836,0.21923912,0.15149699,-0.13847822,0.31,0.88,0.19,22104,10110.40,0,0,165,8.33,6.65,-22.33,0.31,0.88,0.19
-3.1074219,0.17523912,0.049496993,-0.1324782,0.3,0.91,0.13,22122,10109.80,0,0,0,5.25,-0.49,-21.91,0.30,0.91,0.13
-3.506836,0.076239124,0.06649699,-0.02147822,0.29,0.96,0.11,22127,10109.40,0,0,165,-1.68,0.70,-14.14,0.29,0.96,0.11
-3.506836,0.16023912,0.214497,0.065521784,0.26,0.99,0.09,22144,10109.40,0,0,0,4.20,11.06,-8.05,0.26,0.99,0.09
-3.506836,0.16223912,0.30649698,0.16152179,0.31,0.95,0.14,22156,10109.40,0,0,165,4.34,17.50,-1.33,0.31,0.95,0.14
-3.1074219,0.21923912,0.318497,0.110521786,0.34,0.88,0.21,22178,10109.80,0,0,0,8.33,18.34,-4.90,0.34,0.88,0.21
-4.506836,0.12523912,0.24449699,-0.020478204,0.37,0.88,0.22,22179,10108.40,0,0,165,1.75,13.16,-14.07,0.37,0.88,0.22
-4.506836,0.11423912,0.211497,-0.09347823,0.36,0.9,0.21,22196,10108.40,0,0,0,0.98,10.85,-19.18,0.36,0.90,0.21
-4.506836,0.11023912,0.09649699,-0.123478234,0.45,0.84,0.13,22201,10108.40,0,0,165,0.70,2.80,-21.28,0.45,0.84,0.13
-4.506836,0.021239117,0.233497,-0.09147823,0.29,0.93,0.17,22216,10108.40,0,0,0,-5.53,12.39,-19.04,0.29,0.93,0.17
-3.506836,0.029239126,0.420497,-0.075478226,0.27,0.94,0.18,22231,10109.40,0,0,165,-4.97,25.48,-17.92,0.27,0.94,0.18
-4.506836,0.091239125,0.547497,-0.019478217,0.25,0.96,0.15,22238,10108.40,0,0,0,-0.63,34.37,-14.00,0.25,0.96,0.15
-3.506836,0.07123912,0.527497,0.054521784,0.22,0.99,0.1,22253,10109.40,0,0,165,-2.03,32.97,-8.82,0.22,0.99,0.10
-3.506836,0.09923912,0.512497,0.16552179,0.26,0.94,0.14,22268,10109.40,0,0,0,-0.07,31.92,-1.05,0.26,0.94,0.14
-3.506836,0.10323912,0.45949697,0.16052179,0.29,0.96,0.21,22278,10109.40,0,0,165,0.21,28.21,-1.40,0.29,0.96,0.21
-3.506836,0.26023912,0.388497,0.08552179,0.34,0.89,0.22,22294,10109.40,0,0,0,11.20,23.24,-6.65,0.34,0.89,0.22
-3.506836,0.3142391,0.34049696,0.0135217905,0.28,0.96,0.16,22306,10109.40,0,0,165,14.98,19.88,-11.69,0.28,0.96,0.16
-4.107422,0.17323911,0.042496994,0.11152179,0.23,1.01,0.15,22314,10108.80,0,0,0,5.11,-0.98,-4.83,0.23,1.01,0.15
-3.506836,0.27223912,0.14449699,0.18352179,0.26,0.98,0.13,22329,10109.40,0,0,165,12.04,6.16,0.21,0.26,0.98,0.13
-3.506836,0.16423912,0.34849697,0.17352179,0.34,1.0,0.08,22344,10109.40,0,0,0,4.48,20.44,-0.49,0.34,1.00,0.08
-3.506836,0.03323912,0.553497,0.18352179,0.35,1.03,0.11,22351,10109.40,0,0,165,-4.69,34.79,0.21,0.35,1.03,0.11
-4.506836,-0.02976089,0.59949696,0.14952178,0.4,0.93,0.21,22366,10108.40,0,0,0,-9.10,38.01,-2.17,0.40,0.93,0.21
-3.506836,-0.057760887,0.424497,0.036521792,0.29,0.86,0.29,22381,10109.40,0,0,165,-11.06,25.76,-10.08,0.29,0.86,0.29
-4.506836,-0.057760887,0.102497,-0.096478194,0.25,0.89,0.23,22388,10108.40,0,0,0,-11.06,3.22,-19.39,0.25,0.89,0.23
-4.107422,0.13223912,-0.08450301,-0.0704782,0.27,0.9,0.18,22404,10108.80,0,0,165,2.24,-9.87,-17.57,0.27,0.90,0.18
-4.506836,0.23423913,-0.125503,-0.0844782,0.25,0.95,0.08,22419,10108.40,0,0,0,9.38,-12.74,-18.55,0.25,0.95,0.08
-3.506836,0.11923912,-0.0015030056,-0.09147823,0.25,1.02,0.03,22433,10109.40,0,0,165,1.33,-4.06,-19.04,0.25,1.02,0.03
-3.1074219,0.06423912,0.035496995,0.10152178,0.3,0.89,0.14,22441,10109.80,0,0,0,-2.52,-1.47,-5.53,0.30,0.89,0.14
-3.506836,-0.10576088,0.046496995,0.076521784,0.2,0.9,0.25,22455,10109.40,0,0,165,-14.42,-0.70,-7.28,0.20,0.90,0.25
-3.506836,-0.15876085,0.011496991,0.026521787,0.24,0.97,0.18,22463,10109.40,0,0,0,-18.13,-3.15,-10.78,0.24,0.97,0.18
-4.506836,-0.28076088,-0.04750301,0.009521782,0.3,1.03,0.15,22478,10108.40,0,0,165,-26.67,-7.28,-11.97,0.30,1.03,0.15
-2.506836,-0.36076087,-0.057503007,0.13152179,0.36,1.03,0.17,22495,10110.40,0,0,0,-32.27,-7.98,-3.43,0.36,1.03,0.17
-3.506836,-0.20476088,0.053496994,0.14252178,0.39,1.05,0.15,22501,10109.40,0,0,165,-21.35,-0.21,-2.66,0.39,1.05,0.15
-4.506836,-0.28176087,1.165497,0.23752178,0.81,1.07,0.24,22517,10108.40,0,0,0,-26.74,77.63,3.99,0.81,1.07,0.24
-3.506836,0.5172391,0.959497,-0.23547822,0.18,1.02,0.26,22531,10109.40,0,0,165,29.19,63.21,-29.12,0.18,1.02,0.26
-3.506836,-0.34876087,0.91049695,-0.3254782,0.25,0.99,0.21,22538,10109.40,0,0,0,-31.43,59.78,-35.42,0.25,0.99,0.21
-3.506836,-0.19076088,0.878497,-0.1654782,0.01,0.97,0.24,22553,10109.40,0,0,165,-20.37,57.54,-24.22,0.01,0.97,0.24
-3.506836,0.18923911,1.104497,0.14152178,0.14,0.96,0.07,22568,10109.40,0,0,0,6.23,73.36,-2.73,0.14,0.96,0.07
-4.506836,-0.1407609,0.979497,0.16552179,0.21,1.02,0.16,22576,10108.40,0,0,165,-16.87,64.61,-1.05,0.21,1.02,0.16
-3.506836,-0.5187609,0.739497,-0.020478204,-0.1,-0.56,0.28,22591,10109.40,0,0,0,-43.33,47.81,-14.07,-0.10,-0.56,0.28
-3.506836,-1.5727608,0.249497,0.5325218,0.16,0.45,0.25,22605,10109.40,0,0,165,-117.11,13.51,24.64,0.16,0.45,0.25
-4.506836,-0.95476085,-0.07550301,0.4045218,0.16,0.86,0.36,22613,10108.40,0,0,0,-73.85,-9.24,15.68,0.16,0.86,0.36
-3.506836,-0.20576087,0.104496986,0.5495218,0.31,0.94,0.23,22628,10109.40,0,0,165,-21.42,3.36,25.83,0.31,0.94,0.23
-4.506836,0.10323912,0.189497,0.3145218,0.21,1.03,0.25,22644,10108.40,0,0,0,0.21,9.31,9.38,0.21,1.03,0.25
-4.506836,0.11023912,0.265497,0.2865218,0.14,1.15,0.26,22651,10108.40,0,0,165,0.70,14.63,7.42,0.14,1.15,0.26
-4.506836,0.3952391,0.323497,0.4545218,-0.02,1.15,0.28,22666,10108.40,0,0,0,20.65,18.69,19.18,-0.02,1.15,0.28
-4.506836,0.6432391,0.935497,0.50752175,-0.02,1.06,0.23,22680,10108.40,0,0,165,38.01,61.53,22.89,-0.02,1.06,0.23
-4.506836,0.14723912,0.877497,0.57652175,0.62,0.72,0.29,22688,10108.40,0,0,0,3.29,57.47,27.72,0.62,0.72,0.29
-5.4072266,-0.23276088,0.782497,0.5085218,0.34,1.08,0.55,22703,10107.50,0,0,165,-23.31,50.82,22.96,0.34,1.08,0.55
-3.506836,-0.49276087,-0.226503,0.7155218,0.48,0.81,0.43,22719,10109.40,0,0,0,-41.51,-19.81,37.45,0.48,0.81,0.43
-4.506836,-0.45476088,-0.15850301,0.48352176,0.34,0.89,0.27,22726,10108.40,0,0,165,-38.85,-15.05,21.21,0.34,0.89,0.27
-4.506836,-0.20176086,0.09749699,0.43352178,0.28,0.88,0.28,22740,10108.40,0,0,0,-21.14,2.87,17.71,0.28,0.88,0.28
-5.4072266,-0.060760893,0.08149699,0.13452178,0.31,0.81,0.39,22756,10107.50,0,0,165,-11.27,1.75,-3.22,0.31,0.81,0.39
-5.4072266,0.001239121,0.24849698,-0.16747823,0.42,0.55,0.17,22763,10107.50,0,0,0,-6.93,13.44,-24.36,0.42,0.55,0.17
-4.506836,-1.7497609,0.261497,-0.31847823,0.13,0.91,0.39,22778,10108.40,0,0,165,-129.50,14.35,-34.93,0.13,0.91,0.39
-4.506836,-1.8147609,0.055496994,-0.46347827,0.16,0.91,0.42,22794,10108.40,0,0,0,-134.05,-0.07,-45.08,0.16,0.91,0.42
-4.506836,-1.2957609,0.03349699,-0.5574782,0.24,0.96,0.38,22809,10108.40,0,0,165,-97.72,-1.61,-51.66,0.24,0.96,0.38
-4.506836,-1.0087608,-0.049503006,-0.61747825,0.28,0.97,0.35,22816,10108.40,0,0,0,-77.63,-7.42,-55.86,0.28,0.97,0.35
-5.4072266,-0.6767609,-0.0015030056,-0.5214782,0.34,1.03,0.32,22830,10107.50,0,0,165,-54.39,-4.06,-49.14,0.34,1.03,0.32
-5.107422,-0.25376087,-0.108503014,-0.27447823,0.37,1.08,0.27,22838,10107.80,0,0,0,-24.78,-11.55,-31.85,0.37,1.08,0.27
-4.506836,0.07123912,-0.10450302,0.016521797,0.21,0.95,0.37,22853,10108.40,0,0,165,-2.03,-11.27,-11.48,0.21,0.95,0.37
-4.506836,0.32723913,-0.020503007,0.20352179,0.22,0.92,0.5,22868,10108.40,0,0,0,15.89,-5.39,1.61,0.22,0.92,0.50
-4.506836,0.025239117,-0.012503006,0.23252179,0.21,0.83,0.52,22883,10108.40,0,0,165,-5.25,-4.83,3.64,0.21,0.83,0.52
-4.506836,-0.043760873,0.112496994,0.39452177,0.27,0.97,0.42,22891,10108.40,0,0,0,-10.08,3.92,14.98,0.27,0.97,0.42
-5.4072266,0.4142391,0.293497,0.7355218,0.15,0.94,0.46,22906,10107.50,0,0,165,21.98,16.59,38.85,0.15,0.94,0.46
-5.4072266,0.6332391,0.63149697,0.9305218,0.16,0.93,0.47,22914,10107.50,0,0,0,37.31,40.25,52.50,0.16,0.93,0.47
-3.8076172,0.6562391,0.58749694,0.7825218,0.16,0.9,0.42,22928,10109.10,0,0,165,38.92,37.17,42.14,0.16,0.90,0.42
-5.4072266,0.65723914,0.545497,0.4995218,0.16,0.88,0.43,22943,10107.50,0,0,0,38.99,34.23,22.33,0.16,0.88,0.43
-5.4072266,0.6982391,0.337497,0.3185218,0.23,1.0,0.41,22951,10107.50,0,0,165,41.86,19.67,9.66,0.23,1.00,0.41
-5.4072266,0.7872391,0.369497,0.16252178,0.23,0.92,0.42,22966,10107.50,0,0,0,48.09,21.91,-1.26,0.23,0.92,0.42
-5.4072266,0.7042391,0.29049698,0.045521796,0.28,0.86,0.4,22980,10107.50,0,0,165,42.28,16.38,-9.45,0.28,0.86,0.40
-5.4072266,0.69123906,0.23249699,0.06752179,0.24,0.89,0.38,22989,10107.50,0,0,0,41.37,12.32,-7.91,0.24,0.89,0.38
-4.807617,0.5422391,0.242497,-0.4604782,0.22,1.08,0.36,23004,10108.10,0,0,165,30.94,13.02,-44.87,0.22,1.08,0.36
-4.807617,0.5302391,0.13449699,-0.72047824,0.22,0.91,0.34,23026,10108.10,0,0,0,30.10,5.46,-63.07,0.22,0.91,0.34
-4.506836,0.48523915,0.12549698,-0.5494782,0.18,0.87,0.39,23028,10108.40,0,0,165,26.95,4.83,-51.10,0.18,0.87,0.39
-5.4072266,0.41523913,0.214497,-0.3934782,0.21,0.95,0.34,23041,10107.50,0,0,0,22.05,11.06,-40.18,0.21,0.95,0.34
-5.807617,0.39223912,0.19549699,-0.2214782,0.25,0.9,0.33,23049,10107.10,0,0,165,20.44,9.73,-28.14,0.25,0.90,0.33
-4.506836,0.30723912,0.132497,-0.106478214,0.27,0.96,0.31,23063,10108.40,0,0,0,14.49,5.32,-20.09,0.27,0.96,0.31
-6.4072266,0.30923912,0.08549699,-0.17147821,0.24,1.01,0.31,23079,10106.50,0,0,165,14.63,2.03,-24.64,0.24,1.01,0.31
-4.506836,0.35523912,0.131497,-0.1764782,0.2,0.91,0.33,23086,10108.40,0,0,0,17.85,5.25,-24.99,0.20,0.91,0.33
-5.807617,0.3282391,0.117497,-0.20847821,0.18,0.84,0.35,23101,10107.10,0,0,165,15.96,4.27,-27.23,0.18,0.84,0.35
-4.807617,0.33723912,0.015496995,-0.08847821,0.13,0.9,0.37,23116,10108.10,0,0,0,16.59,-2.87,-18.83,0.13,0.90,0.37
-3.506836,0.35723913,0.023496993,-0.17547822,0.11,1.05,0.35,23124,10109.40,0,0,165,17.99,-2.31,-24.92,0.11,1.05,0.35
-3.506836,0.5542391,0.102497,-0.1324782,0.09,0.94,0.37,23138,10109.40,0,0,0,31.78,3.22,-21.91,0.09,0.94,0.37
-1.8076172,0.5102391,0.165497,-0.09047821,0.07,0.86,0.36,23153,10111.10,0,0,165,28.70,7.63,-18.97,0.07,0.86,0.36
-1.5068359,0.39223912,0.16349699,0.06052179,0.06,0.82,0.4,23161,10111.40,0,0,0,20.44,7.49,-8.40,0.06,0.82,0.40
-0.50683594,0.29323912,0.259497,0.21552178,0.1,0.87,0.4,23176,10112.40,0,0,165,13.51,14.21,2.45,0.10,0.87,0.40
1.3925781,0.17123911,0.31249702,0.4205218,0.12,0.91,0.37,23190,10114.30,0,0,0,4.97,17.92,16.80,0.12,0.91,0.37
0.09277344,0.11123912,0.254497,0.46152177,0.14,0.88,0.36,23198,10113.00,0,0,165,0.77,13.86,19.67,0.14,0.88,0.36
1.3925781,0.06823912,0.196497,0.42652178,0.15,0.92,0.32,23213,10114.30,0,0,0,-2.24,9.80,17.22,0.15,0.92,0.32
2.3925781,0.09223912,0.165497,0.44452178,0.17,0.92,0.3,23228,10115.30,0,0,165,-0.56,7.63,18.48,0.17,0.92,0.30
1.3925781,0.12123912,0.123496994,0.4665218,0.19,0.93,0.31,23235,10114.30,0,0,0,1.47,4.69,20.02,0.19,0.93,0.31
2.3925781,0.12123912,0.09149699,0.48252177,0.2,0.92,0.33,23251,10115.30,0,0,165,1.47,2.45,21.14,0.20,0.92,0.33
3.0927734,0.09223912,0.117497,0.5675218,0.19,0.92,0.33,23266,10116.00,0,0,0,-0.56,4.27,27.09,0.19,0.92,0.33
3.3925781,0.06823912,0.10649699,0.5885218,0.18,0.9,0.35,23273,10116.30,0,0,165,-2.24,3.50,28.56,0.18,0.90,0.35
3.3925781,0.027239121,0.06949699,0.5745218,0.12,0.95,0.34,23288,10116.30,0,0,0,-5.11,0.91,27.58,0.12,0.95,0.34
3.0927734,0.0142391175,0.08049699,0.5445218,0.12,1.01,0.3,23304,10116.00,0,0,165,-6.02,1.68,25.48,0.12,1.01,0.30
3.3925781,0.07423912,0.083496995,0.4735218,0.15,1.02,0.3,23311,10116.30,0,0,0,-1.82,1.89,20.51,0.15,1.02,0.30
4.392578,0.13823912,0.05949699,0.3865218,0.18,1.01,0.31,23326,10117.30,0,0,165,2.66,0.21,14.42,0.18,1.01,0.31
3.3925781,0.14923912,0.006496992,0.28052178,0.2,0.96,0.3,23342,10116.30,0,0,0,3.43,-3.50,7.00,0.20,0.96,0.30
4.392578,0.11723912,-0.010503009,0.3085218,0.28,0.95,0.3,23348,10117.30,0,0,165,1.19,-4.69,8.96,0.28,0.95,0.30
4.993164,0.113239124,-0.07550301,0.3585218,0.25,1.0,0.27,23364,10117.90,0,0,0,0.91,-9.24,12.46,0.25,1.00,0.27
3.993164,0.19523913,-0.141503,0.3505218,0.22,1.05,0.25,23379,10116.90,0,0,165,6.65,-13.86,11.90,0.22,1.05,0.25
4.392578,0.29723912,-0.20950301,0.30352178,0.22,1.02,0.27,23386,10117.30,0,0,0,13.79,-18.62,8.61,0.22,1.02,0.27
3.993164,0.35223913,-0.20950301,0.26652178,0.19,0.99,0.33,23401,10116.90,0,0,165,17.64,-18.62,6.02,0.19,0.99,0.33
3.993164,0.35023913,-0.198503,0.24152179,0.17,0.97,0.35,23416,10116.90,0,0,0,17.50,-17.85,4.27,0.17,0.97,0.35
4.392578,0.30823913,-0.156503,0.23052178,0.18,0.94,0.36,23424,10117.30,0,0,165,14.56,-14.91,3.50,0.18,0.94,0.36
4.392578,0.25123912,-0.110503,0.23752178,0.17,0.91,0.35,23438,10117.30,0,0,0,10.57,-11.69,3.99,0.17,0.91,0.35
4.993164,0.19223912,-0.06550301,0.2685218,0.17,0.89,0.33,23454,10117.90,0,0,165,6.44,-8.54,6.16,0.17,0.89,0.33
3.993164,0.09023912,-0.038503006,0.3495218,0.22,0.9,0.3,23461,10116.90,0,0,0,-0.70,-6.65,11.83,0.22,0.90,0.30
3.993164,-0.021760881,-0.045503005,0.4045218,0.23,0.87,0.28,23477,10116.90,0,0,165,-8.54,-7.14,15.68,0.23,0.87,0.28
5.2929688,-0.29776087,-0.03350301,0.47952178,0.21,0.92,0.29,23491,10118.20,0,0,0,-27.86,-6.30,20.93,0.21,0.92,0.29
3.993164,-0.39876089,-0.01850301,0.4875218,0.23,0.97,0.27,23498,10116.90,0,0,165,-34.93,-5.25,21.49,0.23,0.97,0.27
4.392578,-0.28676087,-0.016503006,0.5315218,0.22,0.96,0.33,23513,10117.30,0,0,0,-27.09,-5.11,24.57,0.22,0.96,0.33
5.2929688,-0.26776087,0.04849699,0.74252176,0.21,0.92,0.36,23529,10118.20,0,0,165,-25.76,-0.56,39.34,0.21,0.92,0.36
3.0927734,-0.2597609,0.138497,1.0375218,0.17,0.72,0.43,23536,10116.00,0,0,0,-25.20,5.74,59.99,0.17,0.72,0.43
4.993164,-0.33476087,0.008496996,1.1485219,0.32,1.06,0.3,23551,10117.90,0,0,165,-30.45,-3.36,67.76,0.32,1.06,0.30
4.392578,-0.04776088,-0.125503,1.0215218,0.3,0.93,0.3,23565,10117.30,0,0,0,-10.36,-12.74,58.87,0.30,0.93,0.30
3.993164,0.18323912,-0.221503,0.69152176,0.34,1.02,0.31,23574,10116.90,0,0,165,5.81,-19.46,35.77,0.34,1.02,0.31
3.993164,0.39023912,-0.193503,0.4745218,0.28,0.91,0.34,23588,10116.90,0,0,0,20.30,-17.50,20.58,0.28,0.91,0.34
3.993164,0.3282391,-0.15250301,0.4805218,0.24,0.94,0.37,23603,10116.90,0,0,165,15.96,-14.63,21.00,0.24,0.94,0.37
3.3925781,0.41123915,0.09149699,0.45152178,0.24,1.09,0.38,23611,10116.30,0,0,0,21.77,2.45,18.97,0.24,1.09,0.38
4.392578,0.22823912,0.429497,-0.15447822,0.25,1.15,0.31,23626,10117.30,0,0,165,8.96,26.11,-23.45,0.25,1.15,0.31
4.392578,0.3492391,0.593497,-0.5964782,0.22,1.11,0.26,23640,10117.30,0,0,0,17.43,37.59,-54.39,0.22,1.11,0.26
4.392578,0.74223906,0.286497,-0.80547816,0.4,0.72,0.22,23648,10117.30,0,0,165,44.94,16.10,-69.02,0.40,0.72,0.22
3.0927734,0.7342391,0.08449699,-0.41347826,0.23,0.9,0.33,23663,10116.00,0,0,0,44.38,1.96,-41.58,0.23,0.90,0.33
4.993164,0.75623906,0.006496992,-0.09547821,0.19,0.77,0.38,23679,10117.90,0,0,165,45.92,-3.50,-19.32,0.19,0.77,0.38
4.392578,0.5462391,0.05749699,0.3025218,0.22,0.91,0.36,23686,10117.30,0,0,0,31.22,0.07,8.54,0.22,0.91,0.36
5.2929688,0.5052391,0.137497,0.27552179,0.24,0.92,0.32,23700,10118.20,0,0,165,28.35,5.67,6.65,0.24,0.92,0.32
3.3925781,0.47523913,0.193497,0.2815218,0.28,0.97,0.29,23716,10116.30,0,0,0,26.25,9.59,7.07,0.28,0.97,0.29
3.993164,0.4832391,0.285497,0.3425218,0.25,1.02,0.29,23723,10116.90,0,0,165,26.81,16.03,11.34,0.25,1.02,0.29
3.0927734,0.12323912,0.26449698,0.34352177,0.22,0.91,0.29,23739,10116.00,0,0,0,1.61,14.56,11.41,0.22,0.91,0.29
1.0927734,0.22223912,0.24449699,0.3235218,0.24,0.93,0.3,23753,10114.00,0,0,165,8.54,13.16,10.01,0.24,0.93,0.30
-2.8076172,0.20523912,0.24649699,0.28252178,0.23,0.91,0.31,23761,10110.10,0,0,0,7.35,13.30,7.14,0.23,0.91,0.31
-6.7070312,0.19723913,0.266497,0.2545218,0.23,0.94,0.32,23776,10106.20,0,0,165,6.79,14.70,5.18,0.23,0.94,0.32
-12.607422,0.20423913,0.30749696,0.24052179,0.23,0.94,0.33,23790,10100.30,0,0,0,7.28,17.57,4.20,0.23,0.94,0.33
-17.207031,0.23623914,0.331497,0.21052179,0.19,0.86,0.34,23798,10095.70,0,0,165,9.52,19.25,2.10,0.19,0.86,0.34
-21.107422,0.09023912,0.30249697,0.08252178,0.2,0.89,0.33,23813,10091.80,0,0,0,-0.70,17.22,-6.86,0.20,0.89,0.33
-27.307617,0.05523912,0.336497,0.08352178,0.22,0.91,0.31,23828,10085.60,0,0,165,-3.15,19.60,-6.79,0.22,0.91,0.31
-32.20703,0.06023912,0.342497,0.102521785,0.23,0.93,0.3,23836,10080.70,0,0,0,-2.80,20.02,-5.46,0.23,0.93,0.30
-37.10742,0.062239118,0.32149696,0.08252178,0.24,0.91,0.3,23851,10075.80,0,0,165,-2.66,18.55,-6.86,0.24,0.91,0.30
-42.10742,0.04523912,0.305497,0.11252178,0.26,0.9,0.3,23866,10070.80,0,0,0,-3.85,17.43,-4.76,0.26,0.90,0.30
-46.006836,0.02623912,0.286497,0.088521786,0.22,0.95,0.33,23874,10066.90,0,0,165,-5.18,16.10,-6.44,0.22,0.95,0.33
-50.907227,0.03723912,0.300497,0.087521784,0.23,0.94,0.33,23888,10062.00,0,0,0,-4.41,17.08,-6.51,0.23,0.94,0.33
-55.807617,0.04823912,0.331497,0.13852179,0.24,0.93,0.32,23903,10057.10,0,0,165,-3.64,19.25,-2.94,0.24,0.93,0.32
-61.70703,0.04323912,0.32449698,0.16152179,0.25,0.93,0.32,23911,10051.20,0,0,0,-3.99,18.76,-1.33,0.25,0.93,0.32
-67.60742,0.022239119,0.30249697,0.1335218,0.26,0.92,0.31,23926,10045.30,0,0,165,-5.46,17.22,-3.29,0.26,0.92,0.31
-71.506836,0.011239119,0.30249697,0.15552178,0.25,0.95,0.29,23941,10041.40,0,0,0,-6.23,17.22,-1.75,0.25,0.95,0.29
-75.40723,0.020239122,0.28349698,0.15852179,0.25,0.96,0.29,23948,10037.50,0,0,165,-5.60,15.89,-1.54,0.25,0.96,0.29
-81.30762,0.04123912,0.239497,0.14252178,0.26,0.94,0.28,23963,10031.60,0,0,0,-4.13,12.81,-2.66,0.26,0.94,0.28
-85.20703,0.038239118,0.20149699,0.18852179,0.27,0.93,0.29,23978,10027.70,0,0,165,-4.34,10.15,0.56,0.27,0.93,0.29
-90.10742,0.025239117,0.16649699,0.22252178,0.28,0.92,0.29,23986,10022.80,0,0,0,-5.25,7.70,2.94,0.28,0.92,0.29
-95.006836,0.011239119,0.12949699,0.23252179,0.28,0.93,0.29,24001,10017.90,0,0,165,-6.23,5.11,3.64,0.28,0.93,0.29
-101.90723,0.0132391155,0.09349699,0.23852178,0.27,0.94,0.29,24016,10011.00,0,0,0,-6.09,2.59,4.06,0.27,0.94,0.29
-105.80762,0.004239127,0.07849699,0.25252178,0.27,0.95,0.29,24024,10007.10,0,0,165,-6.72,1.54,5.04,0.27,0.95,0.29
-110.70703,0.012239121,0.065496996,0.2615218,0.25,0.97,0.29,24039,10002.20,0,0,0,-6.16,0.63,5.67,0.25,0.97,0.29
-113.60742,0.029239126,0.047496993,0.24652179,0.23,0.97,0.3,24054,9999.30,0,0,165,-4.97,-0.63,4.62,0.23,0.97,0.30
-117.60742,0.05723912,0.04849699,0.23852178,0.24,0.96,0.31,24061,9995.30,0,0,0,-3.01,-0.56,4.06,0.24,0.96,0.31
-121.506836,0.07323912,0.062496994,0.2545218,0.24,0.95,0.32,24076,9991.40,0,0,165,-1.89,0.42,5.18,0.24,0.95,0.32
-124.40723,0.06623912,0.062496994,0.25552177,0.24,0.93,0.32,24091,9988.50,0,0,0,-2.38,0.42,5.25,0.24,0.93,0.32
-126.40723,0.06323912,0.06149699,0.2685218,0.25,0.93,0.32,24098,9986.50,0,0,165,-2.59,0.35,6.16,0.25,0.93,0.32
-128.40723,0.06323912,0.049496993,0.29452178,0.27,0.92,0.31,24114,9984.50,0,0,0,-2.59,-0.49,7.98,0.27,0.92,0.31
-129.30762,0.06323912,0.030496992,0.32052177,0.26,0.93,0.3,24129,9983.60,0,0,165,-2.59,-1.82,9.80,0.26,0.93,0.30
-130.00684,0.07323912,0.0054969937,0.3325218,0.25,0.94,0.3,24136,9982.90,0,0,0,-1.89,-3.57,10.64,0.25,0.94,0.30
-132.30762,0.08623912,0.001496993,0.3425218,0.24,0.94,0.3,24151,9980.60,0,0,165,-0.98,-3.85,11.34,0.24,0.94,0.30
-135.20703,0.09323912,-0.004503008,0.35252178,0.25,0.93,0.3,24166,9977.70,0,0,0,-0.49,-4.27,12.04,0.25,0.93,0.30
-134.20703,0.08523912,-0.023503006,0.36152178,0.27,0.91,0.3,24174,9978.70,0,0,165,-1.05,-5.60,12.67,0.27,0.91,0.30
-134.20703,0.07923912,-0.057503007,0.3955218,0.3,0.9,0.29,24188,9978.70,0,0,0,-1.47,-7.98,15.05,0.30,0.90,0.29
-134.20703,0.06523912,-0.09850301,0.44452178,0.32,0.88,0.3,24203,9978.70,0,0,165,-2.45,-10.85,18.48,0.32,0.88,0.30
-134.20703,0.028239124,-0.132503,0.5065218,0.34,0.85,0.31,24210,9978.70,0,0,0,-5.04,-13.23,22.82,0.34,0.85,0.31
-135.20703,-0.011760883,-0.138503,0.6155218,0.34,0.83,0.33,24227,9977.70,0,0,165,-7.84,-13.65,30.45,0.34,0.83,0.33
-134.20703,-0.11876088,-0.14350301,0.6945218,0.33,0.83,0.34,24241,9978.70,0,0,0,-15.33,-14.00,35.98,0.33,0.83,0.34
-134.20703,-0.18176088,-0.194503,0.7125218,0.29,0.87,0.33,24249,9978.70,0,0,165,-19.74,-17.57,37.24,0.29,0.87,0.33
-133.30762,-0.18076086,-0.25350302,0.69652176,0.26,0.98,0.28,24264,9979.60,0,0,0,-19.67,-21.70,36.12,0.26,0.98,0.28
-133.30762,-0.10976087,-0.324503,0.6415218,0.28,1.01,0.28,24279,9979.60,0,0,165,-14.70,-26.67,32.27,0.28,1.01,0.28
-133.30762,-0.027760886,-0.384503,0.5835218,0.31,1.02,0.29,24285,9979.60,0,0,0,-8.96,-30.87,28.21,0.31,1.02,0.29
-133.30762,0.06423912,-0.45650303,0.54552174,0.34,1.0,0.32,24301,9979.60,0,0,165,-2.52,-35.91,25.55,0.34,1.00,0.32
-132.30762,0.12823913,-0.51550305,0.5295218,0.37,0.98,0.32,24315,9980.60,0,0,0,1.96,-40.04,24.43,0.37,0.98,0.32
-132.30762,0.20023912,-0.60450304,0.47252178,0.35,0.99,0.32,24323,9980.60,0,0,165,7.00,-46.27,20.44,0.35,0.99,0.32
-132.00684,0.29323912,-0.637503,0.43552178,0.33,0.96,0.36,24338,9980.90,0,0,0,13.51,-48.58,17.85,0.33,0.96,0.36
-131.30762,0.3032391,-0.624503,0.4325218,0.33,0.94,0.35,24353,9981.60,0,0,165,14.21,-47.67,17.64,0.33,0.94,0.35
-131.30762,0.2982391,-0.645503,0.43552178,0.36,0.91,0.33,24361,9981.60,0,0,0,13.86,-49.14,17.85,0.36,0.91,0.33
-130.30762,0.3192391,-0.62650305,0.4595218,0.41,0.9,0.31,24375,9982.60,0,0,165,15.33,-47.81,19.53,0.41,0.90,0.31
-131.30762,0.3172391,-0.67850304,0.48252177,0.46,0.89,0.27,24390,9981.60,0,0,0,15.19,-51.45,21.14,0.46,0.89,0.27
-130.30762,0.31123912,-0.78850305,0.5315218,0.48,0.85,0.28,24398,9982.60,0,0,165,14.77,-59.15,24.57,0.48,0.85,0.28
-130.30762,0.27623913,-0.8835031,0.5975218,0.45,0.82,0.3,24413,9982.60,0,0,0,12.32,-65.80,29.19,0.45,0.82,0.30
-129.30762,0.21323912,-0.9115031,0.6655218,0.4,0.81,0.3,24428,9983.60,0,0,165,7.91,-67.76,33.95,0.40,0.81,0.30
-129.30762,0.14223912,-0.895503,0.6955218,0.36,0.82,0.29,24436,9983.60,0,0,0,2.94,-66.64,36.05,0.36,0.82,0.29
-129.30762,0.09923912,-0.864503,0.7385218,0.33,0.85,0.29,24451,9983.60,0,0,165,-0.07,-64.47,39.06,0.33,0.85,0.29
-129.30762,0.04823912,-0.81550306,0.7525218,0.31,0.89,0.28,24466,9983.60,0,0,0,-3.64,-61.04,40.04,0.31,0.89,0.28
-127.006836,0.01923912,-0.783503,0.69152176,0.36,0.92,0.25,24474,9985.90,0,0,165,-5.67,-58.80,35.77,0.36,0.92,0.25
-128.40723,0.029239126,-0.747503,0.6255218,0.37,0.94,0.25,24488,9984.50,0,0,0,-4.97,-56.28,31.15,0.37,0.94,0.25
-128.40723,0.04623912,-0.723503,0.5645218,0.39,0.94,0.25,24503,9984.50,0,0,165,-3.78,-54.60,26.88,0.39,0.94,0.25
-127.40723,0.098239124,-0.6755031,0.5215218,0.37,0.97,0.26,24511,9985.50,0,0,0,-0.14,-51.24,23.87,0.37,0.97,0.26
-127.40723,0.14223912,-0.56750304,0.39852178,0.32,0.94,0.27,24526,9985.50,0,0,165,2.94,-43.68,15.26,0.32,0.94,0.27
-127.006836,0.06623912,-0.48050302,0.19352178,0.35,0.97,0.24,24541,9985.90,0,0,0,-2.38,-37.59,0.91,0.35,0.97,0.24
-127.40723,0.16823912,-0.43250299,0.18452178,0.38,0.98,0.23,24549,9985.50,0,0,165,4.76,-34.23,0.28,0.38,0.98,0.23
-126.40723,0.21323912,-0.370503,0.1545218,0.45,0.94,0.24,24563,9986.50,0,0,0,7.91,-29.89,-1.82,0.45,0.94,0.24
-125.40723,0.23123911,-0.35450304,0.12752178,0.5,0.92,0.22,24578,9987.50,0,0,165,9.17,-28.77,-3.71,0.50,0.92,0.22
-125.40723,0.23623914,-0.376503,0.10352179,0.53,0.9,0.21,24586,9987.50,0,0,0,9.52,-30.31,-5.39,0.53,0.90,0.21
-126.40723,0.24323913,-0.39250302,0.102521785,0.51,0.9,0.22,24601,9986.50,0,0,165,10.01,-31.43,-5.46,0.51,0.90,0.22
-125.40723,0.23923913,-0.399503,0.08952179,0.48,0.89,0.23,24615,9987.50,0,0,0,9.73,-31.92,-6.37,0.48,0.89,0.23
-125.40723,0.2292391,-0.379503,0.069521785,0.44,0.89,0.24,24623,9987.50,0,0,165,9.03,-30.52,-7.77,0.44,0.89,0.24
-125.40723,0.22123912,-0.32250303,0.041521788,0.41,0.89,0.23,24638,9987.50,0,0,0,8.47,-26.53,-9.73,0.41,0.89,0.23
-123.10742,0.21023911,-0.26350302,0.032521784,0.41,0.87,0.24,24661,9989.80,0,0,165,7.70,-22.40,-10.36,0.41,0.87,0.24
-123.40723,0.18323912,-0.212503,0.029521793,0.44,0.86,0.23,24662,9989.50,0,0,0,5.81,-18.83,-10.57,0.44,0.86,0.23
-123.40723,0.15323912,-0.17750299,0.036521792,0.45,0.87,0.21,24676,9989.50,0,0,165,3.71,-16.38,-10.08,0.45,0.87,0.21
-123.40723,0.13823912,-0.157503,0.03552179,0.44,0.91,0.19,24691,9989.50,0,0,0,2.66,-14.98,-10.15,0.44,0.91,0.19
-122.506836,0.16523913,-0.14550301,0.00852178,0.43,0.94,0.18,24698,9990.40,0,0,165,4.55,-14.14,-12.04,0.43,0.94,0.18
-122.506836,0.21123913,-0.118503004,-0.022478208,0.42,0.93,0.18,24714,9990.40,0,0,0,7.77,-12.25,-14.21,0.42,0.93,0.18
-121.506836,0.22623911,-0.11750302,-0.051478207,0.44,0.91,0.18,24729,9991.40,0,0,165,8.82,-12.18,-16.24,0.44,0.91,0.18
-121.506836,0.21923912,-0.124503,-0.067478225,0.45,0.89,0.18,24736,9991.40,0,0,0,8.33,-12.67,-17.36,0.45,0.89,0.18
-121.20703,0.18023911,-0.12750301,-0.075478226,0.44,0.86,0.21,24751,9991.70,0,0,165,5.60,-12.88,-17.92,0.44,0.86,0.21
-122.506836,0.10423912,-0.088503,-0.0774782,0.37,0.84,0.26,24766,9990.40,0,0,0,0.28,-10.15,-18.06,0.37,0.84,0.26
-120.506836,0.035239115,-0.0015030056,-0.05047822,0.37,0.81,0.27,24773,9992.40,0,0,165,-4.55,-4.06,-16.17,0.37,0.81,0.27
-120.506836,-0.02476088,0.135497,0.038521796,0.38,0.81,0.26,24788,9992.40,0,0,0,-8.75,5.53,-9.94,0.38,0.81,0.26
-120.506836,-0.05676087,0.218497,0.11952178,0.43,0.83,0.22,24804,9992.40,0,0,165,-10.99,11.34,-4.27,0.43,0.83,0.22
-119.506836,-0.080760874,0.24449699,0.17352179,0.47,0.84,0.18,24811,9993.40,0,0,0,-12.67,13.16,-0.49,0.47,0.84,0.18
-120.20703,-0.102760874,0.212497,0.18552178,0.48,0.88,0.15,24826,9992.70,0,0,165,-14.21,10.92,0.35,0.48,0.88,0.15
-120.506836,-0.10176089,0.153497,0.18052179,0.48,0.92,0.15,24841,9992.40,0,0,0,-14.14,6.79,0.00,0.48,0.92,0.15
-120.506836,-0.10176089,0.08949699,0.14652178,0.47,0.89,0.18,24849,9992.40,0,0,165,-14.14,2.31,-2.38,0.47,0.89,0.18
-119.506836,-0.14876089,0.009496994,0.20452179,0.43,0.82,0.23,24864,9993.40,0,0,0,-17.43,-3.29,1.68,0.43,0.82,0.23
-120.506836,-0.19276088,0.038496993,0.22352178,0.43,0.9,0.21,24878,9992.40,0,0,165,-20.51,-1.26,3.01,0.43,0.90,0.21
-120.506836,-0.1967609,0.08049699,0.24652179,0.44,0.91,0.19,24885,9992.40,0,0,0,-20.79,1.68,4.62,0.44,0.91,0.19
-119.506836,-0.14576086,0.042496994,0.2425218,0.45,0.96,0.15,24901,9993.40,0,0,165,-17.22,-0.98,4.34,0.45,0.96,0.15
-120.20703,-0.058760874,0.01849699,0.20752178,0.46,1.01,0.15,24916,9992.70,0,0,0,-11.13,-2.66,1.89,0.46,1.01,0.15
-120.506836,0.04723912,-0.02950301,0.1475218,0.47,1.01,0.18,24927,9992.40,0,0,165,-3.71,-6.02,-2.31,0.47,1.01,0.18
-119.506836,0.10123912,-0.08350301,0.053521782,0.48,0.97,0.21,24938,9993.40,0,0,0,0.07,-9.80,-8.89,0.48,0.97,0.21
-119.506836,0.12423912,-0.11750302,0.0145217925,0.47,0.95,0.23,24954,9993.40,0,0,165,1.68,-12.18,-11.62,0.47,0.95,0.23
-119.506836,0.13623911,-0.133503,-0.03547822,0.45,0.93,0.24,24961,9993.40,0,0,0,2.52,-13.30,-15.12,0.45,0.93,0.24
-120.506836,0.12723912,-0.12750301,-0.05247821,0.44,0.91,0.23,24977,9992.40,0,0,165,1.89,-12.88,-16.31,0.44,0.91,0.23
-119.506836,0.12623912,-0.107503,-0.01647821,0.4,0.89,0.24,24991,9993.40,0,0,0,1.82,-11.48,-13.79,0.40,0.89,0.24
-117.20703,0.10623912,-0.074503005,0.03452179,0.41,0.89,0.23,24998,9995.70,0,0,165,0.42,-9.17,-10.22,0.41,0.89,0.23
-117.20703,0.11023912,-0.03350301,0.09652179,0.42,0.89,0.21,25014,9995.70,0,0,0,0.70,-6.30,-5.88,0.42,0.89,0.21
-118.506836,0.12423912,-0.028503008,0.10452178,0.43,0.88,0.21,25028,9994.40,0,0,165,1.68,-5.95,-5.32,0.43,0.88,0.21
-117.60742,0.12623912,-0.025503002,0.11552178,0.42,0.88,0.2,25036,9995.30,0,0,0,1.82,-5.74,-4.55,0.42,0.88,0.20
