Pressure_Rel,GyroX_Rel,GyroY_Rel,GyroZ_Rel,AccX_Rel,AccY_Rel,AccZ_Rel,Timestamp,Pressure_abs,HeartRate,Oxygen,Status,GyroX,GyroY,GyroZ,AccX,AccY,AccZ
0.0,0.0,0.0,0.0,0.0,0.0,0.0,3779,9970.60,0,0,165,0.84,-2.66,0.21,0.19,0.99,-0.01
0.0,0.0,0.0,0.0,0.0,0.0,0.0,3794,9970.60,0,0,0,0.84,-2.66,0.35,0.18,0.99,-0.01
0.0,0.0,0.0,0.0,0.0,0.0,0.0,3810,9970.60,0,0,165,0.77,-2.73,0.07,0.19,0.99,-0.01
0.0,0.0,0.0,0.0,0.0,0.0,0.0,3816,9969.60,0,0,0,0.77,-2.73,-0.14,0.19,0.99,-0.00
0.0,0.0,0.0,0.0,0.0,0.0,0.0,3832,9969.60,0,0,165,0.63,-2.59,-0.21,0.19,0.99,-0.01
0.0,0.0,0.0,0.0,0.0,0.0,0.0,3847,9969.60,0,0,0,0.84,-2.52,-0.21,0.19,0.99,-0.01
0.0,0.0,0.0,0.0,0.0,0.0,0.0,3856,9969.60,0,0,165,0.77,-2.66,-0.07,0.18,0.99,-0.01
0.0,0.0,0.0,0.0,0.0,0.0,0.0,3868,9969.60,0,0,0,0.84,-2.66,0.14,0.19,0.99,-0.01
0.0,0.0,0.0,0.0,0.0,0.0,0.0,3884,9970.60,0,0,165,0.84,-2.66,0.21,0.19,0.99,-0.01
0.0,0.0,0.0,0.0,0.0,0.0,0.0,3891,9970.90,0,0,0,0.77,-2.73,0.07,0.19,0.99,-0.01
0.0,0.0,0.0,0.0,0.0,0.0,0.0,3906,9969.60,0,0,165,0.91,-2.66,0.00,0.19,0.99,-0.01
0.0,0.0,0.0,0.0,0.0,0.0,0.0,3921,9969.60,0,0,0,0.70,-2.59,0.00,0.19,0.99,-0.01
0.0,0.0,0.0,0.0,0.0,0.0,0.0,3929,9970.60,0,0,165,0.84,-2.59,0.14,0.19,0.99,-0.00
0.0,0.0,0.0,0.0,0.0,0.0,0.0,3944,9970.60,0,0,0,0.77,-2.66,0.00,0.19,0.99,-0.01
0.0,0.0,0.0,0.0,0.0,0.0,0.0,3960,9969.60,0,0,165,0.77,-2.66,0.14,0.19,0.99,-0.01
0.0,0.0,0.0,0.0,0.0,0.0,0.0,3965,9969.60,0,0,0,0.84,-2.59,0.14,0.18,0.99,-0.01
0.0,0.0,0.0,0.0,0.0,0.0,0.0,3980,9969.60,0,0,165,0.84,-2.59,0.00,0.19,0.99,-0.01
0.0,0.0,0.0,0.0,0.0,0.0,0.0,3995,9970.60,0,0,0,0.91,-2.66,0.00,0.19,0.99,-0.01
0.0,0.0,0.0,0.0,0.0,0.0,0.0,4011,9970.60,0,0,165,0.77,-2.59,0.00,0.19,0.99,-0.00
0.0,0.0,0.0,0.0,0.0,0.0,0.0,4018,9970.60,0,0,0,0.77,-2.80,-0.07,0.19,0.99,-0.01
0.0,0.0,0.0,0.0,0.0,0.0,0.0,4034,9970.60,0,0,165,0.84,-2.52,0.00,0.19,0.99,-0.01
0.0,0.0,0.0,0.0,0.0,0.0,0.0,4041,9969.90,0,0,0,0.63,-2.73,-0.14,0.19,0.99,-0.00
0.0,0.0,0.0,0.0,0.0,0.0,0.0,4056,9969.90,0,0,165,0.98,-2.59,0.07,0.18,0.99,-0.00
0.0,0.0,0.0,0.0,0.0,0.0,0.0,4075,9970.90,0,0,0,0.91,-2.59,0.21,0.19,0.99,-0.01
0.0,0.0,0.0,0.0,0.0,0.0,0.0,4079,9969.90,0,0,165,0.70,-2.66,0.07,0.19,0.99,-0.01
0.0,0.0,0.0,0.0,0.0,0.0,0.0,4095,9969.90,0,0,0,0.70,-2.59,0.00,0.19,0.99,-0.01
0.0,0.0,0.0,0.0,0.0,0.0,0.0,4109,9971.50,0,0,165,0.84,-2.66,-0.14,0.19,0.99,-0.01
0.0,0.0,0.0,0.0,0.0,0.0,0.0,4116,9969.60,0,0,0,0.77,-2.59,0.00,0.19,0.99,-0.00
0.0,0.0,0.0,0.0,0.0,0.0,0.0,4131,9969.60,0,0,165,0.70,-2.52,0.00,0.19,0.99,-0.01
0.0,0.0,0.0,0.0,0.0,0.0,0.0,4147,9970.60,0,0,0,0.84,-2.66,0.00,0.19,0.99,-0.01
0.0,0.0,0.0,0.0,0.0,0.0,0.0,4153,9969.00,0,0,165,0.77,-2.59,0.07,0.19,0.99,-0.01
0.0,0.0,0.0,0.0,0.0,0.0,0.0,4169,9969.60,0,0,0,0.70,-2.66,0.07,0.19,0.99,-0.00
0.0,0.0,0.0,0.0,0.0,0.0,0.0,4184,9968.60,0,0,165,0.70,-2.66,0.07,0.19,0.99,-0.01
0.0,0.0,0.0,0.0,0.0,0.0,0.0,4191,9969.60,0,0,0,0.77,-2.66,0.00,0.19,0.99,-0.01
0.0,0.0,0.0,0.0,0.0,0.0,0.0,4206,9969.60,0,0,165,0.70,-2.59,-0.14,0.18,0.99,-0.01
0.0,0.0,0.0,0.0,0.0,0.0,0.0,4221,9969.90,0,0,0,0.77,-2.59,-0.14,0.19,0.99,-0.01
0.0,0.0,0.0,0.0,0.0,0.0,0.0,4228,9970.90,0,0,165,0.77,-2.73,0.00,0.19,0.99,-0.01
0.0,0.0,0.0,0.0,0.0,0.0,0.0,4243,9970.60,0,0,0,0.84,-2.59,0.00,0.19,0.99,-0.01
0.0,0.0,0.0,0.0,0.0,0.0,0.0,4258,9969.90,0,0,165,0.91,-2.66,0.07,0.18,0.99,-0.01
0.0,0.0,0.0,0.0,0.0,0.0,0.0,4266,9969.90,0,0,0,0.77,-2.59,0.14,0.19,0.99,-0.01
0.0,0.0,0.0,0.0,0.0,0.0,0.0,4281,9969.90,0,0,165,0.77,-2.59,0.07,0.19,0.99,-0.00
0.0,0.0,0.0,0.0,0.0,0.0,0.0,4296,9970.90,0,0,0,0.77,-2.73,0.07,0.19,0.99,-0.01
0.0,0.0,0.0,0.0,0.0,0.0,0.0,4303,9970.90,0,0,165,0.91,-2.59,0.14,0.19,0.99,-0.01
0.0,0.0,0.0,0.0,0.0,0.0,0.0,4318,9969.90,0,0,0,0.98,-2.66,0.07,0.19,0.99,-0.01
0.0,0.0,0.0,0.0,0.0,0.0,0.0,4334,9969.90,0,0,165,0.77,-2.73,0.14,0.19,0.99,-0.01
0.0,0.0,0.0,0.0,0.0,0.0,0.0,4341,9969.90,0,0,0,0.91,-2.73,0.07,0.19,0.99,-0.01
0.0,0.0,0.0,0.0,0.0,0.0,0.0,4356,9970.90,0,0,165,0.77,-2.59,0.14,0.19,0.99,-0.01
0.0,0.0,0.0,0.0,0.0,0.0,0.0,4371,9970.90,0,0,0,0.77,-2.66,-0.07,0.19,0.99,-0.01
0.0,0.0,0.0,0.0,0.0,0.0,0.0,4379,9969.60,0,0,165,0.77,-2.66,-0.14,0.19,0.99,-0.01
-0.22460938,-3.1550787E-4,7.8933313E-4,0.0023329188,0.18,0.99,-0.01,14405,9969.90,0,0,0,0.77,-2.59,0.07,0.18,0.99,-0.01
0.47460938,0.0026844926,-2.1066889E-4,0.0043329187,0.19,0.99,-0.01,14413,9970.60,0,0,165,0.98,-2.66,0.21,0.19,0.99,-0.01
0.17480469,-3.1550787E-4,-2.1066889E-4,0.0013329188,0.19,0.99,-0.01,14429,9970.30,0,0,0,0.77,-2.66,0.00,0.19,0.99,-0.01
0.17480469,-3.1550787E-4,7.8933313E-4,0.0023329188,0.18,0.99,-0.01,14443,9970.30,0,0,165,0.77,-2.59,0.07,0.18,0.99,-0.01
0.17480469,6.8449136E-4,-2.1066889E-4,0.0013329188,0.19,0.99,-0.01,14450,9970.30,0,0,0,0.84,-2.66,0.00,0.19,0.99,-0.01
-0.22460938,-0.001315508,-2.1066889E-4,0.0013329188,0.19,0.99,-0.01,14465,9969.90,0,0,165,0.70,-2.66,0.00,0.19,0.99,-0.01
-0.22460938,-0.001315508,-2.1066889E-4,0.0013329188,0.19,0.99,-0.01,14480,9969.90,0,0,0,0.70,-2.66,0.00,0.19,0.99,-0.01
-0.8251953,-3.1550787E-4,-2.1066889E-4,-6.6708133E-4,0.19,0.99,-0.01,14488,9969.30,0,0,165,0.77,-2.66,-0.14,0.19,0.99,-0.01
0.17480469,6.8449136E-4,7.8933313E-4,0.0013329188,0.19,0.99,-0.01,14504,9970.30,0,0,0,0.84,-2.59,0.00,0.19,0.99,-0.01
0.17480469,-3.1550787E-4,-0.0012106672,0.0023329188,0.18,0.99,-0.01,14519,9970.30,0,0,165,0.77,-2.73,0.07,0.18,0.99,-0.01
-0.22460938,-3.1550787E-4,-2.1066889E-4,0.003332919,0.19,0.99,-0.01,14528,9969.90,0,0,0,0.77,-2.66,0.14,0.19,0.99,-0.01
0.7753906,-3.1550787E-4,-2.1066889E-4,0.003332919,0.19,0.99,-0.01,14541,9970.90,0,0,165,0.77,-2.66,0.14,0.19,0.99,-0.01
-1.125,6.8449136E-4,-2.1066889E-4,3.3291872E-4,0.19,0.99,-0.01,14556,9969.00,0,0,0,0.84,-2.66,-0.07,0.19,0.99,-0.01
0.17480469,0.0016844925,7.8933313E-4,0.0013329188,0.19,0.99,-0.01,14563,9970.30,0,0,165,0.91,-2.59,0.00,0.19,0.99,-0.01
0.7753906,6.8449136E-4,-0.0012106672,3.3291872E-4,0.19,0.99,-0.01,14578,9970.90,0,0,0,0.84,-2.73,-0.07,0.19,0.99,-0.01
1.0751953,6.8449136E-4,7.8933313E-4,0.0013329188,0.19,0.99,-0.01,14593,9971.20,0,0,165,0.84,-2.59,0.00,0.19,0.99,-0.01
0.17480469,6.8449136E-4,7.8933313E-4,0.003332919,0.18,0.99,-0.01,14601,9970.30,0,0,0,0.84,-2.59,0.14,0.18,0.99,-0.01
0.17480469,6.8449136E-4,7.8933313E-4,0.003332919,0.19,0.99,-0.01,14616,9970.30,0,0,165,0.84,-2.59,0.14,0.19,0.99,-0.01
0.17480469,6.8449136E-4,-0.0012106672,0.0023329188,0.18,0.99,-0.01,14631,9970.30,0,0,0,0.84,-2.73,0.07,0.18,0.99,-0.01
0.17480469,6.8449136E-4,-2.1066889E-4,0.0023329188,0.19,0.99,-0.01,14638,9970.30,0,0,165,0.84,-2.66,0.07,0.19,0.99,-0.01
1.0751953,-3.1550787E-4,7.8933313E-4,0.0013329188,0.19,0.99,-0.01,14653,9971.20,0,0,0,0.77,-2.59,0.00,0.19,0.99,-0.01
0.17480469,-3.1550787E-4,-2.1066889E-4,0.0013329188,0.19,0.99,-0.01,14668,9970.30,0,0,165,0.77,-2.66,0.00,0.19,0.99,-0.01
-0.8251953,-0.001315508,-2.1066889E-4,3.3291872E-4,0.19,0.99,-0.01,14676,9969.30,0,0,0,0.70,-2.66,-0.07,0.19,0.99,-0.01
1.0751953,6.8449136E-4,7.8933313E-4,0.0013329188,0.18,0.99,-0.01,14691,9971.20,0,0,165,0.84,-2.59,0.00,0.18,0.99,-0.01
0.7753906,6.8449136E-4,-2.1066889E-4,-6.6708133E-4,0.19,0.99,-0.01,14706,9970.90,0,0,0,0.84,-2.66,-0.14,0.19,0.99,-0.01
0.17480469,-3.1550787E-4,-2.1066889E-4,3.3291872E-4,0.19,0.99,-0.01,14713,9970.30,0,0,165,0.77,-2.66,-0.07,0.19,0.99,-0.01
0.17480469,-3.1550787E-4,7.8933313E-4,3.3291872E-4,0.19,0.99,-0.01,14729,9970.30,0,0,0,0.77,-2.59,-0.07,0.19,0.99,-0.01
0.17480469,6.8449136E-4,-2.1066889E-4,0.0013329188,0.18,0.99,-0.01,14749,9970.30,0,0,165,0.84,-2.66,0.00,0.18,0.99,-0.01
0.17480469,6.8449136E-4,-2.1066889E-4,0.0013329188,0.18,0.99,-0.01,14750,9970.30,0,0,0,0.84,-2.66,0.00,0.18,0.99,-0.01
0.17480469,6.8449136E-4,-0.0012106672,3.3291872E-4,0.19,0.99,-0.01,14766,9970.30,0,0,165,0.84,-2.73,-0.07,0.19,0.99,-0.01
-0.8251953,-3.1550787E-4,7.8933313E-4,0.0043329187,0.19,0.99,-0.01,14801,9969.30,0,0,0,0.77,-2.59,0.21,0.19,0.99,-0.01
0.17480469,-3.1550787E-4,-2.1066889E-4,0.003332919,0.19,0.99,-0.01,14802,9970.30,0,0,165,0.77,-2.66,0.14,0.19,0.99,-0.01
0.17480469,0.0016844925,-2.1066889E-4,0.0043329187,0.19,0.99,-0.01,14803,9970.30,0,0,0,0.91,-2.66,0.21,0.19,0.99,-0.01
-0.22460938,0.0026844926,7.8933313E-4,-6.6708133E-4,0.19,0.99,-0.01,14818,9969.90,0,0,165,0.98,-2.59,-0.14,0.19,0.99,-0.01
0.17480469,6.8449136E-4,-2.1066889E-4,-0.001667081,0.19,0.99,-0.01,14826,9970.30,0,0,0,0.84,-2.66,-0.21,0.19,0.99,-0.01
0.17480469,-0.001315508,7.8933313E-4,3.3291872E-4,0.19,0.99,-0.01,14840,9970.30,0,0,165,0.70,-2.59,-0.07,0.19,0.99,-0.01
-0.8251953,-3.1550787E-4,-2.1066889E-4,-6.6708133E-4,0.19,0.99,-0.01,14856,9969.30,0,0,0,0.77,-2.66,-0.14,0.19,0.99,-0.01
-0.8251953,-3.1550787E-4,7.8933313E-4,0.0013329188,0.19,0.99,-0.01,14864,9969.30,0,0,165,0.77,-2.59,0.00,0.19,0.99,-0.01
0.17480469,-3.1550787E-4,-2.1066889E-4,3.3291872E-4,0.18,0.99,-0.01,14878,9970.30,0,0,0,0.77,-2.66,-0.07,0.18,0.99,-0.01
-0.22460938,6.8449136E-4,7.8933313E-4,0.0013329188,0.19,0.99,-0.01,14893,9969.90,0,0,165,0.84,-2.59,0.00,0.19,0.99,-0.01
0.17480469,6.8449136E-4,7.8933313E-4,0.0013329188,0.19,0.99,-0.01,14900,9970.30,0,0,0,0.84,-2.59,0.00,0.19,0.99,-0.01
0.17480469,0.0016844925,7.8933313E-4,0.003332919,0.19,0.99,-0.01,14915,9970.30,0,0,165,0.91,-2.59,0.14,0.19,0.99,-0.01
-0.8251953,-3.1550787E-4,-2.1066889E-4,0.0023329188,0.19,0.99,-0.01,14931,9969.30,0,0,0,0.77,-2.66,0.07,0.19,0.99,-0.01
1.0751953,-3.1550787E-4,7.8933313E-4,0.0023329188,0.19,0.99,-0.01,14938,9971.20,0,0,165,0.77,-2.59,0.07,0.19,0.99,-0.01
1.0751953,-3.1550787E-4,-2.1066889E-4,0.0013329188,0.18,0.99,-0.01,14952,9971.20,0,0,0,0.77,-2.66,0.00,0.18,0.99,-0.01
-1.125,-0.001315508,-0.0012106672,0.0013329188,0.18,0.99,-0.01,14968,9969.00,0,0,165,0.70,-2.73,0.00,0.18,0.99,-0.01
-0.8251953,6.8449136E-4,-2.1066889E-4,0.003332919,0.19,0.99,-0.01,14975,9969.30,0,0,0,0.84,-2.66,0.14,0.19,0.99,-0.01
-0.8251953,-3.1550787E-4,-2.1066889E-4,-0.2546671,0.19,0.99,-0.01,14990,9969.30,0,0,165,0.77,-2.66,-17.92,0.19,0.99,-0.01
0.17480469,6.8449136E-4,-0.0012106672,0.0023329188,0.19,0.99,-0.01,15005,9970.30,0,0,0,0.84,-2.73,0.07,0.19,0.99,-0.01
0.17480469,6.8449136E-4,-2.1066889E-4,0.0023329188,0.19,0.99,-0.01,15014,9970.30,0,0,165,0.84,-2.66,0.07,0.19,0.99,-0.01
0.17480469,-3.1550787E-4,0.0017893352,3.3291872E-4,0.19,0.99,-0.01,15030,9970.30,0,0,0,0.77,-2.52,-0.07,0.19,0.99,-0.01
0.17480469,0.0016844925,-2.1066889E-4,-6.6708133E-4,0.19,0.99,-0.01,15042,9970.30,0,0,165,0.91,-2.66,-0.14,0.19,0.99,-0.01
0.17480469,-0.001315508,-2.1066889E-4,3.3291872E-4,0.19,0.99,-0.01,15050,9970.30,0,0,0,0.70,-2.66,-0.07,0.19,0.99,-0.01
0.17480469,-3.1550787E-4,-2.1066889E-4,-6.6708133E-4,0.19,0.99,-0.01,15066,9970.30,0,0,165,0.77,-2.66,-0.14,0.19,0.99,-0.01
0.17480469,0.0016844925,7.8933313E-4,0.0023329188,0.19,0.99,-0.01,15080,9970.30,0,0,0,0.91,-2.59,0.07,0.19,0.99,-0.01
-0.8251953,-3.1550787E-4,-2.1066889E-4,0.003332919,0.19,0.99,-0.01,15088,9969.30,0,0,165,0.77,-2.66,0.14,0.19,0.99,-0.01
-0.8251953,-3.1550787E-4,-2.1066889E-4,0.0023329188,0.19,0.99,-0.01,15103,9969.30,0,0,0,0.77,-2.66,0.07,0.19,0.99,-0.01
0.17480469,6.8449136E-4,7.8933313E-4,0.0013329188,0.19,0.99,-0.01,15118,9970.30,0,0,165,0.84,-2.59,0.00,0.19,0.99,-0.01
-0.8251953,6.8449136E-4,-0.0012106672,3.3291872E-4,0.19,0.99,-0.01,15126,9969.30,0,0,0,0.84,-2.73,-0.07,0.19,0.99,-0.01
0.17480469,6.8449136E-4,7.8933313E-4,0.0023329188,0.19,0.99,-0.01,15141,9970.30,0,0,165,0.84,-2.59,0.07,0.19,0.99,-0.01
0.47460938,0.0016844925,-2.1066889E-4,0.003332919,0.19,0.99,-0.01,15155,9970.60,0,0,0,0.91,-2.66,0.14,0.19,0.99,-0.01
-0.8251953,0.0016844925,7.8933313E-4,3.3291872E-4,0.19,0.99,-0.01,15162,9969.30,0,0,165,0.91,-2.59,-0.07,0.19,0.99,-0.01
0.17480469,6.8449136E-4,-0.0022106655,0.0023329188,0.19,0.99,-0.01,15177,9970.30,0,0,0,0.84,-2.80,0.07,0.19,0.99,-0.01
0.17480469,-0.0023155082,7.8933313E-4,0.0023329188,0.19,0.99,-0.01,15193,9970.30,0,0,165,0.63,-2.59,0.07,0.19,0.99,-0.01
0.17480469,-0.001315508,-2.1066889E-4,0.0023329188,0.19,0.99,-0.01,15200,9970.30,0,0,0,0.70,-2.66,0.07,0.19,0.99,-0.01
1.0751953,-0.001315508,-0.0012106672,0.0023329188,0.18,0.99,-0.01,15215,9971.20,0,0,165,0.70,-2.73,0.07,0.18,0.99,-0.01
0.17480469,6.8449136E-4,-0.0012106672,-6.6708133E-4,0.19,0.99,-0.01,15230,9970.30,0,0,0,0.84,-2.73,-0.14,0.19,0.99,-0.01
0.17480469,-3.1550787E-4,7.8933313E-4,-6.6708133E-4,0.19,0.99,-0.01,15238,9970.30,0,0,165,0.77,-2.59,-0.14,0.19,0.99,-0.01
1.0751953,-3.1550787E-4,-2.1066889E-4,3.3291872E-4,0.19,0.99,-0.01,15253,9971.20,0,0,0,0.77,-2.66,-0.07,0.19,0.99,-0.01
0.47460938,0.0016844925,-0.0012106672,0.003332919,0.19,0.99,-0.01,15267,9970.60,0,0,165,0.91,-2.73,0.14,0.19,0.99,-0.01
0.17480469,-3.1550787E-4,-2.1066889E-4,0.0013329188,0.19,0.99,-0.01,15275,9970.30,0,0,0,0.77,-2.66,0.00,0.19,0.99,-0.01
0.17480469,6.8449136E-4,-2.1066889E-4,0.0013329188,0.18,0.99,-0.01,15290,9970.30,0,0,165,0.84,-2.66,0.00,0.18,0.99,-0.01
-0.8251953,6.8449136E-4,0.0017893352,0.0023329188,0.19,0.99,-0.01,15305,9969.30,0,0,0,0.84,-2.52,0.07,0.19,0.99,-0.01
-0.8251953,6.8449136E-4,-2.1066889E-4,-6.6708133E-4,0.19,0.99,-0.01,15313,9969.30,0,0,165,0.84,-2.66,-0.14,0.19,0.99,-0.01
1.0751953,-3.1550787E-4,-2.1066889E-4,0.0023329188,0.19,0.99,-0.01,15327,9971.20,0,0,0,0.77,-2.66,0.07,0.19,0.99,-0.01
-0.8251953,-3.1550787E-4,7.8933313E-4,3.3291872E-4,0.19,0.99,-0.01,15346,9969.30,0,0,165,0.77,-2.59,-0.07,0.19,0.99,-0.01
0.17480469,-0.001315508,-2.1066889E-4,0.0023329188,0.19,0.99,-0.01,15350,9970.30,0,0,0,0.70,-2.66,0.07,0.19,0.99,-0.01
-0.8251953,6.8449136E-4,-2.1066889E-4,0.003332919,0.19,0.99,-0.01,15365,9969.30,0,0,165,0.84,-2.66,0.14,0.19,0.99,-0.01
0.17480469,0.0016844925,7.8933313E-4,0.0043329187,0.19,0.99,-0.01,15381,9970.30,0,0,0,0.91,-2.59,0.21,0.19,0.99,-0.01
0.17480469,0.0016844925,-2.1066889E-4,0.0023329188,0.19,0.99,-0.01,15388,9970.30,0,0,165,0.91,-2.66,0.07,0.19,0.99,-0.01
0.17480469,-3.1550787E-4,7.8933313E-4,0.0023329188,0.19,0.99,-0.01,15403,9970.30,0,0,0,0.77,-2.59,0.07,0.19,0.99,-0.01
-0.8251953,-3.1550787E-4,-2.1066889E-4,-6.6708133E-4,0.19,0.99,-0.01,15417,9969.30,0,0,165,0.77,-2.66,-0.14,0.19,0.99,-0.01
0.17480469,-3.1550787E-4,-2.1066889E-4,-0.001667081,0.18,0.99,-0.01,15426,9970.30,0,0,0,0.77,-2.66,-0.21,0.18,0.99,-0.01
0.17480469,-3.1550787E-4,-0.0012106672,-0.001667081,0.18,0.99,-0.01,15448,9970.30,0,0,165,0.77,-2.73,-0.21,0.18,0.99,-0.01
0.17480469,-0.001315508,-2.1066889E-4,0.0013329188,0.19,0.99,-0.01,15463,9970.30,0,0,0,0.70,-2.66,0.00,0.19,0.99,-0.01
-1.125,-3.1550787E-4,-2.1066889E-4,0.003332919,0.18,0.99,-0.01,15467,9969.00,0,0,165,0.77,-2.66,0.14,0.18,0.99,-0.01
0.17480469,0.0026844926,-2.1066889E-4,0.0063329185,0.18,0.99,-0.01,15478,9970.30,0,0,0,0.98,-2.66,0.35,0.18,0.99,-0.01
0.17480469,0.0026844926,-0.0012106672,0.0073329182,0.19,0.99,-0.01,15493,9970.30,0,0,165,0.98,-2.73,0.42,0.19,0.99,-0.01
-0.8251953,6.8449136E-4,7.8933313E-4,0.0063329185,0.19,0.99,-0.01,15501,9969.30,0,0,0,0.84,-2.59,0.35,0.19,0.99,-0.01
0.17480469,-3.1550787E-4,-2.1066889E-4,0.0023329188,0.19,0.99,-0.01,15516,9970.30,0,0,165,0.77,-2.66,0.07,0.19,0.99,-0.01
0.17480469,-3.1550787E-4,-2.1066889E-4,0.0023329188,0.19,0.99,-0.01,15530,9970.30,0,0,0,0.77,-2.66,0.07,0.19,0.99,-0.01
0.17480469,0.0016844925,7.8933313E-4,3.3291872E-4,0.19,0.99,-0.01,15537,9970.30,0,0,165,0.91,-2.59,-0.07,0.19,0.99,-0.01
0.17480469,-0.001315508,7.8933313E-4,0.0023329188,0.19,0.99,-0.01,15552,9970.30,0,0,0,0.70,-2.59,0.07,0.19,0.99,-0.01
0.17480469,6.8449136E-4,7.8933313E-4,0.0023329188,0.19,0.99,-0.01,15568,9970.30,0,0,165,0.84,-2.59,0.07,0.19,0.99,-0.01
0.17480469,-3.1550787E-4,7.8933313E-4,3.3291872E-4,0.19,0.99,-0.01,15576,9970.30,0,0,0,0.77,-2.59,-0.07,0.19,0.99,-0.01
-0.8251953,-3.1550787E-4,-0.0012106672,-0.0026670815,0.19,0.99,-0.01,15590,9969.30,0,0,165,0.77,-2.73,-0.28,0.19,0.99,-0.01
0.17480469,-0.001315508,-2.1066889E-4,-0.0026670815,0.19,0.99,-0.01,15605,9970.30,0,0,0,0.70,-2.66,-0.28,0.19,0.99,-0.01
0.17480469,-0.001315508,-2.1066889E-4,3.3291872E-4,0.18,1.0,-0.01,15612,9970.30,0,0,165,0.70,-2.66,-0.07,0.18,1.00,-0.01
0.47460938,6.8449136E-4,7.8933313E-4,0.003332919,0.18,0.99,-0.01,15628,9970.60,0,0,0,0.84,-2.59,0.14,0.18,0.99,-0.01
-0.8251953,6.8449136E-4,-0.0022106655,0.0073329182,0.19,0.99,-0.01,15643,9969.30,0,0,165,0.84,-2.80,0.42,0.19,0.99,-0.01
0.17480469,0.0016844925,-2.1066889E-4,0.005332919,0.19,0.99,-0.01,15650,9970.30,0,0,0,0.91,-2.66,0.28,0.19,0.99,-0.01
-0.8251953,-0.001315508,-0.0012106672,0.003332919,0.19,0.99,-0.01,15665,9969.30,0,0,165,0.70,-2.73,0.14,0.19,0.99,-0.01
-0.5253906,0.0016844925,-2.1066889E-4,3.3291872E-4,0.19,0.99,-0.01,15680,9969.60,0,0,0,0.91,-2.66,-0.07,0.19,0.99,-0.01
-0.8251953,-3.1550787E-4,-0.0012106672,-0.001667081,0.19,0.99,-0.01,15688,9969.30,0,0,165,0.77,-2.73,-0.21,0.19,0.99,-0.01
0.17480469,-0.001315508,-2.1066889E-4,-6.6708133E-4,0.19,0.99,-0.01,15713,9970.30,0,0,0,0.70,-2.66,-0.14,0.19,0.99,-0.01
0.17480469,-0.001315508,7.8933313E-4,0.0013329188,0.19,0.99,-0.01,15718,9970.30,0,0,165,0.70,-2.59,0.00,0.19,0.99,-0.01
0.17480469,-3.1550787E-4,-2.1066889E-4,0.0013329188,0.19,0.99,-0.01,15725,9970.30,0,0,0,0.77,-2.66,0.00,0.19,0.99,-0.01
0.17480469,-3.1550787E-4,7.8933313E-4,0.0023329188,0.19,0.99,-0.01,15740,9970.30,0,0,165,0.77,-2.59,0.07,0.19,0.99,-0.01
0.17480469,-3.1550787E-4,-2.1066889E-4,0.0043329187,0.19,0.99,-0.01,15756,9970.30,0,0,0,0.77,-2.66,0.21,0.19,0.99,-0.01
1.0751953,-3.1550787E-4,7.8933313E-4,0.0043329187,0.19,0.99,-0.01,15763,9971.20,0,0,165,0.77,-2.59,0.21,0.19,0.99,-0.01
-0.8251953,0.0016844925,-2.1066889E-4,0.003332919,0.19,0.99,-0.01,15778,9969.30,0,0,0,0.91,-2.66,0.14,0.19,0.99,-0.01
0.17480469,-3.1550787E-4,-2.1066889E-4,3.3291872E-4,0.19,0.99,-0.01,15793,9970.30,0,0,165,0.77,-2.66,-0.07,0.19,0.99,-0.01
0.17480469,0.0016844925,7.8933313E-4,3.3291872E-4,0.19,0.99,-0.01,15800,9970.30,0,0,0,0.91,-2.59,-0.07,0.19,0.99,-0.01
1.0751953,6.8449136E-4,7.8933313E-4,3.3291872E-4,0.18,0.99,-0.01,15816,9971.20,0,0,165,0.84,-2.59,-0.07,0.18,0.99,-0.01
-0.8251953,6.8449136E-4,7.8933313E-4,0.0023329188,0.18,0.99,-0.01,15830,9969.30,0,0,0,0.84,-2.59,0.07,0.18,0.99,-0.01
0.17480469,0.0016844925,-2.1066889E-4,0.0023329188,0.19,0.99,-0.01,15846,9970.30,0,0,165,0.91,-2.66,0.07,0.19,0.99,-0.01
0.17480469,-3.1550787E-4,-2.1066889E-4,0.003332919,0.19,0.99,-0.01,15852,9970.30,0,0,0,0.77,-2.66,0.14,0.19,0.99,-0.01
0.17480469,-3.1550787E-4,7.8933313E-4,0.005332919,0.19,0.99,-0.01,15868,9970.30,0,0,165,0.77,-2.59,0.28,0.19,0.99,-0.01
0.17480469,6.8449136E-4,7.8933313E-4,0.0023329188,0.19,0.99,-0.01,15876,9970.30,0,0,0,0.84,-2.59,0.07,0.19,0.99,-0.01
0.7753906,-0.001315508,-2.1066889E-4,-6.6708133E-4,0.19,0.99,-0.01,15890,9970.90,0,0,165,0.70,-2.66,-0.14,0.19,0.99,-0.01
0.17480469,-0.001315508,7.8933313E-4,-0.001667081,0.19,0.99,-0.01,15905,9970.30,0,0,0,0.70,-2.59,-0.21,0.19,0.99,-0.01
0.17480469,-3.1550787E-4,0.0017893352,-0.0026670815,0.19,0.99,-0.01,15913,9970.30,0,0,165,0.77,-2.52,-0.28,0.19,0.99,-0.01
0.17480469,-3.1550787E-4,-2.1066889E-4,-6.6708133E-4,0.18,0.99,-0.01,15928,9970.30,0,0,0,0.77,-2.66,-0.14,0.18,0.99,-0.01
-0.8251953,-3.1550787E-4,-2.1066889E-4,0.003332919,0.18,0.99,-0.01,15943,9969.30,0,0,165,0.77,-2.66,0.14,0.18,0.99,-0.01
-0.8251953,-3.1550787E-4,-0.0012106672,0.005332919,0.19,0.99,-0.01,15958,9969.30,0,0,0,0.77,-2.73,0.28,0.19,0.99,-0.01
0.17480469,0.0036844919,-0.0012106672,0.003332919,0.19,0.99,-0.01,15966,9970.30,0,0,165,1.05,-2.73,0.14,0.19,0.99,-0.01
0.17480469,6.8449136E-4,-2.1066889E-4,0.0043329187,0.19,0.99,-0.01,15981,9970.30,0,0,0,0.84,-2.66,0.21,0.19,0.99,-0.01
1.0751953,0.0016844925,-2.1066889E-4,0.0013329188,0.19,0.99,-0.01,15988,9971.20,0,0,165,0.91,-2.66,0.00,0.19,0.99,-0.01
-0.8251953,-3.1550787E-4,-2.1066889E-4,0.0023329188,0.19,0.99,-0.01,16003,9969.30,0,0,0,0.77,-2.66,0.07,0.19,0.99,-0.01
0.47460938,6.8449136E-4,-2.1066889E-4,0.0043329187,0.19,0.99,-0.01,16018,9970.60,0,0,165,0.84,-2.66,0.21,0.19,0.99,-0.01
0.17480469,0.0026844926,-2.1066889E-4,0.0023329188,0.19,0.99,-0.01,16026,9970.30,0,0,0,0.98,-2.66,0.07,0.19,0.99,-0.01
1.4746094,6.8449136E-4,-0.0012106672,0.0043329187,0.19,0.99,-0.01,16041,9971.60,0,0,165,0.84,-2.73,0.21,0.19,0.99,-0.01
-0.8251953,6.8449136E-4,7.8933313E-4,0.003332919,0.19,0.99,-0.01,16063,9969.30,0,0,0,0.84,-2.59,0.14,0.19,0.99,-0.01
-0.8251953,6.8449136E-4,-2.1066889E-4,3.3291872E-4,0.19,0.99,-0.01,16064,9969.30,0,0,165,0.84,-2.66,-0.07,0.19,0.99,-0.01
0.17480469,-3.1550787E-4,7.8933313E-4,-6.6708133E-4,0.18,0.99,-0.01,16078,9970.30,0,0,0,0.77,-2.59,-0.14,0.18,0.99,-0.01
-0.8251953,6.8449136E-4,7.8933313E-4,-6.6708133E-4,0.19,0.99,-0.01,16093,9969.30,0,0,165,0.84,-2.59,-0.14,0.19,0.99,-0.01
0.17480469,-0.001315508,0.0017893352,-0.001667081,0.19,0.99,-0.01,16100,9970.30,0,0,0,0.70,-2.52,-0.21,0.19,0.99,-0.01
0.17480469,-3.1550787E-4,-0.0022106655,0.0023329188,0.19,0.99,-0.01,16115,9970.30,0,0,165,0.77,-2.80,0.07,0.19,0.99,-0.01
0.17480469,0.0016844925,-2.1066889E-4,0.003332919,0.18,0.99,-0.01,16130,9970.30,0,0,0,0.91,-2.66,0.14,0.18,0.99,-0.01
0.17480469,0.0026844926,7.8933313E-4,0.0043329187,0.19,0.99,-0.01,16138,9970.30,0,0,165,0.98,-2.59,0.21,0.19,0.99,-0.01
0.17480469,6.8449136E-4,0.0017893352,0.0043329187,0.19,0.99,-0.01,16153,9970.30,0,0,0,0.84,-2.52,0.21,0.19,0.99,-0.01
0.17480469,6.8449136E-4,-2.1066889E-4,0.0013329188,0.19,0.99,-0.01,16168,9970.30,0,0,165,0.84,-2.66,0.00,0.19,0.99,-0.01
-0.8251953,-3.1550787E-4,7.8933313E-4,-6.6708133E-4,0.19,0.99,-0.01,16177,9969.30,0,0,0,0.77,-2.59,-0.14,0.19,0.99,-0.01
0.17480469,-3.1550787E-4,-2.1066889E-4,-0.0026670815,0.18,1.0,-0.01,16190,9970.30,0,0,165,0.77,-2.66,-0.28,0.18,1.00,-0.01
-0.8251953,6.8449136E-4,7.8933313E-4,-6.6708133E-4,0.18,0.99,-0.01,16205,9969.30,0,0,0,0.84,-2.59,-0.14,0.18,0.99,-0.01
0.17480469,6.8449136E-4,-2.1066889E-4,0.003332919,0.18,0.99,-0.01,16213,9970.30,0,0,165,0.84,-2.66,0.14,0.18,0.99,-0.01
0.47460938,6.8449136E-4,-0.0012106672,0.0043329187,0.19,0.99,-0.01,16228,9970.60,0,0,0,0.84,-2.73,0.21,0.19,0.99,-0.01
0.17480469,0.0026844926,7.8933313E-4,0.008332919,0.18,0.99,-0.01,16243,9970.30,0,0,165,0.98,-2.59,0.49,0.18,0.99,-0.01
0.17480469,0.0026844926,7.8933313E-4,0.005332919,0.19,0.99,-0.01,16250,9970.30,0,0,0,0.98,-2.59,0.28,0.19,0.99,-0.01
0.17480469,6.8449136E-4,7.8933313E-4,0.003332919,0.19,0.99,-0.01,16265,9970.30,0,0,165,0.84,-2.59,0.14,0.19,0.99,-0.01
-0.8251953,-3.1550787E-4,-2.1066889E-4,-0.001667081,0.19,0.99,-0.01,16280,9969.30,0,0,0,0.77,-2.66,-0.21,0.19,0.99,-0.01
0.17480469,-0.001315508,-2.1066889E-4,-0.0056670816,0.19,0.99,-0.01,16288,9970.30,0,0,165,0.70,-2.66,-0.49,0.19,0.99,-0.01
-0.8251953,6.8449136E-4,-2.1066889E-4,-0.0036670812,0.19,0.99,-0.01,16303,9969.30,0,0,0,0.84,-2.66,-0.35,0.19,0.99,-0.01
0.17480469,-3.1550787E-4,-2.1066889E-4,-6.6708133E-4,0.19,0.99,-0.01,16318,9970.30,0,0,165,0.77,-2.66,-0.14,0.19,0.99,-0.01
-0.5253906,6.8449136E-4,-0.0012106672,0.0043329187,0.18,0.99,-0.01,16326,9969.60,0,0,0,0.84,-2.73,0.21,0.18,0.99,-0.01
0.17480469,6.8449136E-4,-2.1066889E-4,0.0063329185,0.19,0.99,-0.01,16340,9970.30,0,0,165,0.84,-2.66,0.35,0.19,0.99,-0.01
-0.8251953,6.8449136E-4,-2.1066889E-4,0.005332919,0.19,0.99,-0.01,16355,9969.30,0,0,0,0.84,-2.66,0.28,0.19,0.99,-0.01
0.17480469,6.8449136E-4,0.0017893352,0.0043329187,0.19,0.99,-0.01,16362,9970.30,0,0,165,0.84,-2.52,0.21,0.19,0.99,-0.01
0.17480469,6.8449136E-4,-2.1066889E-4,3.3291872E-4,0.19,0.99,-0.01,16380,9970.30,0,0,0,0.84,-2.66,-0.07,0.19,0.99,-0.01
0.47460938,0.0016844925,7.8933313E-4,-6.6708133E-4,0.18,0.99,-0.01,16396,9970.60,0,0,165,0.91,-2.59,-0.14,0.18,0.99,-0.01
0.17480469,-0.001315508,7.8933313E-4,3.3291872E-4,0.19,0.99,-0.01,16401,9970.30,0,0,0,0.70,-2.59,-0.07,0.19,0.99,-0.01
0.17480469,-0.001315508,-2.1066889E-4,0.0013329188,0.19,0.99,-0.01,16416,9970.30,0,0,165,0.70,-2.66,0.00,0.19,0.99,-0.01
-0.8251953,-3.1550787E-4,-2.1066889E-4,0.0023329188,0.19,0.99,-0.01,16437,9969.30,0,0,0,0.77,-2.66,0.07,0.19,0.99,-0.01
0.17480469,0.0016844925,-0.0012106672,0.0023329188,0.19,0.99,-0.01,16438,9970.30,0,0,165,0.91,-2.73,0.07,0.19,0.99,-0.01
0.17480469,-3.1550787E-4,0.0017893352,0.0013329188,0.19,0.99,-0.01,16452,9970.30,0,0,0,0.77,-2.52,0.00,0.19,0.99,-0.01
-0.8251953,-3.1550787E-4,-2.1066889E-4,3.3291872E-4,0.19,0.99,-0.01,16467,9969.30,0,0,165,0.77,-2.66,-0.07,0.19,0.99,-0.01
1.0751953,-3.1550787E-4,-2.1066889E-4,3.3291872E-4,0.18,0.99,-0.01,16475,9971.20,0,0,0,0.77,-2.66,-0.07,0.18,0.99,-0.01
0.17480469,6.8449136E-4,-2.1066889E-4,0.0013329188,0.19,0.99,-0.01,16490,9970.30,0,0,165,0.84,-2.66,0.00,0.19,0.99,-0.01
0.17480469,-3.1550787E-4,-2.1066889E-4,0.0023329188,0.18,0.99,-0.01,16505,9970.30,0,0,0,0.77,-2.66,0.07,0.18,0.99,-0.01
-0.8251953,0.0016844925,7.8933313E-4,-0.2546671,0.19,0.99,-0.01,16513,9969.30,0,0,165,0.91,-2.59,-17.92,0.19,0.99,-0.01
0.17480469,-0.001315508,-0.0012106672,0.0013329188,0.19,0.99,-0.01,16527,9970.30,0,0,0,0.70,-2.73,0.00,0.19,0.99,-0.01
-0.8251953,-3.1550787E-4,-2.1066889E-4,0.0013329188,0.19,0.99,-0.01,16543,9969.30,0,0,165,0.77,-2.66,0.00,0.19,0.99,-0.01
0.17480469,-0.001315508,7.8933313E-4,3.3291872E-4,0.19,0.99,-0.01,16550,9970.30,0,0,0,0.70,-2.59,-0.07,0.19,0.99,-0.01
0.17480469,-0.0023155082,-2.1066889E-4,-6.6708133E-4,0.19,0.99,-0.01,16573,9970.30,0,0,165,0.63,-2.66,-0.14,0.19,0.99,-0.01
0.17480469,-0.001315508,-2.1066889E-4,-0.001667081,0.19,0.99,-0.01,16580,9970.30,0,0,0,0.70,-2.66,-0.21,0.19,0.99,-0.01
0.17480469,-3.1550787E-4,-2.1066889E-4,-6.6708133E-4,0.19,0.99,-0.01,16588,9970.30,0,0,165,0.77,-2.66,-0.14,0.19,0.99,-0.01
0.17480469,6.8449136E-4,7.8933313E-4,0.0013329188,0.19,0.99,-0.01,16603,9970.30,0,0,0,0.84,-2.59,0.00,0.19,0.99,-0.01
-0.8251953,6.8449136E-4,-2.1066889E-4,0.0043329187,0.19,0.99,-0.01,16618,9969.30,0,0,165,0.84,-2.66,0.21,0.19,0.99,-0.01
0.47460938,6.8449136E-4,-2.1066889E-4,0.0093329195,0.19,0.99,-0.01,16626,9970.60,0,0,0,0.84,-2.66,0.56,0.19,0.99,-0.01
-0.5253906,0.0036844919,-0.0012106672,0.008332919,0.19,0.99,-0.01,16640,9969.60,0,0,165,1.05,-2.73,0.49,0.19,0.99,-0.01
0.17480469,0.0026844926,7.8933313E-4,0.0063329185,0.19,0.99,-0.01,16655,9970.30,0,0,0,0.98,-2.59,0.35,0.19,0.99,-0.01
0.47460938,6.8449136E-4,7.8933313E-4,0.003332919,0.19,0.99,-0.0,16663,9970.60,0,0,165,0.84,-2.59,0.14,0.19,0.99,-0.00
-0.8251953,-0.001315508,7.8933313E-4,-0.001667081,0.19,0.99,-0.01,16678,9969.30,0,0,0,0.70,-2.59,-0.21,0.19,0.99,-0.01
-0.8251953,-3.1550787E-4,-2.1066889E-4,-0.0056670816,0.18,0.99,-0.01,16693,9969.30,0,0,165,0.77,-2.66,-0.49,0.18,0.99,-0.01
-0.8251953,-0.001315508,7.8933313E-4,-0.0036670812,0.19,0.99,-0.01,16700,9969.30,0,0,0,0.70,-2.59,-0.35,0.19,0.99,-0.01
-0.8251953,-3.1550787E-4,7.8933313E-4,-0.001667081,0.19,0.99,-0.01,16715,9969.30,0,0,165,0.77,-2.59,-0.21,0.19,0.99,-0.01
0.17480469,-3.1550787E-4,-0.0022106655,0.005332919,0.19,0.99,-0.01,16731,9970.30,0,0,0,0.77,-2.80,0.28,0.19,0.99,-0.01
-0.8251953,6.8449136E-4,-0.0012106672,0.0043329187,0.19,0.99,-0.01,16737,9969.30,0,0,165,0.84,-2.73,0.21,0.19,0.99,-0.01
-0.8251953,-0.001315508,-2.1066889E-4,-0.001667081,0.19,0.99,-0.01,16753,9969.30,0,0,0,0.70,-2.66,-0.21,0.19,0.99,-0.01
0.17480469,-3.1550787E-4,7.8933313E-4,-6.6708133E-4,0.19,0.99,-0.01,16768,9970.30,0,0,165,0.77,-2.59,-0.14,0.19,0.99,-0.01
-1.8251953,-0.0023155082,7.8933313E-4,-0.0036670812,0.18,0.99,-0.01,16776,9968.30,0,0,0,0.63,-2.59,-0.35,0.18,0.99,-0.01
0.17480469,-0.0023155082,7.8933313E-4,3.3291872E-4,0.19,1.0,-0.01,16790,9970.30,0,0,165,0.63,-2.59,-0.07,0.19,1.00,-0.01
1.4746094,0.0016844925,-2.1066889E-4,0.0073329182,0.18,1.0,-0.0,16805,9971.60,0,0,0,0.91,-2.66,0.42,0.18,1.00,-0.00
-0.5253906,0.0036844919,-2.1066889E-4,0.013332918,0.18,0.99,-0.01,16812,9969.60,0,0,165,1.05,-2.66,0.84,0.18,0.99,-0.01
0.47460938,0.0036844919,-0.0032106638,0.013332918,0.19,0.99,-0.01,16828,9970.60,0,0,0,1.05,-2.87,0.84,0.19,0.99,-0.01
0.17480469,0.0016844925,7.8933313E-4,0.0073329182,0.19,0.99,-0.01,16843,9970.30,0,0,165,0.91,-2.59,0.42,0.19,0.99,-0.01
0.17480469,-3.1550787E-4,-2.1066889E-4,3.3291872E-4,0.19,0.99,-0.01,16850,9970.30,0,0,0,0.77,-2.66,-0.07,0.19,0.99,-0.01
0.17480469,-0.0023155082,7.8933313E-4,-0.008667081,0.19,0.99,-0.01,16865,9970.30,0,0,165,0.63,-2.59,-0.70,0.19,0.99,-0.01
0.47460938,-0.0033155074,0.0027893335,-0.015667083,0.19,0.99,-0.01,16880,9970.60,0,0,0,0.56,-2.45,-1.19,0.19,0.99,-0.01
0.17480469,-0.0043155076,7.8933313E-4,-0.016667081,0.19,0.99,-0.01,16888,9970.30,0,0,165,0.49,-2.59,-1.26,0.19,0.99,-0.01
0.47460938,-0.0043155076,7.8933313E-4,-0.007667081,0.18,1.0,-0.0,16903,9970.60,0,0,0,0.49,-2.59,-0.63,0.18,1.00,-0.00
-0.5253906,6.8449136E-4,7.8933313E-4,0.003332919,0.18,1.0,-0.0,16918,9969.60,0,0,165,0.84,-2.59,0.14,0.18,1.00,-0.00
0.47460938,0.004684493,-0.0012106672,0.012332919,0.19,0.99,-0.0,16925,9970.60,0,0,0,1.12,-2.73,0.77,0.19,0.99,-0.00
-0.8251953,0.004684493,-0.0022106655,0.016332919,0.19,0.99,-0.01,16940,9969.30,0,0,165,1.12,-2.80,1.05,0.19,0.99,-0.01
0.17480469,0.005684493,-0.0012106672,0.017332919,0.19,0.99,-0.01,16956,9970.30,0,0,0,1.19,-2.73,1.12,0.19,0.99,-0.01
0.47460938,0.0016844925,-0.0012106672,0.0073329182,0.19,0.99,-0.01,16966,9970.60,0,0,165,0.91,-2.73,0.42,0.19,0.99,-0.01
-0.5253906,-3.1550787E-4,-0.0012106672,-0.0036670812,0.19,0.99,-0.01,16980,9969.60,0,0,0,0.77,-2.73,-0.35,0.19,0.99,-0.01
0.17480469,-0.0023155082,-0.0012106672,-0.004667081,0.19,0.99,-0.01,16993,9970.30,0,0,165,0.63,-2.73,-0.42,0.19,0.99,-0.01
0.47460938,-0.0033155074,7.8933313E-4,-0.008667081,0.19,0.99,-0.01,17001,9970.60,0,0,0,0.56,-2.59,-0.70,0.19,0.99,-0.01
-0.5253906,-0.0023155082,-2.1066889E-4,-0.008667081,0.18,0.99,-0.01,17015,9969.60,0,0,165,0.63,-2.66,-0.70,0.18,0.99,-0.01
0.17480469,-0.001315508,-2.1066889E-4,-0.0026670815,0.18,0.99,-0.01,17031,9970.30,0,0,0,0.70,-2.66,-0.28,0.18,0.99,-0.01
-0.8251953,0.0016844925,-2.1066889E-4,0.003332919,0.18,0.99,-0.01,17038,9969.30,0,0,165,0.91,-2.66,0.14,0.18,0.99,-0.01
0.17480469,0.0026844926,-2.1066889E-4,0.0093329195,0.18,0.99,-0.01,17053,9970.30,0,0,0,0.98,-2.66,0.56,0.18,0.99,-0.01
0.47460938,0.0036844919,-2.1066889E-4,0.012332919,0.19,0.99,-0.01,17068,9970.60,0,0,165,1.05,-2.66,0.77,0.19,0.99,-0.01
0.17480469,0.0026844926,-0.0022106655,0.008332919,0.19,0.99,-0.01,17075,9970.30,0,0,0,0.98,-2.80,0.49,0.19,0.99,-0.01
0.17480469,6.8449136E-4,-2.1066889E-4,0.005332919,0.19,0.99,-0.01,17090,9970.30,0,0,165,0.84,-2.66,0.28,0.19,0.99,-0.01
-0.8251953,-3.1550787E-4,7.8933313E-4,3.3291872E-4,0.19,0.99,-0.01,17106,9969.30,0,0,0,0.77,-2.59,-0.07,0.19,0.99,-0.01
1.4746094,-0.0033155074,7.8933313E-4,-0.0066670817,0.19,0.99,-0.01,17113,9971.60,0,0,165,0.56,-2.59,-0.56,0.19,0.99,-0.01
-0.5253906,-0.0023155082,0.0017893352,-0.004667081,0.18,0.99,-0.01,17131,9969.60,0,0,0,0.63,-2.52,-0.42,0.18,0.99,-0.01
0.47460938,-0.0023155082,7.8933313E-4,-0.0026670815,0.19,0.99,-0.0,17146,9970.60,0,0,165,0.63,-2.59,-0.28,0.19,0.99,-0.00
0.17480469,6.8449136E-4,-2.1066889E-4,0.0013329188,0.18,1.0,-0.0,17150,9970.30,0,0,0,0.84,-2.66,0.00,0.18,1.00,-0.00
0.17480469,0.0016844925,-2.1066889E-4,0.0063329185,0.18,0.99,-0.0,17165,9970.30,0,0,165,0.91,-2.66,0.35,0.18,0.99,-0.00
-0.5253906,0.0036844919,-0.0012106672,0.012332919,0.18,0.99,-0.0,17180,9969.60,0,0,0,1.05,-2.73,0.77,0.18,0.99,-0.00
0.17480469,0.0026844926,-0.0022106655,0.011332919,0.19,0.99,-0.01,17188,9970.30,0,0,165,0.98,-2.80,0.70,0.19,0.99,-0.01
0.17480469,0.0026844926,-0.0012106672,0.008332919,0.19,0.99,-0.01,17203,9970.30,0,0,0,0.98,-2.73,0.49,0.19,0.99,-0.01
0.7753906,6.8449136E-4,-0.0012106672,3.3291872E-4,0.19,0.99,-0.01,17218,9970.90,0,0,165,0.84,-2.73,-0.07,0.19,0.99,-0.01
0.17480469,-0.0023155082,-2.1066889E-4,-0.0066670817,0.19,0.99,-0.01,17226,9970.30,0,0,0,0.63,-2.66,-0.56,0.19,0.99,-0.01
-0.8251953,-0.0043155076,-0.0012106672,-0.01066708,0.19,0.99,-0.01,17244,9969.30,0,0,165,0.49,-2.73,-0.84,0.19,0.99,-0.01
0.17480469,-0.001315508,0.0017893352,-0.008667081,0.18,0.99,-0.01,17256,9970.30,0,0,0,0.70,-2.52,-0.70,0.18,0.99,-0.01
-0.5253906,-0.0023155082,0.0017893352,-0.0026670815,0.19,0.99,-0.0,17263,9969.60,0,0,165,0.63,-2.52,-0.28,0.19,0.99,-0.00
0.47460938,-0.001315508,-2.1066889E-4,0.0023329188,0.19,0.99,-0.0,17277,9970.60,0,0,0,0.70,-2.66,0.07,0.19,0.99,-0.00
0.17480469,0.0036844919,7.8933313E-4,0.010332919,0.18,0.99,-0.0,17293,9970.30,0,0,165,1.05,-2.59,0.63,0.18,0.99,-0.00
-0.8251953,0.0036844919,-2.1066889E-4,0.01533292,0.19,0.99,-0.0,17300,9969.30,0,0,0,1.05,-2.66,0.98,0.19,0.99,-0.00
0.47460938,0.0016844925,-0.0012106672,0.012332919,0.19,0.99,-0.01,17316,9970.60,0,0,165,0.91,-2.73,0.77,0.19,0.99,-0.01
0.47460938,0.0026844926,-0.0012106672,0.0043329187,0.18,0.99,-0.01,17330,9970.60,0,0,0,0.98,-2.73,0.21,0.18,0.99,-0.01
0.47460938,6.8449136E-4,-2.1066889E-4,-0.001667081,0.19,0.99,-0.01,17338,9970.60,0,0,165,0.84,-2.66,-0.21,0.19,0.99,-0.01
-0.8251953,-0.0023155082,-2.1066889E-4,-0.0056670816,0.19,0.99,-0.01,17353,9969.30,0,0,0,0.63,-2.66,-0.49,0.19,0.99,-0.01
-0.5253906,-0.001315508,7.8933313E-4,-0.0056670816,0.19,0.99,-0.01,17368,9969.60,0,0,165,0.70,-2.59,-0.49,0.19,0.99,-0.01
-0.5253906,-0.005315508,7.8933313E-4,-0.0066670817,0.18,0.99,-0.01,17376,9969.60,0,0,0,0.42,-2.59,-0.56,0.18,0.99,-0.01
1.4746094,-0.0023155082,-2.1066889E-4,-0.004667081,0.18,0.99,-0.0,17391,9971.60,0,0,165,0.63,-2.66,-0.42,0.18,0.99,-0.00
0.47460938,0.0016844925,0.0017893352,0.0013329188,0.18,0.99,-0.0,17406,9970.60,0,0,0,0.91,-2.52,0.00,0.18,0.99,-0.00
0.47460938,6.8449136E-4,-0.0012106672,0.0063329185,0.18,0.99,-0.0,17413,9970.60,0,0,165,0.84,-2.73,0.35,0.18,0.99,-0.00
0.47460938,0.004684493,-0.0022106655,0.008332919,0.18,0.99,-0.01,17428,9970.60,0,0,0,1.12,-2.80,0.49,0.18,0.99,-0.01
0.47460938,0.0036844919,-0.0012106672,0.010332919,0.19,0.99,-0.01,17443,9970.60,0,0,165,1.05,-2.73,0.63,0.19,0.99,-0.01
0.17480469,0.0016844925,-0.0012106672,0.0063329185,0.19,0.99,-0.01,17451,9970.30,0,0,0,0.91,-2.73,0.35,0.19,0.99,-0.01
0.47460938,-0.001315508,-2.1066889E-4,-0.0026670815,0.19,0.99,-0.01,17466,9970.60,0,0,165,0.70,-2.66,-0.28,0.19,0.99,-0.01
-0.8251953,-0.005315508,7.8933313E-4,-0.01066708,0.19,0.99,-0.01,17481,9969.30,0,0,0,0.42,-2.59,-0.84,0.19,0.99,-0.01
0.47460938,-0.005315508,-2.1066889E-4,-0.014667082,0.19,0.99,-0.01,17496,9970.60,0,0,165,0.42,-2.66,-1.12,0.19,0.99,-0.01
0.17480469,-0.0043155076,0.0017893352,-0.009667081,0.18,0.99,-0.0,17503,9970.30,0,0,0,0.49,-2.52,-0.77,0.18,0.99,-0.00
-0.5253906,6.8449136E-4,7.8933313E-4,-6.6708133E-4,0.18,1.0,-0.0,17518,9969.60,0,0,165,0.84,-2.59,-0.14,0.18,1.00,-0.00
0.47460938,0.0026844926,-0.0012106672,0.011332919,0.18,1.0,-0.0,17526,9970.60,0,0,0,0.98,-2.73,0.70,0.18,1.00,-0.00
-0.8251953,0.004684493,-0.0012106672,0.01833292,0.18,0.99,-0.0,17541,9969.30,0,0,165,1.12,-2.73,1.19,0.18,0.99,-0.00
-1.4248047,0.004684493,-0.0022106655,0.019332917,0.19,0.99,-0.01,17555,9968.70,0,0,0,1.12,-2.80,1.26,0.19,0.99,-0.01
-0.8251953,0.004684493,-0.0012106672,0.011332919,0.19,0.99,-0.01,17563,9969.30,0,0,165,1.12,-2.73,0.70,0.19,0.99,-0.01
-0.5253906,-3.1550787E-4,7.8933313E-4,-6.6708133E-4,0.19,0.99,-0.01,17579,9969.60,0,0,0,0.77,-2.59,-0.14,0.19,0.99,-0.01
-0.8251953,-0.0033155074,7.8933313E-4,-0.009667081,0.19,0.99,-0.01,17593,9969.30,0,0,165,0.56,-2.59,-0.77,0.19,0.99,-0.01
0.47460938,-0.0043155076,7.8933313E-4,-0.014667082,0.19,0.99,-0.01,17600,9970.60,0,0,0,0.49,-2.59,-1.12,0.19,0.99,-0.01
-0.8251953,-0.001315508,7.8933313E-4,-0.011667081,0.19,1.0,-0.0,17615,9969.30,0,0,165,0.70,-2.59,-0.91,0.19,1.00,-0.00
-0.8251953,-0.0023155082,7.8933313E-4,-0.0026670815,0.18,0.99,-0.0,17630,9969.30,0,0,0,0.63,-2.59,-0.28,0.18,0.99,-0.00
0.47460938,6.8449136E-4,-2.1066889E-4,0.0043329187,0.18,1.0,-0.0,17638,9970.60,0,0,165,0.84,-2.66,0.21,0.18,1.00,-0.00
-0.8251953,0.0036844919,-0.0022106655,0.011332919,0.18,0.99,-0.01,17652,9969.30,0,0,0,1.05,-2.80,0.70,0.18,0.99,-0.01
-0.8251953,0.004684493,-2.1066889E-4,0.011332919,0.19,0.99,-0.01,17667,9969.30,0,0,165,1.12,-2.66,0.70,0.19,0.99,-0.01
0.17480469,0.0016844925,-2.1066889E-4,0.0093329195,0.19,0.99,-0.01,17675,9970.30,0,0,0,0.91,-2.66,0.56,0.19,0.99,-0.01
1.4746094,0.0016844925,7.8933313E-4,0.0013329188,0.19,0.99,-0.01,17690,9971.60,0,0,165,0.91,-2.59,0.00,0.19,0.99,-0.01
0.47460938,-0.001315508,-0.0012106672,-0.004667081,0.18,0.99,-0.01,17705,9970.60,0,0,0,0.70,-2.73,-0.42,0.18,0.99,-0.01
-0.5253906,-0.001315508,7.8933313E-4,-0.004667081,0.19,0.99,-0.01,17713,9969.60,0,0,165,0.70,-2.59,-0.42,0.19,0.99,-0.01
-0.8251953,-3.1550787E-4,7.8933313E-4,-0.004667081,0.19,0.99,-0.01,17728,9969.30,0,0,0,0.77,-2.59,-0.42,0.19,0.99,-0.01
0.17480469,-0.001315508,-2.1066889E-4,-0.001667081,0.19,0.99,-0.01,17743,9970.30,0,0,165,0.70,-2.66,-0.21,0.19,0.99,-0.01
-0.5253906,-3.1550787E-4,-2.1066889E-4,0.005332919,0.19,0.99,-0.0,17750,9969.60,0,0,0,0.77,-2.66,0.28,0.19,0.99,-0.00
1.4746094,6.8449136E-4,-2.1066889E-4,0.0063329185,0.19,0.99,-0.0,17765,9971.60,0,0,165,0.84,-2.66,0.35,0.19,0.99,-0.00
0.17480469,6.8449136E-4,-0.0012106672,0.0073329182,0.18,0.99,-0.01,17780,9970.30,0,0,0,0.84,-2.73,0.42,0.18,0.99,-0.01
0.17480469,0.0016844925,7.8933313E-4,0.0043329187,0.18,0.99,-0.01,17787,9970.30,0,0,165,0.91,-2.59,0.21,0.18,0.99,-0.01
0.47460938,0.0016844925,7.8933313E-4,0.003332919,0.19,0.99,-0.01,17802,9970.60,0,0,0,0.91,-2.59,0.14,0.19,0.99,-0.01
0.47460938,6.8449136E-4,7.8933313E-4,0.003332919,0.19,0.99,-0.01,17825,9970.60,0,0,165,0.84,-2.59,0.14,0.19,0.99,-0.01
0.47460938,-0.001315508,-0.0012106672,3.3291872E-4,0.19,0.99,-0.01,17826,9970.60,0,0,0,0.70,-2.73,-0.07,0.19,0.99,-0.01
0.47460938,-3.1550787E-4,7.8933313E-4,-0.0026670815,0.19,0.99,-0.01,17840,9970.60,0,0,165,0.77,-2.59,-0.28,0.19,0.99,-0.01
0.47460938,-0.0023155082,-2.1066889E-4,-0.007667081,0.19,0.99,-0.01,17855,9970.60,0,0,0,0.63,-2.66,-0.63,0.19,0.99,-0.01
-0.5253906,-0.0023155082,-2.1066889E-4,-0.007667081,0.19,0.99,-0.01,17863,9969.60,0,0,165,0.63,-2.66,-0.63,0.19,0.99,-0.01
0.47460938,-3.1550787E-4,7.8933313E-4,-0.0036670812,0.18,0.99,-0.01,17877,9970.60,0,0,0,0.77,-2.59,-0.35,0.18,0.99,-0.01
0.47460938,6.8449136E-4,-2.1066889E-4,3.3291872E-4,0.18,0.99,-0.01,17893,9970.60,0,0,165,0.84,-2.66,-0.07,0.18,0.99,-0.01
-0.5253906,0.0016844925,-0.0022106655,0.0073329182,0.19,0.99,-0.0,17899,9969.60,0,0,0,0.91,-2.80,0.42,0.19,0.99,-0.00
-0.5253906,0.0026844926,-0.0012106672,0.014332919,0.19,0.99,-0.01,17915,9969.60,0,0,165,0.98,-2.73,0.91,0.19,0.99,-0.01
0.47460938,0.0016844925,-0.0012106672,0.012332919,0.19,0.99,-0.01,17931,9970.60,0,0,0,0.91,-2.73,0.77,0.19,0.99,-0.01
-0.5253906,0.0016844925,7.8933313E-4,0.008332919,0.19,0.99,-0.01,17938,9969.60,0,0,165,0.91,-2.59,0.49,0.19,0.99,-0.01
-0.8251953,-3.1550787E-4,-2.1066889E-4,-0.001667081,0.19,0.99,-0.01,17952,9969.30,0,0,0,0.77,-2.66,-0.21,0.19,0.99,-0.01
0.47460938,-0.0043155076,-2.1066889E-4,-0.009667081,0.18,0.99,-0.01,17969,9970.60,0,0,165,0.49,-2.66,-0.77,0.18,0.99,-0.01
-0.5253906,-0.0023155082,7.8933313E-4,-0.01066708,0.19,0.99,-0.01,17975,9969.60,0,0,0,0.63,-2.59,-0.84,0.19,0.99,-0.01
0.17480469,-0.0023155082,0.0017893352,-0.0066670817,0.18,1.0,-0.01,17990,9970.30,0,0,165,0.63,-2.52,-0.56,0.18,1.00,-0.01
1.4746094,6.8449136E-4,7.8933313E-4,0.003332919,0.18,1.0,-0.01,18005,9971.60,0,0,0,0.84,-2.59,0.14,0.18,1.00,-0.01
0.47460938,0.0016844925,-0.0012106672,0.011332919,0.19,0.99,-0.01,18012,9970.60,0,0,165,0.91,-2.73,0.70,0.19,0.99,-0.01
0.17480469,0.0016844925,-0.0012106672,0.011332919,0.19,0.99,-0.01,18029,9970.30,0,0,0,0.91,-2.73,0.70,0.19,0.99,-0.01
-0.5253906,0.0016844925,-2.1066889E-4,0.0073329182,0.19,0.99,-0.01,18043,9969.60,0,0,165,0.91,-2.66,0.42,0.19,0.99,-0.01
0.47460938,-3.1550787E-4,-0.0022106655,0.0023329188,0.19,0.99,-0.01,18050,9970.60,0,0,0,0.77,-2.80,0.07,0.19,0.99,-0.01
0.17480469,-3.1550787E-4,7.8933313E-4,-0.004667081,0.19,0.99,-0.01,18065,9970.30,0,0,165,0.77,-2.59,-0.42,0.19,0.99,-0.01
-0.5253906,-0.0033155074,-2.1066889E-4,-0.0056670816,0.19,0.99,-0.01,18080,9969.60,0,0,0,0.56,-2.66,-0.49,0.19,0.99,-0.01
0.47460938,-0.0023155082,7.8933313E-4,-6.6708133E-4,0.19,0.99,-0.01,18087,9970.60,0,0,165,0.63,-2.59,-0.14,0.19,0.99,-0.01
-0.5253906,-3.1550787E-4,-2.1066889E-4,0.0013329188,0.19,0.99,-0.01,18102,9969.60,0,0,0,0.77,-2.66,0.00,0.19,0.99,-0.01
-0.8251953,0.0026844926,0.0017893352,0.0073329182,0.19,0.99,-0.01,18117,9969.30,0,0,165,0.98,-2.52,0.42,0.19,0.99,-0.01
-0.5253906,0.0016844925,-2.1066889E-4,0.008332919,0.19,0.99,-0.01,18125,9969.60,0,0,0,0.91,-2.66,0.49,0.19,0.99,-0.01
-0.5253906,0.0016844925,-0.0012106672,0.005332919,0.19,0.99,-0.01,18140,9969.60,0,0,165,0.91,-2.73,0.28,0.19,0.99,-0.01
-0.5253906,-0.001315508,-0.0012106672,3.3291872E-4,0.19,0.99,-0.01,18155,9969.60,0,0,0,0.70,-2.73,-0.07,0.19,0.99,-0.01
1.4746094,-3.1550787E-4,-2.1066889E-4,-0.0036670812,0.19,0.99,-0.01,18163,9971.60,0,0,165,0.77,-2.66,-0.35,0.19,0.99,-0.01
-0.5253906,-0.001315508,-2.1066889E-4,-6.6708133E-4,0.19,0.99,-0.01,18178,9969.60,0,0,0,0.70,-2.66,-0.14,0.19,0.99,-0.01
0.47460938,6.8449136E-4,-2.1066889E-4,0.0023329188,0.19,0.99,-0.01,18200,9970.60,0,0,165,0.84,-2.66,0.07,0.19,0.99,-0.01
0.17480469,-3.1550787E-4,7.8933313E-4,0.0023329188,0.19,0.99,-0.01,18202,9970.30,0,0,0,0.77,-2.59,0.07,0.19,0.99,-0.01
0.47460938,6.8449136E-4,-0.0012106672,0.0013329188,0.19,0.99,-0.01,18215,9970.60,0,0,165,0.84,-2.73,0.00,0.19,0.99,-0.01
0.47460938,-0.0023155082,7.8933313E-4,0.0013329188,0.19,0.99,-0.01,18230,9970.60,0,0,0,0.63,-2.59,0.00,0.19,0.99,-0.01
-0.5253906,-0.001315508,7.8933313E-4,-0.001667081,0.18,0.99,-0.01,18237,9969.60,0,0,165,0.70,-2.59,-0.21,0.18,0.99,-0.01
0.47460938,-0.001315508,7.8933313E-4,-6.6708133E-4,0.18,0.99,-0.01,18252,9970.60,0,0,0,0.70,-2.59,-0.14,0.18,0.99,-0.01
-0.5253906,6.8449136E-4,-2.1066889E-4,0.0023329188,0.19,0.99,-0.01,18268,9969.60,0,0,165,0.84,-2.66,0.07,0.19,0.99,-0.01
0.17480469,0.0026844926,-2.1066889E-4,0.0073329182,0.19,0.99,-0.01,18275,9970.30,0,0,0,0.98,-2.66,0.42,0.19,0.99,-0.01
-0.8251953,0.0016844925,-0.0012106672,0.0073329182,0.19,0.99,-0.01,18290,9969.30,0,0,165,0.91,-2.73,0.42,0.19,0.99,-0.01
0.17480469,0.0016844925,7.8933313E-4,0.0063329185,0.19,0.99,-0.01,18305,9970.30,0,0,0,0.91,-2.59,0.35,0.19,0.99,-0.01
-0.5253906,6.8449136E-4,7.8933313E-4,0.0013329188,0.19,0.99,-0.01,18312,9969.60,0,0,165,0.84,-2.59,0.00,0.19,0.99,-0.01
0.47460938,-0.0023155082,7.8933313E-4,-0.004667081,0.19,0.99,-0.01,18327,9970.60,0,0,0,0.63,-2.59,-0.42,0.19,0.99,-0.01
-0.5253906,-0.001315508,-2.1066889E-4,-0.0056670816,0.19,0.99,-0.01,18343,9969.60,0,0,165,0.70,-2.66,-0.49,0.19,0.99,-0.01
-1.8251953,-0.0023155082,-2.1066889E-4,-0.0056670816,0.19,0.99,-0.01,18350,9968.30,0,0,0,0.63,-2.66,-0.49,0.19,0.99,-0.01
-0.5253906,-3.1550787E-4,-2.1066889E-4,0.0013329188,0.18,0.99,-0.01,18365,9969.60,0,0,165,0.77,-2.66,0.00,0.18,0.99,-0.01
0.47460938,0.0016844925,-2.1066889E-4,0.008332919,0.19,0.99,-0.01,18381,9970.60,0,0,0,0.91,-2.66,0.49,0.19,0.99,-0.01
0.47460938,0.0036844919,-2.1066889E-4,0.0093329195,0.19,0.99,-0.01,18387,9970.60,0,0,165,1.05,-2.66,0.56,0.19,0.99,-0.01
0.47460938,0.0016844925,-0.0012106672,0.0093329195,0.19,0.99,-0.01,18402,9970.60,0,0,0,0.91,-2.73,0.56,0.19,0.99,-0.01
1.0751953,-3.1550787E-4,-0.0012106672,0.005332919,0.19,0.99,-0.01,18418,9971.20,0,0,165,0.77,-2.73,0.28,0.19,0.99,-0.01
0.17480469,-0.001315508,-2.1066889E-4,-0.0036670812,0.19,0.99,-0.01,18426,9970.30,0,0,0,0.70,-2.66,-0.35,0.19,0.99,-0.01
-0.5253906,-0.001315508,7.8933313E-4,-0.0036670812,0.19,0.99,-0.01,18441,9969.60,0,0,165,0.70,-2.59,-0.35,0.19,0.99,-0.01
0.47460938,-0.001315508,7.8933313E-4,-0.0056670816,0.19,0.99,-0.01,18455,9970.60,0,0,0,0.70,-2.59,-0.49,0.19,0.99,-0.01
-0.5253906,-3.1550787E-4,-2.1066889E-4,-0.0026670815,0.19,0.99,-0.01,18462,9969.60,0,0,165,0.77,-2.66,-0.28,0.19,0.99,-0.01
-0.5253906,-3.1550787E-4,-2.1066889E-4,0.0023329188,0.18,1.0,-0.01,18480,9969.60,0,0,0,0.77,-2.66,0.07,0.18,1.00,-0.01
-0.5253906,0.0016844925,-2.1066889E-4,0.0023329188,0.18,0.99,-0.01,18492,9969.60,0,0,165,0.91,-2.66,0.07,0.18,0.99,-0.01
0.47460938,0.0026844926,7.8933313E-4,0.0043329187,0.19,0.99,-0.01,18500,9970.60,0,0,0,0.98,-2.59,0.21,0.19,0.99,-0.01
-0.5253906,6.8449136E-4,7.8933313E-4,0.003332919,0.19,0.99,-0.01,18515,9969.60,0,0,165,0.84,-2.59,0.14,0.19,0.99,-0.01
0.17480469,6.8449136E-4,-2.1066889E-4,0.0043329187,0.19,0.99,-0.01,18531,9970.30,0,0,0,0.84,-2.66,0.21,0.19,0.99,-0.01
0.17480469,6.8449136E-4,7.8933313E-4,0.0013329188,0.19,0.99,-0.01,18537,9970.30,0,0,165,0.84,-2.59,0.00,0.19,0.99,-0.01
0.17480469,-3.1550787E-4,7.8933313E-4,0.0023329188,0.19,0.99,-0.01,18553,9970.30,0,0,0,0.77,-2.59,0.07,0.19,0.99,-0.01
-0.5253906,6.8449136E-4,7.8933313E-4,0.0023329188,0.19,0.99,-0.01,18568,9969.60,0,0,165,0.84,-2.59,0.07,0.19,0.99,-0.01
0.47460938,6.8449136E-4,7.8933313E-4,-6.6708133E-4,0.19,0.99,-0.01,18576,9970.60,0,0,0,0.84,-2.59,-0.14,0.19,0.99,-0.01
0.47460938,-0.001315508,7.8933313E-4,3.3291872E-4,0.19,0.99,-0.01,18590,9970.60,0,0,165,0.70,-2.59,-0.07,0.19,0.99,-0.01
-0.5253906,0.0016844925,7.8933313E-4,0.0013329188,0.18,0.99,-0.0,18605,9969.60,0,0,0,0.91,-2.59,0.00,0.18,0.99,-0.00
0.47460938,0.0016844925,-2.1066889E-4,3.3291872E-4,0.19,0.99,-0.01,18613,9970.60,0,0,165,0.91,-2.66,-0.07,0.19,0.99,-0.01
0.47460938,6.8449136E-4,7.8933313E-4,0.003332919,0.18,0.99,-0.01,18628,9970.60,0,0,0,0.84,-2.59,0.14,0.18,0.99,-0.01
-1.4248047,6.8449136E-4,-2.1066889E-4,0.003332919,0.19,0.99,-0.01,18643,9968.70,0,0,165,0.84,-2.66,0.14,0.19,0.99,-0.01
-0.8251953,-0.001315508,-2.1066889E-4,0.0023329188,0.19,0.99,-0.01,18650,9969.30,0,0,0,0.70,-2.66,0.07,0.19,0.99,-0.01
0.17480469,-0.001315508,7.8933313E-4,3.3291872E-4,0.19,0.99,-0.01,18664,9970.30,0,0,165,0.70,-2.59,-0.07,0.19,0.99,-0.01
0.47460938,6.8449136E-4,-2.1066889E-4,-6.6708133E-4,0.18,0.99,-0.01,18680,9970.60,0,0,0,0.84,-2.66,-0.14,0.18,0.99,-0.01
0.47460938,-3.1550787E-4,-2.1066889E-4,-0.001667081,0.19,0.99,-0.01,18687,9970.60,0,0,165,0.77,-2.66,-0.21,0.19,0.99,-0.01
0.47460938,-3.1550787E-4,7.8933313E-4,0.0013329188,0.19,0.99,-0.01,18702,9970.60,0,0,0,0.77,-2.59,0.00,0.19,0.99,-0.01
-0.8251953,0.0016844925,0.0017893352,0.0013329188,0.18,0.99,-0.01,18717,9969.30,0,0,165,0.91,-2.52,0.00,0.18,0.99,-0.01
0.17480469,-3.1550787E-4,-2.1066889E-4,0.0043329187,0.18,0.99,-0.0,18728,9970.30,0,0,0,0.77,-2.66,0.21,0.18,0.99,-0.00
-0.8251953,-0.001315508,-0.0012106672,0.005332919,0.18,0.99,-0.01,18740,9969.30,0,0,165,0.70,-2.73,0.28,0.18,0.99,-0.01
0.47460938,0.0016844925,-2.1066889E-4,0.005332919,0.19,0.99,-0.01,18755,9970.60,0,0,0,0.91,-2.66,0.28,0.19,0.99,-0.01
-0.8251953,0.0016844925,-0.0012106672,0.005332919,0.18,0.99,-0.01,18763,9969.30,0,0,165,0.91,-2.73,0.28,0.18,0.99,-0.01
-0.5253906,0.0026844926,-2.1066889E-4,0.0043329187,0.19,0.99,-0.01,18778,9969.60,0,0,0,0.98,-2.66,0.21,0.19,0.99,-0.01
0.47460938,6.8449136E-4,-2.1066889E-4,0.0013329188,0.19,0.99,-0.01,18793,9970.60,0,0,165,0.84,-2.66,0.00,0.19,0.99,-0.01
-0.5253906,-0.001315508,7.8933313E-4,3.3291872E-4,0.19,0.99,-0.01,18800,9969.60,0,0,0,0.70,-2.59,-0.07,0.19,0.99,-0.01
-0.8251953,6.8449136E-4,7.8933313E-4,-0.0026670815,0.19,0.99,-0.01,18815,9969.30,0,0,165,0.84,-2.59,-0.28,0.19,0.99,-0.01
0.17480469,-0.0023155082,-0.0012106672,-0.0036670812,0.19,0.99,-0.01,18830,9970.30,0,0,0,0.63,-2.73,-0.35,0.19,0.99,-0.01
0.17480469,-0.0023155082,-2.1066889E-4,-0.001667081,0.18,0.99,-0.01,18837,9970.30,0,0,165,0.63,-2.66,-0.21,0.18,0.99,-0.01
0.17480469,-3.1550787E-4,-2.1066889E-4,-6.6708133E-4,0.19,0.99,-0.01,18853,9970.30,0,0,0,0.77,-2.66,-0.14,0.19,0.99,-0.01
-0.8251953,0.0016844925,-0.0012106672,0.003332919,0.19,0.99,-0.01,18868,9969.30,0,0,165,0.91,-2.73,0.14,0.19,0.99,-0.01
-0.5253906,6.8449136E-4,-0.0022106655,0.005332919,0.19,0.99,-0.01,18878,9969.60,0,0,0,0.84,-2.80,0.28,0.19,0.99,-0.01
-0.5253906,6.8449136E-4,7.8933313E-4,0.0063329185,0.19,0.99,-0.01,18890,9969.60,0,0,165,0.84,-2.59,0.35,0.19,0.99,-0.01
-1.4248047,0.0026844926,7.8933313E-4,0.0043329187,0.19,0.99,-0.01,18906,9968.70,0,0,0,0.98,-2.59,0.21,0.19,0.99,-0.01
-0.8251953,6.8449136E-4,-2.1066889E-4,0.0023329188,0.18,0.99,-0.01,18912,9969.30,0,0,165,0.84,-2.66,0.07,0.18,0.99,-0.01
-0.5253906,-3.1550787E-4,7.8933313E-4,-6.6708133E-4,0.19,0.99,-0.01,18929,9969.60,0,0,0,0.77,-2.59,-0.14,0.19,0.99,-0.01
-0.5253906,-3.1550787E-4,7.8933313E-4,3.3291872E-4,0.19,0.99,-0.01,18946,9969.60,0,0,165,0.77,-2.59,-0.07,0.19,0.99,-0.01
-0.8251953,-0.001315508,0.0017893352,-6.6708133E-4,0.18,0.99,-0.01,18950,9969.30,0,0,0,0.70,-2.52,-0.14,0.18,0.99,-0.01
0.47460938,-3.1550787E-4,-2.1066889E-4,0.0013329188,0.18,0.99,-0.01,18965,9970.60,0,0,165,0.77,-2.66,0.00,0.18,0.99,-0.01
0.47460938,-3.1550787E-4,-0.0012106672,0.0013329188,0.18,0.99,-0.01,18980,9970.60,0,0,0,0.77,-2.73,0.00,0.18,0.99,-0.01
0.47460938,-3.1550787E-4,-2.1066889E-4,0.003332919,0.19,0.99,-0.01,18987,9970.60,0,0,165,0.77,-2.66,0.14,0.19,0.99,-0.01
0.47460938,6.8449136E-4,-2.1066889E-4,0.003332919,0.18,0.99,-0.01,19002,9970.60,0,0,0,0.84,-2.66,0.14,0.18,0.99,-0.01
0.47460938,0.0036844919,7.8933313E-4,0.003332919,0.19,0.99,-0.01,19017,9970.60,0,0,165,1.05,-2.59,0.14,0.19,0.99,-0.01
0.17480469,0.0016844925,7.8933313E-4,0.0023329188,0.19,0.99,-0.01,19032,9970.30,0,0,0,0.91,-2.59,0.07,0.19,0.99,-0.01
-0.5253906,6.8449136E-4,7.8933313E-4,-6.6708133E-4,0.18,0.99,-0.01,19040,9969.60,0,0,165,0.84,-2.59,-0.14,0.18,0.99,-0.01
-0.5253906,-3.1550787E-4,7.8933313E-4,-6.6708133E-4,0.19,0.99,-0.01,19055,9969.60,0,0,0,0.77,-2.59,-0.14,0.19,0.99,-0.01
-0.5253906,-3.1550787E-4,0.0017893352,0.25533292,0.19,0.99,-0.0,19063,9969.60,0,0,165,0.77,-2.52,17.78,0.19,0.99,-0.00
-0.5253906,6.8449136E-4,-2.1066889E-4,3.3291872E-4,0.19,1.0,-0.01,19078,9969.60,0,0,0,0.84,-2.66,-0.07,0.19,1.00,-0.01
-0.5253906,-3.1550787E-4,-0.0012106672,0.0023329188,0.19,0.99,-0.01,19093,9969.60,0,0,165,0.77,-2.73,0.07,0.19,0.99,-0.01
-0.5253906,-3.1550787E-4,-2.1066889E-4,0.005332919,0.19,0.99,-0.0,19100,9969.60,0,0,0,0.77,-2.66,0.28,0.19,0.99,-0.00
-0.8251953,6.8449136E-4,7.8933313E-4,0.0013329188,0.19,0.99,0.0,19115,9969.30,0,0,165,0.84,-2.59,0.00,0.19,0.99,0.00
-0.5253906,0.0016844925,-2.1066889E-4,-0.001667081,0.19,0.99,-0.0,19130,9969.60,0,0,0,0.91,-2.66,-0.21,0.19,0.99,-0.00
-0.8251953,-3.1550787E-4,-0.0012106672,0.0023329188,0.19,1.0,-0.01,19138,9969.30,0,0,165,0.77,-2.73,0.07,0.19,1.00,-0.01
-0.8251953,6.8449136E-4,7.8933313E-4,0.0023329188,0.18,0.99,-0.01,19152,9969.30,0,0,0,0.84,-2.59,0.07,0.18,0.99,-0.01
0.47460938,0.0016844925,-2.1066889E-4,0.003332919,0.19,0.99,-0.01,19168,9970.60,0,0,165,0.91,-2.66,0.14,0.19,0.99,-0.01
-0.5253906,-0.001315508,-0.0012106672,0.005332919,0.19,0.99,-0.01,19176,9969.60,0,0,0,0.70,-2.73,0.28,0.19,0.99,-0.01
0.17480469,-0.001315508,-2.1066889E-4,3.3291872E-4,0.18,0.99,-0.01,19190,9970.30,0,0,165,0.70,-2.66,-0.07,0.18,0.99,-0.01
0.17480469,-0.0023155082,-2.1066889E-4,-0.012667081,0.19,0.99,-0.01,19205,9970.30,0,0,0,0.63,-2.66,-0.98,0.19,0.99,-0.01
0.47460938,-0.0023155082,7.8933313E-4,-0.007667081,0.19,1.0,-0.0,19213,9970.60,0,0,165,0.63,-2.59,-0.63,0.19,1.00,-0.00
0.47460938,6.8449136E-4,-2.1066889E-4,0.005332919,0.19,1.0,-0.01,19228,9970.60,0,0,0,0.84,-2.66,0.28,0.19,1.00,-0.01
-0.5253906,0.0036844919,-2.1066889E-4,0.012332919,0.19,0.99,-0.01,19243,9969.60,0,0,165,1.05,-2.66,0.77,0.19,0.99,-0.01
-0.5253906,0.0076844934,-2.1066889E-4,0.01833292,0.19,0.99,-0.01,19250,9969.60,0,0,0,1.33,-2.66,1.19,0.19,0.99,-0.01
0.47460938,0.0026844926,-0.0022106655,0.0093329195,0.18,0.99,-0.01,19265,9970.60,0,0,165,0.98,-2.80,0.56,0.18,0.99,-0.01
1.4746094,-0.0023155082,-2.1066889E-4,-0.0066670817,0.18,0.99,-0.01,19280,9971.60,0,0,0,0.63,-2.66,-0.56,0.18,0.99,-0.01
0.47460938,-0.0033155074,0.0017893352,-0.013667081,0.19,0.99,-0.01,19288,9970.60,0,0,165,0.56,-2.52,-1.05,0.19,0.99,-0.01
0.47460938,-0.0023155082,-2.1066889E-4,-0.009667081,0.19,1.0,-0.01,19303,9970.60,0,0,0,0.63,-2.66,-0.77,0.19,1.00,-0.01
0.47460938,-3.1550787E-4,-0.0012106672,-0.001667081,0.19,0.99,-0.01,19325,9970.60,0,0,165,0.77,-2.73,-0.21,0.19,0.99,-0.01
-0.8251953,0.0016844925,-2.1066889E-4,0.008332919,0.19,1.0,-0.01,19327,9969.30,0,0,0,0.91,-2.66,0.49,0.19,1.00,-0.01
-0.5253906,0.0016844925,-2.1066889E-4,0.012332919,0.19,0.99,-0.01,19340,9969.60,0,0,165,0.91,-2.66,0.77,0.19,0.99,-0.01
-0.8251953,0.0026844926,-2.1066889E-4,0.005332919,0.19,0.99,-0.01,19355,9969.30,0,0,0,0.98,-2.66,0.28,0.19,0.99,-0.01
0.17480469,-0.001315508,-2.1066889E-4,-0.0036670812,0.18,0.99,-0.0,19363,9970.30,0,0,165,0.70,-2.66,-0.35,0.18,0.99,-0.00
0.47460938,-0.001315508,0.0017893352,-0.004667081,0.18,0.99,-0.01,19377,9970.60,0,0,0,0.70,-2.52,-0.42,0.18,0.99,-0.01
-0.5253906,-0.0023155082,7.8933313E-4,-0.0036670812,0.18,0.99,-0.01,19393,9969.60,0,0,165,0.63,-2.59,-0.35,0.18,0.99,-0.01
-0.8251953,0.0026844926,7.8933313E-4,0.0023329188,0.19,0.99,-0.01,19400,9969.30,0,0,0,0.98,-2.59,0.07,0.19,0.99,-0.01
-0.8251953,0.0036844919,-0.0012106672,0.010332919,0.19,1.0,-0.01,19415,9969.30,0,0,165,1.05,-2.73,0.63,0.19,1.00,-0.01
-0.5253906,0.004684493,-0.0012106672,0.013332918,0.19,0.99,-0.01,19430,9969.60,0,0,0,1.12,-2.73,0.84,0.19,0.99,-0.01
0.17480469,-3.1550787E-4,-2.1066889E-4,0.008332919,0.19,0.99,-0.01,19438,9970.30,0,0,165,0.77,-2.66,0.49,0.19,0.99,-0.01
0.47460938,-0.001315508,-2.1066889E-4,-0.004667081,0.19,0.99,-0.01,19452,9970.60,0,0,0,0.70,-2.66,-0.42,0.19,0.99,-0.01
0.17480469,-0.0033155074,-2.1066889E-4,-0.01066708,0.18,0.99,-0.01,19467,9970.30,0,0,165,0.56,-2.66,-0.84,0.18,0.99,-0.01
0.47460938,-0.005315508,7.8933313E-4,-0.012667081,0.18,0.99,-0.01,19475,9970.60,0,0,0,0.42,-2.59,-0.98,0.18,0.99,-0.01
-0.8251953,6.8449136E-4,7.8933313E-4,-0.001667081,0.18,1.0,-0.01,19490,9969.30,0,0,165,0.84,-2.59,-0.21,0.18,1.00,-0.01
0.17480469,6.8449136E-4,-2.1066889E-4,0.011332919,0.19,1.0,-0.01,19505,9970.30,0,0,0,0.84,-2.66,0.70,0.19,1.00,-0.01
-0.8251953,0.0026844926,-0.0012106672,0.017332919,0.19,0.99,-0.01,19512,9969.30,0,0,165,0.98,-2.73,1.12,0.19,0.99,-0.01
-0.8251953,0.0026844926,-2.1066889E-4,0.011332919,0.19,0.99,-0.01,19528,9969.30,0,0,0,0.98,-2.66,0.70,0.19,0.99,-0.01
0.17480469,-3.1550787E-4,-2.1066889E-4,0.0023329188,0.19,0.99,-0.01,19543,9970.30,0,0,165,0.77,-2.66,0.07,0.19,0.99,-0.01
-0.8251953,-0.0023155082,7.8933313E-4,-0.007667081,0.18,0.99,-0.01,19550,9969.30,0,0,0,0.63,-2.59,-0.63,0.18,0.99,-0.01
1.0751953,-0.0033155074,0.0017893352,-0.012667081,0.18,0.99,-0.01,19566,9971.20,0,0,165,0.56,-2.52,-0.98,0.18,0.99,-0.01
-0.8251953,-0.0033155074,7.8933313E-4,-0.01066708,0.19,1.0,-0.01,19580,9969.30,0,0,0,0.56,-2.59,-0.84,0.19,1.00,-0.01
-0.8251953,-0.0023155082,-0.0012106672,3.3291872E-4,0.19,1.0,-0.01,19588,9969.30,0,0,165,0.63,-2.73,-0.07,0.19,1.00,-0.01
0.17480469,0.0026844926,-0.0012106672,0.008332919,0.19,0.99,-0.01,19603,9970.30,0,0,0,0.98,-2.73,0.49,0.19,0.99,-0.01
0.17480469,0.0026844926,-2.1066889E-4,0.013332918,0.19,0.99,-0.01,19618,9970.30,0,0,165,0.98,-2.66,0.84,0.19,0.99,-0.01
0.47460938,0.0026844926,7.8933313E-4,0.011332919,0.19,0.99,-0.01,19626,9970.60,0,0,0,0.98,-2.59,0.70,0.19,0.99,-0.01
-0.5253906,-3.1550787E-4,-2.1066889E-4,0.003332919,0.19,0.99,-0.01,19641,9969.60,0,0,165,0.77,-2.66,0.14,0.19,0.99,-0.01
-0.8251953,-0.001315508,7.8933313E-4,-0.004667081,0.19,0.99,-0.01,19655,9969.30,0,0,0,0.70,-2.59,-0.42,0.19,0.99,-0.01
-0.8251953,-0.0023155082,-2.1066889E-4,-0.007667081,0.19,0.99,-0.01,19663,9969.30,0,0,165,0.63,-2.66,-0.63,0.19,0.99,-0.01
-0.5253906,-3.1550787E-4,7.8933313E-4,-0.001667081,0.19,1.0,-0.01,19678,9969.60,0,0,0,0.77,-2.59,-0.21,0.19,1.00,-0.01
0.17480469,-3.1550787E-4,-2.1066889E-4,0.0043329187,0.19,1.0,-0.01,19695,9970.30,0,0,165,0.77,-2.66,0.21,0.19,1.00,-0.01
-0.8251953,0.0016844925,-0.0012106672,0.008332919,0.19,1.0,-0.01,19700,9969.30,0,0,0,0.91,-2.73,0.49,0.19,1.00,-0.01
-0.5253906,0.0026844926,-0.0012106672,0.0073329182,0.19,0.99,-0.01,19715,9969.60,0,0,165,0.98,-2.73,0.42,0.19,0.99,-0.01
0.17480469,6.8449136E-4,7.8933313E-4,0.003332919,0.19,0.99,-0.0,19730,9970.30,0,0,0,0.84,-2.59,0.14,0.19,0.99,-0.00
0.17480469,-0.001315508,-2.1066889E-4,-0.0026670815,0.19,0.99,-0.01,19737,9970.30,0,0,165,0.70,-2.66,-0.28,0.19,0.99,-0.01
0.47460938,-3.1550787E-4,-2.1066889E-4,-0.0066670817,0.19,0.99,-0.01,19768,9970.60,0,0,0,0.77,-2.66,-0.56,0.19,0.99,-0.01
0.17480469,0.0016844925,-2.1066889E-4,-0.0036670812,0.19,0.99,-0.01,19769,9970.30,0,0,165,0.91,-2.66,-0.35,0.19,0.99,-0.01
0.17480469,-3.1550787E-4,-0.0012106672,3.3291872E-4,0.19,0.99,-0.01,19775,9970.30,0,0,0,0.77,-2.73,-0.07,0.19,0.99,-0.01
-0.8251953,-3.1550787E-4,-0.0012106672,0.0063329185,0.18,0.99,-0.01,19797,9969.30,0,0,165,0.77,-2.73,0.35,0.18,0.99,-0.01
-0.5253906,6.8449136E-4,-2.1066889E-4,0.008332919,0.19,0.99,-0.01,19805,9969.60,0,0,0,0.84,-2.66,0.49,0.19,0.99,-0.01
-0.8251953,6.8449136E-4,-0.0012106672,0.0063329185,0.19,0.99,-0.01,19813,9969.30,0,0,165,0.84,-2.73,0.35,0.19,0.99,-0.01
0.17480469,6.8449136E-4,-2.1066889E-4,0.0023329188,0.19,0.99,-0.01,19828,9970.30,0,0,0,0.84,-2.66,0.07,0.19,0.99,-0.01
-0.8251953,-3.1550787E-4,7.8933313E-4,3.3291872E-4,0.19,0.99,-0.01,19850,9969.30,0,0,165,0.77,-2.59,-0.07,0.19,0.99,-0.01
0.17480469,-3.1550787E-4,-2.1066889E-4,-0.0036670812,0.19,0.99,-0.01,19851,9970.30,0,0,0,0.77,-2.66,-0.35,0.19,0.99,-0.01
0.17480469,6.8449136E-4,7.8933313E-4,-6.6708133E-4,0.19,0.99,-0.01,19865,9970.30,0,0,165,0.84,-2.59,-0.14,0.19,0.99,-0.01
0.17480469,0.0016844925,-2.1066889E-4,0.005332919,0.19,0.99,-0.01,19879,9970.30,0,0,0,0.91,-2.66,0.28,0.19,0.99,-0.01
-0.5253906,0.0016844925,-2.1066889E-4,0.0073329182,0.18,0.99,-0.01,19887,9969.60,0,0,165,0.91,-2.66,0.42,0.18,0.99,-0.01
0.17480469,-0.001315508,-2.1066889E-4,0.0023329188,0.19,0.99,-0.01,19902,9970.30,0,0,0,0.70,-2.66,0.07,0.19,0.99,-0.01
0.17480469,-0.001315508,7.8933313E-4,-0.0026670815,0.19,0.99,-0.01,19917,9970.30,0,0,165,0.70,-2.59,-0.28,0.19,0.99,-0.01
0.17480469,-0.0023155082,7.8933313E-4,-0.008667081,0.19,0.99,-0.01,19925,9970.30,0,0,0,0.63,-2.59,-0.70,0.19,0.99,-0.01
0.17480469,-0.0033155074,-2.1066889E-4,-0.012667081,0.18,0.99,-0.01,19940,9970.30,0,0,165,0.56,-2.66,-0.98,0.18,0.99,-0.01
-0.5253906,-0.0033155074,0.0017893352,-0.0066670817,0.18,0.99,-0.01,19955,9969.60,0,0,0,0.56,-2.52,-0.56,0.18,0.99,-0.01
0.17480469,6.8449136E-4,7.8933313E-4,3.3291872E-4,0.19,0.99,-0.0,19963,9970.30,0,0,165,0.84,-2.59,-0.07,0.19,0.99,-0.00
0.17480469,0.0026844926,-0.0012106672,0.014332919,0.18,1.0,-0.01,19978,9970.30,0,0,0,0.98,-2.73,0.91,0.18,1.00,-0.01
0.47460938,0.004684493,-0.0012106672,0.016332919,0.19,0.99,-0.01,19993,9970.60,0,0,165,1.12,-2.73,1.05,0.19,0.99,-0.01
0.47460938,0.004684493,-0.0012106672,0.016332919,0.19,0.99,-0.01,20000,9970.60,0,0,0,1.12,-2.73,1.05,0.19,0.99,-0.01
-0.8251953,0.0016844925,-0.0012106672,0.0073329182,0.19,0.99,-0.01,20014,9969.30,0,0,165,0.91,-2.73,0.42,0.19,0.99,-0.01
-0.8251953,-3.1550787E-4,7.8933313E-4,-0.0036670812,0.19,0.99,-0.01,20030,9969.30,0,0,0,0.77,-2.59,-0.35,0.19,0.99,-0.01
-0.8251953,-0.0023155082,7.8933313E-4,-0.007667081,0.19,0.99,-0.01,20037,9969.30,0,0,165,0.63,-2.59,-0.63,0.19,0.99,-0.01
0.47460938,-0.001315508,0.0017893352,-0.0056670816,0.19,0.99,-0.01,20053,9970.60,0,0,0,0.70,-2.52,-0.49,0.19,0.99,-0.01
0.17480469,-0.001315508,-2.1066889E-4,-6.6708133E-4,0.19,0.99,-0.01,20068,9970.30,0,0,165,0.70,-2.66,-0.14,0.19,0.99,-0.01
0.47460938,-3.1550787E-4,-2.1066889E-4,0.005332919,0.19,0.99,-0.01,20075,9970.60,0,0,0,0.77,-2.66,0.28,0.19,0.99,-0.01
0.17480469,6.8449136E-4,-0.0012106672,0.0043329187,0.19,0.99,-0.01,20090,9970.30,0,0,165,0.84,-2.73,0.21,0.19,0.99,-0.01
-0.5253906,-3.1550787E-4,-2.1066889E-4,-0.001667081,0.19,0.99,-0.01,20105,9969.60,0,0,0,0.77,-2.66,-0.21,0.19,0.99,-0.01
-0.8251953,-0.001315508,7.8933313E-4,-0.004667081,0.19,0.99,-0.01,20113,9969.30,0,0,165,0.70,-2.59,-0.42,0.19,0.99,-0.01
-0.8251953,-3.1550787E-4,7.8933313E-4,-0.0036670812,0.19,0.99,-0.01,20128,9969.30,0,0,0,0.77,-2.59,-0.35,0.19,0.99,-0.01
-0.8251953,-3.1550787E-4,7.8933313E-4,3.3291872E-4,0.19,0.99,-0.01,20143,9969.30,0,0,165,0.77,-2.59,-0.07,0.19,0.99,-0.01
0.17480469,6.8449136E-4,-2.1066889E-4,0.0063329185,0.19,0.99,-0.01,20150,9970.30,0,0,0,0.84,-2.66,0.35,0.19,0.99,-0.01
-0.8251953,6.8449136E-4,7.8933313E-4,0.0073329182,0.18,0.99,-0.01,20165,9969.30,0,0,165,0.84,-2.59,0.42,0.18,0.99,-0.01
0.47460938,-3.1550787E-4,-2.1066889E-4,0.0023329188,0.19,0.99,-0.01,20180,9970.60,0,0,0,0.77,-2.66,0.07,0.19,0.99,-0.01
0.17480469,-0.0023155082,0.0017893352,-0.0036670812,0.19,0.99,-0.01,20187,9970.30,0,0,165,0.63,-2.52,-0.35,0.19,0.99,-0.01
-0.5253906,-0.001315508,7.8933313E-4,-0.0056670816,0.19,0.99,-0.01,20202,9969.60,0,0,0,0.70,-2.59,-0.49,0.19,0.99,-0.01
-0.8251953,6.8449136E-4,7.8933313E-4,-6.6708133E-4,0.19,0.99,-0.01,20219,9969.30,0,0,165,0.84,-2.59,-0.14,0.19,0.99,-0.01
-0.8251953,0.0016844925,7.8933313E-4,0.0063329185,0.19,0.99,-0.01,20227,9969.30,0,0,0,0.91,-2.59,0.35,0.19,0.99,-0.01
0.17480469,-3.1550787E-4,-0.0012106672,0.0073329182,0.19,0.99,-0.01,20241,9970.30,0,0,165,0.77,-2.73,0.42,0.19,0.99,-0.01
0.17480469,6.8449136E-4,-0.0012106672,0.008332919,0.18,0.99,-0.0,20255,9970.30,0,0,0,0.84,-2.73,0.49,0.18,0.99,-0.00
-0.8251953,0.0016844925,-2.1066889E-4,0.0043329187,0.19,0.99,-0.0,20262,9969.30,0,0,165,0.91,-2.66,0.21,0.19,0.99,-0.00
0.17480469,6.8449136E-4,7.8933313E-4,0.0023329188,0.19,0.99,-0.01,20278,9970.30,0,0,0,0.84,-2.59,0.07,0.19,0.99,-0.01
0.17480469,6.8449136E-4,-2.1066889E-4,3.3291872E-4,0.19,0.99,-0.01,20293,9970.30,0,0,165,0.84,-2.66,-0.07,0.19,0.99,-0.01
0.17480469,-3.1550787E-4,-2.1066889E-4,0.0013329188,0.18,0.99,-0.01,20300,9970.30,0,0,0,0.77,-2.66,0.00,0.18,0.99,-0.01
0.17480469,-3.1550787E-4,7.8933313E-4,-0.2546671,0.19,0.99,-0.01,20315,9970.30,0,0,165,0.77,-2.59,-17.92,0.19,0.99,-0.01
0.17480469,-3.1550787E-4,7.8933313E-4,-0.001667081,0.19,0.99,-0.01,20330,9970.30,0,0,0,0.77,-2.59,-0.21,0.19,0.99,-0.01
0.47460938,-0.0033155074,-2.1066889E-4,-0.0026670815,0.19,0.99,-0.0,20337,9970.60,0,0,165,0.56,-2.66,-0.28,0.19,0.99,-0.00
0.17480469,-0.0023155082,7.8933313E-4,-0.004667081,0.18,0.99,-0.01,20353,9970.30,0,0,0,0.63,-2.59,-0.42,0.18,0.99,-0.01
0.17480469,-0.001315508,-2.1066889E-4,-0.001667081,0.19,0.99,-0.01,20368,9970.30,0,0,165,0.70,-2.66,-0.21,0.19,0.99,-0.01
-1.8251953,6.8449136E-4,7.8933313E-4,0.0023329188,0.18,0.99,-0.01,20375,9968.30,0,0,0,0.84,-2.59,0.07,0.18,0.99,-0.01
0.47460938,6.8449136E-4,-0.0012106672,0.0073329182,0.18,0.99,-0.01,20391,9970.60,0,0,165,0.84,-2.73,0.42,0.18,0.99,-0.01
0.17480469,0.0026844926,-2.1066889E-4,0.0073329182,0.18,0.99,-0.01,20405,9970.30,0,0,0,0.98,-2.66,0.42,0.18,0.99,-0.01
-0.5253906,6.8449136E-4,-2.1066889E-4,0.005332919,0.19,0.99,-0.01,20413,9969.60,0,0,165,0.84,-2.66,0.28,0.19,0.99,-0.01
-0.5253906,6.8449136E-4,-2.1066889E-4,0.0013329188,0.18,0.99,-0.01,20428,9969.60,0,0,0,0.84,-2.66,0.00,0.18,0.99,-0.01
-1.125,6.8449136E-4,7.8933313E-4,0.0043329187,0.19,0.99,-0.01,20443,9969.00,0,0,165,0.84,-2.59,0.21,0.19,0.99,-0.01
0.47460938,6.8449136E-4,-2.1066889E-4,0.0063329185,0.19,0.99,-0.01,20450,9970.60,0,0,0,0.84,-2.66,0.35,0.19,0.99,-0.01
0.47460938,-0.001315508,-2.1066889E-4,0.005332919,0.19,0.99,-0.01,20465,9970.60,0,0,165,0.70,-2.66,0.28,0.19,0.99,-0.01
-0.8251953,-3.1550787E-4,-0.0012106672,0.0023329188,0.19,0.99,-0.0,20480,9969.30,0,0,0,0.77,-2.73,0.07,0.19,0.99,-0.00
0.47460938,-3.1550787E-4,7.8933313E-4,0.0013329188,0.19,0.99,-0.0,20488,9970.60,0,0,165,0.77,-2.59,0.00,0.19,0.99,-0.00
-0.5253906,-0.001315508,-2.1066889E-4,-0.0026670815,0.19,0.99,-0.01,20503,9969.60,0,0,0,0.70,-2.66,-0.28,0.19,0.99,-0.01
-0.8251953,-3.1550787E-4,7.8933313E-4,-0.0026670815,0.19,0.99,-0.01,20518,9969.30,0,0,165,0.77,-2.59,-0.28,0.19,0.99,-0.01
0.17480469,6.8449136E-4,0.0017893352,3.3291872E-4,0.18,0.99,-0.01,20533,9970.30,0,0,0,0.84,-2.52,-0.07,0.18,0.99,-0.01
-0.5253906,6.8449136E-4,-2.1066889E-4,0.0043329187,0.19,0.99,-0.01,20540,9969.60,0,0,165,0.84,-2.66,0.21,0.19,0.99,-0.01
0.17480469,-3.1550787E-4,-2.1066889E-4,0.003332919,0.19,0.99,-0.01,20556,9970.30,0,0,0,0.77,-2.66,0.14,0.19,0.99,-0.01
0.17480469,6.8449136E-4,7.8933313E-4,0.003332919,0.18,0.99,-0.01,20563,9970.30,0,0,165,0.84,-2.59,0.14,0.18,0.99,-0.01
1.0751953,-3.1550787E-4,-2.1066889E-4,3.3291872E-4,0.19,0.99,-0.01,20579,9971.20,0,0,0,0.77,-2.66,-0.07,0.19,0.99,-0.01
-0.5253906,-0.0023155082,-2.1066889E-4,-0.001667081,0.19,0.99,-0.01,20595,9969.60,0,0,165,0.63,-2.66,-0.21,0.19,0.99,-0.01
0.17480469,-0.001315508,7.8933313E-4,3.3291872E-4,0.19,0.99,-0.01,20600,9970.30,0,0,0,0.70,-2.59,-0.07,0.19,0.99,-0.01
-0.5253906,6.8449136E-4,-2.1066889E-4,0.0023329188,0.19,0.99,-0.01,20615,9969.60,0,0,165,0.84,-2.66,0.07,0.19,0.99,-0.01
0.47460938,0.0016844925,-0.0022106655,0.005332919,0.18,0.99,-0.01,20630,9970.60,0,0,0,0.91,-2.80,0.28,0.18,0.99,-0.01
0.47460938,0.0016844925,-0.0012106672,0.005332919,0.19,0.99,-0.01,20638,9970.60,0,0,165,0.91,-2.73,0.28,0.19,0.99,-0.01
0.17480469,6.8449136E-4,7.8933313E-4,0.003332919,0.19,0.99,-0.01,20652,9970.30,0,0,0,0.84,-2.59,0.14,0.19,0.99,-0.01
0.17480469,0.0016844925,7.8933313E-4,0.0023329188,0.18,0.99,-0.01,20667,9970.30,0,0,165,0.91,-2.59,0.07,0.18,0.99,-0.01
0.47460938,-0.0023155082,-0.0012106672,3.3291872E-4,0.19,0.99,-0.01,20676,9970.60,0,0,0,0.63,-2.73,-0.07,0.19,0.99,-0.01
1.0751953,-3.1550787E-4,-2.1066889E-4,-6.6708133E-4,0.19,0.99,-0.01,20690,9971.20,0,0,165,0.77,-2.66,-0.14,0.19,0.99,-0.01
0.47460938,-0.001315508,-0.0012106672,-6.6708133E-4,0.19,0.99,-0.01,20705,9970.60,0,0,0,0.70,-2.73,-0.14,0.19,0.99,-0.01
0.17480469,-3.1550787E-4,-2.1066889E-4,-0.0026670815,0.18,0.99,-0.0,20712,9970.30,0,0,165,0.77,-2.66,-0.28,0.18,0.99,-0.00
-0.8251953,-3.1550787E-4,-2.1066889E-4,-6.6708133E-4,0.19,0.99,-0.01,20746,9969.30,0,0,0,0.77,-2.66,-0.14,0.19,0.99,-0.01
-0.5253906,0.0016844925,-2.1066889E-4,0.0023329188,0.18,0.99,-0.01,20747,9969.60,0,0,165,0.91,-2.66,0.07,0.18,0.99,-0.01
-0.8251953,6.8449136E-4,-2.1066889E-4,0.0063329185,0.19,0.99,-0.01,20752,9969.30,0,0,0,0.84,-2.66,0.35,0.19,0.99,-0.01
-0.8251953,0.0016844925,-2.1066889E-4,0.0073329182,0.19,0.99,-0.01,20765,9969.30,0,0,165,0.91,-2.66,0.42,0.19,0.99,-0.01
-0.8251953,6.8449136E-4,7.8933313E-4,0.0023329188,0.19,0.99,-0.01,20780,9969.30,0,0,0,0.84,-2.59,0.07,0.19,0.99,-0.01
0.47460938,0.0016844925,7.8933313E-4,-0.001667081,0.19,0.99,-0.01,20788,9970.60,0,0,165,0.91,-2.59,-0.21,0.19,0.99,-0.01
-0.8251953,-0.001315508,-2.1066889E-4,-0.001667081,0.19,0.99,-0.01,20803,9969.30,0,0,0,0.70,-2.66,-0.21,0.19,0.99,-0.01
-0.5253906,-0.001315508,-2.1066889E-4,-0.001667081,0.19,0.99,-0.01,20817,9969.60,0,0,165,0.70,-2.66,-0.21,0.19,0.99,-0.01
0.47460938,-0.001315508,-2.1066889E-4,-6.6708133E-4,0.18,1.0,-0.01,20825,9970.60,0,0,0,0.70,-2.66,-0.14,0.18,1.00,-0.01
0.17480469,6.8449136E-4,-2.1066889E-4,0.0063329185,0.18,0.99,-0.01,20840,9970.30,0,0,165,0.84,-2.66,0.35,0.18,0.99,-0.01
0.17480469,0.0026844926,7.8933313E-4,0.0093329195,0.18,0.99,-0.01,20855,9970.30,0,0,0,0.98,-2.59,0.56,0.18,0.99,-0.01
0.17480469,0.0026844926,7.8933313E-4,0.0093329195,0.19,0.99,-0.01,20863,9970.30,0,0,165,0.98,-2.59,0.56,0.19,0.99,-0.01
0.17480469,0.0016844925,-0.0012106672,0.0063329185,0.19,0.99,-0.01,20877,9970.30,0,0,0,0.91,-2.73,0.35,0.19,0.99,-0.01
0.17480469,6.8449136E-4,-0.0022106655,0.0023329188,0.19,0.99,-0.01,20893,9970.30,0,0,165,0.84,-2.80,0.07,0.19,0.99,-0.01
0.17480469,-3.1550787E-4,-0.0012106672,-0.001667081,0.19,0.99,-0.01,20900,9970.30,0,0,0,0.77,-2.73,-0.21,0.19,0.99,-0.01
-0.8251953,-0.0023155082,7.8933313E-4,-0.004667081,0.19,0.99,-0.01,20915,9969.30,0,0,165,0.63,-2.59,-0.42,0.19,0.99,-0.01
0.47460938,-0.0023155082,7.8933313E-4,-0.004667081,0.18,0.99,-0.01,20930,9970.60,0,0,0,0.63,-2.59,-0.42,0.18,0.99,-0.01
0.17480469,-0.001315508,-2.1066889E-4,-0.0036670812,0.18,0.99,-0.01,20937,9970.30,0,0,165,0.70,-2.66,-0.35,0.18,0.99,-0.01
0.47460938,-3.1550787E-4,-2.1066889E-4,0.003332919,0.19,0.99,-0.01,20952,9970.60,0,0,0,0.77,-2.66,0.14,0.19,0.99,-0.01
0.17480469,6.8449136E-4,-0.0022106655,0.0043329187,0.18,0.99,-0.01,20967,9970.30,0,0,165,0.84,-2.80,0.21,0.18,0.99,-0.01
-0.8251953,6.8449136E-4,-0.0012106672,0.003332919,0.19,0.99,-0.01,20974,9969.30,0,0,0,0.84,-2.73,0.14,0.19,0.99,-0.01
-0.5253906,-3.1550787E-4,7.8933313E-4,0.0013329188,0.19,0.99,-0.01,20989,9969.60,0,0,165,0.77,-2.59,0.00,0.19,0.99,-0.01
-0.8251953,-3.1550787E-4,-0.0012106672,-0.001667081,0.19,0.99,-0.01,21005,9969.30,0,0,0,0.77,-2.73,-0.21,0.19,0.99,-0.01
0.47460938,-3.1550787E-4,7.8933313E-4,-6.6708133E-4,0.18,0.99,-0.01,21012,9970.60,0,0,165,0.77,-2.59,-0.14,0.18,0.99,-0.01
-0.8251953,6.8449136E-4,7.8933313E-4,0.003332919,0.19,0.99,-0.01,21027,9969.30,0,0,0,0.84,-2.59,0.14,0.19,0.99,-0.01
0.17480469,6.8449136E-4,-2.1066889E-4,0.005332919,0.19,0.99,-0.01,21043,9970.30,0,0,165,0.84,-2.66,0.28,0.19,0.99,-0.01
0.17480469,0.0016844925,-2.1066889E-4,0.008332919,0.18,0.99,-0.01,21050,9970.30,0,0,0,0.91,-2.66,0.49,0.18,0.99,-0.01
0.47460938,0.0016844925,7.8933313E-4,0.005332919,0.19,0.99,-0.01,21065,9970.60,0,0,165,0.91,-2.59,0.28,0.19,0.99,-0.01
-0.8251953,0.0016844925,-0.0012106672,0.0023329188,0.19,0.99,-0.01,21080,9969.30,0,0,0,0.91,-2.73,0.07,0.19,0.99,-0.01
-0.8251953,-3.1550787E-4,-2.1066889E-4,3.3291872E-4,0.19,0.99,-0.01,21088,9969.30,0,0,165,0.77,-2.66,-0.07,0.19,0.99,-0.01
0.17480469,-0.001315508,-0.0012106672,-0.0026670815,0.18,0.99,-0.01,21103,9970.30,0,0,0,0.70,-2.73,-0.28,0.18,0.99,-0.01
0.17480469,-0.001315508,-0.0012106672,-6.6708133E-4,0.19,0.99,-0.01,21118,9970.30,0,0,165,0.70,-2.73,-0.14,0.19,0.99,-0.01
0.47460938,-3.1550787E-4,-2.1066889E-4,3.3291872E-4,0.18,0.99,-0.01,21124,9970.60,0,0,0,0.77,-2.66,-0.07,0.18,0.99,-0.01
0.17480469,-3.1550787E-4,7.8933313E-4,-6.6708133E-4,0.19,0.99,-0.0,21140,9970.30,0,0,165,0.77,-2.59,-0.14,0.19,0.99,-0.00
0.17480469,-3.1550787E-4,7.8933313E-4,-6.6708133E-4,0.19,0.99,-0.01,21155,9970.30,0,0,0,0.77,-2.59,-0.14,0.19,0.99,-0.01
-0.5253906,0.0016844925,0.0017893352,-0.0026670815,0.19,0.99,-0.01,21162,9969.60,0,0,165,0.91,-2.52,-0.28,0.19,0.99,-0.01
0.17480469,-3.1550787E-4,7.8933313E-4,-0.0036670812,0.19,0.99,-0.01,21177,9970.30,0,0,0,0.77,-2.59,-0.35,0.19,0.99,-0.01
-0.5253906,0.0016844925,7.8933313E-4,3.3291872E-4,0.19,0.99,-0.01,21193,9969.60,0,0,165,0.91,-2.59,-0.07,0.19,0.99,-0.01
0.17480469,-3.1550787E-4,7.8933313E-4,0.0023329188,0.19,0.99,-0.01,21200,9970.30,0,0,0,0.77,-2.59,0.07,0.19,0.99,-0.01
0.17480469,-3.1550787E-4,-0.0012106672,0.005332919,0.18,0.99,-0.01,21215,9970.30,0,0,165,0.77,-2.73,0.28,0.18,0.99,-0.01
0.17480469,6.8449136E-4,-2.1066889E-4,0.0063329185,0.19,0.99,-0.01,21230,9970.30,0,0,0,0.84,-2.66,0.35,0.19,0.99,-0.01
-0.8251953,6.8449136E-4,7.8933313E-4,0.0063329185,0.19,0.99,-0.01,21237,9969.30,0,0,165,0.84,-2.59,0.35,0.19,0.99,-0.01
0.17480469,6.8449136E-4,-2.1066889E-4,0.0063329185,0.19,0.99,-0.01,21253,9970.30,0,0,0,0.84,-2.66,0.35,0.19,0.99,-0.01
-0.8251953,0.0016844925,-2.1066889E-4,0.0043329187,0.18,0.99,-0.01,21268,9969.30,0,0,165,0.91,-2.66,0.21,0.18,0.99,-0.01
-0.8251953,-3.1550787E-4,-2.1066889E-4,0.0043329187,0.19,0.99,-0.01,21275,9969.30,0,0,0,0.77,-2.66,0.21,0.19,0.99,-0.01
0.17480469,6.8449136E-4,-2.1066889E-4,0.0013329188,0.18,0.99,-0.01,21290,9970.30,0,0,165,0.84,-2.66,0.00,0.18,0.99,-0.01
-2.7246094,-0.001315508,7.8933313E-4,-6.6708133E-4,0.18,0.99,-0.01,21305,9967.40,0,0,0,0.70,-2.59,-0.14,0.18,0.99,-0.01
1.0751953,-0.0023155082,-0.0022106655,-0.0026670815,0.19,0.99,-0.01,21313,9971.20,0,0,165,0.63,-2.80,-0.28,0.19,0.99,-0.01
0.17480469,-3.1550787E-4,-0.0012106672,-0.001667081,0.19,0.99,-0.01,21327,9970.30,0,0,0,0.77,-2.73,-0.21,0.19,0.99,-0.01
0.17480469,6.8449136E-4,-2.1066889E-4,3.3291872E-4,0.19,1.0,-0.01,21343,9970.30,0,0,165,0.84,-2.66,-0.07,0.19,1.00,-0.01
-1.125,-0.001315508,-2.1066889E-4,0.0013329188,0.19,0.99,-0.01,21350,9969.00,0,0,0,0.70,-2.66,0.00,0.19,0.99,-0.01
-0.8251953,0.0016844925,-2.1066889E-4,0.0023329188,0.19,0.99,-0.01,21365,9969.30,0,0,165,0.91,-2.66,0.07,0.19,0.99,-0.01
-0.8251953,-0.0023155082,-2.1066889E-4,3.3291872E-4,0.19,0.99,-0.01,21380,9969.30,0,0,0,0.63,-2.66,-0.07,0.19,0.99,-0.01
0.17480469,-3.1550787E-4,-2.1066889E-4,-6.6708133E-4,0.18,0.99,-0.01,21387,9970.30,0,0,165,0.77,-2.66,-0.14,0.18,0.99,-0.01
0.17480469,-0.0023155082,7.8933313E-4,-0.001667081,0.18,0.99,-0.01,21403,9970.30,0,0,0,0.63,-2.59,-0.21,0.18,0.99,-0.01
0.17480469,-3.1550787E-4,7.8933313E-4,0.0023329188,0.19,0.99,-0.01,21417,9970.30,0,0,165,0.77,-2.59,0.07,0.19,0.99,-0.01
0.17480469,0.0016844925,-2.1066889E-4,0.008332919,0.18,0.99,-0.01,21425,9970.30,0,0,0,0.91,-2.66,0.49,0.18,0.99,-0.01
0.17480469,0.0026844926,-0.0022106655,0.0073329182,0.19,0.99,-0.01,21440,9970.30,0,0,165,0.98,-2.80,0.42,0.19,0.99,-0.01
0.47460938,0.0016844925,-2.1066889E-4,0.008332919,0.19,0.99,-0.01,21455,9970.60,0,0,0,0.91,-2.66,0.49,0.19,0.99,-0.01
0.47460938,0.0016844925,-0.0012106672,0.0043329187,0.18,0.99,-0.01,21462,9970.60,0,0,165,0.91,-2.73,0.21,0.18,0.99,-0.01
0.17480469,-3.1550787E-4,7.8933313E-4,-6.6708133E-4,0.18,0.99,-0.01,21478,9970.30,0,0,0,0.77,-2.59,-0.14,0.18,0.99,-0.01
0.17480469,-0.0023155082,7.8933313E-4,-0.0026670815,0.19,0.99,-0.01,21493,9970.30,0,0,165,0.63,-2.59,-0.28,0.19,0.99,-0.01
0.17480469,-0.0023155082,-2.1066889E-4,-0.0036670812,0.19,0.99,-0.01,21500,9970.30,0,0,0,0.63,-2.66,-0.35,0.19,0.99,-0.01
0.17480469,-3.1550787E-4,0.0017893352,-6.6708133E-4,0.19,0.99,-0.01,21515,9970.30,0,0,165,0.77,-2.52,-0.14,0.19,0.99,-0.01
0.17480469,-3.1550787E-4,-2.1066889E-4,0.0013329188,0.19,0.99,-0.01,21530,9970.30,0,0,0,0.77,-2.66,0.00,0.19,0.99,-0.01
-0.8251953,6.8449136E-4,-2.1066889E-4,0.003332919,0.19,0.99,-0.01,21537,9969.30,0,0,165,0.84,-2.66,0.14,0.19,0.99,-0.01
-0.8251953,-3.1550787E-4,-2.1066889E-4,-6.6708133E-4,0.19,0.99,-0.01,21552,9969.30,0,0,0,0.77,-2.66,-0.14,0.19,0.99,-0.01
-0.8251953,-0.001315508,-2.1066889E-4,-0.0026670815,0.19,0.99,-0.01,21567,9969.30,0,0,165,0.70,-2.66,-0.28,0.19,0.99,-0.01
0.17480469,6.8449136E-4,-2.1066889E-4,-0.0026670815,0.19,0.99,-0.01,21574,9970.30,0,0,0,0.84,-2.66,-0.28,0.19,0.99,-0.01
0.47460938,-3.1550787E-4,-0.0012106672,0.0013329188,0.19,0.99,-0.01,21590,9970.60,0,0,165,0.77,-2.73,0.00,0.19,0.99,-0.01
-0.8251953,-3.1550787E-4,-2.1066889E-4,0.005332919,0.19,0.99,-0.01,21605,9969.30,0,0,0,0.77,-2.66,0.28,0.19,0.99,-0.01
0.17480469,0.0016844925,7.8933313E-4,0.0073329182,0.19,0.99,-0.01,21612,9970.30,0,0,165,0.91,-2.59,0.42,0.19,0.99,-0.01
0.17480469,-3.1550787E-4,-2.1066889E-4,0.0043329187,0.19,0.99,-0.01,21628,9970.30,0,0,0,0.77,-2.66,0.21,0.19,0.99,-0.01
1.0751953,-3.1550787E-4,-2.1066889E-4,0.0013329188,0.18,0.99,-0.01,21643,9971.20,0,0,165,0.77,-2.66,0.00,0.18,0.99,-0.01
0.17480469,6.8449136E-4,0.0017893352,0.0023329188,0.19,0.99,-0.01,21650,9970.30,0,0,0,0.84,-2.52,0.07,0.19,0.99,-0.01
0.17480469,6.8449136E-4,-2.1066889E-4,-6.6708133E-4,0.18,0.99,-0.01,21665,9970.30,0,0,165,0.84,-2.66,-0.14,0.18,0.99,-0.01
0.17480469,-0.001315508,-2.1066889E-4,0.0023329188,0.19,0.99,-0.01,21680,9970.30,0,0,0,0.70,-2.66,0.07,0.19,0.99,-0.01
0.17480469,-3.1550787E-4,-2.1066889E-4,0.0023329188,0.19,0.99,-0.01,21687,9970.30,0,0,165,0.77,-2.66,0.07,0.19,0.99,-0.01
1.0751953,-3.1550787E-4,7.8933313E-4,0.003332919,0.19,0.99,-0.01,21702,9971.20,0,0,0,0.77,-2.59,0.14,0.19,0.99,-0.01
-0.8251953,-0.001315508,7.8933313E-4,0.0013329188,0.19,0.99,-0.01,21718,9969.30,0,0,165,0.70,-2.59,0.00,0.19,0.99,-0.01
0.17480469,6.8449136E-4,7.8933313E-4,-6.6708133E-4,0.19,0.99,-0.01,21725,9970.30,0,0,0,0.84,-2.59,-0.14,0.19,0.99,-0.01
-0.8251953,-0.0023155082,-2.1066889E-4,-0.0026670815,0.19,0.99,-0.01,21740,9969.30,0,0,165,0.63,-2.66,-0.28,0.19,0.99,-0.01
0.17480469,-3.1550787E-4,7.8933313E-4,-0.0026670815,0.19,0.99,-0.01,21755,9970.30,0,0,0,0.77,-2.59,-0.28,0.19,0.99,-0.01
-0.8251953,-3.1550787E-4,-2.1066889E-4,-0.004667081,0.18,0.99,-0.01,21762,9969.30,0,0,165,0.77,-2.66,-0.42,0.18,0.99,-0.01
0.17480469,0.0026844926,7.8933313E-4,0.0013329188,0.18,1.0,-0.01,21778,9970.30,0,0,0,0.98,-2.59,0.00,0.18,1.00,-0.01
0.17480469,-3.1550787E-4,-0.0012106672,0.003332919,0.19,0.99,-0.01,21793,9970.30,0,0,165,0.77,-2.73,0.14,0.19,0.99,-0.01
0.17480469,0.0016844925,-2.1066889E-4,0.008332919,0.19,0.99,-0.01,21800,9970.30,0,0,0,0.91,-2.66,0.49,0.19,0.99,-0.01
0.47460938,0.0016844925,-2.1066889E-4,0.008332919,0.19,0.99,-0.01,21815,9970.60,0,0,165,0.91,-2.66,0.49,0.19,0.99,-0.01
-1.8251953,0.0026844926,-2.1066889E-4,0.003332919,0.19,0.99,-0.01,21830,9968.30,0,0,0,0.98,-2.66,0.14,0.19,0.99,-0.01
0.17480469,6.8449136E-4,0.0017893352,0.0013329188,0.18,0.99,-0.01,21837,9970.30,0,0,165,0.84,-2.52,0.00,0.18,0.99,-0.01
0.17480469,-0.001315508,7.8933313E-4,-0.004667081,0.18,0.99,-0.01,21852,9970.30,0,0,0,0.70,-2.59,-0.42,0.18,0.99,-0.01
0.17480469,-3.1550787E-4,7.8933313E-4,-0.001667081,0.18,0.99,-0.01,21868,9970.30,0,0,165,0.77,-2.59,-0.21,0.18,0.99,-0.01
0.17480469,-3.1550787E-4,-2.1066889E-4,0.003332919,0.19,0.99,-0.01,21876,9970.30,0,0,0,0.77,-2.66,0.14,0.19,0.99,-0.01
-0.8251953,0.0016844925,7.8933313E-4,0.0043329187,0.19,0.99,-0.01,21890,9969.30,0,0,165,0.91,-2.59,0.21,0.19,0.99,-0.01
0.17480469,0.0026844926,7.8933313E-4,0.0063329185,0.19,0.99,-0.01,21905,9970.30,0,0,0,0.98,-2.59,0.35,0.19,0.99,-0.01
0.17480469,0.0026844926,-2.1066889E-4,0.003332919,0.19,0.99,-0.0,21913,9970.30,0,0,165,0.98,-2.66,0.14,0.19,0.99,-0.00
-0.5253906,6.8449136E-4,0.0017893352,-0.001667081,0.19,0.99,-0.01,21927,9969.60,0,0,0,0.84,-2.52,-0.21,0.19,0.99,-0.01
0.17480469,-3.1550787E-4,7.8933313E-4,-0.0026670815,0.18,0.99,-0.01,21943,9970.30,0,0,165,0.77,-2.59,-0.28,0.18,0.99,-0.01
0.17480469,-3.1550787E-4,-2.1066889E-4,-0.004667081,0.19,0.99,-0.01,21949,9970.30,0,0,0,0.77,-2.66,-0.42,0.19,0.99,-0.01
0.17480469,-0.001315508,7.8933313E-4,-6.6708133E-4,0.19,0.99,-0.01,21965,9970.30,0,0,165,0.70,-2.59,-0.14,0.19,0.99,-0.01
-0.8251953,-0.001315508,7.8933313E-4,0.0023329188,0.19,0.99,-0.01,21980,9969.30,0,0,0,0.70,-2.59,0.07,0.19,0.99,-0.01
0.47460938,0.0016844925,-0.0012106672,0.0073329182,0.19,0.99,-0.01,21987,9970.60,0,0,165,0.91,-2.73,0.42,0.19,0.99,-0.01
-0.8251953,0.0016844925,-2.1066889E-4,0.0063329185,0.18,0.99,-0.01,22003,9969.30,0,0,0,0.91,-2.66,0.35,0.18,0.99,-0.01
0.17480469,0.0016844925,-2.1066889E-4,0.005332919,0.19,0.99,-0.01,22017,9970.30,0,0,165,0.91,-2.66,0.28,0.19,0.99,-0.01
0.17480469,-3.1550787E-4,7.8933313E-4,0.0023329188,0.19,0.99,-0.01,22025,9970.30,0,0,0,0.77,-2.59,0.07,0.19,0.99,-0.01
0.17480469,-3.1550787E-4,-2.1066889E-4,3.3291872E-4,0.18,0.99,-0.01,22040,9970.30,0,0,165,0.77,-2.66,-0.07,0.18,0.99,-0.01
1.0751953,-3.1550787E-4,7.8933313E-4,3.3291872E-4,0.18,0.99,-0.01,22055,9971.20,0,0,0,0.77,-2.59,-0.07,0.18,0.99,-0.01
0.17480469,-3.1550787E-4,-2.1066889E-4,0.003332919,0.18,0.99,-0.01,22063,9970.30,0,0,165,0.77,-2.66,0.14,0.18,0.99,-0.01
1.0751953,6.8449136E-4,0.0017893352,0.003332919,0.19,0.99,-0.01,22078,9971.20,0,0,0,0.84,-2.52,0.14,0.19,0.99,-0.01
-0.8251953,0.0016844925,7.8933313E-4,0.005332919,0.19,0.99,-0.01,22092,9969.30,0,0,165,0.91,-2.59,0.28,0.19,0.99,-0.01
1.0751953,-3.1550787E-4,-2.1066889E-4,0.003332919,0.19,0.99,-0.01,22100,9971.20,0,0,0,0.77,-2.66,0.14,0.19,0.99,-0.01
0.17480469,-0.001315508,-2.1066889E-4,3.3291872E-4,0.19,0.99,-0.01,22115,9970.30,0,0,165,0.70,-2.66,-0.07,0.19,0.99,-0.01
0.17480469,-3.1550787E-4,-2.1066889E-4,-0.0026670815,0.18,0.99,-0.01,22130,9970.30,0,0,0,0.77,-2.66,-0.28,0.18,0.99,-0.01
0.17480469,-3.1550787E-4,-2.1066889E-4,-0.001667081,0.18,1.0,-0.01,22138,9970.30,0,0,165,0.77,-2.66,-0.21,0.18,1.00,-0.01
1.0751953,-3.1550787E-4,-0.0012106672,-0.001667081,0.19,0.99,-0.01,22152,9971.20,0,0,0,0.77,-2.73,-0.21,0.19,0.99,-0.01
-1.125,0.0016844925,-2.1066889E-4,0.0013329188,0.19,0.99,-0.01,22167,9969.00,0,0,165,0.91,-2.66,0.00,0.19,0.99,-0.01
0.17480469,0.0026844926,-2.1066889E-4,0.0063329185,0.19,0.99,-0.01,22176,9970.30,0,0,0,0.98,-2.66,0.35,0.19,0.99,-0.01
0.17480469,0.0026844926,-2.1066889E-4,0.005332919,0.19,0.99,-0.01,22190,9970.30,0,0,165,0.98,-2.66,0.28,0.19,0.99,-0.01
0.47460938,6.8449136E-4,-0.0012106672,0.003332919,0.19,0.99,-0.01,22205,9970.60,0,0,0,0.84,-2.73,0.14,0.19,0.99,-0.01
0.17480469,-3.1550787E-4,-2.1066889E-4,3.3291872E-4,0.19,0.99,-0.01,22212,9970.30,0,0,165,0.77,-2.66,-0.07,0.19,0.99,-0.01
0.17480469,6.8449136E-4,-2.1066889E-4,-6.6708133E-4,0.19,0.99,-0.01,22228,9970.30,0,0,0,0.84,-2.66,-0.14,0.19,0.99,-0.01
0.17480469,-3.1550787E-4,7.8933313E-4,3.3291872E-4,0.19,0.99,-0.01,22242,9970.30,0,0,165,0.77,-2.59,-0.07,0.19,0.99,-0.01
-0.8251953,6.8449136E-4,7.8933313E-4,0.0023329188,0.19,0.99,-0.01,22249,9969.30,0,0,0,0.84,-2.59,0.07,0.19,0.99,-0.01
0.17480469,6.8449136E-4,-0.0012106672,0.003332919,0.19,0.99,-0.01,22265,9970.30,0,0,165,0.84,-2.73,0.14,0.19,0.99,-0.01
-0.8251953,0.0026844926,-2.1066889E-4,0.0063329185,0.19,0.99,-0.01,22280,9969.30,0,0,0,0.98,-2.66,0.35,0.19,0.99,-0.01
0.17480469,6.8449136E-4,-2.1066889E-4,0.0063329185,0.19,0.99,-0.01,22287,9970.30,0,0,165,0.84,-2.66,0.35,0.19,0.99,-0.01
-0.5253906,-0.001315508,-2.1066889E-4,3.3291872E-4,0.18,0.99,-0.01,22302,9969.60,0,0,0,0.70,-2.66,-0.07,0.18,0.99,-0.01
-0.8251953,-0.001315508,7.8933313E-4,-0.001667081,0.19,0.99,-0.01,22318,9969.30,0,0,165,0.70,-2.59,-0.21,0.19,0.99,-0.01
-0.8251953,-3.1550787E-4,7.8933313E-4,-0.0036670812,0.18,0.99,-0.01,22325,9969.30,0,0,0,0.77,-2.59,-0.35,0.18,0.99,-0.01
0.17480469,-0.001315508,-0.0012106672,-0.0026670815,0.18,0.99,-0.01,22340,9970.30,0,0,165,0.70,-2.73,-0.28,0.18,0.99,-0.01
-0.8251953,-3.1550787E-4,-0.0012106672,3.3291872E-4,0.18,0.99,-0.01,22355,9969.30,0,0,0,0.77,-2.73,-0.07,0.18,0.99,-0.01
0.17480469,0.0016844925,-2.1066889E-4,0.005332919,0.19,0.99,-0.01,22362,9970.30,0,0,165,0.91,-2.66,0.28,0.19,0.99,-0.01
-0.8251953,-3.1550787E-4,-2.1066889E-4,0.0043329187,0.19,0.99,-0.01,22377,9969.30,0,0,0,0.77,-2.66,0.21,0.19,0.99,-0.01
-1.8251953,0.0016844925,7.8933313E-4,0.0043329187,0.19,0.99,-0.01,22393,9968.30,0,0,165,0.91,-2.59,0.21,0.19,0.99,-0.01
-0.8251953,6.8449136E-4,-2.1066889E-4,0.0023329188,0.18,0.99,-0.01,22400,9969.30,0,0,0,0.84,-2.66,0.07,0.18,0.99,-0.01
-0.8251953,-3.1550787E-4,7.8933313E-4,3.3291872E-4,0.19,0.99,-0.01,22415,9969.30,0,0,165,0.77,-2.59,-0.07,0.19,0.99,-0.01
0.47460938,-0.001315508,7.8933313E-4,0.0013329188,0.18,0.99,-0.01,22430,9970.60,0,0,0,0.70,-2.59,0.00,0.18,0.99,-0.01
-0.5253906,-3.1550787E-4,-2.1066889E-4,0.0013329188,0.19,0.99,-0.01,22437,9969.60,0,0,165,0.77,-2.66,0.00,0.19,0.99,-0.01
0.17480469,-3.1550787E-4,-2.1066889E-4,0.0023329188,0.18,0.99,-0.01,22452,9970.30,0,0,0,0.77,-2.66,0.07,0.18,0.99,-0.01
0.17480469,6.8449136E-4,7.8933313E-4,0.0043329187,0.19,0.99,-0.01,22467,9970.30,0,0,165,0.84,-2.59,0.21,0.19,0.99,-0.01
0.17480469,6.8449136E-4,7.8933313E-4,0.0043329187,0.18,0.99,-0.01,22474,9970.30,0,0,0,0.84,-2.59,0.21,0.18,0.99,-0.01
-0.8251953,-3.1550787E-4,7.8933313E-4,0.003332919,0.19,0.99,-0.01,22490,9969.30,0,0,165,0.77,-2.59,0.14,0.19,0.99,-0.01
0.17480469,-0.001315508,-0.0012106672,-6.6708133E-4,0.18,0.99,-0.01,22505,9970.30,0,0,0,0.70,-2.73,-0.14,0.18,0.99,-0.01
0.47460938,-3.1550787E-4,7.8933313E-4,-6.6708133E-4,0.19,0.99,-0.01,22513,9970.60,0,0,165,0.77,-2.59,-0.14,0.19,0.99,-0.01
0.17480469,-0.001315508,-2.1066889E-4,-6.6708133E-4,0.19,0.99,-0.01,22527,9970.30,0,0,0,0.70,-2.66,-0.14,0.19,0.99,-0.01
-0.8251953,-3.1550787E-4,-2.1066889E-4,3.3291872E-4,0.18,0.99,-0.01,22543,9969.30,0,0,165,0.77,-2.66,-0.07,0.18,0.99,-0.01
-0.8251953,6.8449136E-4,-2.1066889E-4,0.003332919,0.19,0.99,-0.01,22550,9969.30,0,0,0,0.84,-2.66,0.14,0.19,0.99,-0.01
0.47460938,0.0016844925,-2.1066889E-4,0.003332919,0.19,0.99,-0.01,22565,9970.60,0,0,165,0.91,-2.66,0.14,0.19,0.99,-0.01
0.17480469,0.0016844925,7.8933313E-4,0.003332919,0.18,0.99,-0.01,22580,9970.30,0,0,0,0.91,-2.59,0.14,0.18,0.99,-0.01
1.4746094,6.8449136E-4,7.8933313E-4,3.3291872E-4,0.19,0.99,-0.01,22587,9971.60,0,0,165,0.84,-2.59,-0.07,0.19,0.99,-0.01
0.17480469,6.8449136E-4,7.8933313E-4,3.3291872E-4,0.18,0.99,-0.01,22610,9970.30,0,0,0,0.84,-2.59,-0.07,0.18,0.99,-0.01
0.17480469,-0.001315508,-0.0012106672,3.3291872E-4,0.19,0.99,-0.01,22617,9970.30,0,0,165,0.70,-2.73,-0.07,0.19,0.99,-0.01
0.17480469,-3.1550787E-4,-2.1066889E-4,0.0023329188,0.19,0.99,-0.01,22624,9970.30,0,0,0,0.77,-2.66,0.07,0.19,0.99,-0.01
0.17480469,-3.1550787E-4,-2.1066889E-4,0.003332919,0.19,0.99,-0.01,22640,9970.30,0,0,165,0.77,-2.66,0.14,0.19,0.99,-0.01
0.17480469,6.8449136E-4,-0.0012106672,0.0043329187,0.19,0.99,-0.01,22655,9970.30,0,0,0,0.84,-2.73,0.21,0.19,0.99,-0.01
0.17480469,-3.1550787E-4,7.8933313E-4,0.003332919,0.19,0.99,-0.01,22663,9970.30,0,0,165,0.77,-2.59,0.14,0.19,0.99,-0.01
-0.8251953,-3.1550787E-4,-0.0012106672,3.3291872E-4,0.19,0.99,-0.01,22678,9969.30,0,0,0,0.77,-2.73,-0.07,0.19,0.99,-0.01
-0.8251953,6.8449136E-4,-2.1066889E-4,-0.001667081,0.19,0.99,-0.01,22693,9969.30,0,0,165,0.84,-2.66,-0.21,0.19,0.99,-0.01
0.17480469,-0.001315508,7.8933313E-4,-0.0026670815,0.18,0.99,-0.01,22700,9970.30,0,0,0,0.70,-2.59,-0.28,0.18,0.99,-0.01
0.17480469,-0.001315508,-2.1066889E-4,-0.001667081,0.18,0.99,-0.01,22715,9970.30,0,0,165,0.70,-2.66,-0.21,0.18,0.99,-0.01
-0.8251953,-3.1550787E-4,-2.1066889E-4,0.0013329188,0.19,0.99,-0.01,22730,9969.30,0,0,0,0.77,-2.66,0.00,0.19,0.99,-0.01
-0.8251953,6.8449136E-4,-2.1066889E-4,0.0043329187,0.19,0.99,-0.01,22737,9969.30,0,0,165,0.84,-2.66,0.21,0.19,0.99,-0.01
-0.8251953,6.8449136E-4,-2.1066889E-4,0.005332919,0.19,0.99,-0.01,22752,9969.30,0,0,0,0.84,-2.66,0.28,0.19,0.99,-0.01
0.17480469,6.8449136E-4,-0.0012106672,0.0023329188,0.19,0.99,-0.01,22767,9970.30,0,0,165,0.84,-2.73,0.07,0.19,0.99,-0.01
0.17480469,0.0016844925,0.0017893352,0.0023329188,0.19,0.99,-0.01,22774,9970.30,0,0,0,0.91,-2.52,0.07,0.19,0.99,-0.01
0.17480469,-3.1550787E-4,-2.1066889E-4,0.0013329188,0.19,0.99,-0.01,22789,9970.30,0,0,165,0.77,-2.66,0.00,0.19,0.99,-0.01
0.17480469,-0.001315508,7.8933313E-4,0.0013329188,0.18,0.99,-0.01,22805,9970.30,0,0,0,0.70,-2.59,0.00,0.18,0.99,-0.01
0.17480469,-0.001315508,-0.0012106672,3.3291872E-4,0.19,0.99,-0.01,22814,9970.30,0,0,165,0.70,-2.73,-0.07,0.19,0.99,-0.01
0.17480469,-0.001315508,-0.0012106672,-6.6708133E-4,0.19,0.99,-0.01,22828,9970.30,0,0,0,0.70,-2.73,-0.14,0.19,0.99,-0.01
-0.8251953,-3.1550787E-4,7.8933313E-4,3.3291872E-4,0.18,0.99,-0.01,22843,9969.30,0,0,165,0.77,-2.59,-0.07,0.18,0.99,-0.01
1.0751953,-3.1550787E-4,-0.0012106672,0.003332919,0.19,0.99,-0.01,22851,9971.20,0,0,0,0.77,-2.73,0.14,0.19,0.99,-0.01
0.17480469,-3.1550787E-4,-2.1066889E-4,0.0013329188,0.18,0.99,-0.01,22865,9970.30,0,0,165,0.77,-2.66,0.00,0.18,0.99,-0.01
0.17480469,6.8449136E-4,-2.1066889E-4,0.0013329188,0.19,0.99,-0.01,22880,9970.30,0,0,0,0.84,-2.66,0.00,0.19,0.99,-0.01
0.17480469,-3.1550787E-4,-2.1066889E-4,0.0013329188,0.19,0.99,-0.01,22887,9970.30,0,0,165,0.77,-2.66,0.00,0.19,0.99,-0.01
-0.8251953,-3.1550787E-4,0.0017893352,0.0013329188,0.19,0.99,-0.01,22902,9969.30,0,0,0,0.77,-2.52,0.00,0.19,0.99,-0.01
0.17480469,-3.1550787E-4,-2.1066889E-4,-6.6708133E-4,0.19,0.99,-0.01,22910,9970.30,0,0,165,0.77,-2.66,-0.14,0.19,0.99,-0.01
-0.8251953,6.8449136E-4,-2.1066889E-4,-6.6708133E-4,0.19,0.99,-0.01,22925,9969.30,0,0,0,0.84,-2.66,-0.14,0.19,0.99,-0.01
-0.8251953,-3.1550787E-4,0.0017893352,3.3291872E-4,0.18,0.99,-0.01,22940,9969.30,0,0,165,0.77,-2.52,-0.07,0.18,0.99,-0.01
0.17480469,0.0016844925,7.8933313E-4,0.003332919,0.19,0.99,-0.01,22947,9970.30,0,0,0,0.91,-2.59,0.14,0.19,0.99,-0.01
-0.8251953,-3.1550787E-4,-0.0012106672,0.0023329188,0.19,0.99,-0.01,22963,9969.30,0,0,165,0.77,-2.73,0.07,0.19,0.99,-0.01
-0.8251953,6.8449136E-4,-2.1066889E-4,0.0023329188,0.18,0.99,-0.01,22978,9969.30,0,0,0,0.84,-2.66,0.07,0.18,0.99,-0.01
0.17480469,6.8449136E-4,7.8933313E-4,-6.6708133E-4,0.18,0.99,-0.01,22985,9970.30,0,0,165,0.84,-2.59,-0.14,0.18,0.99,-0.01
0.17480469,-0.001315508,-2.1066889E-4,3.3291872E-4,0.19,0.99,-0.01,23000,9970.30,0,0,0,0.70,-2.66,-0.07,0.19,0.99,-0.01
0.17480469,-3.1550787E-4,7.8933313E-4,0.0023329188,0.19,0.99,-0.01,23015,9970.30,0,0,165,0.77,-2.59,0.07,0.19,0.99,-0.01
0.47460938,-3.1550787E-4,7.8933313E-4,0.005332919,0.19,0.99,-0.01,23023,9970.60,0,0,0,0.77,-2.59,0.28,0.19,0.99,-0.01
0.17480469,6.8449136E-4,-2.1066889E-4,0.0073329182,0.18,0.99,-0.01,23037,9970.30,0,0,165,0.84,-2.66,0.42,0.18,0.99,-0.01
-0.8251953,6.8449136E-4,-2.1066889E-4,0.005332919,0.19,0.99,-0.01,23053,9969.30,0,0,0,0.84,-2.66,0.28,0.19,0.99,-0.01
0.47460938,-3.1550787E-4,7.8933313E-4,0.0043329187,0.19,0.99,-0.01,23061,9970.60,0,0,165,0.77,-2.59,0.21,0.19,0.99,-0.01
0.17480469,-3.1550787E-4,7.8933313E-4,0.0013329188,0.19,0.99,-0.0,23075,9970.30,0,0,0,0.77,-2.59,0.00,0.19,0.99,-0.00
0.17480469,6.8449136E-4,-2.1066889E-4,-6.6708133E-4,0.18,0.99,-0.01,23089,9970.30,0,0,165,0.84,-2.66,-0.14,0.18,0.99,-0.01
-0.8251953,6.8449136E-4,7.8933313E-4,-6.6708133E-4,0.18,0.99,-0.01,23097,9969.30,0,0,0,0.84,-2.59,-0.14,0.18,0.99,-0.01
-0.5253906,6.8449136E-4,-2.1066889E-4,3.3291872E-4,0.19,0.99,-0.01,23112,9969.60,0,0,165,0.84,-2.66,-0.07,0.19,0.99,-0.01
-0.8251953,6.8449136E-4,-2.1066889E-4,0.003332919,0.19,0.99,-0.01,23128,9969.30,0,0,0,0.84,-2.66,0.14,0.19,0.99,-0.01
-0.8251953,0.0016844925,7.8933313E-4,0.0023329188,0.19,0.99,-0.01,23135,9969.30,0,0,165,0.91,-2.59,0.07,0.19,0.99,-0.01
0.17480469,6.8449136E-4,0.0017893352,0.0013329188,0.19,0.99,-0.01,23150,9970.30,0,0,0,0.84,-2.52,0.00,0.19,0.99,-0.01
0.17480469,-0.001315508,-2.1066889E-4,3.3291872E-4,0.19,0.99,-0.01,23165,9970.30,0,0,165,0.70,-2.66,-0.07,0.19,0.99,-0.01
0.47460938,-3.1550787E-4,7.8933313E-4,3.3291872E-4,0.19,0.99,-0.01,23173,9970.60,0,0,0,0.77,-2.59,-0.07,0.19,0.99,-0.01
0.17480469,-0.001315508,7.8933313E-4,0.0023329188,0.19,0.99,-0.01,23188,9970.30,0,0,165,0.70,-2.59,0.07,0.19,0.99,-0.01
-0.8251953,6.8449136E-4,7.8933313E-4,0.0013329188,0.19,0.99,-0.01,23203,9969.30,0,0,0,0.84,-2.59,0.00,0.19,0.99,-0.01
0.17480469,6.8449136E-4,-2.1066889E-4,0.0023329188,0.19,0.99,-0.01,23210,9970.30,0,0,165,0.84,-2.66,0.07,0.19,0.99,-0.01
0.17480469,6.8449136E-4,-2.1066889E-4,0.0043329187,0.19,0.99,-0.01,23234,9970.30,0,0,0,0.84,-2.66,0.21,0.19,0.99,-0.01
-0.8251953,0.0016844925,-2.1066889E-4,0.0043329187,0.19,0.99,-0.01,23246,9969.30,0,0,165,0.91,-2.66,0.21,0.19,0.99,-0.01
0.47460938,6.8449136E-4,-2.1066889E-4,0.003332919,0.19,0.99,-0.01,23247,9970.60,0,0,0,0.84,-2.66,0.14,0.19,0.99,-0.01
-0.8251953,0.0016844925,7.8933313E-4,0.0043329187,0.19,0.99,-0.01,23263,9969.30,0,0,165,0.91,-2.59,0.21,0.19,0.99,-0.01
0.17480469,-3.1550787E-4,7.8933313E-4,0.0023329188,0.19,0.99,-0.01,23280,9970.30,0,0,0,0.77,-2.59,0.07,0.19,0.99,-0.01
1.4746094,-0.0023155082,-2.1066889E-4,0.0013329188,0.19,0.99,-0.01,23285,9971.60,0,0,165,0.63,-2.66,0.00,0.19,0.99,-0.01
-0.8251953,-0.001315508,-2.1066889E-4,0.0013329188,0.19,0.99,-0.01,23300,9969.30,0,0,0,0.70,-2.66,0.00,0.19,0.99,-0.01
0.17480469,-0.001315508,-0.0012106672,0.25533292,0.19,0.99,-0.01,23315,9970.30,0,0,165,0.70,-2.73,17.78,0.19,0.99,-0.01
0.17480469,-3.1550787E-4,-2.1066889E-4,0.0013329188,0.18,0.99,-0.01,23322,9970.30,0,0,0,0.77,-2.66,0.00,0.18,0.99,-0.01
1.0751953,6.8449136E-4,-2.1066889E-4,0.0023329188,0.19,0.99,-0.01,23338,9971.20,0,0,165,0.84,-2.66,0.07,0.19,0.99,-0.01
0.17480469,-3.1550787E-4,-0.0012106672,0.0023329188,0.19,0.99,-0.01,23353,9970.30,0,0,0,0.77,-2.73,0.07,0.19,0.99,-0.01
-0.5253906,-3.1550787E-4,0.0017893352,0.0023329188,0.19,0.99,-0.01,23361,9969.60,0,0,165,0.77,-2.52,0.07,0.19,0.99,-0.01
0.17480469,-3.1550787E-4,-0.0012106672,3.3291872E-4,0.19,0.99,-0.01,23376,9970.30,0,0,0,0.77,-2.73,-0.07,0.19,0.99,-0.01
-0.8251953,6.8449136E-4,7.8933313E-4,3.3291872E-4,0.19,0.99,-0.01,23390,9969.30,0,0,165,0.84,-2.59,-0.07,0.19,0.99,-0.01
0.17480469,6.8449136E-4,-0.0012106672,0.0023329188,0.19,0.99,-0.01,23398,9970.30,0,0,0,0.84,-2.73,0.07,0.19,0.99,-0.01
0.17480469,6.8449136E-4,-0.0012106672,0.0013329188,0.19,0.99,-0.01,23413,9970.30,0,0,165,0.84,-2.73,0.00,0.19,0.99,-0.01
0.17480469,-3.1550787E-4,-2.1066889E-4,0.005332919,0.19,0.99,-0.01,23428,9970.30,0,0,0,0.77,-2.66,0.28,0.19,0.99,-0.01
1.0751953,6.8449136E-4,7.8933313E-4,0.003332919,0.19,0.99,-0.01,23435,9971.20,0,0,165,0.84,-2.59,0.14,0.19,0.99,-0.01
0.17480469,6.8449136E-4,-2.1066889E-4,0.0013329188,0.19,0.99,-0.01,23450,9970.30,0,0,0,0.84,-2.66,0.00,0.19,0.99,-0.01
-0.8251953,-3.1550787E-4,7.8933313E-4,3.3291872E-4,0.19,0.99,-0.01,23465,9969.30,0,0,165,0.77,-2.59,-0.07,0.19,0.99,-0.01
-0.8251953,-3.1550787E-4,-0.0012106672,-6.6708133E-4,0.19,0.99,-0.01,23472,9969.30,0,0,0,0.77,-2.73,-0.14,0.19,0.99,-0.01
0.17480469,-0.001315508,7.8933313E-4,0.0013329188,0.19,0.99,-0.01,23487,9970.30,0,0,165,0.70,-2.59,0.00,0.19,0.99,-0.01
-0.8251953,-3.1550787E-4,-2.1066889E-4,0.005332919,0.19,0.99,-0.01,23502,9969.30,0,0,0,0.77,-2.66,0.28,0.19,0.99,-0.01
-0.8251953,-3.1550787E-4,7.8933313E-4,0.0023329188,0.19,0.99,-0.01,23510,9969.30,0,0,165,0.77,-2.59,0.07,0.19,0.99,-0.01
0.17480469,-0.001315508,0.0017893352,0.0013329188,0.19,0.99,-0.01,23524,9970.30,0,0,0,0.70,-2.52,0.00,0.19,0.99,-0.01
0.17480469,-3.1550787E-4,-0.0012106672,-6.6708133E-4,0.19,0.99,-0.01,23540,9970.30,0,0,165,0.77,-2.73,-0.14,0.19,0.99,-0.01
0.17480469,0.0016844925,7.8933313E-4,-6.6708133E-4,0.19,0.99,-0.01,23548,9970.30,0,0,0,0.91,-2.59,-0.14,0.19,0.99,-0.01
-1.125,-3.1550787E-4,7.8933313E-4,-6.6708133E-4,0.19,0.99,-0.01,23563,9969.00,0,0,165,0.77,-2.59,-0.14,0.19,0.99,-0.01
1.0751953,0.0016844925,-2.1066889E-4,0.0023329188,0.19,0.99,-0.01,23578,9971.20,0,0,0,0.91,-2.66,0.07,0.19,0.99,-0.01
0.17480469,-0.0023155082,7.8933313E-4,0.0013329188,0.19,0.99,-0.01,23585,9970.30,0,0,165,0.63,-2.59,0.00,0.19,0.99,-0.01
-0.8251953,0.0016844925,-2.1066889E-4,0.0013329188,0.19,0.99,-0.01,23600,9969.30,0,0,0,0.91,-2.66,0.00,0.19,0.99,-0.01
-0.22460938,6.8449136E-4,-2.1066889E-4,0.003332919,0.19,0.99,-0.01,23615,9969.90,0,0,165,0.84,-2.66,0.14,0.19,0.99,-0.01
0.17480469,0.0016844925,-2.1066889E-4,0.003332919,0.19,0.99,-0.01,23623,9970.30,0,0,0,0.91,-2.66,0.14,0.19,0.99,-0.01
1.0751953,6.8449136E-4,-2.1066889E-4,0.005332919,0.19,0.99,-0.01,23637,9971.20,0,0,165,0.84,-2.66,0.28,0.19,0.99,-0.01
-0.8251953,6.8449136E-4,-2.1066889E-4,0.0023329188,0.18,0.99,-0.01,23653,9969.30,0,0,0,0.84,-2.66,0.07,0.18,0.99,-0.01
0.17480469,6.8449136E-4,-2.1066889E-4,0.0013329188,0.19,0.99,-0.01,23660,9970.30,0,0,165,0.84,-2.66,0.00,0.19,0.99,-0.01
0.47460938,-3.1550787E-4,-2.1066889E-4,0.0023329188,0.19,0.99,-0.01,23675,9970.60,0,0,0,0.77,-2.66,0.07,0.19,0.99,-0.01
-0.8251953,-3.1550787E-4,7.8933313E-4,3.3291872E-4,0.19,0.99,-0.01,23690,9969.30,0,0,165,0.77,-2.59,-0.07,0.19,0.99,-0.01
-0.8251953,0.0016844925,7.8933313E-4,0.0023329188,0.19,0.99,-0.01,23697,9969.30,0,0,0,0.91,-2.59,0.07,0.19,0.99,-0.01
0.17480469,6.8449136E-4,-2.1066889E-4,0.0043329187,0.19,0.99,-0.01,23712,9970.30,0,0,165,0.84,-2.66,0.21,0.19,0.99,-0.01
-0.8251953,0.0016844925,7.8933313E-4,0.0023329188,0.19,0.99,-0.01,23727,9969.30,0,0,0,0.91,-2.59,0.07,0.19,0.99,-0.01
-0.8251953,-0.001315508,-0.0012106672,-0.001667081,0.19,0.99,-0.01,23734,9969.30,0,0,165,0.70,-2.73,-0.21,0.19,0.99,-0.01
-0.8251953,6.8449136E-4,7.8933313E-4,3.3291872E-4,0.19,0.99,-0.01,23749,9969.30,0,0,0,0.84,-2.59,-0.07,0.19,0.99,-0.01
0.47460938,-0.001315508,7.8933313E-4,-0.001667081,0.18,0.99,-0.01,23765,9970.60,0,0,165,0.70,-2.59,-0.21,0.18,0.99,-0.01
-0.8251953,0.0016844925,7.8933313E-4,0.0023329188,0.19,0.99,-0.01,23772,9969.30,0,0,0,0.91,-2.59,0.07,0.19,0.99,-0.01
0.17480469,-3.1550787E-4,-0.0012106672,0.003332919,0.19,0.99,-0.01,23787,9970.30,0,0,165,0.77,-2.73,0.14,0.19,0.99,-0.01
0.17480469,6.8449136E-4,-2.1066889E-4,0.003332919,0.18,0.99,-0.01,23802,9970.30,0,0,0,0.84,-2.66,0.14,0.18,0.99,-0.01
-0.8251953,0.0016844925,-2.1066889E-4,0.003332919,0.19,0.99,-0.01,23811,9969.30,0,0,165,0.91,-2.66,0.14,0.19,0.99,-0.01
0.17480469,0.0016844925,7.8933313E-4,0.005332919,0.19,0.99,-0.01,23824,9970.30,0,0,0,0.91,-2.59,0.28,0.19,0.99,-0.01
0.17480469,6.8449136E-4,-2.1066889E-4,0.0023329188,0.18,0.99,-0.01,23840,9970.30,0,0,165,0.84,-2.66,0.07,0.18,0.99,-0.01
0.17480469,-3.1550787E-4,7.8933313E-4,-6.6708133E-4,0.19,0.99,-0.01,23848,9970.30,0,0,0,0.77,-2.59,-0.14,0.19,0.99,-0.01
0.17480469,6.8449136E-4,-2.1066889E-4,0.2563329,0.19,0.99,-0.01,23862,9970.30,0,0,165,0.84,-2.66,17.85,0.19,0.99,-0.01
-1.8251953,-0.001315508,7.8933313E-4,3.3291872E-4,0.19,0.99,-0.01,23878,9968.30,0,0,0,0.70,-2.59,-0.07,0.19,0.99,-0.01
0.47460938,-3.1550787E-4,7.8933313E-4,0.0023329188,0.19,0.99,-0.01,23885,9970.60,0,0,165,0.77,-2.59,0.07,0.19,0.99,-0.01
0.17480469,-0.001315508,-0.0012106672,0.0013329188,0.19,0.99,-0.01,23899,9970.30,0,0,0,0.70,-2.73,0.00,0.19,0.99,-0.01
0.17480469,0.0016844925,0.0017893352,0.0023329188,0.18,0.99,-0.01,23915,9970.30,0,0,165,0.91,-2.52,0.07,0.18,0.99,-0.01
0.17480469,-3.1550787E-4,-0.0012106672,0.0013329188,0.18,0.99,-0.01,23922,9970.30,0,0,0,0.77,-2.73,0.00,0.18,0.99,-0.01
0.17480469,-0.001315508,-0.0012106672,3.3291872E-4,0.18,0.99,-0.01,23937,9970.30,0,0,165,0.70,-2.73,-0.07,0.18,0.99,-0.01
-0.8251953,-3.1550787E-4,7.8933313E-4,0.003332919,0.19,0.99,-0.01,23952,9969.30,0,0,0,0.77,-2.59,0.14,0.19,0.99,-0.01
-0.8251953,0.0016844925,-2.1066889E-4,0.003332919,0.19,0.99,-0.01,23959,9969.30,0,0,165,0.91,-2.66,0.14,0.19,0.99,-0.01
-0.8251953,-0.001315508,-0.0012106672,0.003332919,0.18,0.99,-0.01,23976,9969.30,0,0,0,0.70,-2.73,0.14,0.18,0.99,-0.01
0.17480469,-3.1550787E-4,-2.1066889E-4,0.003332919,0.19,0.99,-0.01,23990,9970.30,0,0,165,0.77,-2.66,0.14,0.19,0.99,-0.01
0.17480469,-3.1550787E-4,-2.1066889E-4,0.0013329188,0.19,0.99,-0.01,23997,9970.30,0,0,0,0.77,-2.66,0.00,0.19,0.99,-0.01
-0.8251953,-0.001315508,-2.1066889E-4,0.0023329188,0.19,0.99,-0.01,24012,9969.30,0,0,165,0.70,-2.66,0.07,0.19,0.99,-0.01
-0.8251953,6.8449136E-4,-2.1066889E-4,0.0023329188,0.18,0.99,-0.01,24028,9969.30,0,0,0,0.84,-2.66,0.07,0.18,0.99,-0.01
-0.8251953,6.8449136E-4,-2.1066889E-4,0.0023329188,0.19,0.99,-0.01,24035,9969.30,0,0,165,0.84,-2.66,0.07,0.19,0.99,-0.01
-0.5253906,0.0016844925,-2.1066889E-4,0.0013329188,0.19,0.99,-0.01,24050,9969.60,0,0,0,0.91,-2.66,0.00,0.19,0.99,-0.01
0.17480469,6.8449136E-4,-2.1066889E-4,0.0013329188,0.18,0.99,-0.01,24065,9970.30,0,0,165,0.84,-2.66,0.00,0.18,0.99,-0.01
0.17480469,0.0016844925,7.8933313E-4,0.0023329188,0.19,0.99,-0.01,24072,9970.30,0,0,0,0.91,-2.59,0.07,0.19,0.99,-0.01
1.0751953,-0.001315508,-2.1066889E-4,0.0013329188,0.19,0.99,-0.01,24088,9971.20,0,0,165,0.70,-2.66,0.00,0.19,0.99,-0.01
-0.5253906,6.8449136E-4,0.0017893352,0.0013329188,0.19,0.99,-0.01,24102,9969.60,0,0,0,0.84,-2.52,0.00,0.19,0.99,-0.01
0.17480469,-0.001315508,-2.1066889E-4,0.0023329188,0.18,0.99,-0.01,24110,9970.30,0,0,165,0.70,-2.66,0.07,0.18,0.99,-0.01
0.17480469,-0.001315508,7.8933313E-4,3.3291872E-4,0.19,0.99,-0.01,24124,9970.30,0,0,0,0.70,-2.59,-0.07,0.19,0.99,-0.01
-0.5253906,-3.1550787E-4,-2.1066889E-4,-6.6708133E-4,0.19,0.99,-0.01,24139,9969.60,0,0,165,0.77,-2.66,-0.14,0.19,0.99,-0.01
-0.5253906,-0.0023155082,-2.1066889E-4,-6.6708133E-4,0.18,0.99,-0.01,24147,9969.60,0,0,0,0.63,-2.66,-0.14,0.18,0.99,-0.01
0.17480469,-0.001315508,-0.0012106672,0.0013329188,0.18,0.99,-0.01,24162,9970.30,0,0,165,0.70,-2.73,0.00,0.18,0.99,-0.01
-0.8251953,-3.1550787E-4,-2.1066889E-4,3.3291872E-4,0.18,0.99,-0.01,24178,9969.30,0,0,0,0.77,-2.66,-0.07,0.18,0.99,-0.01
0.17480469,6.8449136E-4,7.8933313E-4,0.0023329188,0.19,0.99,-0.01,24184,9970.30,0,0,165,0.84,-2.59,0.07,0.19,0.99,-0.01
0.17480469,-3.1550787E-4,-2.1066889E-4,0.003332919,0.19,0.99,-0.01,24200,9970.30,0,0,0,0.77,-2.66,0.14,0.19,0.99,-0.01
1.0751953,-3.1550787E-4,-0.0012106672,0.003332919,0.19,0.99,-0.0,24215,9971.20,0,0,165,0.77,-2.73,0.14,0.19,0.99,-0.00
0.47460938,-3.1550787E-4,7.8933313E-4,0.0023329188,0.19,0.99,-0.01,24222,9970.60,0,0,0,0.77,-2.59,0.07,0.19,0.99,-0.01
-0.8251953,-3.1550787E-4,-2.1066889E-4,0.003332919,0.19,0.99,-0.01,24237,9969.30,0,0,165,0.77,-2.66,0.14,0.19,0.99,-0.01
0.17480469,6.8449136E-4,-2.1066889E-4,0.003332919,0.18,0.99,-0.01,24252,9970.30,0,0,0,0.84,-2.66,0.14,0.18,0.99,-0.01
-0.8251953,0.0016844925,-2.1066889E-4,3.3291872E-4,0.19,0.99,-0.01,24260,9969.30,0,0,165,0.91,-2.66,-0.07,0.19,0.99,-0.01
0.17480469,6.8449136E-4,7.8933313E-4,0.0013329188,0.19,0.99,-0.01,24275,9970.30,0,0,0,0.84,-2.59,0.00,0.19,0.99,-0.01
-0.5253906,6.8449136E-4,-2.1066889E-4,0.0023329188,0.19,0.99,-0.01,24290,9969.60,0,0,165,0.84,-2.66,0.07,0.19,0.99,-0.01
0.17480469,-3.1550787E-4,-2.1066889E-4,0.0013329188,0.19,0.99,-0.01,24297,9970.30,0,0,0,0.77,-2.66,0.00,0.19,0.99,-0.01
-0.8251953,6.8449136E-4,7.8933313E-4,0.0013329188,0.19,0.99,-0.01,24313,9969.30,0,0,165,0.84,-2.59,0.00,0.19,0.99,-0.01
-0.8251953,-0.001315508,0.0017893352,3.3291872E-4,0.18,0.99,-0.01,24327,9969.30,0,0,0,0.70,-2.52,-0.07,0.18,0.99,-0.01
0.17480469,6.8449136E-4,-2.1066889E-4,3.3291872E-4,0.18,0.99,-0.01,24334,9970.30,0,0,165,0.84,-2.66,-0.07,0.18,0.99,-0.01
0.17480469,-3.1550787E-4,-2.1066889E-4,3.3291872E-4,0.19,0.99,-0.01,24350,9970.30,0,0,0,0.77,-2.66,-0.07,0.19,0.99,-0.01
-0.8251953,6.8449136E-4,7.8933313E-4,0.0013329188,0.19,0.99,-0.01,24365,9969.30,0,0,165,0.84,-2.59,0.00,0.19,0.99,-0.01
0.17480469,6.8449136E-4,-2.1066889E-4,0.003332919,0.18,1.0,-0.01,24372,9970.30,0,0,0,0.84,-2.66,0.14,0.18,1.00,-0.01
-1.125,6.8449136E-4,7.8933313E-4,0.005332919,0.19,0.99,-0.01,24387,9969.00,0,0,165,0.84,-2.59,0.28,0.19,0.99,-0.01
0.47460938,-3.1550787E-4,-2.1066889E-4,0.005332919,0.19,0.99,-0.01,24402,9970.60,0,0,0,0.77,-2.66,0.28,0.19,0.99,-0.01
-0.8251953,6.8449136E-4,-2.1066889E-4,0.003332919,0.19,0.99,-0.01,24411,9969.30,0,0,165,0.84,-2.66,0.14,0.19,0.99,-0.01
0.17480469,6.8449136E-4,-0.0012106672,0.0013329188,0.19,0.99,-0.01,24425,9970.30,0,0,0,0.84,-2.73,0.00,0.19,0.99,-0.01
-0.8251953,-0.001315508,-0.0012106672,0.0013329188,0.19,0.99,-0.01,24440,9969.30,0,0,165,0.70,-2.73,0.00,0.19,0.99,-0.01
0.47460938,6.8449136E-4,7.8933313E-4,0.0023329188,0.19,0.99,-0.01,24447,9970.60,0,0,0,0.84,-2.59,0.07,0.19,0.99,-0.01
0.17480469,6.8449136E-4,-2.1066889E-4,0.0013329188,0.19,0.99,-0.01,24462,9970.30,0,0,165,0.84,-2.66,0.00,0.19,0.99,-0.01
-0.8251953,-3.1550787E-4,-0.0012106672,-0.001667081,0.19,0.99,-0.01,24478,9969.30,0,0,0,0.77,-2.73,-0.21,0.19,0.99,-0.01
0.17480469,-3.1550787E-4,0.0017893352,0.0013329188,0.19,0.99,-0.01,24485,9970.30,0,0,165,0.77,-2.52,0.00,0.19,0.99,-0.01
-0.8251953,-0.001315508,-2.1066889E-4,0.0023329188,0.19,0.99,-0.01,24500,9969.30,0,0,0,0.70,-2.66,0.07,0.19,0.99,-0.01
-0.8251953,6.8449136E-4,0.0017893352,0.0013329188,0.19,0.99,-0.0,24514,9969.30,0,0,165,0.84,-2.52,0.00,0.19,0.99,-0.00
-0.5253906,-3.1550787E-4,-2.1066889E-4,0.0023329188,0.19,0.99,-0.01,24522,9969.60,0,0,0,0.77,-2.66,0.07,0.19,0.99,-0.01
1.0751953,-3.1550787E-4,-2.1066889E-4,3.3291872E-4,0.19,0.99,-0.01,24537,9971.20,0,0,165,0.77,-2.66,-0.07,0.19,0.99,-0.01
-0.8251953,-3.1550787E-4,0.0017893352,0.003332919,0.18,0.99,-0.01,24552,9969.30,0,0,0,0.77,-2.52,0.14,0.18,0.99,-0.01
-0.8251953,-3.1550787E-4,-2.1066889E-4,0.0043329187,0.19,0.99,-0.01,24559,9969.30,0,0,165,0.77,-2.66,0.21,0.19,0.99,-0.01
0.17480469,0.0026844926,7.8933313E-4,0.003332919,0.19,0.99,-0.01,24575,9970.30,0,0,0,0.98,-2.59,0.14,0.19,0.99,-0.01
-0.8251953,6.8449136E-4,-2.1066889E-4,0.0043329187,0.19,0.99,-0.01,24590,9969.30,0,0,165,0.84,-2.66,0.21,0.19,0.99,-0.01
0.17480469,6.8449136E-4,0.0017893352,0.0023329188,0.19,0.99,-0.01,24597,9970.30,0,0,0,0.84,-2.52,0.07,0.19,0.99,-0.01
0.47460938,0.0016844925,-2.1066889E-4,3.3291872E-4,0.19,0.99,-0.01,24612,9970.60,0,0,165,0.91,-2.66,-0.07,0.19,0.99,-0.01
0.17480469,-3.1550787E-4,-2.1066889E-4,3.3291872E-4,0.18,0.99,-0.01,24627,9970.30,0,0,0,0.77,-2.66,-0.07,0.18,0.99,-0.01
1.0751953,0.0026844926,7.8933313E-4,3.3291872E-4,0.19,0.99,-0.01,24634,9971.20,0,0,165,0.98,-2.59,-0.07,0.19,0.99,-0.01
0.47460938,6.8449136E-4,-2.1066889E-4,0.0013329188,0.18,0.99,-0.01,24650,9970.60,0,0,0,0.84,-2.66,0.00,0.18,0.99,-0.01
-0.8251953,-3.1550787E-4,-2.1066889E-4,3.3291872E-4,0.19,0.99,-0.01,24665,9969.30,0,0,165,0.77,-2.66,-0.07,0.19,0.99,-0.01
0.17480469,6.8449136E-4,7.8933313E-4,3.3291872E-4,0.19,0.99,-0.01,24672,9970.30,0,0,0,0.84,-2.59,-0.07,0.19,0.99,-0.01
-0.8251953,6.8449136E-4,7.8933313E-4,0.0013329188,0.18,0.99,-0.01,24687,9969.30,0,0,165,0.84,-2.59,0.00,0.18,0.99,-0.01
-0.8251953,-3.1550787E-4,7.8933313E-4,0.0013329188,0.19,0.99,-0.01,24703,9969.30,0,0,0,0.77,-2.59,0.00,0.19,0.99,-0.01
-0.5253906,6.8449136E-4,7.8933313E-4,0.0023329188,0.18,0.99,-0.01,24711,9969.60,0,0,165,0.84,-2.59,0.07,0.18,0.99,-0.01
0.17480469,-3.1550787E-4,7.8933313E-4,3.3291872E-4,0.18,0.99,-0.01,24725,9970.30,0,0,0,0.77,-2.59,-0.07,0.18,0.99,-0.01
-0.8251953,-3.1550787E-4,-2.1066889E-4,-6.6708133E-4,0.19,0.99,-0.01,24739,9969.30,0,0,165,0.77,-2.66,-0.14,0.19,0.99,-0.01
-0.8251953,6.8449136E-4,7.8933313E-4,0.0023329188,0.19,0.99,-0.01,24748,9969.30,0,0,0,0.84,-2.59,0.07,0.19,0.99,-0.01
0.17480469,-3.1550787E-4,-2.1066889E-4,0.0023329188,0.18,1.0,-0.01,24762,9970.30,0,0,165,0.77,-2.66,0.07,0.18,1.00,-0.01
-0.8251953,6.8449136E-4,-2.1066889E-4,0.0013329188,0.18,0.99,-0.01,24778,9969.30,0,0,0,0.84,-2.66,0.00,0.18,0.99,-0.01
0.47460938,-3.1550787E-4,-2.1066889E-4,0.0043329187,0.19,0.99,-0.01,24785,9970.60,0,0,165,0.77,-2.66,0.21,0.19,0.99,-0.01
-0.8251953,6.8449136E-4,7.8933313E-4,0.003332919,0.19,0.99,-0.01,24800,9969.30,0,0,0,0.84,-2.59,0.14,0.19,0.99,-0.01
-0.22460938,6.8449136E-4,-2.1066889E-4,0.0023329188,0.19,0.99,-0.01,24807,9969.90,0,0,165,0.84,-2.66,0.07,0.19,0.99,-0.01
0.47460938,-3.1550787E-4,-2.1066889E-4,0.0013329188,0.19,0.99,-0.01,24822,9970.60,0,0,0,0.77,-2.66,0.00,0.19,0.99,-0.01
-0.8251953,-3.1550787E-4,-2.1066889E-4,-6.6708133E-4,0.19,0.99,-0.01,24837,9969.30,0,0,165,0.77,-2.66,-0.14,0.19,0.99,-0.01
-0.22460938,-0.001315508,-0.0012106672,3.3291872E-4,0.19,0.99,-0.01,24845,9969.90,0,0,0,0.70,-2.73,-0.07,0.19,0.99,-0.01
-0.8251953,-3.1550787E-4,-2.1066889E-4,3.3291872E-4,0.18,0.99,-0.01,24860,9969.30,0,0,165,0.77,-2.66,-0.07,0.18,0.99,-0.01
-0.8251953,-0.001315508,-2.1066889E-4,0.0043329187,0.19,0.99,-0.01,24874,9969.30,0,0,0,0.70,-2.66,0.21,0.19,0.99,-0.01
0.17480469,0.0016844925,7.8933313E-4,0.0023329188,0.19,0.99,-0.01,24882,9970.30,0,0,165,0.91,-2.59,0.07,0.19,0.99,-0.01
0.17480469,6.8449136E-4,7.8933313E-4,0.0023329188,0.19,0.99,-0.01,24898,9970.30,0,0,0,0.84,-2.59,0.07,0.19,0.99,-0.01
0.17480469,-3.1550787E-4,-2.1066889E-4,0.0023329188,0.19,0.99,-0.01,24912,9970.30,0,0,165,0.77,-2.66,0.07,0.19,0.99,-0.01
0.17480469,-3.1550787E-4,7.8933313E-4,0.0023329188,0.19,0.99,-0.01,24920,9970.30,0,0,0,0.77,-2.59,0.07,0.19,0.99,-0.01
-0.8251953,6.8449136E-4,-2.1066889E-4,-6.6708133E-4,0.18,0.99,-0.01,24935,9969.30,0,0,165,0.84,-2.66,-0.14,0.18,0.99,-0.01
0.47460938,-3.1550787E-4,-0.0012106672,0.0013329188,0.18,0.99,-0.01,24950,9970.60,0,0,0,0.77,-2.73,0.00,0.18,0.99,-0.01
1.0751953,0.0016844925,-2.1066889E-4,0.0043329187,0.19,0.99,-0.01,24957,9971.20,0,0,165,0.91,-2.66,0.21,0.19,0.99,-0.01
-0.5253906,0.0016844925,-2.1066889E-4,0.0043329187,0.19,0.99,-0.01,24972,9969.60,0,0,0,0.91,-2.66,0.21,0.19,0.99,-0.01
0.17480469,6.8449136E-4,-0.0012106672,0.003332919,0.19,0.99,-0.01,24987,9970.30,0,0,165,0.84,-2.73,0.14,0.19,0.99,-0.01
0.17480469,-3.1550787E-4,7.8933313E-4,0.0023329188,0.19,0.99,-0.01,24995,9970.30,0,0,0,0.77,-2.59,0.07,0.19,0.99,-0.01
-0.5253906,6.8449136E-4,-0.0012106672,3.3291872E-4,0.19,0.99,-0.01,25010,9969.60,0,0,165,0.84,-2.73,-0.07,0.19,0.99,-0.01
0.17480469,6.8449136E-4,-2.1066889E-4,0.0023329188,0.19,0.99,-0.01,25025,9970.30,0,0,0,0.84,-2.66,0.07,0.19,0.99,-0.01
0.17480469,-3.1550787E-4,-2.1066889E-4,3.3291872E-4,0.18,0.99,-0.01,25033,9970.30,0,0,165,0.77,-2.66,-0.07,0.18,0.99,-0.01
0.47460938,-3.1550787E-4,7.8933313E-4,0.0023329188,0.19,0.99,-0.01,25048,9970.60,0,0,0,0.77,-2.59,0.07,0.19,0.99,-0.01
0.17480469,-3.1550787E-4,-2.1066889E-4,0.003332919,0.19,0.99,-0.01,25062,9970.30,0,0,165,0.77,-2.66,0.14,0.19,0.99,-0.01
0.17480469,6.8449136E-4,7.8933313E-4,0.003332919,0.19,0.99,-0.01,25069,9970.30,0,0,0,0.84,-2.59,0.14,0.19,0.99,-0.01
0.47460938,6.8449136E-4,-2.1066889E-4,0.0023329188,0.19,0.99,-0.01,25085,9970.60,0,0,165,0.84,-2.66,0.07,0.19,0.99,-0.01
0.47460938,-3.1550787E-4,-2.1066889E-4,3.3291872E-4,0.19,0.99,-0.01,25100,9970.60,0,0,0,0.77,-2.66,-0.07,0.19,0.99,-0.01
0.47460938,-3.1550787E-4,7.8933313E-4,-6.6708133E-4,0.19,0.99,-0.01,25107,9970.60,0,0,165,0.77,-2.59,-0.14,0.19,0.99,-0.01
1.0751953,-0.001315508,-2.1066889E-4,-6.6708133E-4,0.19,0.99,-0.01,25122,9971.20,0,0,0,0.70,-2.66,-0.14,0.19,0.99,-0.01
-0.8251953,-3.1550787E-4,-2.1066889E-4,0.003332919,0.19,0.99,-0.01,25138,9969.30,0,0,165,0.77,-2.66,0.14,0.19,0.99,-0.01
-0.8251953,0.0016844925,-0.0012106672,0.0063329185,0.19,0.99,-0.01,25145,9969.30,0,0,0,0.91,-2.73,0.35,0.19,0.99,-0.01
0.17480469,-3.1550787E-4,-2.1066889E-4,0.003332919,0.19,0.99,-0.01,25160,9970.30,0,0,165,0.77,-2.66,0.14,0.19,0.99,-0.01
-0.8251953,-3.1550787E-4,-0.0022106655,0.0023329188,0.19,0.99,-0.01,25175,9969.30,0,0,0,0.77,-2.80,0.07,0.19,0.99,-0.01
0.47460938,-3.1550787E-4,-0.0022106655,0.0013329188,0.19,0.99,-0.01,25182,9970.60,0,0,165,0.77,-2.80,0.00,0.19,0.99,-0.01
0.17480469,6.8449136E-4,0.0017893352,3.3291872E-4,0.18,0.99,-0.01,25197,9970.30,0,0,0,0.84,-2.52,-0.07,0.18,0.99,-0.01
0.47460938,-3.1550787E-4,-2.1066889E-4,0.0013329188,0.19,0.99,-0.01,25212,9970.60,0,0,165,0.77,-2.66,0.00,0.19,0.99,-0.01
0.17480469,-3.1550787E-4,-2.1066889E-4,0.0013329188,0.19,0.99,-0.01,25219,9970.30,0,0,0,0.77,-2.66,0.00,0.19,0.99,-0.01
0.17480469,-3.1550787E-4,-2.1066889E-4,0.0023329188,0.19,0.99,-0.01,25234,9970.30,0,0,165,0.77,-2.66,0.07,0.19,0.99,-0.01
-0.8251953,0.0016844925,-2.1066889E-4,0.0043329187,0.19,0.99,-0.01,25250,9969.30,0,0,0,0.91,-2.66,0.21,0.19,0.99,-0.01
0.17480469,0.0016844925,7.8933313E-4,0.0023329188,0.19,0.99,-0.01,25257,9970.30,0,0,165,0.91,-2.59,0.07,0.19,0.99,-0.01
0.17480469,0.0016844925,-2.1066889E-4,0.0013329188,0.19,0.99,-0.01,25272,9970.30,0,0,0,0.91,-2.66,0.00,0.19,0.99,-0.01
0.47460938,-3.1550787E-4,-2.1066889E-4,-6.6708133E-4,0.19,0.99,-0.01,25287,9970.60,0,0,165,0.77,-2.66,-0.14,0.19,0.99,-0.01
-0.8251953,-3.1550787E-4,-2.1066889E-4,3.3291872E-4,0.19,0.99,-0.01,25295,9969.30,0,0,0,0.77,-2.66,-0.07,0.19,0.99,-0.01
0.47460938,-3.1550787E-4,7.8933313E-4,3.3291872E-4,0.19,0.99,-0.01,25310,9970.60,0,0,165,0.77,-2.59,-0.07,0.19,0.99,-0.01
-0.8251953,6.8449136E-4,-2.1066889E-4,-6.6708133E-4,0.19,0.99,-0.01,25325,9969.30,0,0,0,0.84,-2.66,-0.14,0.19,0.99,-0.01
0.47460938,-3.1550787E-4,-2.1066889E-4,0.0023329188,0.19,0.99,-0.01,25332,9970.60,0,0,165,0.77,-2.66,0.07,0.19,0.99,-0.01
-0.8251953,6.8449136E-4,7.8933313E-4,0.003332919,0.19,0.99,-0.01,25348,9969.30,0,0,0,0.84,-2.59,0.14,0.19,0.99,-0.01
1.4746094,-0.001315508,-0.0012106672,0.0013329188,0.18,0.99,-0.01,25362,9971.60,0,0,165,0.70,-2.73,0.00,0.18,0.99,-0.01
0.47460938,0.0016844925,7.8933313E-4,0.005332919,0.19,0.99,-0.01,25370,9970.60,0,0,0,0.91,-2.59,0.28,0.19,0.99,-0.01
0.47460938,6.8449136E-4,-0.0012106672,0.0023329188,0.18,0.99,-0.01,25385,9970.60,0,0,165,0.84,-2.73,0.07,0.18,0.99,-0.01
-0.8251953,6.8449136E-4,7.8933313E-4,0.0023329188,0.18,0.99,-0.01,25400,9969.30,0,0,0,0.84,-2.59,0.07,0.18,0.99,-0.01
-0.5253906,0.0016844925,7.8933313E-4,0.0013329188,0.19,0.99,-0.01,25407,9969.60,0,0,165,0.91,-2.59,0.00,0.19,0.99,-0.01
0.17480469,-0.001315508,7.8933313E-4,0.0013329188,0.19,0.99,-0.01,25422,9970.30,0,0,0,0.70,-2.59,0.00,0.19,0.99,-0.01
-0.5253906,0.0016844925,7.8933313E-4,0.0013329188,0.19,0.99,-0.01,25437,9969.60,0,0,165,0.91,-2.59,0.00,0.19,0.99,-0.01
0.17480469,6.8449136E-4,7.8933313E-4,0.003332919,0.19,0.99,-0.01,25445,9970.30,0,0,0,0.84,-2.59,0.14,0.19,0.99,-0.01
0.17480469,-0.001315508,-0.0012106672,0.0013329188,0.19,0.99,-0.01,25460,9970.30,0,0,165,0.70,-2.73,0.00,0.19,0.99,-0.01
-0.8251953,6.8449136E-4,0.0017893352,0.0023329188,0.19,0.99,-0.01,25476,9969.30,0,0,0,0.84,-2.52,0.07,0.19,0.99,-0.01
0.47460938,6.8449136E-4,7.8933313E-4,3.3291872E-4,0.19,0.99,-0.01,25482,9970.60,0,0,165,0.84,-2.59,-0.07,0.19,0.99,-0.01
0.17480469,-3.1550787E-4,0.0017893352,-0.001667081,0.19,0.99,-0.01,25497,9970.30,0,0,0,0.77,-2.52,-0.21,0.19,0.99,-0.01
0.47460938,-3.1550787E-4,7.8933313E-4,0.0013329188,0.19,0.99,-0.01,25512,9970.60,0,0,165,0.77,-2.59,0.00,0.19,0.99,-0.01
0.47460938,0.0016844925,-0.0012106672,0.003332919,0.19,0.99,-0.01,25520,9970.60,0,0,0,0.91,-2.73,0.14,0.19,0.99,-0.01
-0.8251953,6.8449136E-4,-0.0012106672,0.0043329187,0.19,0.99,-0.01,25535,9969.30,0,0,165,0.84,-2.73,0.21,0.19,0.99,-0.01
1.0751953,-3.1550787E-4,-0.0012106672,0.0043329187,0.19,0.99,-0.01,25550,9971.20,0,0,0,0.77,-2.73,0.21,0.19,0.99,-0.01
-0.5253906,6.8449136E-4,7.8933313E-4,0.003332919,0.19,0.99,-0.01,25557,9969.60,0,0,165,0.84,-2.59,0.14,0.19,0.99,-0.01
0.47460938,-0.001315508,7.8933313E-4,0.0013329188,0.19,0.99,-0.01,25572,9970.60,0,0,0,0.70,-2.59,0.00,0.19,0.99,-0.01
-0.8251953,6.8449136E-4,7.8933313E-4,0.0013329188,0.19,0.99,-0.01,25587,9969.30,0,0,165,0.84,-2.59,0.00,0.19,0.99,-0.01
-0.5253906,6.8449136E-4,7.8933313E-4,0.0023329188,0.19,0.99,-0.01,25595,9969.60,0,0,0,0.84,-2.59,0.07,0.19,0.99,-0.01
-0.5253906,-3.1550787E-4,-2.1066889E-4,3.3291872E-4,0.19,0.99,-0.01,25610,9969.60,0,0,165,0.77,-2.66,-0.07,0.19,0.99,-0.01
-0.5253906,-3.1550787E-4,-2.1066889E-4,0.003332919,0.18,0.99,-0.01,25625,9969.60,0,0,0,0.77,-2.66,0.14,0.18,0.99,-0.01
0.47460938,0.0016844925,0.0017893352,0.0063329185,0.19,0.99,-0.01,25633,9970.60,0,0,165,0.91,-2.52,0.35,0.19,0.99,-0.01
-0.5253906,-3.1550787E-4,7.8933313E-4,0.003332919,0.19,0.99,-0.01,25647,9969.60,0,0,0,0.77,-2.59,0.14,0.19,0.99,-0.01
-0.8251953,-3.1550787E-4,-0.0012106672,3.3291872E-4,0.19,0.99,-0.01,25662,9969.30,0,0,165,0.77,-2.73,-0.07,0.19,0.99,-0.01
-0.8251953,-3.1550787E-4,-2.1066889E-4,0.0013329188,0.19,0.99,-0.01,25670,9969.30,0,0,0,0.77,-2.66,0.00,0.19,0.99,-0.01
0.17480469,-0.001315508,7.8933313E-4,-6.6708133E-4,0.19,0.99,-0.01,25685,9970.30,0,0,165,0.70,-2.59,-0.14,0.19,0.99,-0.01
-0.8251953,0.0016844925,7.8933313E-4,-6.6708133E-4,0.19,0.99,-0.01,25699,9969.30,0,0,0,0.91,-2.59,-0.14,0.19,0.99,-0.01
0.47460938,-0.0023155082,-2.1066889E-4,0.0013329188,0.18,0.99,-0.01,25707,9970.60,0,0,165,0.63,-2.66,0.00,0.18,0.99,-0.01
0.17480469,-3.1550787E-4,-2.1066889E-4,0.003332919,0.19,0.99,-0.01,25723,9970.30,0,0,0,0.77,-2.66,0.14,0.19,0.99,-0.01
-0.8251953,-0.001315508,-0.0012106672,0.0023329188,0.19,0.99,-0.01,25737,9969.30,0,0,165,0.70,-2.73,0.07,0.19,0.99,-0.01
0.17480469,-3.1550787E-4,7.8933313E-4,0.0043329187,0.18,0.99,-0.01,25744,9970.30,0,0,0,0.77,-2.59,0.21,0.18,0.99,-0.01
0.17480469,-3.1550787E-4,-2.1066889E-4,0.003332919,0.19,0.99,-0.01,25762,9970.30,0,0,165,0.77,-2.66,0.14,0.19,0.99,-0.01
-0.5253906,-3.1550787E-4,-2.1066889E-4,3.3291872E-4,0.18,0.99,-0.01,25775,9969.60,0,0,0,0.77,-2.66,-0.07,0.18,0.99,-0.01
0.47460938,-3.1550787E-4,0.0017893352,0.0023329188,0.18,0.99,-0.01,25789,9970.60,0,0,165,0.77,-2.52,0.07,0.18,0.99,-0.01
0.17480469,-0.001315508,7.8933313E-4,0.0013329188,0.19,0.99,-0.01,25797,9970.30,0,0,0,0.70,-2.59,0.00,0.19,0.99,-0.01
0.17480469,6.8449136E-4,7.8933313E-4,-6.6708133E-4,0.19,0.99,-0.01,25812,9970.30,0,0,165,0.84,-2.59,-0.14,0.19,0.99,-0.01
0.17480469,6.8449136E-4,-0.0012106672,0.0013329188,0.18,0.99,-0.01,25819,9970.30,0,0,0,0.84,-2.73,0.00,0.18,0.99,-0.01
0.47460938,6.8449136E-4,-2.1066889E-4,0.0023329188,0.19,0.99,-0.01,25835,9970.60,0,0,165,0.84,-2.66,0.07,0.19,0.99,-0.01
0.47460938,0.0016844925,7.8933313E-4,0.0023329188,0.19,0.99,-0.01,25843,9970.60,0,0,0,0.91,-2.59,0.07,0.19,0.99,-0.01
-0.5253906,-3.1550787E-4,-0.0012106672,0.0013329188,0.19,0.99,-0.01,25857,9969.60,0,0,165,0.77,-2.73,0.00,0.19,0.99,-0.01
-0.5253906,-3.1550787E-4,-0.0012106672,-6.6708133E-4,0.19,0.99,-0.01,25872,9969.60,0,0,0,0.77,-2.73,-0.14,0.19,0.99,-0.01
-0.8251953,-3.1550787E-4,7.8933313E-4,3.3291872E-4,0.19,0.99,-0.01,25880,9969.30,0,0,165,0.77,-2.59,-0.07,0.19,0.99,-0.01
0.47460938,-3.1550787E-4,7.8933313E-4,3.3291872E-4,0.18,0.99,-0.01,25895,9970.60,0,0,0,0.77,-2.59,-0.07,0.18,0.99,-0.01
0.17480469,-3.1550787E-4,-2.1066889E-4,3.3291872E-4,0.18,0.99,-0.01,25910,9970.30,0,0,165,0.77,-2.66,-0.07,0.18,0.99,-0.01
0.17480469,0.0016844925,-2.1066889E-4,0.003332919,0.18,0.99,-0.01,25918,9970.30,0,0,0,0.91,-2.66,0.14,0.18,0.99,-0.01
-0.5253906,0.0016844925,-2.1066889E-4,0.0043329187,0.19,0.99,-0.01,25933,9969.60,0,0,165,0.91,-2.66,0.21,0.19,0.99,-0.01
0.17480469,6.8449136E-4,7.8933313E-4,0.003332919,0.19,0.99,-0.01,25948,9970.30,0,0,0,0.84,-2.59,0.14,0.19,0.99,-0.01
0.47460938,6.8449136E-4,-2.1066889E-4,0.003332919,0.19,0.99,-0.01,25955,9970.60,0,0,165,0.84,-2.66,0.14,0.19,0.99,-0.01
-2.4248047,6.8449136E-4,7.8933313E-4,0.0013329188,0.19,0.99,-0.01,25970,9967.70,0,0,0,0.84,-2.59,0.00,0.19,0.99,-0.01
-0.5253906,-3.1550787E-4,7.8933313E-4,-6.6708133E-4,0.18,0.99,-0.01,25985,9969.60,0,0,165,0.77,-2.59,-0.14,0.18,0.99,-0.01
-0.5253906,6.8449136E-4,7.8933313E-4,3.3291872E-4,0.19,0.99,-0.01,25993,9969.60,0,0,0,0.84,-2.59,-0.07,0.19,0.99,-0.01
-0.8251953,6.8449136E-4,-2.1066889E-4,0.0013329188,0.19,0.99,-0.01,26007,9969.30,0,0,165,0.84,-2.66,0.00,0.19,0.99,-0.01
-0.8251953,6.8449136E-4,-2.1066889E-4,0.003332919,0.18,0.99,-0.01,26023,9969.30,0,0,0,0.84,-2.66,0.14,0.18,0.99,-0.01
0.47460938,0.0026844926,-2.1066889E-4,0.0043329187,0.18,0.99,-0.01,26030,9970.60,0,0,165,0.98,-2.66,0.21,0.18,0.99,-0.01
0.17480469,6.8449136E-4,-2.1066889E-4,0.0023329188,0.19,0.99,-0.01,26045,9970.30,0,0,0,0.84,-2.66,0.07,0.19,0.99,-0.01
-0.8251953,0.0026844926,7.8933313E-4,3.3291872E-4,0.19,0.99,-0.01,26060,9969.30,0,0,165,0.98,-2.59,-0.07,0.19,0.99,-0.01
-0.8251953,-3.1550787E-4,7.8933313E-4,-6.6708133E-4,0.19,0.99,-0.0,26067,9969.30,0,0,0,0.77,-2.59,-0.14,0.19,0.99,-0.00
-0.5253906,-3.1550787E-4,7.8933313E-4,3.3291872E-4,0.19,0.99,-0.01,26082,9969.60,0,0,165,0.77,-2.59,-0.07,0.19,0.99,-0.01
-1.8251953,-3.1550787E-4,-2.1066889E-4,3.3291872E-4,0.18,0.99,-0.01,26097,9968.30,0,0,0,0.77,-2.66,-0.07,0.18,0.99,-0.01
-0.5253906,-3.1550787E-4,-2.1066889E-4,0.0023329188,0.18,0.99,-0.01,26105,9969.60,0,0,165,0.77,-2.66,0.07,0.18,0.99,-0.01
1.0751953,-3.1550787E-4,-2.1066889E-4,0.003332919,0.19,0.99,-0.01,26120,9971.20,0,0,0,0.77,-2.66,0.14,0.19,0.99,-0.01
-0.5253906,0.0016844925,7.8933313E-4,0.005332919,0.19,0.99,-0.01,26134,9969.60,0,0,165,0.91,-2.59,0.28,0.19,0.99,-0.01
0.47460938,-3.1550787E-4,-2.1066889E-4,0.0013329188,0.19,0.99,-0.01,26142,9970.60,0,0,0,0.77,-2.66,0.00,0.19,0.99,-0.01
-0.8251953,6.8449136E-4,7.8933313E-4,0.0013329188,0.19,0.99,-0.01,26165,9969.30,0,0,165,0.84,-2.59,0.00,0.19,0.99,-0.01
-0.8251953,-3.1550787E-4,7.8933313E-4,-6.6708133E-4,0.19,0.99,-0.01,26173,9969.30,0,0,0,0.77,-2.59,-0.14,0.19,0.99,-0.01
0.17480469,-3.1550787E-4,-0.0022106655,0.0023329188,0.19,0.99,-0.01,26180,9970.30,0,0,165,0.77,-2.80,0.07,0.19,0.99,-0.01
0.17480469,-3.1550787E-4,-0.0012106672,0.003332919,0.19,0.99,-0.01,26195,9970.30,0,0,0,0.77,-2.73,0.14,0.19,0.99,-0.01
-0.8251953,6.8449136E-4,-2.1066889E-4,0.005332919,0.18,0.99,-0.01,26210,9969.30,0,0,165,0.84,-2.66,0.28,0.18,0.99,-0.01
0.17480469,6.8449136E-4,-2.1066889E-4,0.0043329187,0.18,0.99,-0.01,26217,9970.30,0,0,0,0.84,-2.66,0.21,0.18,0.99,-0.01
0.17480469,6.8449136E-4,-2.1066889E-4,0.0043329187,0.19,0.99,-0.0,26232,9970.30,0,0,165,0.84,-2.66,0.21,0.19,0.99,-0.00
1.0751953,6.8449136E-4,7.8933313E-4,0.0013329188,0.19,0.99,-0.01,26247,9971.20,0,0,0,0.84,-2.59,0.00,0.19,0.99,-0.01
0.47460938,-3.1550787E-4,-0.0012106672,-6.6708133E-4,0.18,0.99,-0.01,26255,9970.60,0,0,165,0.77,-2.73,-0.14,0.18,0.99,-0.01
0.17480469,-3.1550787E-4,7.8933313E-4,-0.0026670815,0.18,0.99,-0.01,26270,9970.30,0,0,0,0.77,-2.59,-0.28,0.18,0.99,-0.01
0.47460938,6.8449136E-4,0.0017893352,0.0013329188,0.19,0.99,-0.01,26285,9970.60,0,0,165,0.84,-2.52,0.00,0.19,0.99,-0.01
0.47460938,-0.001315508,-2.1066889E-4,0.0013329188,0.18,0.99,-0.01,26293,9970.60,0,0,0,0.70,-2.66,0.00,0.18,0.99,-0.01
-0.8251953,6.8449136E-4,-0.0012106672,0.0013329188,0.19,0.99,-0.01,26307,9969.30,0,0,165,0.84,-2.73,0.00,0.19,0.99,-0.01
0.47460938,-3.1550787E-4,-2.1066889E-4,0.003332919,0.18,0.99,-0.01,26322,9970.60,0,0,0,0.77,-2.66,0.14,0.18,0.99,-0.01
-0.8251953,-3.1550787E-4,-2.1066889E-4,0.003332919,0.19,0.99,-0.01,26330,9969.30,0,0,165,0.77,-2.66,0.14,0.19,0.99,-0.01
-3.4248047,6.8449136E-4,-2.1066889E-4,0.003332919,0.19,0.99,-0.01,26345,9966.70,0,0,0,0.84,-2.66,0.14,0.19,0.99,-0.01
0.17480469,6.8449136E-4,-2.1066889E-4,0.0013329188,0.18,0.99,-0.01,26361,9970.30,0,0,165,0.84,-2.66,0.00,0.18,0.99,-0.01
0.47460938,6.8449136E-4,-2.1066889E-4,3.3291872E-4,0.18,0.99,-0.01,26368,9970.60,0,0,0,0.84,-2.66,-0.07,0.18,0.99,-0.01
-1.4248047,-3.1550787E-4,-2.1066889E-4,0.0013329188,0.18,0.99,-0.01,26383,9968.70,0,0,165,0.77,-2.66,0.00,0.18,0.99,-0.01
0.47460938,-0.001315508,-2.1066889E-4,0.0013329188,0.18,0.99,-0.01,26397,9970.60,0,0,0,0.70,-2.66,0.00,0.18,0.99,-0.01
0.47460938,-3.1550787E-4,-2.1066889E-4,0.0043329187,0.19,0.99,-0.01,26405,9970.60,0,0,165,0.77,-2.66,0.21,0.19,0.99,-0.01
0.47460938,6.8449136E-4,-2.1066889E-4,0.0043329187,0.19,0.99,-0.01,26419,9970.60,0,0,0,0.84,-2.66,0.21,0.19,0.99,-0.01
-0.5253906,6.8449136E-4,-2.1066889E-4,0.005332919,0.19,0.99,-0.01,26428,9969.60,0,0,165,0.84,-2.66,0.28,0.19,0.99,-0.01
