Pressure_Rel,GyroX_Rel,GyroY_Rel,GyroZ_Rel,AccX_Rel,AccY_Rel,AccZ_Rel,Timestamp,Pressure_abs,HeartRate,Oxygen,Status,GyroX,GyroY,GyroZ,AccX,AccY,AccZ
0.0,0.0,0.0,0.0,0.0,0.0,0.0,3696,9940.20,0,0,165,0.84,-2.59,17.85,0.16,1.00,-0.02
0.0,0.0,0.0,0.0,0.0,0.0,0.0,3704,9940.20,0,0,0,0.77,-2.59,0.00,0.16,1.00,-0.02
0.0,0.0,0.0,0.0,0.0,0.0,0.0,3720,9940.20,0,0,165,0.84,-2.52,-0.07,0.16,0.99,-0.02
0.0,0.0,0.0,0.0,0.0,0.0,0.0,3734,9939.20,0,0,0,0.84,-2.59,0.07,0.16,0.99,-0.02
0.0,0.0,0.0,0.0,0.0,0.0,0.0,3741,9940.50,0,0,165,0.84,-2.59,0.00,0.16,1.00,-0.02
0.0,0.0,0.0,0.0,0.0,0.0,0.0,3757,9939.50,0,0,0,0.77,-2.59,0.00,0.16,1.00,-0.02
0.0,0.0,0.0,0.0,0.0,0.0,0.0,3771,9940.20,0,0,165,0.84,-2.59,0.00,0.16,1.00,-0.02
0.0,0.0,0.0,0.0,0.0,0.0,0.0,3779,9940.80,0,0,0,0.77,-2.59,-0.07,0.16,1.00,-0.02
0.0,0.0,0.0,0.0,0.0,0.0,0.0,3794,9940.20,0,0,165,0.77,-2.73,-0.14,0.16,1.00,-0.02
0.0,0.0,0.0,0.0,0.0,0.0,0.0,3808,9938.60,0,0,0,0.77,-2.52,0.00,0.16,1.00,-0.02
0.0,0.0,0.0,0.0,0.0,0.0,0.0,3816,9940.20,0,0,165,0.77,-2.66,0.07,0.16,0.99,-0.02
0.0,0.0,0.0,0.0,0.0,0.0,0.0,3831,9940.50,0,0,0,0.91,-2.73,-0.14,0.16,1.00,-0.02
0.0,0.0,0.0,0.0,0.0,0.0,0.0,3839,9939.20,0,0,165,0.84,-2.59,0.00,0.16,1.00,-0.02
0.0,0.0,0.0,0.0,0.0,0.0,0.0,3854,9939.20,0,0,0,0.77,-2.66,0.00,0.16,1.00,-0.02
0.0,0.0,0.0,0.0,0.0,0.0,0.0,3868,9939.50,0,0,165,0.91,-2.59,0.07,0.16,1.00,-0.02
0.0,0.0,0.0,0.0,0.0,0.0,0.0,3876,9939.50,0,0,0,0.77,-2.59,0.07,0.16,1.00,-0.02
0.0,0.0,0.0,0.0,0.0,0.0,0.0,3891,9940.50,0,0,165,0.91,-2.66,-0.07,0.16,1.00,-0.02
0.0,0.0,0.0,0.0,0.0,0.0,0.0,3905,9938.60,0,0,0,0.84,-2.66,-0.14,0.16,1.00,-0.02
0.0,0.0,0.0,0.0,0.0,0.0,0.0,3913,9939.50,0,0,165,0.91,-2.59,0.00,0.16,1.00,-0.02
0.0,0.0,0.0,0.0,0.0,0.0,0.0,3928,9940.20,0,0,0,0.91,-2.59,0.14,0.16,0.99,-0.02
0.0,0.0,0.0,0.0,0.0,0.0,0.0,3943,9940.20,0,0,165,0.84,-2.59,-0.07,0.16,1.00,-0.02
0.0,0.0,0.0,0.0,0.0,0.0,0.0,3950,9939.50,0,0,0,0.77,-2.66,0.07,0.16,1.00,-0.02
0.0,0.0,0.0,0.0,0.0,0.0,0.0,3966,9939.50,0,0,165,0.84,-2.66,0.07,0.16,1.00,-0.02
0.0,0.0,0.0,0.0,0.0,0.0,0.0,3981,9939.50,0,0,0,0.84,-2.66,0.00,0.16,1.00,-0.02
0.0,0.0,0.0,0.0,0.0,0.0,0.0,3988,9939.50,0,0,165,0.77,-2.66,0.00,0.16,1.00,-0.02
0.0,0.0,0.0,0.0,0.0,0.0,0.0,4004,9940.50,0,0,0,0.84,-2.59,0.14,0.16,1.00,-0.02
0.0,0.0,0.0,0.0,0.0,0.0,0.0,4019,9939.50,0,0,165,0.77,-2.59,0.00,0.16,1.00,-0.02
0.0,0.0,0.0,0.0,0.0,0.0,0.0,4025,9940.20,0,0,0,0.91,-2.66,0.00,0.16,0.99,-0.02
0.0,0.0,0.0,0.0,0.0,0.0,0.0,4041,9939.20,0,0,165,0.70,-2.66,0.00,0.16,1.00,-0.02
0.0,0.0,0.0,0.0,0.0,0.0,0.0,4057,9939.50,0,0,0,0.91,-2.73,-0.14,0.16,1.00,-0.02
0.0,0.0,0.0,0.0,0.0,0.0,0.0,4064,9939.50,0,0,165,0.91,-2.66,0.00,0.16,1.00,-0.02
0.0,0.0,0.0,0.0,0.0,0.0,0.0,4079,9939.20,0,0,0,0.84,-2.73,-0.07,0.16,1.00,-0.02
0.0,0.0,0.0,0.0,0.0,0.0,0.0,4098,9939.50,0,0,165,0.70,-2.73,0.00,0.16,1.00,-0.02
0.0,0.0,0.0,0.0,0.0,0.0,0.0,4102,9939.50,0,0,0,0.77,-2.66,0.00,0.16,1.00,-0.02
0.0,0.0,0.0,0.0,0.0,0.0,0.0,4116,9939.50,0,0,165,0.77,-2.66,-0.07,0.16,1.00,-0.02
0.0,0.0,0.0,0.0,0.0,0.0,0.0,4131,9939.50,0,0,0,0.70,-2.73,0.00,0.16,0.99,-0.02
0.0,0.0,0.0,0.0,0.0,0.0,0.0,4138,9940.50,0,0,165,0.77,-2.80,-0.07,0.15,1.00,-0.02
0.0,0.0,0.0,0.0,0.0,0.0,0.0,4153,9940.50,0,0,0,0.63,-2.66,-0.14,0.16,1.00,-0.02
0.0,0.0,0.0,0.0,0.0,0.0,0.0,4168,9939.50,0,0,165,0.84,-2.66,0.07,0.16,0.99,-0.02
0.0,0.0,0.0,0.0,0.0,0.0,0.0,4176,9939.50,0,0,0,0.70,-2.66,0.21,0.16,1.00,-0.02
0.0,0.0,0.0,0.0,0.0,0.0,0.0,4191,9939.50,0,0,165,0.63,-2.59,0.07,0.16,1.00,-0.02
0.0,0.0,0.0,0.0,0.0,0.0,0.0,4206,9939.50,0,0,0,0.77,-2.66,-0.07,0.16,0.99,-0.02
0.0,0.0,0.0,0.0,0.0,0.0,0.0,4214,9941.10,0,0,165,0.77,-2.66,0.00,0.16,1.00,-0.02
0.0,0.0,0.0,0.0,0.0,0.0,0.0,4228,9939.50,0,0,0,0.77,-2.52,-0.07,0.16,1.00,-0.02
0.0,0.0,0.0,0.0,0.0,0.0,0.0,4246,9939.50,0,0,165,0.84,-2.66,0.00,0.16,1.00,-0.02
0.0,0.0,0.0,0.0,0.0,0.0,0.0,4251,9939.50,0,0,0,0.77,-2.59,0.00,0.16,1.00,-0.02
0.0,0.0,0.0,0.0,0.0,0.0,0.0,4266,9939.50,0,0,165,0.84,-2.66,0.00,0.16,1.00,-0.02
0.0,0.0,0.0,0.0,0.0,0.0,0.0,4281,9940.50,0,0,0,0.84,-2.73,0.07,0.16,1.00,-0.02
0.0,0.0,0.0,0.0,0.0,0.0,0.0,4288,9939.50,0,0,165,0.77,-2.59,0.14,0.16,1.00,-0.02
0.0,0.0,0.0,0.0,0.0,0.0,0.0,4303,9940.50,0,0,0,0.77,-2.52,0.00,0.16,1.00,-0.02
0.0,0.0,0.0,0.0,0.0,0.0,0.0,4319,9939.50,0,0,165,0.70,-2.66,-0.07,0.16,1.00,-0.02
0.0,0.0,0.0,0.0,0.0,0.0,0.0,4326,9940.50,0,0,0,0.70,-2.73,0.07,0.16,0.99,-0.02
0.0,0.0,0.0,0.0,0.0,0.0,0.0,4341,9940.50,0,0,165,0.70,-2.73,0.07,0.16,1.00,-0.02
0.0,0.0,0.0,0.0,0.0,0.0,0.0,4356,9939.50,0,0,0,0.84,-2.66,-0.07,0.16,1.00,-0.02
0.0,0.0,0.0,0.0,0.0,0.0,0.0,4363,9939.20,0,0,165,0.77,-2.52,0.07,0.16,1.00,-0.02
0.0,0.0,0.0,0.0,0.0,0.0,0.0,4382,9939.50,0,0,0,0.77,-2.73,0.00,0.16,0.99,-0.02
0.0,0.0,0.0,0.0,0.0,0.0,0.0,4403,9938.60,0,0,165,0.77,-2.66,0.07,0.16,1.00,-0.02
0.0,0.0,0.0,0.0,0.0,0.0,0.0,4407,9940.50,0,0,0,0.91,-2.59,0.07,0.16,1.00,-0.02
0.0,0.0,0.0,0.0,0.0,0.0,0.0,4416,9938.60,0,0,165,0.70,-2.66,0.14,0.16,1.00,-0.02
0.0,0.0,0.0,0.0,0.0,0.0,0.0,4431,9939.50,0,0,0,0.84,-2.66,0.07,0.16,1.00,-0.02
0.0,0.0,0.0,0.0,0.0,0.0,0.0,4438,9939.50,0,0,165,0.84,-2.59,0.07,0.16,1.00,-0.02
0.0,0.0,0.0,0.0,0.0,0.0,0.0,4453,9939.50,0,0,0,0.98,-2.59,-0.07,0.16,1.00,-0.02
-0.16699219,4.1487534E-4,-4.3468922E-4,-0.0013875755,0.15,1.0,-0.02,14480,9939.50,0,0,0,0.84,-2.66,-0.07,0.15,1.00,-0.02
-0.16699219,-5.851239E-4,-4.3468922E-4,-0.0023875756,0.16,1.0,-0.03,14498,9939.50,0,0,165,0.77,-2.66,-0.14,0.16,1.00,-0.03
0.8330078,4.1487534E-4,0.0015653148,-3.875755E-4,0.16,1.0,-0.02,14504,9940.50,0,0,0,0.84,-2.52,0.00,0.16,1.00,-0.02
0.23339844,4.1487534E-4,5.653128E-4,6.1242457E-4,0.16,1.0,-0.02,14518,9939.90,0,0,165,0.84,-2.59,0.07,0.16,1.00,-0.02
-0.16699219,4.1487534E-4,5.653128E-4,6.1242457E-4,0.16,0.99,-0.02,14533,9939.50,0,0,0,0.84,-2.59,0.07,0.16,0.99,-0.02
-0.16699219,4.1487534E-4,5.653128E-4,0.0026124243,0.16,1.0,-0.02,14541,9939.50,0,0,165,0.84,-2.59,0.21,0.16,1.00,-0.02
-0.16699219,4.1487534E-4,5.653128E-4,-3.875755E-4,0.16,1.0,-0.02,14555,9939.50,0,0,0,0.84,-2.59,0.00,0.16,1.00,-0.02
-0.16699219,0.0014148764,5.653128E-4,-3.875755E-4,0.16,1.0,-0.02,14570,9939.50,0,0,165,0.91,-2.59,0.00,0.16,1.00,-0.02
-0.16699219,-5.851239E-4,-4.3468922E-4,-3.875755E-4,0.16,1.0,-0.02,14577,9939.50,0,0,0,0.77,-2.66,0.00,0.16,1.00,-0.02
-1.0673828,4.1487534E-4,-4.3468922E-4,-3.875755E-4,0.16,1.0,-0.02,14593,9938.60,0,0,165,0.84,-2.66,0.00,0.16,1.00,-0.02
1.1328125,-5.851239E-4,5.653128E-4,-3.875755E-4,0.16,0.99,-0.02,14609,9940.80,0,0,0,0.77,-2.59,0.00,0.16,0.99,-0.02
0.8330078,0.0014148764,5.653128E-4,-0.0023875756,0.16,0.99,-0.02,14616,9940.50,0,0,165,0.91,-2.59,-0.14,0.16,0.99,-0.02
-0.16699219,4.1487534E-4,0.0015653148,-3.875755E-4,0.16,0.99,-0.02,14633,9939.50,0,0,0,0.84,-2.52,0.00,0.16,0.99,-0.02
-1.0673828,4.1487534E-4,-4.3468922E-4,-0.0013875755,0.16,1.0,-0.02,14638,9938.60,0,0,165,0.84,-2.66,-0.07,0.16,1.00,-0.02
0.8330078,-5.851239E-4,-4.3468922E-4,-0.0013875755,0.16,1.0,-0.02,14653,9940.50,0,0,0,0.77,-2.66,-0.07,0.16,1.00,-0.02
-0.16699219,4.1487534E-4,-4.3468922E-4,-3.875755E-4,0.16,1.0,-0.02,14668,9939.50,0,0,165,0.84,-2.66,0.00,0.16,1.00,-0.02
-0.16699219,0.0014148764,5.653128E-4,-3.875755E-4,0.16,1.0,-0.02,14676,9939.50,0,0,0,0.91,-2.59,0.00,0.16,1.00,-0.02
-0.16699219,4.1487534E-4,-4.3468922E-4,0.0016124246,0.16,1.0,-0.02,14691,9939.50,0,0,165,0.84,-2.66,0.14,0.16,1.00,-0.02
-0.16699219,-5.851239E-4,-0.0014346875,-3.875755E-4,0.16,1.0,-0.02,14705,9939.50,0,0,0,0.77,-2.73,0.00,0.16,1.00,-0.02
-0.16699219,4.1487534E-4,0.0015653148,6.1242457E-4,0.16,1.0,-0.02,14713,9939.50,0,0,165,0.84,-2.52,0.07,0.16,1.00,-0.02
0.8330078,4.1487534E-4,5.653128E-4,6.1242457E-4,0.16,1.0,-0.02,14727,9940.50,0,0,0,0.84,-2.59,0.07,0.16,1.00,-0.02
-0.16699219,4.1487534E-4,5.653128E-4,-0.0013875755,0.16,0.99,-0.02,14743,9939.50,0,0,165,0.84,-2.59,-0.07,0.16,0.99,-0.02
-0.16699219,-0.0015851241,-0.0014346875,-0.0023875756,0.16,1.0,-0.02,14750,9939.50,0,0,0,0.70,-2.73,-0.14,0.16,1.00,-0.02
0.8330078,-5.851239E-4,5.653128E-4,-0.0013875755,0.16,1.0,-0.02,14765,9940.50,0,0,165,0.77,-2.59,-0.07,0.16,1.00,-0.02
-0.16699219,-5.851239E-4,-4.3468922E-4,-0.0013875755,0.16,1.0,-0.02,14780,9939.50,0,0,0,0.77,-2.66,-0.07,0.16,1.00,-0.02
-1.0673828,4.1487534E-4,-4.3468922E-4,0.0016124246,0.16,1.0,-0.02,14787,9938.60,0,0,165,0.84,-2.66,0.14,0.16,1.00,-0.02
-0.16699219,4.1487534E-4,0.0015653148,6.1242457E-4,0.16,1.0,-0.02,14802,9939.50,0,0,0,0.84,-2.52,0.07,0.16,1.00,-0.02
0.23339844,4.1487534E-4,-4.3468922E-4,-3.875755E-4,0.16,1.0,-0.02,14818,9939.90,0,0,165,0.84,-2.66,0.00,0.16,1.00,-0.02
0.8330078,0.0024148766,0.0015653148,0.0016124246,0.16,1.0,-0.02,14825,9940.50,0,0,0,0.98,-2.52,0.14,0.16,1.00,-0.02
-0.16699219,-5.851239E-4,5.653128E-4,0.0016124246,0.16,1.0,-0.02,14849,9939.50,0,0,165,0.77,-2.59,0.14,0.16,1.00,-0.02
-0.16699219,4.1487534E-4,5.653128E-4,-3.875755E-4,0.16,1.0,-0.02,14855,9939.50,0,0,0,0.84,-2.59,0.00,0.16,1.00,-0.02
-0.16699219,-5.851239E-4,-0.0014346875,0.0016124246,0.16,0.99,-0.02,14874,9939.50,0,0,165,0.77,-2.73,0.14,0.16,0.99,-0.02
-0.16699219,4.1487534E-4,-4.3468922E-4,6.1242457E-4,0.16,1.0,-0.02,14877,9939.50,0,0,0,0.84,-2.66,0.07,0.16,1.00,-0.02
1.1328125,-5.851239E-4,-4.3468922E-4,6.1242457E-4,0.15,0.99,-0.02,14892,9940.80,0,0,165,0.77,-2.66,0.07,0.15,0.99,-0.02
-0.16699219,0.0014148764,0.0015653148,0.0016124246,0.16,1.0,-0.02,14900,9939.50,0,0,0,0.91,-2.52,0.14,0.16,1.00,-0.02
-2.0673828,4.1487534E-4,5.653128E-4,6.1242457E-4,0.16,1.0,-0.02,14915,9937.60,0,0,165,0.84,-2.59,0.07,0.16,1.00,-0.02
-2.0673828,-0.0015851241,-4.3468922E-4,-3.875755E-4,0.16,1.0,-0.02,14930,9937.60,0,0,0,0.70,-2.66,0.00,0.16,1.00,-0.02
-0.16699219,-5.851239E-4,-4.3468922E-4,6.1242457E-4,0.16,1.0,-0.02,14938,9939.50,0,0,165,0.77,-2.66,0.07,0.16,1.00,-0.02
-0.16699219,4.1487534E-4,5.653128E-4,-0.0013875755,0.16,1.0,-0.02,14953,9939.50,0,0,0,0.84,-2.59,-0.07,0.16,1.00,-0.02
-1.0673828,-0.0015851241,5.653128E-4,-3.875755E-4,0.16,1.0,-0.02,14968,9938.60,0,0,165,0.70,-2.59,0.00,0.16,1.00,-0.02
-0.16699219,-5.851239E-4,-4.3468922E-4,6.1242457E-4,0.16,0.99,-0.02,14975,9939.50,0,0,0,0.77,-2.66,0.07,0.16,0.99,-0.02
0.23339844,0.0014148764,5.653128E-4,6.1242457E-4,0.16,1.0,-0.02,14990,9939.90,0,0,165,0.91,-2.59,0.07,0.16,1.00,-0.02
0.8330078,-5.851239E-4,-4.3468922E-4,-3.875755E-4,0.16,0.99,-0.02,15006,9940.50,0,0,0,0.77,-2.66,0.00,0.16,0.99,-0.02
-0.16699219,4.1487534E-4,5.653128E-4,6.1242457E-4,0.16,1.0,-0.02,15013,9939.50,0,0,165,0.84,-2.59,0.07,0.16,1.00,-0.02
-0.16699219,-5.851239E-4,5.653128E-4,-3.875755E-4,0.16,1.0,-0.02,15029,9939.50,0,0,0,0.77,-2.59,0.00,0.16,1.00,-0.02
0.23339844,-5.851239E-4,-4.3468922E-4,-0.0013875755,0.16,1.0,-0.02,15043,9939.90,0,0,165,0.77,-2.66,-0.07,0.16,1.00,-0.02
-0.16699219,-5.851239E-4,-4.3468922E-4,6.1242457E-4,0.16,1.0,-0.02,15050,9939.50,0,0,0,0.77,-2.66,0.07,0.16,1.00,-0.02
0.23339844,-5.851239E-4,-4.3468922E-4,6.1242457E-4,0.16,1.0,-0.02,15065,9939.90,0,0,165,0.77,-2.66,0.07,0.16,1.00,-0.02
-0.16699219,-0.0015851241,5.653128E-4,-3.875755E-4,0.16,0.99,-0.02,15080,9939.50,0,0,0,0.70,-2.59,0.00,0.16,0.99,-0.02
-0.16699219,4.1487534E-4,5.653128E-4,6.1242457E-4,0.16,1.0,-0.02,15088,9939.50,0,0,165,0.84,-2.59,0.07,0.16,1.00,-0.02
0.23339844,4.1487534E-4,5.653128E-4,-3.875755E-4,0.16,1.0,-0.02,15103,9939.90,0,0,0,0.84,-2.59,0.00,0.16,1.00,-0.02
-1.0673828,-5.851239E-4,5.653128E-4,6.1242457E-4,0.16,1.0,-0.02,15110,9938.60,0,0,165,0.77,-2.59,0.07,0.16,1.00,-0.02
-1.0673828,-5.851239E-4,5.653128E-4,6.1242457E-4,0.16,1.0,-0.02,15125,9938.60,0,0,0,0.77,-2.59,0.07,0.16,1.00,-0.02
-0.16699219,4.1487534E-4,-4.3468922E-4,-0.0013875755,0.16,1.0,-0.02,15140,9939.50,0,0,165,0.84,-2.66,-0.07,0.16,1.00,-0.02
-0.16699219,-5.851239E-4,0.0015653148,0.0016124246,0.16,0.99,-0.02,15148,9939.50,0,0,0,0.77,-2.52,0.14,0.16,0.99,-0.02
-0.16699219,-5.851239E-4,-4.3468922E-4,-0.0013875755,0.16,1.0,-0.02,15164,9939.50,0,0,165,0.77,-2.66,-0.07,0.16,1.00,-0.02
0.23339844,4.1487534E-4,-4.3468922E-4,-0.0013875755,0.16,0.99,-0.03,15178,9939.90,0,0,0,0.84,-2.66,-0.07,0.16,0.99,-0.03
-1.0673828,4.1487534E-4,-4.3468922E-4,6.1242457E-4,0.16,1.0,-0.03,15185,9938.60,0,0,165,0.84,-2.66,0.07,0.16,1.00,-0.03
0.23339844,0.0014148764,-4.3468922E-4,-3.875755E-4,0.16,0.99,-0.02,15200,9939.90,0,0,0,0.91,-2.66,0.00,0.16,0.99,-0.02
-0.16699219,-5.851239E-4,5.653128E-4,6.1242457E-4,0.16,1.0,-0.02,15215,9939.50,0,0,165,0.77,-2.59,0.07,0.16,1.00,-0.02
0.23339844,-5.851239E-4,5.653128E-4,6.1242457E-4,0.15,0.99,-0.02,15223,9939.90,0,0,0,0.77,-2.59,0.07,0.15,0.99,-0.02
0.23339844,-5.851239E-4,5.653128E-4,-0.0013875755,0.16,1.0,-0.02,15238,9939.90,0,0,165,0.77,-2.59,-0.07,0.16,1.00,-0.02
-0.16699219,-5.851239E-4,5.653128E-4,0.25461242,0.16,1.0,-0.02,15252,9939.50,0,0,0,0.77,-2.59,17.85,0.16,1.00,-0.02
-0.16699219,4.1487534E-4,-4.3468922E-4,6.1242457E-4,0.16,1.0,-0.02,15259,9939.50,0,0,165,0.84,-2.66,0.07,0.16,1.00,-0.02
-0.16699219,0.0014148764,-4.3468922E-4,-3.875755E-4,0.16,1.0,-0.02,15275,9939.50,0,0,0,0.91,-2.66,0.00,0.16,1.00,-0.02
0.8330078,-0.0015851241,-4.3468922E-4,0.0016124246,0.16,1.0,-0.02,15290,9940.50,0,0,165,0.70,-2.66,0.14,0.16,1.00,-0.02
1.1328125,0.0024148766,5.653128E-4,-3.875755E-4,0.16,0.99,-0.02,15297,9940.80,0,0,0,0.98,-2.59,0.00,0.16,0.99,-0.02
-0.16699219,4.1487534E-4,5.653128E-4,6.1242457E-4,0.16,1.0,-0.02,15312,9939.50,0,0,165,0.84,-2.59,0.07,0.16,1.00,-0.02
-1.0673828,0.0014148764,5.653128E-4,-0.0023875756,0.16,1.0,-0.02,15327,9938.60,0,0,0,0.91,-2.59,-0.14,0.16,1.00,-0.02
1.1328125,4.1487534E-4,0.0025653131,6.1242457E-4,0.16,0.99,-0.02,15335,9940.80,0,0,165,0.84,-2.45,0.07,0.16,0.99,-0.02
0.23339844,-5.851239E-4,-4.3468922E-4,0.0026124243,0.16,1.0,-0.02,15350,9939.90,0,0,0,0.77,-2.66,0.21,0.16,1.00,-0.02
-0.16699219,-5.851239E-4,-0.0014346875,6.1242457E-4,0.16,1.0,-0.02,15365,9939.50,0,0,165,0.77,-2.73,0.07,0.16,1.00,-0.02
0.8330078,4.1487534E-4,5.653128E-4,6.1242457E-4,0.16,1.0,-0.02,15372,9940.50,0,0,0,0.84,-2.59,0.07,0.16,1.00,-0.02
0.23339844,-5.851239E-4,0.0015653148,-3.875755E-4,0.16,1.0,-0.02,15387,9939.90,0,0,165,0.77,-2.52,0.00,0.16,1.00,-0.02
-0.16699219,-5.851239E-4,5.653128E-4,-3.875755E-4,0.16,1.0,-0.02,15403,9939.50,0,0,0,0.77,-2.59,0.00,0.16,1.00,-0.02
-0.16699219,-5.851239E-4,-4.3468922E-4,6.1242457E-4,0.16,0.99,-0.02,15410,9939.50,0,0,165,0.77,-2.66,0.07,0.16,0.99,-0.02
-0.16699219,4.1487534E-4,-4.3468922E-4,-0.0013875755,0.16,1.0,-0.02,15425,9939.50,0,0,0,0.84,-2.66,-0.07,0.16,1.00,-0.02
-0.16699219,-5.851239E-4,-0.0014346875,-3.875755E-4,0.16,1.0,-0.02,15440,9939.50,0,0,165,0.77,-2.73,0.00,0.16,1.00,-0.02
-0.16699219,-0.0015851241,5.653128E-4,0.0016124246,0.16,1.0,-0.02,15448,9939.50,0,0,0,0.70,-2.59,0.14,0.16,1.00,-0.02
-0.16699219,4.1487534E-4,-4.3468922E-4,-0.0023875756,0.16,1.0,-0.02,15463,9939.50,0,0,165,0.84,-2.66,-0.14,0.16,1.00,-0.02
0.23339844,0.0014148764,-4.3468922E-4,6.1242457E-4,0.16,1.0,-0.02,15477,9939.90,0,0,0,0.91,-2.66,0.07,0.16,1.00,-0.02
-0.16699219,4.1487534E-4,5.653128E-4,-3.875755E-4,0.16,0.99,-0.02,15485,9939.50,0,0,165,0.84,-2.59,0.00,0.16,0.99,-0.02
0.23339844,0.0024148766,-4.3468922E-4,0.0016124246,0.16,1.0,-0.02,15501,9939.90,0,0,0,0.98,-2.66,0.14,0.16,1.00,-0.02
0.23339844,4.1487534E-4,5.653128E-4,-3.875755E-4,0.16,1.0,-0.02,15516,9939.90,0,0,165,0.84,-2.59,0.00,0.16,1.00,-0.02
0.23339844,-5.851239E-4,-0.0014346875,-0.0013875755,0.16,1.0,-0.02,15523,9939.90,0,0,0,0.77,-2.73,-0.07,0.16,1.00,-0.02
0.23339844,-5.851239E-4,-4.3468922E-4,-0.0013875755,0.16,1.0,-0.02,15538,9939.90,0,0,165,0.77,-2.66,-0.07,0.16,1.00,-0.02
-0.16699219,4.1487534E-4,5.653128E-4,6.1242457E-4,0.16,1.0,-0.02,15553,9939.50,0,0,0,0.84,-2.59,0.07,0.16,1.00,-0.02
-0.16699219,-5.851239E-4,-4.3468922E-4,-3.875755E-4,0.16,1.0,-0.02,15561,9939.50,0,0,165,0.77,-2.66,0.00,0.16,1.00,-0.02
-0.16699219,-5.851239E-4,5.653128E-4,-0.0013875755,0.16,1.0,-0.02,15575,9939.50,0,0,0,0.77,-2.59,-0.07,0.16,1.00,-0.02
-1.0673828,4.1487534E-4,5.653128E-4,-0.0013875755,0.16,1.0,-0.02,15590,9938.60,0,0,165,0.84,-2.59,-0.07,0.16,1.00,-0.02
-0.76660156,4.1487534E-4,-4.3468922E-4,6.1242457E-4,0.16,1.0,-0.02,15597,9938.90,0,0,0,0.84,-2.66,0.07,0.16,1.00,-0.02
-1.0673828,-0.0015851241,-4.3468922E-4,6.1242457E-4,0.16,1.0,-0.02,15612,9938.60,0,0,165,0.70,-2.66,0.07,0.16,1.00,-0.02
0.8330078,4.1487534E-4,-4.3468922E-4,-3.875755E-4,0.16,1.0,-0.02,15628,9940.50,0,0,0,0.84,-2.66,0.00,0.16,1.00,-0.02
-0.76660156,-5.851239E-4,-4.3468922E-4,-3.875755E-4,0.16,0.99,-0.02,15636,9938.90,0,0,165,0.77,-2.66,0.00,0.16,0.99,-0.02
0.23339844,-5.851239E-4,-4.3468922E-4,-3.875755E-4,0.16,0.99,-0.02,15658,9939.90,0,0,0,0.77,-2.66,0.00,0.16,0.99,-0.02
1.1328125,4.1487534E-4,-0.0014346875,-0.0013875755,0.16,0.99,-0.02,15665,9940.80,0,0,165,0.84,-2.73,-0.07,0.16,0.99,-0.02
0.23339844,0.0024148766,5.653128E-4,-0.25538757,0.16,1.0,-0.02,15673,9939.90,0,0,0,0.98,-2.59,-17.85,0.16,1.00,-0.02
-0.16699219,-5.851239E-4,-4.3468922E-4,-3.875755E-4,0.16,1.0,-0.02,15688,9939.50,0,0,165,0.77,-2.66,0.00,0.16,1.00,-0.02
-0.76660156,-0.0015851241,5.653128E-4,-0.0013875755,0.16,1.0,-0.02,15703,9938.90,0,0,0,0.70,-2.59,-0.07,0.16,1.00,-0.02
1.1328125,-5.851239E-4,-4.3468922E-4,-3.875755E-4,0.16,0.99,-0.02,15711,9940.80,0,0,165,0.77,-2.66,0.00,0.16,0.99,-0.02
-0.16699219,0.0014148764,-4.3468922E-4,-0.0013875755,0.15,1.0,-0.02,15726,9939.50,0,0,0,0.91,-2.66,-0.07,0.15,1.00,-0.02
0.23339844,-5.851239E-4,-4.3468922E-4,-0.0023875756,0.16,1.0,-0.02,15740,9939.90,0,0,165,0.77,-2.66,-0.14,0.16,1.00,-0.02
-1.3671875,4.1487534E-4,-4.3468922E-4,6.1242457E-4,0.16,1.0,-0.02,15748,9938.30,0,0,0,0.84,-2.66,0.07,0.16,1.00,-0.02
0.23339844,-0.0015851241,-4.3468922E-4,-0.0023875756,0.16,1.0,-0.02,15765,9939.90,0,0,165,0.70,-2.66,-0.14,0.16,1.00,-0.02
-1.0673828,4.1487534E-4,-0.0014346875,-3.875755E-4,0.16,1.0,-0.03,15778,9938.60,0,0,0,0.84,-2.73,0.00,0.16,1.00,-0.03
-0.16699219,-5.851239E-4,-4.3468922E-4,6.1242457E-4,0.16,1.0,-0.02,15785,9939.50,0,0,165,0.77,-2.66,0.07,0.16,1.00,-0.02
-1.0673828,-5.851239E-4,5.653128E-4,6.1242457E-4,0.16,1.0,-0.02,15800,9938.60,0,0,0,0.77,-2.59,0.07,0.16,1.00,-0.02
-0.16699219,-5.851239E-4,5.653128E-4,6.1242457E-4,0.16,1.0,-0.02,15815,9939.50,0,0,165,0.77,-2.59,0.07,0.16,1.00,-0.02
0.23339844,-5.851239E-4,-4.3468922E-4,6.1242457E-4,0.16,1.0,-0.02,15823,9939.90,0,0,0,0.77,-2.66,0.07,0.16,1.00,-0.02
1.1328125,4.1487534E-4,-0.0014346875,-0.0013875755,0.16,1.0,-0.02,15838,9940.80,0,0,165,0.84,-2.73,-0.07,0.16,1.00,-0.02
-1.0673828,-0.0015851241,5.653128E-4,6.1242457E-4,0.16,1.0,-0.02,15853,9938.60,0,0,0,0.70,-2.59,0.07,0.16,1.00,-0.02
-0.16699219,-5.851239E-4,0.0015653148,0.0016124246,0.16,0.99,-0.02,15861,9939.50,0,0,165,0.77,-2.52,0.14,0.16,0.99,-0.02
0.23339844,-5.851239E-4,5.653128E-4,-3.875755E-4,0.16,0.99,-0.02,15876,9939.90,0,0,0,0.77,-2.59,0.00,0.16,0.99,-0.02
0.23339844,4.1487534E-4,-4.3468922E-4,6.1242457E-4,0.16,1.0,-0.02,15891,9939.90,0,0,165,0.84,-2.66,0.07,0.16,1.00,-0.02
-1.0673828,-0.0015851241,5.653128E-4,0.0016124246,0.16,1.0,-0.02,15898,9938.60,0,0,0,0.70,-2.59,0.14,0.16,1.00,-0.02
-0.76660156,-5.851239E-4,5.653128E-4,-3.875755E-4,0.16,1.0,-0.02,15915,9938.90,0,0,165,0.77,-2.59,0.00,0.16,1.00,-0.02
-0.16699219,4.1487534E-4,0.0015653148,0.0016124246,0.16,1.0,-0.02,15928,9939.50,0,0,0,0.84,-2.52,0.14,0.16,1.00,-0.02
0.8330078,-0.0015851241,5.653128E-4,-3.875755E-4,0.16,1.0,-0.02,15935,9940.50,0,0,165,0.70,-2.59,0.00,0.16,1.00,-0.02
-0.16699219,-0.0015851241,-0.0014346875,0.0016124246,0.16,1.0,-0.02,15950,9939.50,0,0,0,0.70,-2.73,0.14,0.16,1.00,-0.02
-0.76660156,4.1487534E-4,5.653128E-4,0.25461242,0.16,1.0,-0.02,15965,9938.90,0,0,165,0.84,-2.59,17.85,0.16,1.00,-0.02
0.23339844,-0.0015851241,0.0015653148,0.0026124243,0.16,1.0,-0.02,15972,9939.90,0,0,0,0.70,-2.52,0.21,0.16,1.00,-0.02
0.23339844,0.0014148764,5.653128E-4,-3.875755E-4,0.16,1.0,-0.02,15988,9939.90,0,0,165,0.91,-2.59,0.00,0.16,1.00,-0.02
-0.16699219,0.0024148766,5.653128E-4,-3.875755E-4,0.16,1.0,-0.02,16003,9939.50,0,0,0,0.98,-2.59,0.00,0.16,1.00,-0.02
0.23339844,0.0014148764,-4.3468922E-4,-3.875755E-4,0.16,1.0,-0.02,16010,9939.90,0,0,165,0.91,-2.66,0.00,0.16,1.00,-0.02
0.23339844,4.1487534E-4,0.0015653148,6.1242457E-4,0.16,1.0,-0.02,16025,9939.90,0,0,0,0.84,-2.52,0.07,0.16,1.00,-0.02
0.23339844,4.1487534E-4,-4.3468922E-4,6.1242457E-4,0.16,1.0,-0.02,16040,9939.90,0,0,165,0.84,-2.66,0.07,0.16,1.00,-0.02
0.23339844,-5.851239E-4,-4.3468922E-4,-0.0013875755,0.16,1.0,-0.02,16049,9939.90,0,0,0,0.77,-2.66,-0.07,0.16,1.00,-0.02
-0.16699219,4.1487534E-4,5.653128E-4,0.0016124246,0.16,1.0,-0.02,16063,9939.50,0,0,165,0.84,-2.59,0.14,0.16,1.00,-0.02
0.23339844,4.1487534E-4,-0.0014346875,6.1242457E-4,0.16,1.0,-0.02,16077,9939.90,0,0,0,0.84,-2.73,0.07,0.16,1.00,-0.02
-0.76660156,-0.0015851241,-4.3468922E-4,6.1242457E-4,0.16,1.0,-0.02,16085,9938.90,0,0,165,0.70,-2.66,0.07,0.16,1.00,-0.02
1.1328125,-5.851239E-4,5.653128E-4,6.1242457E-4,0.16,0.99,-0.02,16100,9940.80,0,0,0,0.77,-2.59,0.07,0.16,0.99,-0.02
0.23339844,4.1487534E-4,-4.3468922E-4,-3.875755E-4,0.16,1.0,-0.02,16115,9939.90,0,0,165,0.84,-2.66,0.00,0.16,1.00,-0.02
0.23339844,4.1487534E-4,-0.0014346875,-3.875755E-4,0.16,1.0,-0.02,16123,9939.90,0,0,0,0.84,-2.73,0.00,0.16,1.00,-0.02
2.1328125,0.0014148764,-4.3468922E-4,-0.0013875755,0.16,1.0,-0.02,16137,9941.80,0,0,165,0.91,-2.66,-0.07,0.16,1.00,-0.02
0.23339844,-0.0015851241,-4.3468922E-4,-3.875755E-4,0.16,1.0,-0.02,16152,9939.90,0,0,0,0.70,-2.66,0.00,0.16,1.00,-0.02
0.23339844,0.0024148766,5.653128E-4,-3.875755E-4,0.16,1.0,-0.02,16160,9939.90,0,0,165,0.98,-2.59,0.00,0.16,1.00,-0.02
0.23339844,-5.851239E-4,-4.3468922E-4,-3.875755E-4,0.16,1.0,-0.02,16175,9939.90,0,0,0,0.77,-2.66,0.00,0.16,1.00,-0.02
-0.16699219,4.1487534E-4,-0.0014346875,-3.875755E-4,0.16,1.0,-0.02,16190,9939.50,0,0,165,0.84,-2.73,0.00,0.16,1.00,-0.02
0.23339844,4.1487534E-4,-0.0014346875,0.0016124246,0.16,1.0,-0.02,16198,9939.90,0,0,0,0.84,-2.73,0.14,0.16,1.00,-0.02
0.8330078,-0.0015851241,5.653128E-4,-3.875755E-4,0.16,0.99,-0.02,16214,9940.50,0,0,165,0.70,-2.59,0.00,0.16,0.99,-0.02
-0.16699219,-0.0015851241,-0.0024346858,6.1242457E-4,0.16,1.0,-0.02,16227,9939.50,0,0,0,0.70,-2.80,0.07,0.16,1.00,-0.02
0.23339844,4.1487534E-4,5.653128E-4,6.1242457E-4,0.16,1.0,-0.02,16235,9939.90,0,0,165,0.84,-2.59,0.07,0.16,1.00,-0.02
0.23339844,-5.851239E-4,5.653128E-4,6.1242457E-4,0.16,1.0,-0.02,16250,9939.90,0,0,0,0.77,-2.59,0.07,0.16,1.00,-0.02
-0.76660156,-5.851239E-4,-4.3468922E-4,6.1242457E-4,0.16,1.0,-0.02,16265,9938.90,0,0,165,0.77,-2.66,0.07,0.16,1.00,-0.02
-1.0673828,-0.0015851241,-4.3468922E-4,0.0026124243,0.16,1.0,-0.02,16273,9938.60,0,0,0,0.70,-2.66,0.21,0.16,1.00,-0.02
0.23339844,4.1487534E-4,5.653128E-4,6.1242457E-4,0.16,1.0,-0.02,16288,9939.90,0,0,165,0.84,-2.59,0.07,0.16,1.00,-0.02
-1.0673828,4.1487534E-4,-4.3468922E-4,-3.875755E-4,0.16,1.0,-0.02,16303,9938.60,0,0,0,0.84,-2.66,0.00,0.16,1.00,-0.02
-1.0673828,4.1487534E-4,-0.0014346875,-0.0013875755,0.16,1.0,-0.02,16311,9938.60,0,0,165,0.84,-2.73,-0.07,0.16,1.00,-0.02
0.23339844,-5.851239E-4,5.653128E-4,6.1242457E-4,0.16,1.0,-0.02,16326,9939.90,0,0,0,0.77,-2.59,0.07,0.16,1.00,-0.02
0.23339844,0.0014148764,-0.0014346875,-0.0013875755,0.16,1.0,-0.02,16340,9939.90,0,0,165,0.91,-2.73,-0.07,0.16,1.00,-0.02
0.23339844,-5.851239E-4,-0.0014346875,6.1242457E-4,0.16,1.0,-0.02,16348,9939.90,0,0,0,0.77,-2.73,0.07,0.16,1.00,-0.02
-0.76660156,-5.851239E-4,-4.3468922E-4,-3.875755E-4,0.16,1.0,-0.02,16363,9938.90,0,0,165,0.77,-2.66,0.00,0.16,1.00,-0.02
0.23339844,0.0024148766,0.0015653148,-3.875755E-4,0.16,1.0,-0.02,16378,9939.90,0,0,0,0.98,-2.52,0.00,0.16,1.00,-0.02
-0.76660156,4.1487534E-4,5.653128E-4,0.0026124243,0.16,1.0,-0.02,16385,9938.90,0,0,165,0.84,-2.59,0.21,0.16,1.00,-0.02
0.23339844,-5.851239E-4,5.653128E-4,-3.875755E-4,0.16,1.0,-0.02,16400,9939.90,0,0,0,0.77,-2.59,0.00,0.16,1.00,-0.02
0.23339844,-5.851239E-4,-4.3468922E-4,-0.0013875755,0.16,1.0,-0.02,16415,9939.90,0,0,165,0.77,-2.66,-0.07,0.16,1.00,-0.02
-0.76660156,-5.851239E-4,-4.3468922E-4,-3.875755E-4,0.16,1.0,-0.02,16422,9938.90,0,0,0,0.77,-2.66,0.00,0.16,1.00,-0.02
-0.16699219,0.0014148764,5.653128E-4,6.1242457E-4,0.16,1.0,-0.02,16437,9939.50,0,0,165,0.91,-2.59,0.07,0.16,1.00,-0.02
0.23339844,0.0014148764,-4.3468922E-4,6.1242457E-4,0.16,1.0,-0.02,16455,9939.90,0,0,0,0.91,-2.66,0.07,0.16,1.00,-0.02
0.23339844,0.0024148766,5.653128E-4,-0.0013875755,0.16,1.0,-0.02,16460,9939.90,0,0,165,0.98,-2.59,-0.07,0.16,1.00,-0.02
0.23339844,-5.851239E-4,-4.3468922E-4,6.1242457E-4,0.16,1.0,-0.02,16475,9939.90,0,0,0,0.77,-2.66,0.07,0.16,1.00,-0.02
1.1328125,4.1487534E-4,5.653128E-4,0.0016124246,0.16,1.0,-0.02,16490,9940.80,0,0,165,0.84,-2.59,0.14,0.16,1.00,-0.02
-1.0673828,4.1487534E-4,-4.3468922E-4,6.1242457E-4,0.16,0.99,-0.02,16497,9938.60,0,0,0,0.84,-2.66,0.07,0.16,0.99,-0.02
1.1328125,4.1487534E-4,0.0015653148,-3.875755E-4,0.16,0.99,-0.02,16512,9940.80,0,0,165,0.84,-2.52,0.00,0.16,0.99,-0.02
0.23339844,-0.0015851241,-4.3468922E-4,6.1242457E-4,0.16,1.0,-0.02,16527,9939.90,0,0,0,0.70,-2.66,0.07,0.16,1.00,-0.02
0.23339844,4.1487534E-4,-4.3468922E-4,6.1242457E-4,0.15,1.0,-0.02,16535,9939.90,0,0,165,0.84,-2.66,0.07,0.15,1.00,-0.02
0.23339844,4.1487534E-4,-4.3468922E-4,-3.875755E-4,0.16,1.0,-0.02,16550,9939.90,0,0,0,0.84,-2.66,0.00,0.16,1.00,-0.02
0.23339844,4.1487534E-4,5.653128E-4,6.1242457E-4,0.16,1.0,-0.02,16565,9939.90,0,0,165,0.84,-2.59,0.07,0.16,1.00,-0.02
-0.76660156,-0.0015851241,-0.0014346875,-3.875755E-4,0.16,1.0,-0.02,16572,9938.90,0,0,0,0.70,-2.73,0.00,0.16,1.00,-0.02
0.23339844,-0.0015851241,-0.0014346875,-3.875755E-4,0.16,1.0,-0.02,16588,9939.90,0,0,165,0.70,-2.73,0.00,0.16,1.00,-0.02
0.23339844,-5.851239E-4,5.653128E-4,6.1242457E-4,0.16,1.0,-0.02,16603,9939.90,0,0,0,0.77,-2.59,0.07,0.16,1.00,-0.02
0.23339844,-5.851239E-4,5.653128E-4,6.1242457E-4,0.16,1.0,-0.02,16610,9939.90,0,0,165,0.77,-2.59,0.07,0.16,1.00,-0.02
0.23339844,-0.0015851241,-4.3468922E-4,6.1242457E-4,0.16,1.0,-0.02,16625,9939.90,0,0,0,0.70,-2.66,0.07,0.16,1.00,-0.02
0.23339844,-5.851239E-4,5.653128E-4,6.1242457E-4,0.16,1.0,-0.02,16640,9939.90,0,0,165,0.77,-2.59,0.07,0.16,1.00,-0.02
-0.76660156,4.1487534E-4,-0.0014346875,-3.875755E-4,0.16,1.0,-0.02,16647,9938.90,0,0,0,0.84,-2.73,0.00,0.16,1.00,-0.02
0.23339844,-5.851239E-4,5.653128E-4,-3.875755E-4,0.16,1.0,-0.02,16662,9939.90,0,0,165,0.77,-2.59,0.00,0.16,1.00,-0.02
0.23339844,4.1487534E-4,5.653128E-4,-3.875755E-4,0.16,1.0,-0.02,16677,9939.90,0,0,0,0.84,-2.59,0.00,0.16,1.00,-0.02
0.23339844,4.1487534E-4,-4.3468922E-4,-0.0013875755,0.16,1.0,-0.02,16685,9939.90,0,0,165,0.84,-2.66,-0.07,0.16,1.00,-0.02
0.23339844,4.1487534E-4,5.653128E-4,0.0016124246,0.16,1.0,-0.02,16701,9939.90,0,0,0,0.84,-2.59,0.14,0.16,1.00,-0.02
-0.76660156,0.0014148764,5.653128E-4,6.1242457E-4,0.16,1.0,-0.02,16715,9938.90,0,0,165,0.91,-2.59,0.07,0.16,1.00,-0.02
-0.76660156,4.1487534E-4,5.653128E-4,6.1242457E-4,0.16,1.0,-0.02,16723,9938.90,0,0,0,0.84,-2.59,0.07,0.16,1.00,-0.02
0.23339844,-0.0015851241,-4.3468922E-4,6.1242457E-4,0.16,1.0,-0.02,16738,9939.90,0,0,165,0.70,-2.66,0.07,0.16,1.00,-0.02
0.23339844,-5.851239E-4,5.653128E-4,-3.875755E-4,0.16,1.0,-0.02,16753,9939.90,0,0,0,0.77,-2.59,0.00,0.16,1.00,-0.02
0.23339844,0.0014148764,5.653128E-4,0.0016124246,0.16,1.0,-0.02,16760,9939.90,0,0,165,0.91,-2.59,0.14,0.16,1.00,-0.02
0.23339844,4.1487534E-4,-4.3468922E-4,6.1242457E-4,0.16,1.0,-0.02,16775,9939.90,0,0,0,0.84,-2.66,0.07,0.16,1.00,-0.02
0.23339844,0.0014148764,-4.3468922E-4,-3.875755E-4,0.16,1.0,-0.02,16790,9939.90,0,0,165,0.91,-2.66,0.00,0.16,1.00,-0.02
0.23339844,-0.0015851241,-4.3468922E-4,6.1242457E-4,0.16,1.0,-0.02,16797,9939.90,0,0,0,0.70,-2.66,0.07,0.16,1.00,-0.02
0.23339844,0.0014148764,5.653128E-4,6.1242457E-4,0.16,1.0,-0.02,16812,9939.90,0,0,165,0.91,-2.59,0.07,0.16,1.00,-0.02
-0.76660156,-5.851239E-4,-4.3468922E-4,-3.875755E-4,0.16,1.0,-0.02,16828,9938.90,0,0,0,0.77,-2.66,0.00,0.16,1.00,-0.02
0.23339844,-5.851239E-4,-4.3468922E-4,6.1242457E-4,0.16,1.0,-0.02,16835,9939.90,0,0,165,0.77,-2.66,0.07,0.16,1.00,-0.02
-0.76660156,-5.851239E-4,-4.3468922E-4,-0.0023875756,0.16,0.99,-0.02,16850,9938.90,0,0,0,0.77,-2.66,-0.14,0.16,0.99,-0.02
0.23339844,4.1487534E-4,-4.3468922E-4,-0.0013875755,0.16,1.0,-0.02,16865,9939.90,0,0,165,0.84,-2.66,-0.07,0.16,1.00,-0.02
0.23339844,-0.0015851241,-4.3468922E-4,-3.875755E-4,0.15,1.0,-0.02,16873,9939.90,0,0,0,0.70,-2.66,0.00,0.15,1.00,-0.02
-0.76660156,-5.851239E-4,5.653128E-4,-3.875755E-4,0.16,1.0,-0.02,16888,9938.90,0,0,165,0.77,-2.59,0.00,0.16,1.00,-0.02
-0.76660156,4.1487534E-4,5.653128E-4,6.1242457E-4,0.16,1.0,-0.02,16903,9938.90,0,0,0,0.84,-2.59,0.07,0.16,1.00,-0.02
0.23339844,4.1487534E-4,5.653128E-4,0.0016124246,0.16,1.0,-0.02,16910,9939.90,0,0,165,0.84,-2.59,0.14,0.16,1.00,-0.02
1.1328125,-5.851239E-4,-4.3468922E-4,6.1242457E-4,0.16,1.0,-0.02,16925,9940.80,0,0,0,0.77,-2.66,0.07,0.16,1.00,-0.02
0.23339844,-5.851239E-4,-4.3468922E-4,-0.0013875755,0.16,1.0,-0.02,16940,9939.90,0,0,165,0.77,-2.66,-0.07,0.16,1.00,-0.02
0.23339844,-5.851239E-4,-4.3468922E-4,6.1242457E-4,0.16,1.0,-0.02,16948,9939.90,0,0,0,0.77,-2.66,0.07,0.16,1.00,-0.02
0.23339844,-0.0015851241,-0.0014346875,-3.875755E-4,0.16,1.0,-0.02,16963,9939.90,0,0,165,0.70,-2.73,0.00,0.16,1.00,-0.02
0.23339844,4.1487534E-4,5.653128E-4,0.0016124246,0.16,1.0,-0.02,16977,9939.90,0,0,0,0.84,-2.59,0.14,0.16,1.00,-0.02
-0.16699219,-0.0015851241,5.653128E-4,-0.0013875755,0.16,1.0,-0.02,16985,9939.50,0,0,165,0.70,-2.59,-0.07,0.16,1.00,-0.02
0.23339844,-0.0015851241,-4.3468922E-4,-3.875755E-4,0.16,1.0,-0.02,17001,9939.90,0,0,0,0.70,-2.66,0.00,0.16,1.00,-0.02
0.8330078,4.1487534E-4,-4.3468922E-4,-3.875755E-4,0.16,1.0,-0.02,17015,9940.50,0,0,165,0.84,-2.66,0.00,0.16,1.00,-0.02
0.23339844,4.1487534E-4,-4.3468922E-4,6.1242457E-4,0.16,0.99,-0.02,17023,9939.90,0,0,0,0.84,-2.66,0.07,0.16,0.99,-0.02
1.5332031,-5.851239E-4,5.653128E-4,6.1242457E-4,0.16,0.99,-0.02,17037,9941.20,0,0,165,0.77,-2.59,0.07,0.16,0.99,-0.02
0.23339844,0.0014148764,0.0015653148,-3.875755E-4,0.16,1.0,-0.02,17052,9939.90,0,0,0,0.91,-2.52,0.00,0.16,1.00,-0.02
0.23339844,-0.0015851241,-0.0014346875,6.1242457E-4,0.16,1.0,-0.02,17059,9939.90,0,0,165,0.70,-2.73,0.07,0.16,1.00,-0.02
-1.0673828,-0.0015851241,-0.0014346875,-0.0013875755,0.15,1.0,-0.02,17075,9938.60,0,0,0,0.70,-2.73,-0.07,0.15,1.00,-0.02
0.23339844,-5.851239E-4,5.653128E-4,6.1242457E-4,0.16,1.0,-0.02,17090,9939.90,0,0,165,0.77,-2.59,0.07,0.16,1.00,-0.02
0.23339844,-5.851239E-4,-4.3468922E-4,0.0016124246,0.16,1.0,-0.02,17097,9939.90,0,0,0,0.77,-2.66,0.14,0.16,1.00,-0.02
0.23339844,0.0014148764,5.653128E-4,-0.0023875756,0.16,1.0,-0.02,17112,9939.90,0,0,165,0.91,-2.59,-0.14,0.16,1.00,-0.02
0.23339844,0.0014148764,-4.3468922E-4,-0.0013875755,0.16,1.0,-0.02,17127,9939.90,0,0,0,0.91,-2.66,-0.07,0.16,1.00,-0.02
0.23339844,-5.851239E-4,5.653128E-4,-3.875755E-4,0.16,1.0,-0.02,17134,9939.90,0,0,165,0.77,-2.59,0.00,0.16,1.00,-0.02
0.23339844,4.1487534E-4,5.653128E-4,0.0016124246,0.16,1.0,-0.02,17151,9939.90,0,0,0,0.84,-2.59,0.14,0.16,1.00,-0.02
0.23339844,4.1487534E-4,5.653128E-4,-3.875755E-4,0.16,1.0,-0.02,17165,9939.90,0,0,165,0.84,-2.59,0.00,0.16,1.00,-0.02
-0.76660156,-5.851239E-4,-4.3468922E-4,0.0016124246,0.16,0.99,-0.02,17173,9938.90,0,0,0,0.77,-2.66,0.14,0.16,0.99,-0.02
0.23339844,-0.0015851241,5.653128E-4,6.1242457E-4,0.16,1.0,-0.02,17188,9939.90,0,0,165,0.70,-2.59,0.07,0.16,1.00,-0.02
-0.76660156,-5.851239E-4,-4.3468922E-4,6.1242457E-4,0.16,1.0,-0.02,17203,9938.90,0,0,0,0.77,-2.66,0.07,0.16,1.00,-0.02
1.1328125,-0.0015851241,5.653128E-4,-3.875755E-4,0.16,1.0,-0.02,17210,9940.80,0,0,165,0.70,-2.59,0.00,0.16,1.00,-0.02
0.23339844,4.1487534E-4,-4.3468922E-4,-3.875755E-4,0.16,1.0,-0.02,17225,9939.90,0,0,0,0.84,-2.66,0.00,0.16,1.00,-0.02
0.23339844,-0.0015851241,-0.0014346875,-3.875755E-4,0.16,1.0,-0.02,17240,9939.90,0,0,165,0.70,-2.73,0.00,0.16,1.00,-0.02
0.23339844,4.1487534E-4,-0.0014346875,-0.0013875755,0.16,1.0,-0.02,17248,9939.90,0,0,0,0.84,-2.73,-0.07,0.16,1.00,-0.02
0.23339844,-5.851239E-4,5.653128E-4,6.1242457E-4,0.16,1.0,-0.02,17262,9939.90,0,0,165,0.77,-2.59,0.07,0.16,1.00,-0.02
0.23339844,-5.851239E-4,5.653128E-4,-3.875755E-4,0.16,1.0,-0.02,17277,9939.90,0,0,0,0.77,-2.59,0.00,0.16,1.00,-0.02
0.23339844,4.1487534E-4,5.653128E-4,0.0016124246,0.16,0.99,-0.02,17284,9939.90,0,0,165,0.84,-2.59,0.14,0.16,0.99,-0.02
-0.76660156,4.1487534E-4,5.653128E-4,6.1242457E-4,0.16,1.0,-0.02,17299,9938.90,0,0,0,0.84,-2.59,0.07,0.16,1.00,-0.02
0.23339844,-5.851239E-4,-4.3468922E-4,-0.0013875755,0.16,1.0,-0.02,17316,9939.90,0,0,165,0.77,-2.66,-0.07,0.16,1.00,-0.02
0.23339844,-0.0015851241,-4.3468922E-4,-0.0023875756,0.16,1.0,-0.02,17323,9939.90,0,0,0,0.70,-2.66,-0.14,0.16,1.00,-0.02
-1.7666016,-0.0015851241,-4.3468922E-4,6.1242457E-4,0.16,1.0,-0.02,17337,9937.90,0,0,165,0.70,-2.66,0.07,0.16,1.00,-0.02
0.23339844,-5.851239E-4,-4.3468922E-4,-0.0013875755,0.16,1.0,-0.02,17352,9939.90,0,0,0,0.77,-2.66,-0.07,0.16,1.00,-0.02
-0.76660156,-0.0015851241,5.653128E-4,0.0016124246,0.16,1.0,-0.02,17360,9938.90,0,0,165,0.70,-2.59,0.14,0.16,1.00,-0.02
-0.76660156,-0.0015851241,-4.3468922E-4,-3.875755E-4,0.16,1.0,-0.02,17374,9938.90,0,0,0,0.70,-2.66,0.00,0.16,1.00,-0.02
-0.76660156,-5.851239E-4,5.653128E-4,6.1242457E-4,0.16,1.0,-0.02,17389,9938.90,0,0,165,0.77,-2.59,0.07,0.16,1.00,-0.02
-0.76660156,-5.851239E-4,5.653128E-4,-3.875755E-4,0.16,1.0,-0.02,17397,9938.90,0,0,0,0.77,-2.59,0.00,0.16,1.00,-0.02
-0.76660156,-5.851239E-4,-0.0014346875,-3.875755E-4,0.16,0.99,-0.02,17412,9938.90,0,0,165,0.77,-2.73,0.00,0.16,0.99,-0.02
-0.76660156,-0.0015851241,-4.3468922E-4,6.1242457E-4,0.16,1.0,-0.02,17427,9938.90,0,0,0,0.70,-2.66,0.07,0.16,1.00,-0.02
-0.76660156,4.1487534E-4,5.653128E-4,6.1242457E-4,0.16,1.0,-0.02,17435,9938.90,0,0,165,0.84,-2.59,0.07,0.16,1.00,-0.02
0.23339844,-5.851239E-4,-4.3468922E-4,-3.875755E-4,0.16,1.0,-0.03,17450,9939.90,0,0,0,0.77,-2.66,0.00,0.16,1.00,-0.03
0.23339844,4.1487534E-4,0.0015653148,6.1242457E-4,0.16,1.0,-0.02,17464,9939.90,0,0,165,0.84,-2.52,0.07,0.16,1.00,-0.02
0.23339844,4.1487534E-4,5.653128E-4,6.1242457E-4,0.16,1.0,-0.02,17472,9939.90,0,0,0,0.84,-2.59,0.07,0.16,1.00,-0.02
0.23339844,0.0014148764,-4.3468922E-4,-3.875755E-4,0.16,1.0,-0.02,17487,9939.90,0,0,165,0.91,-2.66,0.00,0.16,1.00,-0.02
0.23339844,-5.851239E-4,-4.3468922E-4,-3.875755E-4,0.16,1.0,-0.02,17502,9939.90,0,0,0,0.77,-2.66,0.00,0.16,1.00,-0.02
0.23339844,4.1487534E-4,-4.3468922E-4,-3.875755E-4,0.16,1.0,-0.02,17510,9939.90,0,0,165,0.84,-2.66,0.00,0.16,1.00,-0.02
0.23339844,-5.851239E-4,5.653128E-4,-3.875755E-4,0.16,1.0,-0.02,17525,9939.90,0,0,0,0.77,-2.59,0.00,0.16,1.00,-0.02
0.23339844,0.0014148764,0.0015653148,6.1242457E-4,0.16,1.0,-0.02,17539,9939.90,0,0,165,0.91,-2.52,0.07,0.16,1.00,-0.02
0.23339844,4.1487534E-4,-4.3468922E-4,0.0016124246,0.16,1.0,-0.02,17547,9939.90,0,0,0,0.84,-2.66,0.14,0.16,1.00,-0.02
-1.7666016,-5.851239E-4,-4.3468922E-4,-3.875755E-4,0.16,1.0,-0.02,17563,9937.90,0,0,165,0.77,-2.66,0.00,0.16,1.00,-0.02
-0.76660156,4.1487534E-4,-4.3468922E-4,-3.875755E-4,0.16,1.0,-0.02,17577,9938.90,0,0,0,0.84,-2.66,0.00,0.16,1.00,-0.02
0.23339844,4.1487534E-4,5.653128E-4,0.0026124243,0.16,1.0,-0.02,17585,9939.90,0,0,165,0.84,-2.59,0.21,0.16,1.00,-0.02
1.1328125,-5.851239E-4,5.653128E-4,6.1242457E-4,0.16,1.0,-0.02,17600,9940.80,0,0,0,0.77,-2.59,0.07,0.16,1.00,-0.02
-0.76660156,4.1487534E-4,5.653128E-4,6.1242457E-4,0.16,0.99,-0.02,17615,9938.90,0,0,165,0.84,-2.59,0.07,0.16,0.99,-0.02
0.23339844,-5.851239E-4,-0.0014346875,-0.0013875755,0.16,1.0,-0.02,17623,9939.90,0,0,0,0.77,-2.73,-0.07,0.16,1.00,-0.02
0.23339844,-0.0015851241,-4.3468922E-4,-3.875755E-4,0.16,1.0,-0.02,17638,9939.90,0,0,165,0.70,-2.66,0.00,0.16,1.00,-0.02
-0.46679688,4.1487534E-4,5.653128E-4,-0.0013875755,0.16,1.0,-0.02,17653,9939.20,0,0,0,0.84,-2.59,-0.07,0.16,1.00,-0.02
0.23339844,4.1487534E-4,5.653128E-4,-3.875755E-4,0.16,1.0,-0.02,17660,9939.90,0,0,165,0.84,-2.59,0.00,0.16,1.00,-0.02
0.23339844,4.1487534E-4,5.653128E-4,6.1242457E-4,0.16,1.0,-0.02,17675,9939.90,0,0,0,0.84,-2.59,0.07,0.16,1.00,-0.02
0.23339844,-0.0015851241,5.653128E-4,-3.875755E-4,0.16,1.0,-0.02,17690,9939.90,0,0,165,0.70,-2.59,0.00,0.16,1.00,-0.02
0.23339844,-5.851239E-4,0.0015653148,-0.0023875756,0.16,1.0,-0.02,17698,9939.90,0,0,0,0.77,-2.52,-0.14,0.16,1.00,-0.02
0.23339844,4.1487534E-4,-4.3468922E-4,6.1242457E-4,0.16,1.0,-0.02,17713,9939.90,0,0,165,0.84,-2.66,0.07,0.16,1.00,-0.02
0.23339844,4.1487534E-4,-4.3468922E-4,-3.875755E-4,0.16,1.0,-0.02,17727,9939.90,0,0,0,0.84,-2.66,0.00,0.16,1.00,-0.02
-0.46679688,-5.851239E-4,-4.3468922E-4,-3.875755E-4,0.16,1.0,-0.02,17735,9939.20,0,0,165,0.77,-2.66,0.00,0.16,1.00,-0.02
0.23339844,-5.851239E-4,-4.3468922E-4,-3.875755E-4,0.16,1.0,-0.02,17750,9939.90,0,0,0,0.77,-2.66,0.00,0.16,1.00,-0.02
0.23339844,-0.0015851241,-0.0014346875,-0.0013875755,0.16,0.99,-0.02,17765,9939.90,0,0,165,0.70,-2.73,-0.07,0.16,0.99,-0.02
0.23339844,-5.851239E-4,-4.3468922E-4,-3.875755E-4,0.16,1.0,-0.02,17772,9939.90,0,0,0,0.77,-2.66,0.00,0.16,1.00,-0.02
-0.76660156,-0.0015851241,-0.0014346875,-3.875755E-4,0.16,1.0,-0.02,17788,9938.90,0,0,165,0.70,-2.73,0.00,0.16,1.00,-0.02
-0.76660156,-5.851239E-4,-4.3468922E-4,-3.875755E-4,0.16,1.0,-0.02,17802,9938.90,0,0,0,0.77,-2.66,0.00,0.16,1.00,-0.02
0.23339844,-5.851239E-4,5.653128E-4,6.1242457E-4,0.16,1.0,-0.02,17810,9939.90,0,0,165,0.77,-2.59,0.07,0.16,1.00,-0.02
0.23339844,0.0014148764,-0.0014346875,6.1242457E-4,0.16,0.99,-0.02,17825,9939.90,0,0,0,0.91,-2.73,0.07,0.16,0.99,-0.02
-0.76660156,-0.0015851241,5.653128E-4,6.1242457E-4,0.16,1.0,-0.02,17840,9938.90,0,0,165,0.70,-2.59,0.07,0.16,1.00,-0.02
-0.46679688,4.1487534E-4,5.653128E-4,-3.875755E-4,0.16,1.0,-0.02,17847,9939.20,0,0,0,0.84,-2.59,0.00,0.16,1.00,-0.02
2.1328125,0.0014148764,0.0015653148,6.1242457E-4,0.16,1.0,-0.02,17862,9941.80,0,0,165,0.91,-2.52,0.07,0.16,1.00,-0.02
-0.46679688,0.0014148764,0.0015653148,6.1242457E-4,0.16,1.0,-0.02,17877,9939.20,0,0,0,0.91,-2.52,0.07,0.16,1.00,-0.02
0.23339844,4.1487534E-4,-4.3468922E-4,-3.875755E-4,0.16,1.0,-0.02,17885,9939.90,0,0,165,0.84,-2.66,0.00,0.16,1.00,-0.02
0.5332031,0.0014148764,0.0015653148,6.1242457E-4,0.16,1.0,-0.02,17900,9940.20,0,0,0,0.91,-2.52,0.07,0.16,1.00,-0.02
0.23339844,4.1487534E-4,0.0015653148,6.1242457E-4,0.16,1.0,-0.02,17915,9939.90,0,0,165,0.84,-2.52,0.07,0.16,1.00,-0.02
0.23339844,0.0014148764,5.653128E-4,-3.875755E-4,0.16,1.0,-0.02,17923,9939.90,0,0,0,0.91,-2.59,0.00,0.16,1.00,-0.02
1.1328125,0.0024148766,-4.3468922E-4,-3.875755E-4,0.16,0.99,-0.02,17937,9940.80,0,0,165,0.98,-2.66,0.00,0.16,0.99,-0.02
-0.76660156,0.0014148764,5.653128E-4,-3.875755E-4,0.16,1.0,-0.02,17952,9938.90,0,0,0,0.91,-2.59,0.00,0.16,1.00,-0.02
-0.76660156,-5.851239E-4,-4.3468922E-4,-3.875755E-4,0.16,1.0,-0.02,17960,9938.90,0,0,165,0.77,-2.66,0.00,0.16,1.00,-0.02
0.5332031,4.1487534E-4,-4.3468922E-4,-0.0013875755,0.16,1.0,-0.02,17975,9940.20,0,0,0,0.84,-2.66,-0.07,0.16,1.00,-0.02
0.23339844,-0.0015851241,5.653128E-4,-3.875755E-4,0.16,0.99,-0.02,17990,9939.90,0,0,165,0.70,-2.59,0.00,0.16,0.99,-0.02
0.23339844,-0.0025851242,-4.3468922E-4,-3.875755E-4,0.16,1.0,-0.02,17998,9939.90,0,0,0,0.63,-2.66,0.00,0.16,1.00,-0.02
0.23339844,4.1487534E-4,-4.3468922E-4,6.1242457E-4,0.16,1.0,-0.02,18013,9939.90,0,0,165,0.84,-2.66,0.07,0.16,1.00,-0.02
0.5332031,4.1487534E-4,5.653128E-4,-0.0013875755,0.16,1.0,-0.02,18028,9940.20,0,0,0,0.84,-2.59,-0.07,0.16,1.00,-0.02
0.5332031,4.1487534E-4,-4.3468922E-4,6.1242457E-4,0.16,1.0,-0.02,18035,9940.20,0,0,165,0.84,-2.66,0.07,0.16,1.00,-0.02
0.23339844,4.1487534E-4,-4.3468922E-4,-0.0013875755,0.16,1.0,-0.02,18050,9939.90,0,0,0,0.84,-2.66,-0.07,0.16,1.00,-0.02
-0.46679688,4.1487534E-4,-4.3468922E-4,-0.0023875756,0.16,1.0,-0.02,18065,9939.20,0,0,165,0.84,-2.66,-0.14,0.16,1.00,-0.02
-0.46679688,-0.0015851241,-4.3468922E-4,-0.0013875755,0.16,1.0,-0.02,18072,9939.20,0,0,0,0.70,-2.66,-0.07,0.16,1.00,-0.02
-0.76660156,4.1487534E-4,5.653128E-4,0.0016124246,0.16,0.99,-0.02,18088,9938.90,0,0,165,0.84,-2.59,0.14,0.16,0.99,-0.02
0.23339844,-5.851239E-4,5.653128E-4,-3.875755E-4,0.16,1.0,-0.02,18102,9939.90,0,0,0,0.77,-2.59,0.00,0.16,1.00,-0.02
0.23339844,4.1487534E-4,-0.0014346875,-0.0023875756,0.16,1.0,-0.02,18110,9939.90,0,0,165,0.84,-2.73,-0.14,0.16,1.00,-0.02
0.23339844,4.1487534E-4,-4.3468922E-4,-3.875755E-4,0.16,1.0,-0.02,18125,9939.90,0,0,0,0.84,-2.66,0.00,0.16,1.00,-0.02
0.23339844,4.1487534E-4,5.653128E-4,-3.875755E-4,0.16,1.0,-0.02,18140,9939.90,0,0,165,0.84,-2.59,0.00,0.16,1.00,-0.02
-0.46679688,-5.851239E-4,-4.3468922E-4,6.1242457E-4,0.16,0.99,-0.02,18151,9939.20,0,0,0,0.77,-2.66,0.07,0.16,0.99,-0.02
-0.76660156,0.0014148764,0.0015653148,6.1242457E-4,0.16,1.0,-0.02,18163,9938.90,0,0,165,0.91,-2.52,0.07,0.16,1.00,-0.02
-0.76660156,4.1487534E-4,-4.3468922E-4,-3.875755E-4,0.16,1.0,-0.02,18178,9938.90,0,0,0,0.84,-2.66,0.00,0.16,1.00,-0.02
-0.76660156,-0.0015851241,-4.3468922E-4,-3.875755E-4,0.16,0.99,-0.02,18186,9938.90,0,0,165,0.70,-2.66,0.00,0.16,0.99,-0.02
-0.76660156,-0.0015851241,5.653128E-4,6.1242457E-4,0.16,1.0,-0.02,18201,9938.90,0,0,0,0.70,-2.59,0.07,0.16,1.00,-0.02
-0.76660156,-5.851239E-4,-0.0014346875,-3.875755E-4,0.16,1.0,-0.02,18223,9938.90,0,0,165,0.77,-2.73,0.00,0.16,1.00,-0.02
0.23339844,-5.851239E-4,0.0015653148,0.0016124246,0.16,1.0,-0.02,18224,9939.90,0,0,0,0.77,-2.52,0.14,0.16,1.00,-0.02
-0.76660156,-5.851239E-4,0.0015653148,6.1242457E-4,0.16,1.0,-0.02,18238,9938.90,0,0,165,0.77,-2.52,0.07,0.16,1.00,-0.02
0.23339844,-0.0015851241,-4.3468922E-4,6.1242457E-4,0.16,1.0,-0.02,18253,9939.90,0,0,0,0.70,-2.66,0.07,0.16,1.00,-0.02
-2.6669922,-0.0015851241,-4.3468922E-4,6.1242457E-4,0.16,1.0,-0.02,18260,9937.00,0,0,165,0.70,-2.66,0.07,0.16,1.00,-0.02
0.23339844,0.0024148766,5.653128E-4,-3.875755E-4,0.16,1.0,-0.02,18275,9939.90,0,0,0,0.98,-2.59,0.00,0.16,1.00,-0.02
-0.76660156,0.0014148764,-4.3468922E-4,6.1242457E-4,0.16,1.0,-0.02,18290,9938.90,0,0,165,0.91,-2.66,0.07,0.16,1.00,-0.02
0.23339844,-0.0015851241,5.653128E-4,-3.875755E-4,0.16,1.0,-0.02,18297,9939.90,0,0,0,0.70,-2.59,0.00,0.16,1.00,-0.02
0.5332031,0.0014148764,-4.3468922E-4,-3.875755E-4,0.16,1.0,-0.02,18313,9940.20,0,0,165,0.91,-2.66,0.00,0.16,1.00,-0.02
-0.76660156,-5.851239E-4,5.653128E-4,6.1242457E-4,0.16,0.99,-0.02,18328,9938.90,0,0,0,0.77,-2.59,0.07,0.16,0.99,-0.02
-0.76660156,4.1487534E-4,-0.0014346875,-3.875755E-4,0.16,1.0,-0.02,18335,9938.90,0,0,165,0.84,-2.73,0.00,0.16,1.00,-0.02
0.23339844,-0.0015851241,-4.3468922E-4,-0.0013875755,0.16,1.0,-0.02,18351,9939.90,0,0,0,0.70,-2.66,-0.07,0.16,1.00,-0.02
0.23339844,-0.0015851241,5.653128E-4,-3.875755E-4,0.16,1.0,-0.02,18366,9939.90,0,0,165,0.70,-2.59,0.00,0.16,1.00,-0.02
0.5332031,-5.851239E-4,-4.3468922E-4,6.1242457E-4,0.16,1.0,-0.02,18373,9940.20,0,0,0,0.77,-2.66,0.07,0.16,1.00,-0.02
0.23339844,-5.851239E-4,0.0015653148,6.1242457E-4,0.16,0.99,-0.02,18388,9939.90,0,0,165,0.77,-2.52,0.07,0.16,0.99,-0.02
0.5332031,-5.851239E-4,-4.3468922E-4,-3.875755E-4,0.16,1.0,-0.02,18403,9940.20,0,0,0,0.77,-2.66,0.00,0.16,1.00,-0.02
0.23339844,4.1487534E-4,-4.3468922E-4,-3.875755E-4,0.16,1.0,-0.02,18410,9939.90,0,0,165,0.84,-2.66,0.00,0.16,1.00,-0.02
-0.46679688,4.1487534E-4,-0.0014346875,-3.875755E-4,0.16,1.0,-0.02,18425,9939.20,0,0,0,0.84,-2.73,0.00,0.16,1.00,-0.02
0.5332031,4.1487534E-4,5.653128E-4,6.1242457E-4,0.16,1.0,-0.02,18440,9940.20,0,0,165,0.84,-2.59,0.07,0.16,1.00,-0.02
0.23339844,-5.851239E-4,5.653128E-4,0.0016124246,0.16,1.0,-0.02,18447,9939.90,0,0,0,0.77,-2.59,0.14,0.16,1.00,-0.02
-0.16699219,-5.851239E-4,-4.3468922E-4,-3.875755E-4,0.16,1.0,-0.02,18463,9939.50,0,0,165,0.77,-2.66,0.00,0.16,1.00,-0.02
0.23339844,4.1487534E-4,0.0015653148,-3.875755E-4,0.16,1.0,-0.02,18477,9939.90,0,0,0,0.84,-2.52,0.00,0.16,1.00,-0.02
0.5332031,4.1487534E-4,5.653128E-4,-3.875755E-4,0.16,1.0,-0.02,18485,9940.20,0,0,165,0.84,-2.59,0.00,0.16,1.00,-0.02
-0.46679688,0.0014148764,5.653128E-4,-3.875755E-4,0.16,1.0,-0.02,18500,9939.20,0,0,0,0.91,-2.59,0.00,0.16,1.00,-0.02
0.5332031,4.1487534E-4,-4.3468922E-4,6.1242457E-4,0.16,1.0,-0.02,18515,9940.20,0,0,165,0.84,-2.66,0.07,0.16,1.00,-0.02
-0.76660156,4.1487534E-4,5.653128E-4,6.1242457E-4,0.16,1.0,-0.02,18522,9938.90,0,0,0,0.84,-2.59,0.07,0.16,1.00,-0.02
0.23339844,-5.851239E-4,-4.3468922E-4,6.1242457E-4,0.16,1.0,-0.02,18538,9939.90,0,0,165,0.77,-2.66,0.07,0.16,1.00,-0.02
0.23339844,4.1487534E-4,5.653128E-4,-3.875755E-4,0.16,0.99,-0.02,18553,9939.90,0,0,0,0.84,-2.59,0.00,0.16,0.99,-0.02
0.23339844,-5.851239E-4,-4.3468922E-4,0.0016124246,0.16,1.0,-0.02,18560,9939.90,0,0,165,0.77,-2.66,0.14,0.16,1.00,-0.02
-0.46679688,-5.851239E-4,-4.3468922E-4,-0.0013875755,0.16,1.0,-0.02,18575,9939.20,0,0,0,0.77,-2.66,-0.07,0.16,1.00,-0.02
-0.46679688,0.0014148764,5.653128E-4,6.1242457E-4,0.16,0.99,-0.02,18590,9939.20,0,0,165,0.91,-2.59,0.07,0.16,0.99,-0.02
0.23339844,0.0014148764,5.653128E-4,6.1242457E-4,0.16,1.0,-0.02,18598,9939.90,0,0,0,0.91,-2.59,0.07,0.16,1.00,-0.02
0.5332031,0.0014148764,0.0015653148,0.0016124246,0.16,1.0,-0.03,18613,9940.20,0,0,165,0.91,-2.52,0.14,0.16,1.00,-0.03
0.23339844,-5.851239E-4,5.653128E-4,0.0016124246,0.16,1.0,-0.02,18628,9939.90,0,0,0,0.77,-2.59,0.14,0.16,1.00,-0.02
-0.46679688,0.0014148764,5.653128E-4,6.1242457E-4,0.16,1.0,-0.02,18636,9939.20,0,0,165,0.91,-2.59,0.07,0.16,1.00,-0.02
0.23339844,4.1487534E-4,-4.3468922E-4,-0.0013875755,0.16,1.0,-0.02,18651,9939.90,0,0,0,0.84,-2.66,-0.07,0.16,1.00,-0.02
-0.76660156,4.1487534E-4,-0.0014346875,-3.875755E-4,0.16,1.0,-0.02,18665,9938.90,0,0,165,0.84,-2.73,0.00,0.16,1.00,-0.02
-0.76660156,4.1487534E-4,-0.0014346875,-0.0013875755,0.16,1.0,-0.02,18673,9938.90,0,0,0,0.84,-2.73,-0.07,0.16,1.00,-0.02
-0.76660156,4.1487534E-4,-4.3468922E-4,-3.875755E-4,0.16,1.0,-0.02,18687,9938.90,0,0,165,0.84,-2.66,0.00,0.16,1.00,-0.02
-0.76660156,4.1487534E-4,5.653128E-4,-3.875755E-4,0.16,1.0,-0.02,18702,9938.90,0,0,0,0.84,-2.59,0.00,0.16,1.00,-0.02
0.23339844,-5.851239E-4,5.653128E-4,-0.0013875755,0.15,1.0,-0.02,18717,9939.90,0,0,165,0.77,-2.59,-0.07,0.15,1.00,-0.02
-0.76660156,-5.851239E-4,5.653128E-4,6.1242457E-4,0.16,1.0,-0.02,18725,9938.90,0,0,0,0.77,-2.59,0.07,0.16,1.00,-0.02
-0.16699219,-5.851239E-4,-4.3468922E-4,-3.875755E-4,0.16,1.0,-0.02,18740,9939.50,0,0,165,0.77,-2.66,0.00,0.16,1.00,-0.02
0.23339844,-5.851239E-4,5.653128E-4,-0.0013875755,0.16,0.99,-0.02,18748,9939.90,0,0,0,0.77,-2.59,-0.07,0.16,0.99,-0.02
0.23339844,0.0024148766,0.0015653148,6.1242457E-4,0.16,1.0,-0.02,18763,9939.90,0,0,165,0.98,-2.52,0.07,0.16,1.00,-0.02
-0.76660156,-5.851239E-4,5.653128E-4,6.1242457E-4,0.16,1.0,-0.02,18777,9938.90,0,0,0,0.77,-2.59,0.07,0.16,1.00,-0.02
0.23339844,0.0014148764,5.653128E-4,0.0016124246,0.16,1.0,-0.02,18785,9939.90,0,0,165,0.91,-2.59,0.14,0.16,1.00,-0.02
2.7333984,4.1487534E-4,0.0015653148,-3.875755E-4,0.16,1.0,-0.02,18800,9942.40,0,0,0,0.84,-2.52,0.00,0.16,1.00,-0.02
0.5332031,-0.0015851241,5.653128E-4,-3.875755E-4,0.16,1.0,-0.02,18815,9940.20,0,0,165,0.70,-2.59,0.00,0.16,1.00,-0.02
0.23339844,4.1487534E-4,-4.3468922E-4,6.1242457E-4,0.16,1.0,-0.02,18823,9939.90,0,0,0,0.84,-2.66,0.07,0.16,1.00,-0.02
-0.76660156,4.1487534E-4,5.653128E-4,-3.875755E-4,0.16,1.0,-0.02,18837,9938.90,0,0,165,0.84,-2.59,0.00,0.16,1.00,-0.02
0.5332031,-5.851239E-4,5.653128E-4,-3.875755E-4,0.16,1.0,-0.02,18853,9940.20,0,0,0,0.77,-2.59,0.00,0.16,1.00,-0.02
-0.46679688,-0.0015851241,0.0015653148,-3.875755E-4,0.16,1.0,-0.02,18859,9939.20,0,0,165,0.70,-2.52,0.00,0.16,1.00,-0.02
1.5332031,-5.851239E-4,-4.3468922E-4,6.1242457E-4,0.16,0.99,-0.02,18875,9941.20,0,0,0,0.77,-2.66,0.07,0.16,0.99,-0.02
0.5332031,4.1487534E-4,-4.3468922E-4,0.0016124246,0.15,1.0,-0.02,18890,9940.20,0,0,165,0.84,-2.66,0.14,0.15,1.00,-0.02
-0.46679688,-5.851239E-4,-4.3468922E-4,-3.875755E-4,0.16,1.0,-0.02,18898,9939.20,0,0,0,0.77,-2.66,0.00,0.16,1.00,-0.02
0.5332031,4.1487534E-4,5.653128E-4,-0.2563876,0.16,1.0,-0.03,18913,9940.20,0,0,165,0.84,-2.59,-17.92,0.16,1.00,-0.03
0.5332031,4.1487534E-4,5.653128E-4,0.0016124246,0.16,1.0,-0.02,18928,9940.20,0,0,0,0.84,-2.59,0.14,0.16,1.00,-0.02
-0.46679688,-5.851239E-4,5.653128E-4,0.0016124246,0.16,1.0,-0.02,18935,9939.20,0,0,165,0.77,-2.59,0.14,0.16,1.00,-0.02
0.5332031,0.0014148764,0.0015653148,-3.875755E-4,0.16,1.0,-0.02,18951,9940.20,0,0,0,0.91,-2.52,0.00,0.16,1.00,-0.02
0.5332031,-5.851239E-4,-4.3468922E-4,-0.0013875755,0.16,1.0,-0.02,18966,9940.20,0,0,165,0.77,-2.66,-0.07,0.16,1.00,-0.02
0.23339844,-5.851239E-4,-4.3468922E-4,-3.875755E-4,0.16,0.99,-0.02,18973,9939.90,0,0,0,0.77,-2.66,0.00,0.16,0.99,-0.02
0.23339844,4.1487534E-4,0.0015653148,-0.0013875755,0.16,1.0,-0.02,18988,9939.90,0,0,165,0.84,-2.52,-0.07,0.16,1.00,-0.02
0.5332031,0.0014148764,-0.0014346875,-3.875755E-4,0.16,1.0,-0.02,19003,9940.20,0,0,0,0.91,-2.73,0.00,0.16,1.00,-0.02
0.5332031,4.1487534E-4,-4.3468922E-4,6.1242457E-4,0.16,1.0,-0.02,19011,9940.20,0,0,165,0.84,-2.66,0.07,0.16,1.00,-0.02
-0.76660156,0.0024148766,0.0015653148,6.1242457E-4,0.16,1.0,-0.02,19025,9938.90,0,0,0,0.98,-2.52,0.07,0.16,1.00,-0.02
1.5332031,4.1487534E-4,0.0015653148,6.1242457E-4,0.16,1.0,-0.02,19039,9941.20,0,0,165,0.84,-2.52,0.07,0.16,1.00,-0.02
0.23339844,4.1487534E-4,5.653128E-4,6.1242457E-4,0.16,1.0,-0.02,19047,9939.90,0,0,0,0.84,-2.59,0.07,0.16,1.00,-0.02
0.5332031,-5.851239E-4,-4.3468922E-4,-0.0013875755,0.16,1.0,-0.02,19062,9940.20,0,0,165,0.77,-2.66,-0.07,0.16,1.00,-0.02
-0.76660156,-0.0015851241,5.653128E-4,0.0016124246,0.16,1.0,-0.02,19078,9938.90,0,0,0,0.70,-2.59,0.14,0.16,1.00,-0.02
-0.76660156,-0.0015851241,-4.3468922E-4,0.0016124246,0.16,1.0,-0.02,19085,9938.90,0,0,165,0.70,-2.66,0.14,0.16,1.00,-0.02
-0.16699219,4.1487534E-4,5.653128E-4,-0.0013875755,0.16,1.0,-0.02,19101,9939.50,0,0,0,0.84,-2.59,-0.07,0.16,1.00,-0.02
-0.46679688,0.0024148766,-4.3468922E-4,-3.875755E-4,0.16,1.0,-0.02,19115,9939.20,0,0,165,0.98,-2.66,0.00,0.16,1.00,-0.02
-0.46679688,-0.0025851242,5.653128E-4,0.0016124246,0.16,1.0,-0.02,19123,9939.20,0,0,0,0.63,-2.59,0.14,0.16,1.00,-0.02
-0.46679688,-0.0015851241,-4.3468922E-4,-0.0013875755,0.16,1.0,-0.02,19138,9939.20,0,0,165,0.70,-2.66,-0.07,0.16,1.00,-0.02
-0.46679688,4.1487534E-4,-4.3468922E-4,-3.875755E-4,0.16,1.0,-0.02,19152,9939.20,0,0,0,0.84,-2.66,0.00,0.16,1.00,-0.02
0.5332031,-5.851239E-4,-4.3468922E-4,-3.875755E-4,0.16,1.0,-0.02,19160,9940.20,0,0,165,0.77,-2.66,0.00,0.16,1.00,-0.02
0.23339844,4.1487534E-4,5.653128E-4,6.1242457E-4,0.16,1.0,-0.02,19175,9939.90,0,0,0,0.84,-2.59,0.07,0.16,1.00,-0.02
0.5332031,-5.851239E-4,-4.3468922E-4,6.1242457E-4,0.16,1.0,-0.02,19190,9940.20,0,0,165,0.77,-2.66,0.07,0.16,1.00,-0.02
0.5332031,4.1487534E-4,-4.3468922E-4,6.1242457E-4,0.16,0.99,-0.02,19198,9940.20,0,0,0,0.84,-2.66,0.07,0.16,0.99,-0.02
0.5332031,0.0014148764,0.0015653148,0.0026124243,0.16,1.0,-0.02,19213,9940.20,0,0,165,0.91,-2.52,0.21,0.16,1.00,-0.02
0.5332031,4.1487534E-4,5.653128E-4,6.1242457E-4,0.16,1.0,-0.02,19228,9940.20,0,0,0,0.84,-2.59,0.07,0.16,1.00,-0.02
-0.46679688,-5.851239E-4,-4.3468922E-4,6.1242457E-4,0.16,1.0,-0.02,19235,9939.20,0,0,165,0.77,-2.66,0.07,0.16,1.00,-0.02
-0.46679688,-5.851239E-4,0.0015653148,6.1242457E-4,0.16,1.0,-0.02,19250,9939.20,0,0,0,0.77,-2.52,0.07,0.16,1.00,-0.02
2.4326172,4.1487534E-4,5.653128E-4,-3.875755E-4,0.16,1.0,-0.02,19265,9942.10,0,0,165,0.84,-2.59,0.00,0.16,1.00,-0.02
-0.46679688,0.0014148764,5.653128E-4,6.1242457E-4,0.16,1.0,-0.02,19273,9939.20,0,0,0,0.91,-2.59,0.07,0.16,1.00,-0.02
0.5332031,-5.851239E-4,-0.0014346875,6.1242457E-4,0.16,0.99,-0.02,19288,9940.20,0,0,165,0.77,-2.73,0.07,0.16,0.99,-0.02
0.5332031,0.0014148764,5.653128E-4,-3.875755E-4,0.16,0.99,-0.02,19303,9940.20,0,0,0,0.91,-2.59,0.00,0.16,0.99,-0.02
0.5332031,4.1487534E-4,-0.0014346875,6.1242457E-4,0.16,1.0,-0.02,19310,9940.20,0,0,165,0.84,-2.73,0.07,0.16,1.00,-0.02
-0.46679688,4.1487534E-4,5.653128E-4,6.1242457E-4,0.16,1.0,-0.02,19326,9939.20,0,0,0,0.84,-2.59,0.07,0.16,1.00,-0.02
-0.46679688,4.1487534E-4,-4.3468922E-4,-3.875755E-4,0.16,1.0,-0.02,19340,9939.20,0,0,165,0.84,-2.66,0.00,0.16,1.00,-0.02
-0.46679688,-0.0015851241,5.653128E-4,6.1242457E-4,0.16,1.0,-0.02,19347,9939.20,0,0,0,0.70,-2.59,0.07,0.16,1.00,-0.02
0.5332031,-5.851239E-4,-4.3468922E-4,-3.875755E-4,0.16,1.0,-0.02,19362,9940.20,0,0,165,0.77,-2.66,0.00,0.16,1.00,-0.02
-0.76660156,4.1487534E-4,-4.3468922E-4,-3.875755E-4,0.16,0.99,-0.02,19377,9938.90,0,0,0,0.84,-2.66,0.00,0.16,0.99,-0.02
0.5332031,-0.0015851241,5.653128E-4,-0.0013875755,0.16,1.0,-0.02,19385,9940.20,0,0,165,0.70,-2.59,-0.07,0.16,1.00,-0.02
0.5332031,-5.851239E-4,-4.3468922E-4,-0.0023875756,0.16,1.0,-0.02,19400,9940.20,0,0,0,0.77,-2.66,-0.14,0.16,1.00,-0.02
-0.76660156,-5.851239E-4,5.653128E-4,-3.875755E-4,0.16,1.0,-0.02,19415,9938.90,0,0,165,0.77,-2.59,0.00,0.16,1.00,-0.02
0.5332031,-5.851239E-4,5.653128E-4,6.1242457E-4,0.16,1.0,-0.02,19422,9940.20,0,0,0,0.77,-2.59,0.07,0.16,1.00,-0.02
0.23339844,4.1487534E-4,0.0015653148,0.0016124246,0.16,1.0,-0.02,19438,9939.90,0,0,165,0.84,-2.52,0.14,0.16,1.00,-0.02
-0.76660156,4.1487534E-4,-0.0014346875,-0.0013875755,0.16,1.0,-0.02,19453,9938.90,0,0,0,0.84,-2.73,-0.07,0.16,1.00,-0.02
0.5332031,-5.851239E-4,5.653128E-4,6.1242457E-4,0.16,1.0,-0.02,19460,9940.20,0,0,165,0.77,-2.59,0.07,0.16,1.00,-0.02
-0.46679688,4.1487534E-4,5.653128E-4,0.0016124246,0.16,1.0,-0.02,19475,9939.20,0,0,0,0.84,-2.59,0.14,0.16,1.00,-0.02
0.5332031,0.0014148764,5.653128E-4,-3.875755E-4,0.16,1.0,-0.02,19490,9940.20,0,0,165,0.91,-2.59,0.00,0.16,1.00,-0.02
0.5332031,-5.851239E-4,5.653128E-4,6.1242457E-4,0.16,1.0,-0.02,19497,9940.20,0,0,0,0.77,-2.59,0.07,0.16,1.00,-0.02
0.5332031,4.1487534E-4,-4.3468922E-4,-3.875755E-4,0.16,1.0,-0.02,19512,9940.20,0,0,165,0.84,-2.66,0.00,0.16,1.00,-0.02
-0.46679688,-5.851239E-4,5.653128E-4,-0.0013875755,0.16,1.0,-0.02,19527,9939.20,0,0,0,0.77,-2.59,-0.07,0.16,1.00,-0.02
-0.46679688,-5.851239E-4,-4.3468922E-4,-0.0013875755,0.16,1.0,-0.03,19535,9939.20,0,0,165,0.77,-2.66,-0.07,0.16,1.00,-0.03
-0.46679688,4.1487534E-4,5.653128E-4,6.1242457E-4,0.16,1.0,-0.02,19550,9939.20,0,0,0,0.84,-2.59,0.07,0.16,1.00,-0.02
0.5332031,4.1487534E-4,-4.3468922E-4,0.0016124246,0.16,1.0,-0.02,19565,9940.20,0,0,165,0.84,-2.66,0.14,0.16,1.00,-0.02
-0.46679688,-5.851239E-4,-4.3468922E-4,-3.875755E-4,0.16,1.0,-0.02,19573,9939.20,0,0,0,0.77,-2.66,0.00,0.16,1.00,-0.02
-0.46679688,-0.0015851241,-0.0014346875,-3.875755E-4,0.16,1.0,-0.02,19588,9939.20,0,0,165,0.70,-2.73,0.00,0.16,1.00,-0.02
0.5332031,-5.851239E-4,5.653128E-4,-0.0013875755,0.16,1.0,-0.02,19603,9940.20,0,0,0,0.77,-2.59,-0.07,0.16,1.00,-0.02
-0.76660156,-0.0015851241,-0.0024346858,-3.875755E-4,0.16,1.0,-0.02,19610,9938.90,0,0,165,0.70,-2.80,0.00,0.16,1.00,-0.02
0.5332031,4.1487534E-4,5.653128E-4,6.1242457E-4,0.16,1.0,-0.02,19625,9940.20,0,0,0,0.84,-2.59,0.07,0.16,1.00,-0.02
0.5332031,-5.851239E-4,5.653128E-4,-0.0023875756,0.16,1.0,-0.02,19640,9940.20,0,0,165,0.77,-2.59,-0.14,0.16,1.00,-0.02
-0.46679688,4.1487534E-4,-4.3468922E-4,6.1242457E-4,0.16,1.0,-0.02,19648,9939.20,0,0,0,0.84,-2.66,0.07,0.16,1.00,-0.02
0.8330078,0.0024148766,-0.0014346875,0.0026124243,0.16,1.0,-0.02,19663,9940.50,0,0,165,0.98,-2.73,0.21,0.16,1.00,-0.02
0.5332031,4.1487534E-4,5.653128E-4,-3.875755E-4,0.16,0.99,-0.02,19677,9940.20,0,0,0,0.84,-2.59,0.00,0.16,0.99,-0.02
0.5332031,-5.851239E-4,-4.3468922E-4,-3.875755E-4,0.16,1.0,-0.02,19685,9940.20,0,0,165,0.77,-2.66,0.00,0.16,1.00,-0.02
0.8330078,4.1487534E-4,-0.0014346875,-0.0013875755,0.16,1.0,-0.02,19700,9940.50,0,0,0,0.84,-2.73,-0.07,0.16,1.00,-0.02
1.5332031,4.1487534E-4,5.653128E-4,-3.875755E-4,0.16,1.0,-0.02,19715,9941.20,0,0,165,0.84,-2.59,0.00,0.16,1.00,-0.02
-0.46679688,-5.851239E-4,-4.3468922E-4,-0.0013875755,0.16,1.0,-0.02,19723,9939.20,0,0,0,0.77,-2.66,-0.07,0.16,1.00,-0.02
-0.46679688,4.1487534E-4,0.0015653148,6.1242457E-4,0.16,1.0,-0.02,19737,9939.20,0,0,165,0.84,-2.52,0.07,0.16,1.00,-0.02
0.5332031,-0.0015851241,-4.3468922E-4,-3.875755E-4,0.16,1.0,-0.02,19753,9940.20,0,0,0,0.70,-2.66,0.00,0.16,1.00,-0.02
0.5332031,4.1487534E-4,5.653128E-4,6.1242457E-4,0.16,1.0,-0.02,19761,9940.20,0,0,165,0.84,-2.59,0.07,0.16,1.00,-0.02
0.5332031,0.0014148764,-4.3468922E-4,6.1242457E-4,0.16,1.0,-0.02,19774,9940.20,0,0,0,0.91,-2.66,0.07,0.16,1.00,-0.02
0.5332031,-5.851239E-4,5.653128E-4,0.0016124246,0.16,1.0,-0.02,19789,9940.20,0,0,165,0.77,-2.59,0.14,0.16,1.00,-0.02
-0.46679688,-5.851239E-4,0.0015653148,0.0016124246,0.16,1.0,-0.03,19798,9939.20,0,0,0,0.77,-2.52,0.14,0.16,1.00,-0.03
0.5332031,4.1487534E-4,5.653128E-4,6.1242457E-4,0.16,1.0,-0.02,19813,9940.20,0,0,165,0.84,-2.59,0.07,0.16,1.00,-0.02
0.5332031,4.1487534E-4,0.0015653148,-0.0013875755,0.16,1.0,-0.02,19828,9940.20,0,0,0,0.84,-2.52,-0.07,0.16,1.00,-0.02
0.5332031,-0.0015851241,-4.3468922E-4,-0.0013875755,0.16,1.0,-0.02,19835,9940.20,0,0,165,0.70,-2.66,-0.07,0.16,1.00,-0.02
-0.46679688,-5.851239E-4,0.0015653148,-0.2563876,0.16,1.0,-0.02,19850,9939.20,0,0,0,0.77,-2.52,-17.92,0.16,1.00,-0.02
0.5332031,-5.851239E-4,5.653128E-4,6.1242457E-4,0.16,1.0,-0.02,19865,9940.20,0,0,165,0.77,-2.59,0.07,0.16,1.00,-0.02
-0.46679688,4.1487534E-4,0.0025653131,6.1242457E-4,0.16,0.99,-0.02,19872,9939.20,0,0,0,0.84,-2.45,0.07,0.16,0.99,-0.02
-0.46679688,-0.0015851241,-4.3468922E-4,-3.875755E-4,0.16,0.99,-0.02,19887,9939.20,0,0,165,0.70,-2.66,0.00,0.16,0.99,-0.02
0.5332031,-5.851239E-4,5.653128E-4,-0.0013875755,0.16,1.0,-0.02,19902,9940.20,0,0,0,0.77,-2.59,-0.07,0.16,1.00,-0.02
0.5332031,-0.0015851241,-4.3468922E-4,6.1242457E-4,0.16,0.99,-0.02,19910,9940.20,0,0,165,0.70,-2.66,0.07,0.16,0.99,-0.02
-0.46679688,0.0014148764,5.653128E-4,6.1242457E-4,0.16,1.0,-0.02,19925,9939.20,0,0,0,0.91,-2.59,0.07,0.16,1.00,-0.02
0.8330078,-5.851239E-4,-4.3468922E-4,0.0016124246,0.16,1.0,-0.03,19940,9940.50,0,0,165,0.77,-2.66,0.14,0.16,1.00,-0.03
-0.46679688,-5.851239E-4,-4.3468922E-4,-0.0013875755,0.16,1.0,-0.02,19948,9939.20,0,0,0,0.77,-2.66,-0.07,0.16,1.00,-0.02
-0.46679688,-5.851239E-4,0.0015653148,6.1242457E-4,0.16,1.0,-0.02,19963,9939.20,0,0,165,0.77,-2.52,0.07,0.16,1.00,-0.02
0.23339844,-5.851239E-4,-0.0014346875,6.1242457E-4,0.16,1.0,-0.02,19978,9939.90,0,0,0,0.77,-2.73,0.07,0.16,1.00,-0.02
0.5332031,0.0014148764,-4.3468922E-4,-3.875755E-4,0.16,1.0,-0.02,19985,9940.20,0,0,165,0.91,-2.66,0.00,0.16,1.00,-0.02
0.8330078,-5.851239E-4,5.653128E-4,0.0026124243,0.16,1.0,-0.02,20000,9940.50,0,0,0,0.77,-2.59,0.21,0.16,1.00,-0.02
-0.46679688,4.1487534E-4,5.653128E-4,6.1242457E-4,0.16,1.0,-0.02,20015,9939.20,0,0,165,0.84,-2.59,0.07,0.16,1.00,-0.02
-0.46679688,-0.0015851241,-0.0014346875,6.1242457E-4,0.16,1.0,-0.02,20022,9939.20,0,0,0,0.70,-2.73,0.07,0.16,1.00,-0.02
0.5332031,0.0014148764,5.653128E-4,-3.875755E-4,0.16,1.0,-0.02,20038,9940.20,0,0,165,0.91,-2.59,0.00,0.16,1.00,-0.02
0.5332031,-5.851239E-4,-4.3468922E-4,-0.0023875756,0.16,1.0,-0.02,20060,9940.20,0,0,0,0.77,-2.66,-0.14,0.16,1.00,-0.02
-0.46679688,-0.0015851241,5.653128E-4,-3.875755E-4,0.16,1.0,-0.02,20062,9939.20,0,0,165,0.70,-2.59,0.00,0.16,1.00,-0.02
0.5332031,-5.851239E-4,5.653128E-4,-3.875755E-4,0.16,1.0,-0.02,20075,9940.20,0,0,0,0.77,-2.59,0.00,0.16,1.00,-0.02
-0.46679688,-5.851239E-4,-4.3468922E-4,-3.875755E-4,0.16,1.0,-0.02,20090,9939.20,0,0,165,0.77,-2.66,0.00,0.16,1.00,-0.02
0.5332031,-5.851239E-4,-4.3468922E-4,-3.875755E-4,0.16,1.0,-0.02,20098,9940.20,0,0,0,0.77,-2.66,0.00,0.16,1.00,-0.02
-0.46679688,4.1487534E-4,5.653128E-4,-3.875755E-4,0.16,1.0,-0.02,20113,9939.20,0,0,165,0.84,-2.59,0.00,0.16,1.00,-0.02
-0.76660156,0.0014148764,5.653128E-4,6.1242457E-4,0.16,1.0,-0.02,20128,9938.90,0,0,0,0.91,-2.59,0.07,0.16,1.00,-0.02
0.5332031,-5.851239E-4,-4.3468922E-4,-3.875755E-4,0.16,1.0,-0.02,20135,9940.20,0,0,165,0.77,-2.66,0.00,0.16,1.00,-0.02
-0.46679688,-5.851239E-4,-0.0014346875,6.1242457E-4,0.16,1.0,-0.02,20151,9939.20,0,0,0,0.77,-2.73,0.07,0.16,1.00,-0.02
1.5332031,4.1487534E-4,5.653128E-4,6.1242457E-4,0.16,1.0,-0.02,20166,9941.20,0,0,165,0.84,-2.59,0.07,0.16,1.00,-0.02
0.5332031,-5.851239E-4,-4.3468922E-4,-3.875755E-4,0.16,1.0,-0.02,20173,9940.20,0,0,0,0.77,-2.66,0.00,0.16,1.00,-0.02
0.5332031,0.0024148766,0.0015653148,0.0016124246,0.16,1.0,-0.02,20187,9940.20,0,0,165,0.98,-2.52,0.14,0.16,1.00,-0.02
0.5332031,4.1487534E-4,0.0015653148,6.1242457E-4,0.16,1.0,-0.02,20202,9940.20,0,0,0,0.84,-2.52,0.07,0.16,1.00,-0.02
0.5332031,4.1487534E-4,5.653128E-4,0.0016124246,0.16,1.0,-0.02,20209,9940.20,0,0,165,0.84,-2.59,0.14,0.16,1.00,-0.02
-0.46679688,-5.851239E-4,5.653128E-4,6.1242457E-4,0.16,1.0,-0.02,20225,9939.20,0,0,0,0.77,-2.59,0.07,0.16,1.00,-0.02
0.5332031,-5.851239E-4,-4.3468922E-4,6.1242457E-4,0.16,1.0,-0.02,20241,9940.20,0,0,165,0.77,-2.66,0.07,0.16,1.00,-0.02
0.5332031,4.1487534E-4,-4.3468922E-4,-0.0013875755,0.16,1.0,-0.02,20248,9940.20,0,0,0,0.84,-2.66,-0.07,0.16,1.00,-0.02
-0.46679688,0.0014148764,0.0015653148,0.0016124246,0.16,1.0,-0.02,20263,9939.20,0,0,165,0.91,-2.52,0.14,0.16,1.00,-0.02
-0.46679688,-5.851239E-4,-0.0014346875,0.25361243,0.16,1.0,-0.02,20277,9939.20,0,0,0,0.77,-2.73,17.78,0.16,1.00,-0.02
-0.46679688,-5.851239E-4,-0.0024346858,0.25461242,0.16,1.0,-0.02,20285,9939.20,0,0,165,0.77,-2.80,17.85,0.16,1.00,-0.02
-0.46679688,4.1487534E-4,5.653128E-4,-0.0013875755,0.16,1.0,-0.02,20300,9939.20,0,0,0,0.84,-2.59,-0.07,0.16,1.00,-0.02
0.5332031,-5.851239E-4,-4.3468922E-4,-3.875755E-4,0.16,0.99,-0.02,20315,9940.20,0,0,165,0.77,-2.66,0.00,0.16,0.99,-0.02
-0.46679688,-5.851239E-4,-4.3468922E-4,-3.875755E-4,0.16,0.99,-0.02,20322,9939.20,0,0,0,0.77,-2.66,0.00,0.16,0.99,-0.02
-0.46679688,-5.851239E-4,-4.3468922E-4,6.1242457E-4,0.16,1.0,-0.02,20337,9939.20,0,0,165,0.77,-2.66,0.07,0.16,1.00,-0.02
-0.46679688,4.1487534E-4,-0.0014346875,-0.0013875755,0.16,1.0,-0.02,20353,9939.20,0,0,0,0.84,-2.73,-0.07,0.16,1.00,-0.02
0.5332031,-5.851239E-4,-4.3468922E-4,0.0016124246,0.16,1.0,-0.02,20360,9940.20,0,0,165,0.77,-2.66,0.14,0.16,1.00,-0.02
0.5332031,0.0014148764,5.653128E-4,-3.875755E-4,0.16,1.0,-0.02,20375,9940.20,0,0,0,0.91,-2.59,0.00,0.16,1.00,-0.02
0.23339844,4.1487534E-4,-4.3468922E-4,-3.875755E-4,0.16,0.99,-0.02,20390,9939.90,0,0,165,0.84,-2.66,0.00,0.16,0.99,-0.02
0.5332031,4.1487534E-4,-4.3468922E-4,0.0016124246,0.16,1.0,-0.02,20397,9940.20,0,0,0,0.84,-2.66,0.14,0.16,1.00,-0.02
0.8330078,4.1487534E-4,-4.3468922E-4,0.0026124243,0.16,1.0,-0.02,20412,9940.50,0,0,165,0.84,-2.66,0.21,0.16,1.00,-0.02
0.23339844,-5.851239E-4,0.0025653131,0.0016124246,0.16,1.0,-0.02,20428,9939.90,0,0,0,0.77,-2.45,0.14,0.16,1.00,-0.02
-0.46679688,4.1487534E-4,0.0015653148,-3.875755E-4,0.16,1.0,-0.02,20435,9939.20,0,0,165,0.84,-2.52,0.00,0.16,1.00,-0.02
0.5332031,0.0014148764,0.0015653148,6.1242457E-4,0.16,1.0,-0.02,20450,9940.20,0,0,0,0.91,-2.52,0.07,0.16,1.00,-0.02
-0.46679688,4.1487534E-4,-4.3468922E-4,6.1242457E-4,0.16,1.0,-0.02,20464,9939.20,0,0,165,0.84,-2.66,0.07,0.16,1.00,-0.02
0.5332031,-5.851239E-4,5.653128E-4,-3.875755E-4,0.16,1.0,-0.02,20473,9940.20,0,0,0,0.77,-2.59,0.00,0.16,1.00,-0.02
0.5332031,-0.0015851241,-0.0014346875,-0.0023875756,0.16,0.99,-0.02,20487,9940.20,0,0,165,0.70,-2.73,-0.14,0.16,0.99,-0.02
0.5332031,-0.0015851241,-4.3468922E-4,-3.875755E-4,0.16,1.0,-0.02,20502,9940.20,0,0,0,0.70,-2.66,0.00,0.16,1.00,-0.02
0.5332031,-0.0015851241,-0.0014346875,6.1242457E-4,0.16,1.0,-0.02,20510,9940.20,0,0,165,0.70,-2.73,0.07,0.16,1.00,-0.02
-0.46679688,4.1487534E-4,-4.3468922E-4,6.1242457E-4,0.16,0.99,-0.02,20525,9939.20,0,0,0,0.84,-2.66,0.07,0.16,0.99,-0.02
0.5332031,-0.0015851241,-0.0014346875,-0.0013875755,0.16,1.0,-0.02,20540,9940.20,0,0,165,0.70,-2.73,-0.07,0.16,1.00,-0.02
-0.46679688,4.1487534E-4,5.653128E-4,0.0016124246,0.16,1.0,-0.02,20548,9939.20,0,0,0,0.84,-2.59,0.14,0.16,1.00,-0.02
-0.46679688,-5.851239E-4,-4.3468922E-4,-3.875755E-4,0.16,1.0,-0.02,20563,9939.20,0,0,165,0.77,-2.66,0.00,0.16,1.00,-0.02
-0.46679688,4.1487534E-4,0.0015653148,-3.875755E-4,0.16,1.0,-0.02,20577,9939.20,0,0,0,0.84,-2.52,0.00,0.16,1.00,-0.02
-0.76660156,0.0014148764,0.0015653148,6.1242457E-4,0.16,1.0,-0.02,20586,9938.90,0,0,165,0.91,-2.52,0.07,0.16,1.00,-0.02
-0.46679688,-5.851239E-4,-4.3468922E-4,6.1242457E-4,0.16,1.0,-0.02,20600,9939.20,0,0,0,0.77,-2.66,0.07,0.16,1.00,-0.02
0.5332031,0.0014148764,5.653128E-4,6.1242457E-4,0.15,1.0,-0.02,20616,9940.20,0,0,165,0.91,-2.59,0.07,0.15,1.00,-0.02
0.5332031,0.0014148764,-4.3468922E-4,6.1242457E-4,0.16,0.99,-0.02,20623,9940.20,0,0,0,0.91,-2.66,0.07,0.16,0.99,-0.02
-0.46679688,0.0014148764,-4.3468922E-4,-0.0013875755,0.16,1.0,-0.02,20638,9939.20,0,0,165,0.91,-2.66,-0.07,0.16,1.00,-0.02
0.5332031,0.0014148764,5.653128E-4,0.0016124246,0.16,1.0,-0.02,20652,9940.20,0,0,0,0.91,-2.59,0.14,0.16,1.00,-0.02
-0.46679688,4.1487534E-4,-0.0014346875,-3.875755E-4,0.16,1.0,-0.02,20660,9939.20,0,0,165,0.84,-2.73,0.00,0.16,1.00,-0.02
0.8330078,-5.851239E-4,-4.3468922E-4,-3.875755E-4,0.16,1.0,-0.02,20675,9940.50,0,0,0,0.77,-2.66,0.00,0.16,1.00,-0.02
0.8330078,-5.851239E-4,-0.0014346875,-3.875755E-4,0.16,1.0,-0.02,20690,9940.50,0,0,165,0.77,-2.73,0.00,0.16,1.00,-0.02
-1.3671875,-5.851239E-4,-4.3468922E-4,6.1242457E-4,0.16,1.0,-0.02,20698,9938.30,0,0,0,0.77,-2.66,0.07,0.16,1.00,-0.02
0.8330078,4.1487534E-4,-4.3468922E-4,-3.875755E-4,0.15,1.0,-0.02,20712,9940.50,0,0,165,0.84,-2.66,0.00,0.15,1.00,-0.02
-0.46679688,4.1487534E-4,5.653128E-4,6.1242457E-4,0.16,1.0,-0.02,20727,9939.20,0,0,0,0.84,-2.59,0.07,0.16,1.00,-0.02
0.5332031,-0.0015851241,-4.3468922E-4,-3.875755E-4,0.16,1.0,-0.02,20735,9940.20,0,0,165,0.70,-2.66,0.00,0.16,1.00,-0.02
0.5332031,4.1487534E-4,5.653128E-4,-3.875755E-4,0.16,1.0,-0.02,20750,9940.20,0,0,0,0.84,-2.59,0.00,0.16,1.00,-0.02
0.5332031,-5.851239E-4,5.653128E-4,0.0016124246,0.16,1.0,-0.02,20765,9940.20,0,0,165,0.77,-2.59,0.14,0.16,1.00,-0.02
-0.46679688,-5.851239E-4,-4.3468922E-4,-3.875755E-4,0.16,1.0,-0.02,20772,9939.20,0,0,0,0.77,-2.66,0.00,0.16,1.00,-0.02
-0.46679688,-5.851239E-4,5.653128E-4,-0.0013875755,0.16,0.99,-0.02,20788,9939.20,0,0,165,0.77,-2.59,-0.07,0.16,0.99,-0.02
-0.46679688,4.1487534E-4,-4.3468922E-4,-3.875755E-4,0.16,1.0,-0.02,20802,9939.20,0,0,0,0.84,-2.66,0.00,0.16,1.00,-0.02
-0.46679688,-5.851239E-4,5.653128E-4,-3.875755E-4,0.16,1.0,-0.02,20810,9939.20,0,0,165,0.77,-2.59,0.00,0.16,1.00,-0.02
0.5332031,0.0014148764,5.653128E-4,6.1242457E-4,0.16,0.99,-0.02,20825,9940.20,0,0,0,0.91,-2.59,0.07,0.16,0.99,-0.02
0.5332031,0.0014148764,5.653128E-4,-3.875755E-4,0.16,1.0,-0.02,20840,9940.20,0,0,165,0.91,-2.59,0.00,0.16,1.00,-0.02
-0.46679688,4.1487534E-4,-4.3468922E-4,6.1242457E-4,0.16,0.99,-0.02,20847,9939.20,0,0,0,0.84,-2.66,0.07,0.16,0.99,-0.02
-0.46679688,4.1487534E-4,5.653128E-4,-3.875755E-4,0.16,1.0,-0.02,20862,9939.20,0,0,165,0.84,-2.59,0.00,0.16,1.00,-0.02
0.5332031,0.0024148766,5.653128E-4,-3.875755E-4,0.16,1.0,-0.02,20878,9940.20,0,0,0,0.98,-2.59,0.00,0.16,1.00,-0.02
-0.46679688,-5.851239E-4,5.653128E-4,6.1242457E-4,0.16,1.0,-0.02,20885,9939.20,0,0,165,0.77,-2.59,0.07,0.16,1.00,-0.02
0.5332031,0.0014148764,5.653128E-4,0.0016124246,0.15,0.99,-0.02,20900,9940.20,0,0,0,0.91,-2.59,0.14,0.15,0.99,-0.02
-0.46679688,-5.851239E-4,5.653128E-4,6.1242457E-4,0.16,0.99,-0.02,20915,9939.20,0,0,165,0.77,-2.59,0.07,0.16,0.99,-0.02
-0.46679688,-0.0015851241,-4.3468922E-4,-0.0013875755,0.16,0.99,-0.02,20922,9939.20,0,0,0,0.70,-2.66,-0.07,0.16,0.99,-0.02
-0.06738281,4.1487534E-4,-0.0014346875,-3.875755E-4,0.16,1.0,-0.02,20937,9939.60,0,0,165,0.84,-2.73,0.00,0.16,1.00,-0.02
0.5332031,0.0014148764,5.653128E-4,0.0016124246,0.16,1.0,-0.02,20952,9940.20,0,0,0,0.91,-2.59,0.14,0.16,1.00,-0.02
-0.46679688,-5.851239E-4,-4.3468922E-4,6.1242457E-4,0.16,1.0,-0.02,20960,9939.20,0,0,165,0.77,-2.66,0.07,0.16,1.00,-0.02
-0.46679688,-0.0015851241,-4.3468922E-4,-0.0013875755,0.16,1.0,-0.02,20975,9939.20,0,0,0,0.70,-2.66,-0.07,0.16,1.00,-0.02
-0.46679688,-5.851239E-4,5.653128E-4,-3.875755E-4,0.16,1.0,-0.02,20990,9939.20,0,0,165,0.77,-2.59,0.00,0.16,1.00,-0.02
0.5332031,-0.0015851241,-0.0014346875,6.1242457E-4,0.16,1.0,-0.02,20998,9940.20,0,0,0,0.70,-2.73,0.07,0.16,1.00,-0.02
-0.46679688,-0.0015851241,-4.3468922E-4,-0.0013875755,0.16,0.99,-0.02,21013,9939.20,0,0,165,0.70,-2.66,-0.07,0.16,0.99,-0.02
-0.46679688,4.1487534E-4,5.653128E-4,-3.875755E-4,0.16,1.0,-0.02,21027,9939.20,0,0,0,0.84,-2.59,0.00,0.16,1.00,-0.02
-0.46679688,-5.851239E-4,-0.0014346875,-3.875755E-4,0.16,1.0,-0.02,21035,9939.20,0,0,165,0.77,-2.73,0.00,0.16,1.00,-0.02
-0.46679688,-0.0015851241,5.653128E-4,-0.0013875755,0.16,0.99,-0.02,21050,9939.20,0,0,0,0.70,-2.59,-0.07,0.16,0.99,-0.02
-0.46679688,-5.851239E-4,-4.3468922E-4,-3.875755E-4,0.16,1.0,-0.02,21064,9939.20,0,0,165,0.77,-2.66,0.00,0.16,1.00,-0.02
0.5332031,4.1487534E-4,5.653128E-4,6.1242457E-4,0.16,1.0,-0.02,21072,9940.20,0,0,0,0.84,-2.59,0.07,0.16,1.00,-0.02
0.5332031,-5.851239E-4,-4.3468922E-4,-3.875755E-4,0.16,1.0,-0.02,21087,9940.20,0,0,165,0.77,-2.66,0.00,0.16,1.00,-0.02
-0.46679688,-5.851239E-4,-4.3468922E-4,-0.0013875755,0.16,1.0,-0.02,21102,9939.20,0,0,0,0.77,-2.66,-0.07,0.16,1.00,-0.02
0.8330078,0.0014148764,0.0025653131,0.0016124246,0.16,1.0,-0.02,21110,9940.50,0,0,165,0.91,-2.45,0.14,0.16,1.00,-0.02
0.5332031,-5.851239E-4,5.653128E-4,-0.0013875755,0.16,1.0,-0.02,21124,9940.20,0,0,0,0.77,-2.59,-0.07,0.16,1.00,-0.02
-0.46679688,-0.0015851241,-4.3468922E-4,-0.0023875756,0.16,1.0,-0.02,21140,9939.20,0,0,165,0.70,-2.66,-0.14,0.16,1.00,-0.02
-0.46679688,-5.851239E-4,5.653128E-4,-3.875755E-4,0.16,1.0,-0.02,21147,9939.20,0,0,0,0.77,-2.59,0.00,0.16,1.00,-0.02
0.5332031,-5.851239E-4,-4.3468922E-4,-3.875755E-4,0.16,1.0,-0.02,21162,9940.20,0,0,165,0.77,-2.66,0.00,0.16,1.00,-0.02
-0.46679688,0.0014148764,0.0015653148,6.1242457E-4,0.16,1.0,-0.02,21177,9939.20,0,0,0,0.91,-2.52,0.07,0.16,1.00,-0.02
-0.06738281,-5.851239E-4,0.0015653148,6.1242457E-4,0.16,0.99,-0.02,21185,9939.60,0,0,165,0.77,-2.52,0.07,0.16,0.99,-0.02
-0.46679688,4.1487534E-4,5.653128E-4,-3.875755E-4,0.16,1.0,-0.02,21200,9939.20,0,0,0,0.84,-2.59,0.00,0.16,1.00,-0.02
0.5332031,-5.851239E-4,5.653128E-4,-3.875755E-4,0.16,0.99,-0.02,21215,9940.20,0,0,165,0.77,-2.59,0.00,0.16,0.99,-0.02
-0.46679688,-0.0015851241,-4.3468922E-4,-3.875755E-4,0.16,1.0,-0.02,21222,9939.20,0,0,0,0.70,-2.66,0.00,0.16,1.00,-0.02
-0.06738281,-5.851239E-4,-4.3468922E-4,-0.0023875756,0.16,1.0,-0.02,21238,9939.60,0,0,165,0.77,-2.66,-0.14,0.16,1.00,-0.02
-1.3671875,0.0014148764,-4.3468922E-4,-3.875755E-4,0.16,1.0,-0.02,21252,9938.30,0,0,0,0.91,-2.66,0.00,0.16,1.00,-0.02
0.5332031,4.1487534E-4,-4.3468922E-4,-3.875755E-4,0.16,1.0,-0.02,21259,9940.20,0,0,165,0.84,-2.66,0.00,0.16,1.00,-0.02
-0.46679688,4.1487534E-4,-4.3468922E-4,-3.875755E-4,0.16,1.0,-0.02,21275,9939.20,0,0,0,0.84,-2.66,0.00,0.16,1.00,-0.02
1.5332031,-0.0015851241,-4.3468922E-4,-0.0013875755,0.16,1.0,-0.02,21290,9941.20,0,0,165,0.70,-2.66,-0.07,0.16,1.00,-0.02
-0.06738281,4.1487534E-4,-4.3468922E-4,6.1242457E-4,0.16,1.0,-0.02,21297,9939.60,0,0,0,0.84,-2.66,0.07,0.16,1.00,-0.02
0.5332031,4.1487534E-4,5.653128E-4,-3.875755E-4,0.16,1.0,-0.02,21312,9940.20,0,0,165,0.84,-2.59,0.00,0.16,1.00,-0.02
2.4326172,0.0014148764,5.653128E-4,0.0016124246,0.16,1.0,-0.02,21327,9942.10,0,0,0,0.91,-2.59,0.14,0.16,1.00,-0.02
-0.46679688,4.1487534E-4,-4.3468922E-4,6.1242457E-4,0.16,1.0,-0.02,21335,9939.20,0,0,165,0.84,-2.66,0.07,0.16,1.00,-0.02
-0.06738281,-5.851239E-4,-4.3468922E-4,-0.0013875755,0.16,1.0,-0.02,21350,9939.60,0,0,0,0.77,-2.66,-0.07,0.16,1.00,-0.02
0.5332031,-5.851239E-4,-4.3468922E-4,6.1242457E-4,0.16,1.0,-0.02,21365,9940.20,0,0,165,0.77,-2.66,0.07,0.16,1.00,-0.02
-0.06738281,0.0014148764,0.0015653148,-3.875755E-4,0.16,1.0,-0.02,21372,9939.60,0,0,0,0.91,-2.52,0.00,0.16,1.00,-0.02
-0.46679688,-5.851239E-4,-4.3468922E-4,-0.0013875755,0.16,0.99,-0.02,21388,9939.20,0,0,165,0.77,-2.66,-0.07,0.16,0.99,-0.02
0.5332031,-0.0015851241,5.653128E-4,-3.875755E-4,0.16,1.0,-0.02,21395,9940.20,0,0,0,0.70,-2.59,0.00,0.16,1.00,-0.02
-0.46679688,0.0014148764,-4.3468922E-4,-0.0013875755,0.16,1.0,-0.02,21409,9939.20,0,0,165,0.91,-2.66,-0.07,0.16,1.00,-0.02
0.5332031,4.1487534E-4,-4.3468922E-4,6.1242457E-4,0.16,1.0,-0.02,21425,9940.20,0,0,0,0.84,-2.66,0.07,0.16,1.00,-0.02
-0.46679688,-5.851239E-4,5.653128E-4,6.1242457E-4,0.16,0.99,-0.02,21432,9939.20,0,0,165,0.77,-2.59,0.07,0.16,0.99,-0.02
0.5332031,-0.0015851241,-0.0014346875,-0.0013875755,0.16,1.0,-0.02,21447,9940.20,0,0,0,0.70,-2.73,-0.07,0.16,1.00,-0.02
0.5332031,4.1487534E-4,0.0015653148,6.1242457E-4,0.16,1.0,-0.02,21463,9940.20,0,0,165,0.84,-2.52,0.07,0.16,1.00,-0.02
-0.46679688,4.1487534E-4,-4.3468922E-4,-3.875755E-4,0.16,1.0,-0.02,21470,9939.20,0,0,0,0.84,-2.66,0.00,0.16,1.00,-0.02
-0.06738281,4.1487534E-4,5.653128E-4,-3.875755E-4,0.16,1.0,-0.02,21485,9939.60,0,0,165,0.84,-2.59,0.00,0.16,1.00,-0.02
-0.46679688,-0.0015851241,-4.3468922E-4,-3.875755E-4,0.16,1.0,-0.02,21500,9939.20,0,0,0,0.70,-2.66,0.00,0.16,1.00,-0.02
0.5332031,-5.851239E-4,-4.3468922E-4,-3.875755E-4,0.16,1.0,-0.02,21508,9940.20,0,0,165,0.77,-2.66,0.00,0.16,1.00,-0.02
-0.46679688,-5.851239E-4,5.653128E-4,6.1242457E-4,0.16,1.0,-0.02,21523,9939.20,0,0,0,0.77,-2.59,0.07,0.16,1.00,-0.02
-0.46679688,4.1487534E-4,5.653128E-4,-3.875755E-4,0.16,1.0,-0.02,21537,9939.20,0,0,165,0.84,-2.59,0.00,0.16,1.00,-0.02
0.5332031,-5.851239E-4,5.653128E-4,6.1242457E-4,0.16,1.0,-0.02,21545,9940.20,0,0,0,0.77,-2.59,0.07,0.16,1.00,-0.02
-0.46679688,-5.851239E-4,5.653128E-4,6.1242457E-4,0.16,1.0,-0.02,21559,9939.20,0,0,165,0.77,-2.59,0.07,0.16,1.00,-0.02
-0.46679688,4.1487534E-4,5.653128E-4,-3.875755E-4,0.16,1.0,-0.02,21574,9939.20,0,0,0,0.84,-2.59,0.00,0.16,1.00,-0.02
-0.06738281,4.1487534E-4,-4.3468922E-4,0.0016124246,0.16,1.0,-0.02,21582,9939.60,0,0,165,0.84,-2.66,0.14,0.16,1.00,-0.02
0.5332031,4.1487534E-4,5.653128E-4,6.1242457E-4,0.16,1.0,-0.02,21597,9940.20,0,0,0,0.84,-2.59,0.07,0.16,1.00,-0.02
0.5332031,-0.0015851241,-4.3468922E-4,-3.875755E-4,0.16,1.0,-0.02,21612,9940.20,0,0,165,0.70,-2.66,0.00,0.16,1.00,-0.02
-0.46679688,-0.0015851241,5.653128E-4,-3.875755E-4,0.16,1.0,-0.02,21619,9939.20,0,0,0,0.70,-2.59,0.00,0.16,1.00,-0.02
-0.06738281,4.1487534E-4,-4.3468922E-4,-3.875755E-4,0.16,0.99,-0.02,21634,9939.60,0,0,165,0.84,-2.66,0.00,0.16,0.99,-0.02
-0.46679688,0.0024148766,0.0025653131,6.1242457E-4,0.16,1.0,-0.02,21650,9939.20,0,0,0,0.98,-2.45,0.07,0.16,1.00,-0.02
-0.46679688,4.1487534E-4,5.653128E-4,6.1242457E-4,0.16,1.0,-0.02,21658,9939.20,0,0,165,0.84,-2.59,0.07,0.16,1.00,-0.02
0.5332031,-0.0015851241,-4.3468922E-4,6.1242457E-4,0.16,1.0,-0.02,21673,9940.20,0,0,0,0.70,-2.66,0.07,0.16,1.00,-0.02
-0.46679688,-5.851239E-4,5.653128E-4,-3.875755E-4,0.16,1.0,-0.02,21687,9939.20,0,0,165,0.77,-2.59,0.00,0.16,1.00,-0.02
-0.46679688,-5.851239E-4,-0.0024346858,-3.875755E-4,0.16,1.0,-0.02,21695,9939.20,0,0,0,0.77,-2.80,0.00,0.16,1.00,-0.02
0.5332031,-5.851239E-4,-0.0014346875,6.1242457E-4,0.16,1.0,-0.02,21710,9940.20,0,0,165,0.77,-2.73,0.07,0.16,1.00,-0.02
-1.0673828,4.1487534E-4,5.653128E-4,-0.0023875756,0.16,0.99,-0.02,21725,9938.60,0,0,0,0.84,-2.59,-0.14,0.16,0.99,-0.02
-0.06738281,-5.851239E-4,-4.3468922E-4,-0.0023875756,0.16,1.0,-0.02,21732,9939.60,0,0,165,0.77,-2.66,-0.14,0.16,1.00,-0.02
0.5332031,4.1487534E-4,0.0015653148,-3.875755E-4,0.16,1.0,-0.02,21747,9940.20,0,0,0,0.84,-2.52,0.00,0.16,1.00,-0.02
-0.46679688,0.0024148766,5.653128E-4,-0.0013875755,0.16,1.0,-0.02,21763,9939.20,0,0,165,0.98,-2.59,-0.07,0.16,1.00,-0.02
0.5332031,4.1487534E-4,5.653128E-4,0.0026124243,0.16,1.0,-0.02,21770,9940.20,0,0,0,0.84,-2.59,0.21,0.16,1.00,-0.02
-0.46679688,-0.0015851241,-4.3468922E-4,-0.0013875755,0.15,1.0,-0.02,21785,9939.20,0,0,165,0.70,-2.66,-0.07,0.15,1.00,-0.02
-0.06738281,-0.0015851241,-4.3468922E-4,6.1242457E-4,0.16,1.0,-0.02,21799,9939.60,0,0,0,0.70,-2.66,0.07,0.16,1.00,-0.02
-0.46679688,0.0024148766,-4.3468922E-4,-3.875755E-4,0.16,1.0,-0.02,21808,9939.20,0,0,165,0.98,-2.66,0.00,0.16,1.00,-0.02
0.8330078,4.1487534E-4,0.0015653148,-3.875755E-4,0.16,1.0,-0.02,21823,9940.50,0,0,0,0.84,-2.52,0.00,0.16,1.00,-0.02
-0.46679688,4.1487534E-4,0.0015653148,-0.0013875755,0.16,1.0,-0.02,21838,9939.20,0,0,165,0.84,-2.52,-0.07,0.16,1.00,-0.02
-0.46679688,0.0024148766,-4.3468922E-4,6.1242457E-4,0.16,1.0,-0.02,21845,9939.20,0,0,0,0.98,-2.66,0.07,0.16,1.00,-0.02
-0.06738281,-5.851239E-4,5.653128E-4,6.1242457E-4,0.16,1.0,-0.02,21860,9939.60,0,0,165,0.77,-2.59,0.07,0.16,1.00,-0.02
-0.46679688,-5.851239E-4,5.653128E-4,-3.875755E-4,0.16,1.0,-0.02,21875,9939.20,0,0,0,0.77,-2.59,0.00,0.16,1.00,-0.02
-0.46679688,4.1487534E-4,-4.3468922E-4,-3.875755E-4,0.16,1.0,-0.02,21882,9939.20,0,0,165,0.84,-2.66,0.00,0.16,1.00,-0.02
-0.06738281,0.0014148764,-4.3468922E-4,0.0016124246,0.16,1.0,-0.02,21897,9939.60,0,0,0,0.91,-2.66,0.14,0.16,1.00,-0.02
0.8330078,4.1487534E-4,5.653128E-4,-3.875755E-4,0.16,0.99,-0.02,21905,9940.50,0,0,165,0.84,-2.59,0.00,0.16,0.99,-0.02
-0.06738281,-5.851239E-4,-4.3468922E-4,0.0016124246,0.16,1.0,-0.02,21920,9939.60,0,0,0,0.77,-2.66,0.14,0.16,1.00,-0.02
-0.06738281,-5.851239E-4,-4.3468922E-4,-3.875755E-4,0.16,0.99,-0.02,21935,9939.60,0,0,165,0.77,-2.66,0.00,0.16,0.99,-0.02
-0.46679688,4.1487534E-4,5.653128E-4,0.0016124246,0.16,1.0,-0.02,21942,9939.20,0,0,0,0.84,-2.59,0.14,0.16,1.00,-0.02
-0.46679688,-5.851239E-4,-4.3468922E-4,6.1242457E-4,0.16,1.0,-0.02,21957,9939.20,0,0,165,0.77,-2.66,0.07,0.16,1.00,-0.02
0.5332031,-5.851239E-4,-4.3468922E-4,-3.875755E-4,0.16,1.0,-0.02,21972,9940.20,0,0,0,0.77,-2.66,0.00,0.16,1.00,-0.02
0.8330078,-5.851239E-4,-4.3468922E-4,-3.875755E-4,0.16,1.0,-0.02,21980,9940.50,0,0,165,0.77,-2.66,0.00,0.16,1.00,-0.02
-0.06738281,-5.851239E-4,-4.3468922E-4,-3.875755E-4,0.16,1.0,-0.02,21995,9939.60,0,0,0,0.77,-2.66,0.00,0.16,1.00,-0.02
-0.46679688,4.1487534E-4,5.653128E-4,-3.875755E-4,0.16,0.99,-0.02,22002,9939.20,0,0,165,0.84,-2.59,0.00,0.16,0.99,-0.02
0.5332031,-5.851239E-4,5.653128E-4,0.0016124246,0.16,1.0,-0.02,22017,9940.20,0,0,0,0.77,-2.59,0.14,0.16,1.00,-0.02
-0.06738281,4.1487534E-4,0.0015653148,6.1242457E-4,0.16,1.0,-0.02,22032,9939.60,0,0,165,0.84,-2.52,0.07,0.16,1.00,-0.02
-0.06738281,-5.851239E-4,5.653128E-4,6.1242457E-4,0.16,1.0,-0.02,22040,9939.60,0,0,0,0.77,-2.59,0.07,0.16,1.00,-0.02
-0.06738281,4.1487534E-4,0.0015653148,0.0016124246,0.16,1.0,-0.02,22055,9939.60,0,0,165,0.84,-2.52,0.14,0.16,1.00,-0.02
-0.06738281,4.1487534E-4,-0.0014346875,-3.875755E-4,0.16,1.0,-0.02,22070,9939.60,0,0,0,0.84,-2.73,0.00,0.16,1.00,-0.02
-0.46679688,-5.851239E-4,-4.3468922E-4,-3.875755E-4,0.16,1.0,-0.02,22078,9939.20,0,0,165,0.77,-2.66,0.00,0.16,1.00,-0.02
0.8330078,-5.851239E-4,-4.3468922E-4,6.1242457E-4,0.16,0.99,-0.02,22092,9940.50,0,0,0,0.77,-2.66,0.07,0.16,0.99,-0.02
0.8330078,-0.0025851242,5.653128E-4,6.1242457E-4,0.16,1.0,-0.02,22107,9940.50,0,0,165,0.63,-2.59,0.07,0.16,1.00,-0.02
-0.46679688,-5.851239E-4,-4.3468922E-4,6.1242457E-4,0.16,1.0,-0.02,22115,9939.20,0,0,0,0.77,-2.66,0.07,0.16,1.00,-0.02
-0.46679688,-5.851239E-4,5.653128E-4,6.1242457E-4,0.16,1.0,-0.02,22130,9939.20,0,0,165,0.77,-2.59,0.07,0.16,1.00,-0.02
-0.76660156,4.1487534E-4,5.653128E-4,0.0016124246,0.16,1.0,-0.02,22145,9938.90,0,0,0,0.84,-2.59,0.14,0.16,1.00,-0.02
-0.06738281,0.0014148764,5.653128E-4,0.0016124246,0.16,1.0,-0.02,22152,9939.60,0,0,165,0.91,-2.59,0.14,0.16,1.00,-0.02
-0.46679688,4.1487534E-4,5.653128E-4,-3.875755E-4,0.16,1.0,-0.02,22167,9939.20,0,0,0,0.84,-2.59,0.00,0.16,1.00,-0.02
-0.46679688,4.1487534E-4,-4.3468922E-4,0.0016124246,0.16,0.99,-0.03,22182,9939.20,0,0,165,0.84,-2.66,0.14,0.16,0.99,-0.03
-0.06738281,4.1487534E-4,-4.3468922E-4,-3.875755E-4,0.16,1.0,-0.02,22190,9939.60,0,0,0,0.84,-2.66,0.00,0.16,1.00,-0.02
-0.06738281,4.1487534E-4,5.653128E-4,6.1242457E-4,0.16,1.0,-0.02,22205,9939.60,0,0,165,0.84,-2.59,0.07,0.16,1.00,-0.02
-0.46679688,-5.851239E-4,-4.3468922E-4,0.0016124246,0.16,1.0,-0.02,22220,9939.20,0,0,0,0.77,-2.66,0.14,0.16,1.00,-0.02
0.8330078,-0.0015851241,5.653128E-4,-3.875755E-4,0.16,1.0,-0.02,22227,9940.50,0,0,165,0.70,-2.59,0.00,0.16,1.00,-0.02
-0.46679688,0.0014148764,5.653128E-4,6.1242457E-4,0.16,1.0,-0.02,22242,9939.20,0,0,0,0.91,-2.59,0.07,0.16,1.00,-0.02
0.8330078,-5.851239E-4,-0.0014346875,-0.0013875755,0.16,1.0,-0.02,22257,9940.50,0,0,165,0.77,-2.73,-0.07,0.16,1.00,-0.02
-0.06738281,-0.0015851241,-4.3468922E-4,-3.875755E-4,0.16,1.0,-0.02,22264,9939.60,0,0,0,0.70,-2.66,0.00,0.16,1.00,-0.02
0.5332031,-5.851239E-4,5.653128E-4,6.1242457E-4,0.16,1.0,-0.02,22280,9940.20,0,0,165,0.77,-2.59,0.07,0.16,1.00,-0.02
0.23339844,-0.0015851241,-4.3468922E-4,6.1242457E-4,0.16,1.0,-0.02,22302,9939.90,0,0,0,0.70,-2.66,0.07,0.16,1.00,-0.02
0.5332031,-5.851239E-4,-4.3468922E-4,-3.875755E-4,0.16,1.0,-0.02,22304,9940.20,0,0,165,0.77,-2.66,0.00,0.16,1.00,-0.02
-0.06738281,-5.851239E-4,5.653128E-4,6.1242457E-4,0.16,1.0,-0.02,22317,9939.60,0,0,0,0.77,-2.59,0.07,0.16,1.00,-0.02
-0.06738281,-5.851239E-4,-4.3468922E-4,-3.875755E-4,0.16,1.0,-0.02,22332,9939.60,0,0,165,0.77,-2.66,0.00,0.16,1.00,-0.02
-0.06738281,-5.851239E-4,0.0015653148,6.1242457E-4,0.16,1.0,-0.02,22339,9939.60,0,0,0,0.77,-2.52,0.07,0.16,1.00,-0.02
-0.06738281,4.1487534E-4,5.653128E-4,-3.875755E-4,0.16,1.0,-0.02,22355,9939.60,0,0,165,0.84,-2.59,0.00,0.16,1.00,-0.02
0.5332031,0.0014148764,-4.3468922E-4,6.1242457E-4,0.16,1.0,-0.02,22370,9940.20,0,0,0,0.91,-2.66,0.07,0.16,1.00,-0.02
-0.06738281,4.1487534E-4,-4.3468922E-4,0.0016124246,0.16,1.0,-0.02,22377,9939.60,0,0,165,0.84,-2.66,0.14,0.16,1.00,-0.02
-0.06738281,0.0014148764,-4.3468922E-4,-0.0013875755,0.16,0.99,-0.02,22392,9939.60,0,0,0,0.91,-2.66,-0.07,0.16,0.99,-0.02
-1.0673828,4.1487534E-4,5.653128E-4,-3.875755E-4,0.16,1.0,-0.02,22415,9938.60,0,0,165,0.84,-2.59,0.00,0.16,1.00,-0.02
0.8330078,4.1487534E-4,-4.3468922E-4,-0.0013875755,0.16,1.0,-0.02,22416,9940.50,0,0,0,0.84,-2.66,-0.07,0.16,1.00,-0.02
-0.06738281,0.0014148764,-0.0014346875,-3.875755E-4,0.16,1.0,-0.02,22430,9939.60,0,0,165,0.91,-2.73,0.00,0.16,1.00,-0.02
-0.06738281,4.1487534E-4,-4.3468922E-4,-0.0013875755,0.16,1.0,-0.02,22445,9939.60,0,0,0,0.84,-2.66,-0.07,0.16,1.00,-0.02
-0.06738281,-0.0015851241,-4.3468922E-4,-3.875755E-4,0.16,0.99,-0.02,22453,9939.60,0,0,165,0.70,-2.66,0.00,0.16,0.99,-0.02
-1.0673828,4.1487534E-4,-4.3468922E-4,-3.875755E-4,0.16,1.0,-0.02,22468,9938.60,0,0,0,0.84,-2.66,0.00,0.16,1.00,-0.02
-0.76660156,-5.851239E-4,5.653128E-4,-0.0013875755,0.15,1.0,-0.02,22482,9938.90,0,0,165,0.77,-2.59,-0.07,0.15,1.00,-0.02
0.8330078,-0.0015851241,5.653128E-4,0.0016124246,0.16,1.0,-0.02,22489,9940.50,0,0,0,0.70,-2.59,0.14,0.16,1.00,-0.02
-0.06738281,4.1487534E-4,-0.0014346875,6.1242457E-4,0.16,0.99,-0.02,22504,9939.60,0,0,165,0.84,-2.73,0.07,0.16,0.99,-0.02
0.5332031,-5.851239E-4,-4.3468922E-4,-3.875755E-4,0.16,1.0,-0.02,22520,9940.20,0,0,0,0.77,-2.66,0.00,0.16,1.00,-0.02
-0.06738281,-0.0015851241,-0.0014346875,-0.0013875755,0.16,1.0,-0.02,22527,9939.60,0,0,165,0.70,-2.73,-0.07,0.16,1.00,-0.02
-1.3671875,-5.851239E-4,-4.3468922E-4,-0.0023875756,0.16,1.0,-0.02,22542,9938.30,0,0,0,0.77,-2.66,-0.14,0.16,1.00,-0.02
-0.06738281,0.0014148764,5.653128E-4,-3.875755E-4,0.16,1.0,-0.02,22557,9939.60,0,0,165,0.91,-2.59,0.00,0.16,1.00,-0.02
0.5332031,-0.0015851241,-4.3468922E-4,-3.875755E-4,0.16,1.0,-0.02,22565,9940.20,0,0,0,0.70,-2.66,0.00,0.16,1.00,-0.02
-0.06738281,4.1487534E-4,-4.3468922E-4,6.1242457E-4,0.16,1.0,-0.02,22581,9939.60,0,0,165,0.84,-2.66,0.07,0.16,1.00,-0.02
-0.06738281,0.0014148764,0.0015653148,6.1242457E-4,0.16,0.99,-0.02,22594,9939.60,0,0,0,0.91,-2.52,0.07,0.16,0.99,-0.02
-2.0673828,4.1487534E-4,0.0015653148,0.0016124246,0.16,1.0,-0.02,22602,9937.60,0,0,165,0.84,-2.52,0.14,0.16,1.00,-0.02
-0.46679688,4.1487534E-4,-4.3468922E-4,-0.0013875755,0.16,0.99,-0.02,22617,9939.20,0,0,0,0.84,-2.66,-0.07,0.16,0.99,-0.02
-0.06738281,4.1487534E-4,-4.3468922E-4,6.1242457E-4,0.15,0.99,-0.02,22632,9939.60,0,0,165,0.84,-2.66,0.07,0.15,0.99,-0.02
-0.06738281,4.1487534E-4,-4.3468922E-4,-3.875755E-4,0.16,1.0,-0.02,22640,9939.60,0,0,0,0.84,-2.66,0.00,0.16,1.00,-0.02
-0.06738281,4.1487534E-4,-4.3468922E-4,6.1242457E-4,0.16,0.99,-0.02,22656,9939.60,0,0,165,0.84,-2.66,0.07,0.16,0.99,-0.02
-0.46679688,4.1487534E-4,5.653128E-4,-0.0013875755,0.16,1.0,-0.02,22670,9939.20,0,0,0,0.84,-2.59,-0.07,0.16,1.00,-0.02
-0.06738281,-5.851239E-4,-4.3468922E-4,-3.875755E-4,0.16,1.0,-0.02,22678,9939.60,0,0,165,0.77,-2.66,0.00,0.16,1.00,-0.02
-0.06738281,-5.851239E-4,-0.0014346875,-0.0013875755,0.16,1.0,-0.02,22693,9939.60,0,0,0,0.77,-2.73,-0.07,0.16,1.00,-0.02
-0.06738281,4.1487534E-4,5.653128E-4,6.1242457E-4,0.16,1.0,-0.02,22708,9939.60,0,0,165,0.84,-2.59,0.07,0.16,1.00,-0.02
-0.06738281,4.1487534E-4,-0.0024346858,-3.875755E-4,0.16,1.0,-0.02,22715,9939.60,0,0,0,0.84,-2.80,0.00,0.16,1.00,-0.02
-0.06738281,4.1487534E-4,5.653128E-4,6.1242457E-4,0.16,0.99,-0.02,22731,9939.60,0,0,165,0.84,-2.59,0.07,0.16,0.99,-0.02
-0.06738281,0.0014148764,-4.3468922E-4,-3.875755E-4,0.16,1.0,-0.02,22747,9939.60,0,0,0,0.91,-2.66,0.00,0.16,1.00,-0.02
0.8330078,4.1487534E-4,5.653128E-4,-3.875755E-4,0.16,1.0,-0.02,22752,9940.50,0,0,165,0.84,-2.59,0.00,0.16,1.00,-0.02
0.8330078,0.0014148764,5.653128E-4,6.1242457E-4,0.16,0.99,-0.02,22767,9940.50,0,0,0,0.91,-2.59,0.07,0.16,0.99,-0.02
-0.06738281,-0.0025851242,-4.3468922E-4,-0.0013875755,0.16,1.0,-0.03,22783,9939.60,0,0,165,0.63,-2.66,-0.07,0.16,1.00,-0.03
-0.06738281,4.1487534E-4,5.653128E-4,0.0016124246,0.16,1.0,-0.02,22790,9939.60,0,0,0,0.84,-2.59,0.14,0.16,1.00,-0.02
-0.06738281,-0.0015851241,-0.0014346875,6.1242457E-4,0.16,1.0,-0.02,22805,9939.60,0,0,165,0.70,-2.73,0.07,0.16,1.00,-0.02
-0.06738281,-0.0015851241,-4.3468922E-4,-0.0023875756,0.16,1.0,-0.02,22820,9939.60,0,0,0,0.70,-2.66,-0.14,0.16,1.00,-0.02
-0.06738281,4.1487534E-4,0.0015653148,-3.875755E-4,0.16,1.0,-0.02,22828,9939.60,0,0,165,0.84,-2.52,0.00,0.16,1.00,-0.02
-0.06738281,4.1487534E-4,-4.3468922E-4,0.0026124243,0.16,1.0,-0.02,22843,9939.60,0,0,0,0.84,-2.66,0.21,0.16,1.00,-0.02
-0.06738281,4.1487534E-4,-4.3468922E-4,6.1242457E-4,0.16,1.0,-0.02,22857,9939.60,0,0,165,0.84,-2.66,0.07,0.16,1.00,-0.02
-0.06738281,-5.851239E-4,0.0025653131,-3.875755E-4,0.16,1.0,-0.02,22865,9939.60,0,0,0,0.77,-2.45,0.00,0.16,1.00,-0.02
-0.06738281,-0.0015851241,-4.3468922E-4,-3.875755E-4,0.16,1.0,-0.02,22880,9939.60,0,0,165,0.70,-2.66,0.00,0.16,1.00,-0.02
-0.06738281,4.1487534E-4,5.653128E-4,-3.875755E-4,0.16,1.0,-0.02,22895,9939.60,0,0,0,0.84,-2.59,0.00,0.16,1.00,-0.02
0.8330078,4.1487534E-4,5.653128E-4,0.0016124246,0.16,1.0,-0.02,22902,9940.50,0,0,165,0.84,-2.59,0.14,0.16,1.00,-0.02
-1.0673828,-5.851239E-4,-0.0014346875,-0.0023875756,0.16,1.0,-0.02,22917,9938.60,0,0,0,0.77,-2.73,-0.14,0.16,1.00,-0.02
-0.06738281,4.1487534E-4,-0.0014346875,-3.875755E-4,0.16,1.0,-0.02,22932,9939.60,0,0,165,0.84,-2.73,0.00,0.16,1.00,-0.02
-0.06738281,4.1487534E-4,-0.0014346875,-0.0023875756,0.16,1.0,-0.02,22939,9939.60,0,0,0,0.84,-2.73,-0.14,0.16,1.00,-0.02
-0.06738281,4.1487534E-4,-4.3468922E-4,6.1242457E-4,0.16,1.0,-0.02,22955,9939.60,0,0,165,0.84,-2.66,0.07,0.16,1.00,-0.02
0.8330078,-5.851239E-4,-4.3468922E-4,-3.875755E-4,0.16,1.0,-0.02,22970,9940.50,0,0,0,0.77,-2.66,0.00,0.16,1.00,-0.02
-0.06738281,-5.851239E-4,5.653128E-4,0.0016124246,0.15,0.99,-0.02,22980,9939.60,0,0,165,0.77,-2.59,0.14,0.15,0.99,-0.02
-0.06738281,0.0014148764,5.653128E-4,6.1242457E-4,0.16,0.99,-0.02,22992,9939.60,0,0,0,0.91,-2.59,0.07,0.16,0.99,-0.02
-0.06738281,-5.851239E-4,-4.3468922E-4,0.0016124246,0.16,1.0,-0.02,23009,9939.60,0,0,165,0.77,-2.66,0.14,0.16,1.00,-0.02
-1.0673828,4.1487534E-4,5.653128E-4,-3.875755E-4,0.16,1.0,-0.02,23015,9938.60,0,0,0,0.84,-2.59,0.00,0.16,1.00,-0.02
0.8330078,4.1487534E-4,-0.0014346875,-3.875755E-4,0.16,1.0,-0.02,23030,9940.50,0,0,165,0.84,-2.73,0.00,0.16,1.00,-0.02
-0.06738281,4.1487534E-4,-4.3468922E-4,-3.875755E-4,0.16,1.0,-0.02,23044,9939.60,0,0,0,0.84,-2.66,0.00,0.16,1.00,-0.02
-1.0673828,-5.851239E-4,-4.3468922E-4,-0.0013875755,0.16,1.0,-0.02,23052,9938.60,0,0,165,0.77,-2.66,-0.07,0.16,1.00,-0.02
0.5332031,0.0014148764,0.0015653148,0.0026124243,0.16,1.0,-0.02,23068,9940.20,0,0,0,0.91,-2.52,0.21,0.16,1.00,-0.02
-0.06738281,0.0014148764,5.653128E-4,6.1242457E-4,0.16,1.0,-0.02,23075,9939.60,0,0,165,0.91,-2.59,0.07,0.16,1.00,-0.02
-0.06738281,4.1487534E-4,5.653128E-4,-3.875755E-4,0.16,1.0,-0.02,23090,9939.60,0,0,0,0.84,-2.59,0.00,0.16,1.00,-0.02
-0.06738281,-5.851239E-4,5.653128E-4,0.0016124246,0.16,1.0,-0.02,23105,9939.60,0,0,165,0.77,-2.59,0.14,0.16,1.00,-0.02
-0.06738281,-5.851239E-4,5.653128E-4,-3.875755E-4,0.16,1.0,-0.02,23113,9939.60,0,0,0,0.77,-2.59,0.00,0.16,1.00,-0.02
-0.06738281,4.1487534E-4,5.653128E-4,-3.875755E-4,0.16,1.0,-0.02,23128,9939.60,0,0,165,0.84,-2.59,0.00,0.16,1.00,-0.02
-0.06738281,-5.851239E-4,0.0015653148,6.1242457E-4,0.16,1.0,-0.02,23142,9939.60,0,0,0,0.77,-2.52,0.07,0.16,1.00,-0.02
0.8330078,-5.851239E-4,-4.3468922E-4,0.0016124246,0.16,1.0,-0.02,23150,9940.50,0,0,165,0.77,-2.66,0.14,0.16,1.00,-0.02
0.8330078,4.1487534E-4,-4.3468922E-4,-3.875755E-4,0.16,1.0,-0.02,23165,9940.50,0,0,0,0.84,-2.66,0.00,0.16,1.00,-0.02
-0.06738281,4.1487534E-4,-4.3468922E-4,-0.0013875755,0.16,1.0,-0.02,23198,9939.60,0,0,165,0.84,-2.66,-0.07,0.16,1.00,-0.02
-0.06738281,4.1487534E-4,5.653128E-4,6.1242457E-4,0.16,1.0,-0.02,23199,9939.60,0,0,0,0.84,-2.59,0.07,0.16,1.00,-0.02
1.1328125,-5.851239E-4,-4.3468922E-4,0.0016124246,0.16,1.0,-0.02,23202,9940.80,0,0,165,0.77,-2.66,0.14,0.16,1.00,-0.02
1.1328125,4.1487534E-4,-4.3468922E-4,-0.0013875755,0.16,1.0,-0.02,23217,9940.80,0,0,0,0.84,-2.66,-0.07,0.16,1.00,-0.02
-1.0673828,-0.0015851241,-4.3468922E-4,-3.875755E-4,0.16,1.0,-0.02,23225,9938.60,0,0,165,0.70,-2.66,0.00,0.16,1.00,-0.02
-1.0673828,-5.851239E-4,-4.3468922E-4,-3.875755E-4,0.16,1.0,-0.02,23240,9938.60,0,0,0,0.77,-2.66,0.00,0.16,1.00,-0.02
-0.76660156,4.1487534E-4,-4.3468922E-4,-0.0033875753,0.16,1.0,-0.02,23255,9938.90,0,0,165,0.84,-2.66,-0.21,0.16,1.00,-0.02
0.8330078,-5.851239E-4,-4.3468922E-4,-3.875755E-4,0.16,1.0,-0.02,23264,9940.50,0,0,0,0.77,-2.66,0.00,0.16,1.00,-0.02
-0.06738281,-5.851239E-4,-4.3468922E-4,-3.875755E-4,0.16,0.99,-0.02,23280,9939.60,0,0,165,0.77,-2.66,0.00,0.16,0.99,-0.02
-0.06738281,0.0014148764,-4.3468922E-4,6.1242457E-4,0.16,1.0,-0.02,23293,9939.60,0,0,0,0.91,-2.66,0.07,0.16,1.00,-0.02
-0.06738281,-5.851239E-4,-0.0014346875,6.1242457E-4,0.16,0.99,-0.02,23300,9939.60,0,0,165,0.77,-2.73,0.07,0.16,0.99,-0.02
-1.3671875,-5.851239E-4,-4.3468922E-4,-0.0013875755,0.16,1.0,-0.02,23316,9938.30,0,0,0,0.77,-2.66,-0.07,0.16,1.00,-0.02
-0.06738281,-5.851239E-4,-4.3468922E-4,-0.0013875755,0.16,1.0,-0.02,23331,9939.60,0,0,165,0.77,-2.66,-0.07,0.16,1.00,-0.02
-0.06738281,4.1487534E-4,-0.0014346875,-0.0013875755,0.16,1.0,-0.02,23337,9939.60,0,0,0,0.84,-2.73,-0.07,0.16,1.00,-0.02
0.8330078,-5.851239E-4,-4.3468922E-4,-3.875755E-4,0.16,1.0,-0.02,23352,9940.50,0,0,165,0.77,-2.66,0.00,0.16,1.00,-0.02
0.8330078,-0.0015851241,-0.0014346875,-3.875755E-4,0.16,1.0,-0.02,23367,9940.50,0,0,0,0.70,-2.73,0.00,0.16,1.00,-0.02
-1.0673828,-5.851239E-4,-4.3468922E-4,-3.875755E-4,0.16,1.0,-0.02,23374,9938.60,0,0,165,0.77,-2.66,0.00,0.16,1.00,-0.02
-0.06738281,0.0014148764,-4.3468922E-4,6.1242457E-4,0.16,1.0,-0.02,23389,9939.60,0,0,0,0.91,-2.66,0.07,0.16,1.00,-0.02
0.8330078,-5.851239E-4,-4.3468922E-4,-0.0013875755,0.16,1.0,-0.02,23404,9940.50,0,0,165,0.77,-2.66,-0.07,0.16,1.00,-0.02
-0.06738281,0.0014148764,0.0015653148,0.0016124246,0.16,1.0,-0.02,23412,9939.60,0,0,0,0.91,-2.52,0.14,0.16,1.00,-0.02
-2.0673828,-0.0015851241,-4.3468922E-4,6.1242457E-4,0.16,0.99,-0.02,23428,9937.60,0,0,165,0.70,-2.66,0.07,0.16,0.99,-0.02
-0.06738281,-5.851239E-4,5.653128E-4,6.1242457E-4,0.16,1.0,-0.02,23443,9939.60,0,0,0,0.77,-2.59,0.07,0.16,1.00,-0.02
-0.06738281,4.1487534E-4,-4.3468922E-4,0.0016124246,0.16,1.0,-0.02,23450,9939.60,0,0,165,0.84,-2.66,0.14,0.16,1.00,-0.02
-0.06738281,4.1487534E-4,5.653128E-4,0.0016124246,0.16,1.0,-0.02,23465,9939.60,0,0,0,0.84,-2.59,0.14,0.16,1.00,-0.02
-1.0673828,-0.0015851241,5.653128E-4,-3.875755E-4,0.16,1.0,-0.02,23480,9938.60,0,0,165,0.70,-2.59,0.00,0.16,1.00,-0.02
0.8330078,0.0014148764,-4.3468922E-4,6.1242457E-4,0.16,1.0,-0.02,23487,9940.50,0,0,0,0.91,-2.66,0.07,0.16,1.00,-0.02
0.8330078,4.1487534E-4,-0.0014346875,-3.875755E-4,0.16,1.0,-0.02,23502,9940.50,0,0,165,0.84,-2.73,0.00,0.16,1.00,-0.02
-0.06738281,4.1487534E-4,-4.3468922E-4,6.1242457E-4,0.16,1.0,-0.02,23517,9939.60,0,0,0,0.84,-2.66,0.07,0.16,1.00,-0.02
-0.06738281,-5.851239E-4,5.653128E-4,6.1242457E-4,0.16,0.99,-0.02,23525,9939.60,0,0,165,0.77,-2.59,0.07,0.16,0.99,-0.02
-0.06738281,0.0014148764,5.653128E-4,0.0016124246,0.16,0.99,-0.02,23540,9939.60,0,0,0,0.91,-2.59,0.14,0.16,0.99,-0.02
-1.3671875,-0.0015851241,-4.3468922E-4,-0.0013875755,0.16,1.0,-0.02,23554,9938.30,0,0,165,0.70,-2.66,-0.07,0.16,1.00,-0.02
-0.06738281,4.1487534E-4,-4.3468922E-4,6.1242457E-4,0.16,1.0,-0.02,23562,9939.60,0,0,0,0.84,-2.66,0.07,0.16,1.00,-0.02
0.8330078,4.1487534E-4,5.653128E-4,0.0016124246,0.16,1.0,-0.02,23577,9940.50,0,0,165,0.84,-2.59,0.14,0.16,1.00,-0.02
-0.06738281,4.1487534E-4,-4.3468922E-4,-0.2563876,0.16,0.99,-0.02,23593,9939.60,0,0,0,0.84,-2.66,-17.92,0.16,0.99,-0.02
-0.06738281,-5.851239E-4,0.0015653148,6.1242457E-4,0.16,1.0,-0.02,23600,9939.60,0,0,165,0.77,-2.52,0.07,0.16,1.00,-0.02
0.23339844,-0.0015851241,0.0015653148,6.1242457E-4,0.16,1.0,-0.02,23615,9939.90,0,0,0,0.70,-2.52,0.07,0.16,1.00,-0.02
-0.06738281,-5.851239E-4,-4.3468922E-4,-3.875755E-4,0.16,0.99,-0.02,23630,9939.60,0,0,165,0.77,-2.66,0.00,0.16,0.99,-0.02
-0.06738281,4.1487534E-4,0.0015653148,-3.875755E-4,0.16,1.0,-0.02,23637,9939.60,0,0,0,0.84,-2.52,0.00,0.16,1.00,-0.02
-0.06738281,4.1487534E-4,-4.3468922E-4,0.0016124246,0.16,1.0,-0.02,23652,9939.60,0,0,165,0.84,-2.66,0.14,0.16,1.00,-0.02
-0.06738281,4.1487534E-4,-0.0014346875,-0.0023875756,0.16,1.0,-0.02,23667,9939.60,0,0,0,0.84,-2.73,-0.14,0.16,1.00,-0.02
-0.06738281,-5.851239E-4,-4.3468922E-4,-3.875755E-4,0.15,1.0,-0.02,23674,9939.60,0,0,165,0.77,-2.66,0.00,0.15,1.00,-0.02
-0.06738281,0.0024148766,-4.3468922E-4,-3.875755E-4,0.16,0.99,-0.02,23690,9939.60,0,0,0,0.98,-2.66,0.00,0.16,0.99,-0.02
-0.06738281,-5.851239E-4,-4.3468922E-4,-3.875755E-4,0.16,1.0,-0.02,23704,9939.60,0,0,165,0.77,-2.66,0.00,0.16,1.00,-0.02
-0.06738281,4.1487534E-4,-4.3468922E-4,-0.0013875755,0.16,1.0,-0.02,23712,9939.60,0,0,0,0.84,-2.66,-0.07,0.16,1.00,-0.02
-0.06738281,0.0014148764,0.0015653148,-0.0013875755,0.16,1.0,-0.02,23727,9939.60,0,0,165,0.91,-2.52,-0.07,0.16,1.00,-0.02
-0.06738281,-5.851239E-4,-4.3468922E-4,-0.0023875756,0.16,1.0,-0.02,23742,9939.60,0,0,0,0.77,-2.66,-0.14,0.16,1.00,-0.02
-0.06738281,0.0024148766,-4.3468922E-4,-3.875755E-4,0.16,1.0,-0.03,23750,9939.60,0,0,165,0.98,-2.66,0.00,0.16,1.00,-0.03
-0.06738281,0.0014148764,5.653128E-4,6.1242457E-4,0.16,1.0,-0.02,23765,9939.60,0,0,0,0.91,-2.59,0.07,0.16,1.00,-0.02
-0.06738281,-5.851239E-4,5.653128E-4,6.1242457E-4,0.16,1.0,-0.02,23780,9939.60,0,0,165,0.77,-2.59,0.07,0.16,1.00,-0.02
0.8330078,-5.851239E-4,-0.0014346875,-3.875755E-4,0.16,1.0,-0.02,23787,9940.50,0,0,0,0.77,-2.73,0.00,0.16,1.00,-0.02
-0.06738281,0.0014148764,-4.3468922E-4,6.1242457E-4,0.16,1.0,-0.02,23802,9939.60,0,0,165,0.91,-2.66,0.07,0.16,1.00,-0.02
-0.06738281,-0.0025851242,-4.3468922E-4,-3.875755E-4,0.16,0.99,-0.02,23817,9939.60,0,0,0,0.63,-2.66,0.00,0.16,0.99,-0.02
-0.46679688,0.0014148764,-4.3468922E-4,0.0016124246,0.16,1.0,-0.02,23825,9939.20,0,0,165,0.91,-2.66,0.14,0.16,1.00,-0.02
-0.06738281,4.1487534E-4,5.653128E-4,6.1242457E-4,0.16,0.99,-0.02,23840,9939.60,0,0,0,0.84,-2.59,0.07,0.16,0.99,-0.02
-0.06738281,-5.851239E-4,-4.3468922E-4,0.0016124246,0.16,1.0,-0.02,23848,9939.60,0,0,165,0.77,-2.66,0.14,0.16,1.00,-0.02
-0.06738281,0.0014148764,-4.3468922E-4,6.1242457E-4,0.16,1.0,-0.02,23863,9939.60,0,0,0,0.91,-2.66,0.07,0.16,1.00,-0.02
0.8330078,-0.0015851241,-4.3468922E-4,6.1242457E-4,0.16,1.0,-0.02,23878,9940.50,0,0,165,0.70,-2.66,0.07,0.16,1.00,-0.02
-0.06738281,-5.851239E-4,5.653128E-4,-0.0013875755,0.16,1.0,-0.02,23885,9939.60,0,0,0,0.77,-2.59,-0.07,0.16,1.00,-0.02
-0.06738281,-5.851239E-4,5.653128E-4,-3.875755E-4,0.16,1.0,-0.02,23900,9939.60,0,0,165,0.77,-2.59,0.00,0.16,1.00,-0.02
-0.06738281,-5.851239E-4,5.653128E-4,6.1242457E-4,0.16,1.0,-0.02,23919,9939.60,0,0,0,0.77,-2.59,0.07,0.16,1.00,-0.02
-1.0673828,4.1487534E-4,5.653128E-4,-3.875755E-4,0.16,1.0,-0.02,23922,9938.60,0,0,165,0.84,-2.59,0.00,0.16,1.00,-0.02
-0.06738281,4.1487534E-4,-4.3468922E-4,6.1242457E-4,0.16,0.99,-0.02,23937,9939.60,0,0,0,0.84,-2.66,0.07,0.16,0.99,-0.02
-0.06738281,4.1487534E-4,-4.3468922E-4,-0.0013875755,0.16,1.0,-0.02,23953,9939.60,0,0,165,0.84,-2.66,-0.07,0.16,1.00,-0.02
-0.06738281,0.0014148764,5.653128E-4,6.1242457E-4,0.16,1.0,-0.03,23960,9939.60,0,0,0,0.91,-2.59,0.07,0.16,1.00,-0.03
-1.0673828,-0.0015851241,-4.3468922E-4,-0.0013875755,0.16,1.0,-0.02,23977,9938.60,0,0,165,0.70,-2.66,-0.07,0.16,1.00,-0.02
-0.06738281,-5.851239E-4,0.0015653148,-3.875755E-4,0.16,1.0,-0.02,23991,9939.60,0,0,0,0.77,-2.52,0.00,0.16,1.00,-0.02
-0.06738281,4.1487534E-4,5.653128E-4,-3.875755E-4,0.16,1.0,-0.02,24031,9939.60,0,0,165,0.84,-2.59,0.00,0.16,1.00,-0.02
-0.06738281,0.0014148764,5.653128E-4,-0.0013875755,0.16,1.0,-0.02,24032,9939.60,0,0,0,0.91,-2.59,-0.07,0.16,1.00,-0.02
-0.06738281,-5.851239E-4,-0.0014346875,-0.0013875755,0.16,1.0,-0.02,24033,9939.60,0,0,165,0.77,-2.73,-0.07,0.16,1.00,-0.02
-0.06738281,0.0014148764,0.0015653148,-0.0013875755,0.16,1.0,-0.02,24036,9939.60,0,0,0,0.91,-2.52,-0.07,0.16,1.00,-0.02
-1.0673828,4.1487534E-4,5.653128E-4,-0.0023875756,0.16,1.0,-0.02,24050,9938.60,0,0,165,0.84,-2.59,-0.14,0.16,1.00,-0.02
-0.06738281,0.0014148764,5.653128E-4,-3.875755E-4,0.16,1.0,-0.03,24065,9939.60,0,0,0,0.91,-2.59,0.00,0.16,1.00,-0.03
-0.06738281,4.1487534E-4,-4.3468922E-4,-3.875755E-4,0.15,1.0,-0.03,24073,9939.60,0,0,165,0.84,-2.66,0.00,0.15,1.00,-0.03
-1.0673828,-0.0015851241,-4.3468922E-4,-3.875755E-4,0.16,1.0,-0.02,24088,9938.60,0,0,0,0.70,-2.66,0.00,0.16,1.00,-0.02
0.23339844,-0.0015851241,-0.0014346875,0.0016124246,0.16,1.0,-0.02,24103,9939.90,0,0,165,0.70,-2.73,0.14,0.16,1.00,-0.02
0.5332031,-5.851239E-4,5.653128E-4,6.1242457E-4,0.16,1.0,-0.02,24111,9940.20,0,0,0,0.77,-2.59,0.07,0.16,1.00,-0.02
0.8330078,-5.851239E-4,0.0015653148,-0.0013875755,0.16,0.99,-0.02,24126,9940.50,0,0,165,0.77,-2.52,-0.07,0.16,0.99,-0.02
0.8330078,-5.851239E-4,5.653128E-4,6.1242457E-4,0.16,1.0,-0.02,24140,9940.50,0,0,0,0.77,-2.59,0.07,0.16,1.00,-0.02
-0.06738281,0.0014148764,-0.0014346875,-0.0013875755,0.16,0.99,-0.02,24147,9939.60,0,0,165,0.91,-2.73,-0.07,0.16,0.99,-0.02
0.8330078,-0.0015851241,-4.3468922E-4,-3.875755E-4,0.15,1.0,-0.02,24163,9940.50,0,0,0,0.70,-2.66,0.00,0.15,1.00,-0.02
-0.06738281,-0.0015851241,-4.3468922E-4,-0.0013875755,0.15,1.0,-0.02,24180,9939.60,0,0,165,0.70,-2.66,-0.07,0.15,1.00,-0.02
-0.06738281,0.0024148766,5.653128E-4,-3.875755E-4,0.15,0.99,-0.02,24185,9939.60,0,0,0,0.98,-2.59,0.00,0.15,0.99,-0.02
0.23339844,0.0014148764,5.653128E-4,-3.875755E-4,0.16,1.0,-0.02,24200,9939.90,0,0,165,0.91,-2.59,0.00,0.16,1.00,-0.02
-0.06738281,4.1487534E-4,5.653128E-4,0.0016124246,0.16,1.0,-0.02,24215,9939.60,0,0,0,0.84,-2.59,0.14,0.16,1.00,-0.02
-0.06738281,-5.851239E-4,-4.3468922E-4,-0.0013875755,0.16,1.0,-0.02,24223,9939.60,0,0,165,0.77,-2.66,-0.07,0.16,1.00,-0.02
-0.06738281,-0.0015851241,-4.3468922E-4,-3.875755E-4,0.16,1.0,-0.03,24238,9939.60,0,0,0,0.70,-2.66,0.00,0.16,1.00,-0.03
-0.06738281,-5.851239E-4,-4.3468922E-4,6.1242457E-4,0.16,1.0,-0.02,24252,9939.60,0,0,165,0.77,-2.66,0.07,0.16,1.00,-0.02
-1.0673828,4.1487534E-4,-4.3468922E-4,6.1242457E-4,0.15,1.0,-0.02,24260,9938.60,0,0,0,0.84,-2.66,0.07,0.15,1.00,-0.02
-0.06738281,-5.851239E-4,5.653128E-4,-3.875755E-4,0.15,1.0,-0.02,24275,9939.60,0,0,165,0.77,-2.59,0.00,0.15,1.00,-0.02
0.8330078,4.1487534E-4,-4.3468922E-4,6.1242457E-4,0.16,0.99,-0.02,24290,9940.50,0,0,0,0.84,-2.66,0.07,0.16,0.99,-0.02
-0.06738281,0.0014148764,0.0015653148,0.0016124246,0.16,1.0,-0.02,24298,9939.60,0,0,165,0.91,-2.52,0.14,0.16,1.00,-0.02
-0.06738281,0.0024148766,5.653128E-4,6.1242457E-4,0.16,1.0,-0.03,24313,9939.60,0,0,0,0.98,-2.59,0.07,0.16,1.00,-0.03
-0.06738281,0.0024148766,0.0025653131,-3.875755E-4,0.16,1.0,-0.02,24328,9939.60,0,0,165,0.98,-2.45,0.00,0.16,1.00,-0.02
-0.76660156,4.1487534E-4,-0.0014346875,6.1242457E-4,0.16,0.99,-0.02,24334,9938.90,0,0,0,0.84,-2.73,0.07,0.16,0.99,-0.02
-0.06738281,-5.851239E-4,5.653128E-4,6.1242457E-4,0.16,1.0,-0.02,24350,9939.60,0,0,165,0.77,-2.59,0.07,0.16,1.00,-0.02
0.23339844,4.1487534E-4,0.0015653148,6.1242457E-4,0.16,1.0,-0.03,24365,9939.90,0,0,0,0.84,-2.52,0.07,0.16,1.00,-0.03
-1.0673828,-5.851239E-4,5.653128E-4,-0.0013875755,0.16,1.0,-0.03,24372,9938.60,0,0,165,0.77,-2.59,-0.07,0.16,1.00,-0.03
-0.06738281,-0.0015851241,5.653128E-4,-3.875755E-4,0.16,1.0,-0.02,24387,9939.60,0,0,0,0.70,-2.59,0.00,0.16,1.00,-0.02
-0.76660156,4.1487534E-4,-4.3468922E-4,-3.875755E-4,0.16,1.0,-0.02,24402,9938.90,0,0,165,0.84,-2.66,0.00,0.16,1.00,-0.02
-0.06738281,0.0014148764,-0.0014346875,-0.0013875755,0.16,1.0,-0.02,24410,9939.60,0,0,0,0.91,-2.73,-0.07,0.16,1.00,-0.02
0.23339844,-5.851239E-4,-4.3468922E-4,0.0016124246,0.16,1.0,-0.02,24425,9939.90,0,0,165,0.77,-2.66,0.14,0.16,1.00,-0.02
-0.06738281,4.1487534E-4,5.653128E-4,-3.875755E-4,0.16,1.0,-0.02,24446,9939.60,0,0,0,0.84,-2.59,0.00,0.16,1.00,-0.02
-0.76660156,4.1487534E-4,5.653128E-4,-0.0013875755,0.16,1.0,-0.02,24447,9938.90,0,0,165,0.84,-2.59,-0.07,0.16,1.00,-0.02
-0.06738281,-5.851239E-4,-4.3468922E-4,6.1242457E-4,0.16,1.0,-0.02,24463,9939.60,0,0,0,0.77,-2.66,0.07,0.16,1.00,-0.02
0.8330078,-5.851239E-4,-4.3468922E-4,-3.875755E-4,0.15,1.0,-0.02,24477,9940.50,0,0,165,0.77,-2.66,0.00,0.15,1.00,-0.02
-0.06738281,0.0014148764,5.653128E-4,6.1242457E-4,0.16,1.0,-0.02,24484,9939.60,0,0,0,0.91,-2.59,0.07,0.16,1.00,-0.02
-0.06738281,-5.851239E-4,-4.3468922E-4,-3.875755E-4,0.16,1.0,-0.02,24499,9939.60,0,0,165,0.77,-2.66,0.00,0.16,1.00,-0.02
-0.06738281,4.1487534E-4,0.0015653148,-3.875755E-4,0.16,1.0,-0.02,24515,9939.60,0,0,0,0.84,-2.52,0.00,0.16,1.00,-0.02
-0.46679688,0.0024148766,-4.3468922E-4,-3.875755E-4,0.16,1.0,-0.02,24522,9939.20,0,0,165,0.98,-2.66,0.00,0.16,1.00,-0.02
-0.06738281,0.0014148764,0.0015653148,6.1242457E-4,0.16,1.0,-0.02,24537,9939.60,0,0,0,0.91,-2.52,0.07,0.16,1.00,-0.02
-0.06738281,4.1487534E-4,-4.3468922E-4,-3.875755E-4,0.16,1.0,-0.02,24552,9939.60,0,0,165,0.84,-2.66,0.00,0.16,1.00,-0.02
-0.06738281,-5.851239E-4,-4.3468922E-4,0.0016124246,0.16,1.0,-0.03,24560,9939.60,0,0,0,0.77,-2.66,0.14,0.16,1.00,-0.03
-0.76660156,4.1487534E-4,5.653128E-4,-3.875755E-4,0.16,1.0,-0.02,24575,9938.90,0,0,165,0.84,-2.59,0.00,0.16,1.00,-0.02
-0.06738281,-0.0015851241,-4.3468922E-4,-3.875755E-4,0.16,1.0,-0.02,24589,9939.60,0,0,0,0.70,-2.66,0.00,0.16,1.00,-0.02
-1.0673828,-0.0015851241,-4.3468922E-4,6.1242457E-4,0.16,1.0,-0.02,24597,9938.60,0,0,165,0.70,-2.66,0.07,0.16,1.00,-0.02
0.8330078,-5.851239E-4,-4.3468922E-4,-0.0013875755,0.16,1.0,-0.02,24612,9940.50,0,0,0,0.77,-2.66,-0.07,0.16,1.00,-0.02
-0.06738281,4.1487534E-4,-4.3468922E-4,6.1242457E-4,0.16,0.99,-0.02,24628,9939.60,0,0,165,0.84,-2.66,0.07,0.16,0.99,-0.02
-0.06738281,-5.851239E-4,-4.3468922E-4,-0.0023875756,0.16,1.0,-0.02,24635,9939.60,0,0,0,0.77,-2.66,-0.14,0.16,1.00,-0.02
-0.06738281,0.0014148764,5.653128E-4,6.1242457E-4,0.16,1.0,-0.02,24649,9939.60,0,0,165,0.91,-2.59,0.07,0.16,1.00,-0.02
-0.06738281,-5.851239E-4,-4.3468922E-4,-3.875755E-4,0.16,1.0,-0.02,24665,9939.60,0,0,0,0.77,-2.66,0.00,0.16,1.00,-0.02
-0.06738281,4.1487534E-4,-4.3468922E-4,-0.0013875755,0.16,1.0,-0.03,24672,9939.60,0,0,165,0.84,-2.66,-0.07,0.16,1.00,-0.03
0.8330078,4.1487534E-4,5.653128E-4,-3.875755E-4,0.16,1.0,-0.03,24687,9940.50,0,0,0,0.84,-2.59,0.00,0.16,1.00,-0.03
-0.06738281,4.1487534E-4,-4.3468922E-4,6.1242457E-4,0.16,1.0,-0.02,24695,9939.60,0,0,165,0.84,-2.66,0.07,0.16,1.00,-0.02
-0.06738281,4.1487534E-4,-0.0024346858,-3.875755E-4,0.16,1.0,-0.02,24710,9939.60,0,0,0,0.84,-2.80,0.00,0.16,1.00,-0.02
-1.0673828,-5.851239E-4,5.653128E-4,-3.875755E-4,0.16,1.0,-0.02,24725,9938.60,0,0,165,0.77,-2.59,0.00,0.16,1.00,-0.02
0.23339844,4.1487534E-4,-4.3468922E-4,6.1242457E-4,0.16,1.0,-0.02,24732,9939.90,0,0,0,0.84,-2.66,0.07,0.16,1.00,-0.02
-0.06738281,4.1487534E-4,-4.3468922E-4,-0.0013875755,0.16,1.0,-0.02,24748,9939.60,0,0,165,0.84,-2.66,-0.07,0.16,1.00,-0.02
-0.06738281,4.1487534E-4,5.653128E-4,6.1242457E-4,0.15,1.0,-0.02,24763,9939.60,0,0,0,0.84,-2.59,0.07,0.15,1.00,-0.02
-1.0673828,4.1487534E-4,5.653128E-4,-3.875755E-4,0.16,1.0,-0.02,24770,9938.60,0,0,165,0.84,-2.59,0.00,0.16,1.00,-0.02
-1.0673828,4.1487534E-4,-0.0014346875,6.1242457E-4,0.16,0.99,-0.02,24785,9938.60,0,0,0,0.84,-2.73,0.07,0.16,0.99,-0.02
0.23339844,4.1487534E-4,-0.0014346875,6.1242457E-4,0.16,0.99,-0.02,24800,9939.90,0,0,165,0.84,-2.73,0.07,0.16,0.99,-0.02
-0.06738281,4.1487534E-4,5.653128E-4,6.1242457E-4,0.16,1.0,-0.02,24807,9939.60,0,0,0,0.84,-2.59,0.07,0.16,1.00,-0.02
-0.06738281,-0.0015851241,5.653128E-4,-3.875755E-4,0.16,1.0,-0.03,24822,9939.60,0,0,165,0.70,-2.59,0.00,0.16,1.00,-0.03
0.23339844,-5.851239E-4,5.653128E-4,6.1242457E-4,0.16,0.99,-0.02,24837,9939.90,0,0,0,0.77,-2.59,0.07,0.16,0.99,-0.02
-1.0673828,4.1487534E-4,0.0015653148,-3.875755E-4,0.15,1.0,-0.02,24845,9938.60,0,0,165,0.84,-2.52,0.00,0.15,1.00,-0.02
-0.06738281,-0.0015851241,-4.3468922E-4,6.1242457E-4,0.15,1.0,-0.02,24859,9939.60,0,0,0,0.70,-2.66,0.07,0.15,1.00,-0.02
-0.06738281,0.0014148764,0.0015653148,-3.875755E-4,0.16,1.0,-0.02,24874,9939.60,0,0,165,0.91,-2.52,0.00,0.16,1.00,-0.02
0.8330078,0.0014148764,-4.3468922E-4,0.0016124246,0.16,1.0,-0.02,24882,9940.50,0,0,0,0.91,-2.66,0.14,0.16,1.00,-0.02
-1.0673828,-0.0015851241,-4.3468922E-4,6.1242457E-4,0.16,1.0,-0.02,24897,9938.60,0,0,165,0.70,-2.66,0.07,0.16,1.00,-0.02
-0.76660156,-0.0015851241,-0.0014346875,-0.0013875755,0.16,1.0,-0.02,24912,9938.90,0,0,0,0.70,-2.73,-0.07,0.16,1.00,-0.02
-0.06738281,4.1487534E-4,0.0015653148,0.0016124246,0.16,1.0,-0.02,24920,9939.60,0,0,165,0.84,-2.52,0.14,0.16,1.00,-0.02
-0.06738281,-5.851239E-4,-0.0014346875,-0.0023875756,0.16,1.0,-0.03,24934,9939.60,0,0,0,0.77,-2.73,-0.14,0.16,1.00,-0.03
0.8330078,0.0014148764,5.653128E-4,6.1242457E-4,0.16,1.0,-0.02,24949,9940.50,0,0,165,0.91,-2.59,0.07,0.16,1.00,-0.02
-0.06738281,-0.0015851241,-4.3468922E-4,6.1242457E-4,0.16,1.0,-0.02,24964,9939.60,0,0,0,0.70,-2.66,0.07,0.16,1.00,-0.02
-1.0673828,4.1487534E-4,-4.3468922E-4,-0.0013875755,0.16,1.0,-0.02,24972,9938.60,0,0,165,0.84,-2.66,-0.07,0.16,1.00,-0.02
-0.06738281,-0.0015851241,-4.3468922E-4,-0.0013875755,0.16,1.0,-0.02,24987,9939.60,0,0,0,0.70,-2.66,-0.07,0.16,1.00,-0.02
-0.06738281,-5.851239E-4,5.653128E-4,-0.0013875755,0.16,1.0,-0.02,24994,9939.60,0,0,165,0.77,-2.59,-0.07,0.16,1.00,-0.02
0.23339844,0.0014148764,5.653128E-4,6.1242457E-4,0.16,0.99,-0.02,25010,9939.90,0,0,0,0.91,-2.59,0.07,0.16,0.99,-0.02
-0.06738281,4.1487534E-4,-0.0024346858,6.1242457E-4,0.16,1.0,-0.02,25025,9939.60,0,0,165,0.84,-2.80,0.07,0.16,1.00,-0.02
-0.06738281,4.1487534E-4,-0.0014346875,0.0016124246,0.16,1.0,-0.02,25032,9939.60,0,0,0,0.84,-2.73,0.14,0.16,1.00,-0.02
-0.06738281,-5.851239E-4,5.653128E-4,6.1242457E-4,0.16,1.0,-0.03,25048,9939.60,0,0,165,0.77,-2.59,0.07,0.16,1.00,-0.03
2.7333984,-5.851239E-4,-0.0014346875,6.1242457E-4,0.16,1.0,-0.02,25063,9942.40,0,0,0,0.77,-2.73,0.07,0.16,1.00,-0.02
-0.06738281,-5.851239E-4,5.653128E-4,-3.875755E-4,0.16,1.0,-0.02,25069,9939.60,0,0,165,0.77,-2.59,0.00,0.16,1.00,-0.02
-0.06738281,-5.851239E-4,-4.3468922E-4,0.0026124243,0.16,1.0,-0.02,25084,9939.60,0,0,0,0.77,-2.66,0.21,0.16,1.00,-0.02
-0.06738281,0.0014148764,5.653128E-4,0.0016124246,0.16,1.0,-0.02,25099,9939.60,0,0,165,0.91,-2.59,0.14,0.16,1.00,-0.02
0.23339844,-5.851239E-4,-4.3468922E-4,6.1242457E-4,0.16,1.0,-0.02,25108,9939.90,0,0,0,0.77,-2.66,0.07,0.16,1.00,-0.02
-0.06738281,-5.851239E-4,5.653128E-4,-0.0013875755,0.16,1.0,-0.02,25122,9939.60,0,0,165,0.77,-2.59,-0.07,0.16,1.00,-0.02
0.8330078,4.1487534E-4,5.653128E-4,-3.875755E-4,0.15,1.0,-0.02,25137,9940.50,0,0,0,0.84,-2.59,0.00,0.15,1.00,-0.02
-0.06738281,-0.07258512,0.007565314,0.048612427,0.15,1.0,-0.03,25145,9939.60,0,0,165,-4.27,-2.10,3.43,0.15,1.00,-0.03
-0.06738281,-0.08058512,-0.005434688,0.08061242,0.16,1.0,-0.02,25167,9939.60,0,0,0,-4.83,-3.01,5.67,0.16,1.00,-0.02
0.23339844,-0.07558513,0.04756531,0.07161242,0.09,1.01,-0.08,25175,9939.90,0,0,165,-4.48,0.70,5.04,0.09,1.01,-0.08
-0.06738281,-0.07758512,0.4455653,0.21161242,0.05,1.04,-0.14,25182,9939.60,0,0,0,-4.62,28.56,14.84,0.05,1.04,-0.14
0.23339844,-0.14058512,1.0065653,0.45961243,0.08,1.05,-0.07,25197,9939.90,0,0,165,-9.03,67.83,32.20,0.08,1.05,-0.07
-1.0673828,-0.2925851,1.1455653,0.7656124,0.11,1.16,0.01,25212,9938.60,0,0,0,-19.67,77.56,53.62,0.11,1.16,0.01
0.23339844,0.43741488,1.3425653,0.5706125,0.37,0.85,0.03,25219,9939.90,0,0,165,31.43,91.35,39.97,0.37,0.85,0.03
0.23339844,0.25241488,0.8385653,-0.10738757,0.29,0.97,0.08,25235,9939.90,0,0,0,18.48,56.07,-7.49,0.29,0.97,0.08
-0.06738281,0.06641488,0.59456533,-0.124387585,0.29,0.86,0.11,25250,9939.60,0,0,165,5.46,38.99,-8.68,0.29,0.86,0.11
0.23339844,-0.096585125,0.017565314,-0.31038758,0.21,1.02,0.04,25257,9939.90,0,0,0,-5.95,-1.40,-21.70,0.21,1.02,0.04
-0.06738281,-0.13558513,-0.08443469,-0.35838756,0.11,1.31,-0.1,25272,9939.60,0,0,165,-8.68,-8.54,-25.06,0.11,1.31,-0.10
0.23339844,-0.047585122,-0.04943469,0.037612427,0.13,1.01,0.04,25287,9939.90,0,0,0,-2.52,-6.09,2.66,0.13,1.01,0.04
-1.0673828,0.0124148745,-0.2044347,-0.012387575,0.19,1.0,0.03,25295,9938.60,0,0,165,1.68,-16.94,-0.84,0.19,1.00,0.03
0.23339844,-0.028585125,-0.3474347,6.1242457E-4,0.21,0.98,0.0,25309,9939.90,0,0,0,-1.19,-26.95,0.07,0.21,0.98,0.00
0.23339844,-0.010585124,-0.37643468,-0.017387576,0.18,0.98,-0.01,25324,9939.90,0,0,165,0.07,-28.98,-1.19,0.18,0.98,-0.01
0.23339844,-0.026585124,-0.3064347,-0.0013875755,0.17,0.99,-0.02,25332,9939.90,0,0,0,-1.05,-24.08,-0.07,0.17,0.99,-0.02
0.23339844,-0.012585124,-0.2044347,-0.0043875757,0.15,1.0,-0.04,25347,9939.90,0,0,165,-0.07,-16.94,-0.28,0.15,1.00,-0.04
-0.76660156,0.0024148766,-0.046434686,-3.875755E-4,0.16,0.99,-0.03,25362,9938.90,0,0,0,0.98,-5.88,0.00,0.16,0.99,-0.03
0.5332031,0.010414876,-0.005434688,-0.0043875757,0.18,0.99,-0.01,25369,9940.20,0,0,165,1.54,-3.01,-0.28,0.18,0.99,-0.01
0.8330078,0.008414876,-0.034434684,-3.875755E-4,0.18,1.0,-0.01,25384,9940.50,0,0,0,1.40,-5.04,0.00,0.18,1.00,-0.01
-0.46679688,0.010414876,-0.05143469,0.2526124,0.18,0.99,-0.0,25400,9939.20,0,0,165,1.54,-6.23,17.71,0.18,0.99,-0.00
-0.76660156,-0.006585124,-0.08843469,-0.0013875755,0.2,0.98,0.0,25408,9938.90,0,0,0,0.35,-8.82,-0.07,0.20,0.98,0.00
1.1328125,-0.010585124,-0.17243469,-3.875755E-4,0.21,0.99,0.02,25423,9940.80,0,0,165,0.07,-14.70,0.00,0.21,0.99,0.02
-0.76660156,-0.053585123,-0.2974347,-0.0033875753,0.22,0.99,0.02,25438,9938.90,0,0,0,-2.94,-23.45,-0.21,0.22,0.99,0.02
1.1328125,-0.09958512,-0.4444347,0.0016124246,0.21,0.99,0.02,25446,9940.80,0,0,165,-6.16,-33.74,0.14,0.21,0.99,0.02
0.23339844,-0.12358513,-0.56843466,0.0016124246,0.17,1.0,0.0,25460,9939.90,0,0,0,-7.84,-42.42,0.14,0.17,1.00,0.00
0.5332031,-0.012585124,-0.17543468,-0.022387575,0.06,1.03,-0.17,25475,9940.20,0,0,165,-0.07,-14.91,-1.54,0.06,1.03,-0.17
1.1328125,0.018414875,0.045565315,-0.009387575,0.18,0.99,0.03,25482,9940.80,0,0,0,2.10,0.56,-0.63,0.18,0.99,0.03
-0.06738281,0.0064148754,0.040565312,-0.036387574,0.19,0.99,0.0,25497,9939.60,0,0,165,1.26,0.21,-2.52,0.19,0.99,0.00
1.1328125,0.11541488,-0.029434688,-0.16238758,0.18,0.98,-0.01,25513,9940.80,0,0,0,8.89,-4.69,-11.34,0.18,0.98,-0.01
0.23339844,0.15741488,-0.018434688,-0.24638757,0.18,0.99,-0.01,25520,9939.90,0,0,165,11.83,-3.92,-17.22,0.18,0.99,-0.01
-0.46679688,0.14141488,-0.0064346865,-0.21138759,0.16,1.0,-0.02,25535,9939.20,0,0,0,10.71,-3.08,-14.77,0.16,1.00,-0.02
0.23339844,0.08841488,-0.019434687,-0.09938758,0.16,1.0,-0.02,25549,9939.90,0,0,165,7.00,-3.99,-6.93,0.16,1.00,-0.02
0.23339844,0.005414877,-0.0074346885,0.018612426,0.16,1.01,-0.02,25557,9939.90,0,0,0,1.19,-3.15,1.33,0.16,1.01,-0.02
0.23339844,-0.081585124,0.037565313,0.19061242,0.16,1.01,-0.02,25572,9939.90,0,0,165,-4.90,0.00,13.37,0.16,1.01,-0.02
0.23339844,-0.24058515,0.033565313,0.41661242,0.16,1.02,-0.02,25587,9939.90,0,0,0,-16.03,-0.28,29.19,0.16,1.02,-0.02
1.1328125,0.30641487,0.071565315,0.32161245,0.11,1.11,-0.17,25594,9940.80,0,0,165,22.26,2.38,22.54,0.11,1.11,-0.17
1.1328125,0.24941489,0.5515653,0.3496124,0.09,1.0,-0.08,25610,9940.80,0,0,0,18.27,35.98,24.50,0.09,1.00,-0.08
1.1328125,0.3284149,0.6375653,0.5946125,0.2,1.1,-0.01,25624,9940.80,0,0,165,23.80,42.00,41.65,0.20,1.10,-0.01
1.1328125,0.3484149,0.43756533,0.70461243,0.25,1.11,0.04,25632,9940.80,0,0,0,25.20,28.00,49.35,0.25,1.11,0.04
0.23339844,0.3144149,0.19056532,0.82961243,0.29,0.99,0.04,25648,9939.90,0,0,165,22.82,10.71,58.10,0.29,0.99,0.04
0.23339844,0.29041487,0.0055653118,0.86161244,0.22,0.99,-0.03,25662,9939.90,0,0,0,21.14,-2.24,60.34,0.22,0.99,-0.03
0.23339844,0.29441488,0.064565316,0.9006125,0.19,0.98,-0.07,25670,9939.90,0,0,165,21.42,1.89,63.07,0.19,0.98,-0.07
0.23339844,0.14141488,-0.08343469,0.68961245,0.1,0.86,-0.14,25685,9939.90,0,0,0,10.71,-8.47,48.30,0.10,0.86,-0.14
0.23339844,-0.13058512,-0.4614347,0.25961244,0.1,0.9,-0.16,25699,9939.90,0,0,165,-8.33,-34.93,18.20,0.10,0.90,-0.16
-0.76660156,-0.16458511,-0.47843465,0.20161243,0.25,1.08,-0.07,25707,9938.90,0,0,0,-10.71,-36.12,14.14,0.25,1.08,-0.07
-0.76660156,0.13641489,-0.08343469,0.7476125,0.23,1.09,-0.11,25723,9938.90,0,0,165,10.36,-8.47,52.36,0.23,1.09,-0.11
0.23339844,0.19641489,0.071565315,1.1336124,0.19,1.01,-0.13,25738,9939.90,0,0,0,14.56,2.38,79.38,0.19,1.01,-0.13
0.23339844,-0.053585123,0.05156531,1.2076124,0.26,0.76,-0.07,25745,9939.90,0,0,165,-2.94,0.98,84.56,0.26,0.76,-0.07
0.23339844,-0.9445851,-0.3104347,0.60261244,0.29,0.64,-0.15,25761,9939.90,0,0,0,-65.31,-24.36,42.21,0.29,0.64,-0.15
-0.76660156,-1.497585,-0.6204347,-0.14638758,0.3,0.78,0.05,25775,9938.90,0,0,165,-104.02,-46.06,-10.22,0.30,0.78,0.05
2.4326172,-1.341585,-0.15143469,-0.14838758,0.4,1.0,-0.01,25782,9942.10,0,0,0,-93.10,-13.23,-10.36,0.40,1.00,-0.01
2.8330078,-0.9405851,0.2385653,0.19361243,0.36,1.05,-0.07,25798,9942.50,0,0,165,-65.03,14.07,13.58,0.36,1.05,-0.07
15.6328125,-0.8165851,0.3405653,0.31861243,0.32,1.01,0.16,25813,9955.30,0,0,0,-56.35,21.21,22.33,0.32,1.01,0.16
16.033203,-0.42958513,0.9615653,0.80861247,0.42,1.05,0.06,25820,9955.70,0,0,165,-29.26,64.68,56.63,0.42,1.05,0.06
19.833008,-0.88358516,0.122565314,0.46461242,0.31,0.86,0.09,25835,9959.50,0,0,0,-61.04,5.95,32.55,0.31,0.86,0.09
20.533203,-1.4535851,-0.40443468,0.19861242,0.29,0.85,0.11,25850,9960.20,0,0,165,-100.94,-30.94,13.93,0.29,0.85,0.11
20.132812,-1.1855851,-0.4664347,1.0786124,0.2,0.85,0.23,25857,9959.80,0,0,0,-82.18,-35.28,75.53,0.20,0.85,0.23
32.7334,-0.3735851,0.059565313,1.1386125,0.3,0.97,0.08,25872,9972.40,0,0,165,-25.34,1.54,79.73,0.30,0.97,0.08
43.7334,-0.33558512,0.22556531,0.7896124,0.35,0.95,0.03,25887,9983.40,0,0,0,-22.68,13.16,55.30,0.35,0.95,0.03
39.833008,-0.14458513,0.28756532,0.77661246,0.35,0.91,0.06,25894,9979.50,0,0,165,-9.31,17.50,54.39,0.35,0.91,0.06
35.932617,-0.29858512,0.2265653,0.6956125,0.35,0.92,0.06,25910,9975.60,0,0,0,-20.09,13.23,48.72,0.35,0.92,0.06
26.233398,-0.34958512,0.2125653,0.8346125,0.36,1.0,0.1,25924,9965.90,0,0,165,-23.66,12.25,58.45,0.36,1.00,0.10
32.432617,-0.20658511,0.3145653,1.0376126,0.39,0.95,0.08,25932,9972.10,0,0,0,-13.65,19.39,72.66,0.39,0.95,0.08
29.833008,-0.26058513,0.30356532,0.77161247,0.41,0.88,0.08,25948,9969.50,0,0,165,-17.43,18.62,54.04,0.41,0.88,0.08
38.2334,-0.25258514,0.3715653,0.9686125,0.49,0.86,0.13,25963,9977.90,0,0,0,-16.87,23.38,67.83,0.49,0.86,0.13
29.233398,-0.2825851,0.34856534,1.0456125,0.46,0.9,0.21,25970,9968.90,0,0,165,-18.97,21.77,73.22,0.46,0.90,0.21
26.932617,-0.20458513,0.37756532,1.1606123,0.35,0.89,0.05,25985,9966.60,0,0,0,-13.51,23.80,81.27,0.35,0.89,0.05
43.033203,-0.39958513,0.28956532,0.97261244,0.47,0.86,0.11,26000,9982.70,0,0,165,-27.16,17.64,68.11,0.47,0.86,0.11
19.932617,-0.6595851,0.2565653,0.43561244,0.4,0.6,0.02,26007,9959.60,0,0,0,-45.36,15.33,30.52,0.40,0.60,0.02
21.432617,-1.3035852,-0.18243468,-0.16538759,0.46,0.71,-0.02,26023,9961.10,0,0,165,-90.44,-15.40,-11.55,0.46,0.71,-0.02
32.632812,0.4484149,-1.1184347,0.78761244,0.06,0.96,0.18,26038,9972.30,0,0,0,32.20,-80.92,55.16,0.06,0.96,0.18
32.432617,2.6234148,-1.5274347,0.3946124,0.34,0.78,-0.25,26045,9972.10,0,0,165,184.45,-109.55,27.65,0.34,0.78,-0.25
14.733398,2.466415,0.059565313,-2.9833877,0.03,-0.05,0.53,26060,9954.40,0,0,0,173.46,1.54,-208.81,0.03,-0.05,0.53
41.132812,0.19041488,1.3525654,0.55061245,1.4,1.07,0.45,26075,9980.80,0,0,165,14.14,92.05,38.57,1.40,1.07,0.45
26.632812,-0.26158512,-0.31343466,0.9386125,0.53,0.97,0.13,26083,9966.30,0,0,0,-17.50,-24.57,65.73,0.53,0.97,0.13
29.233398,-0.4265851,0.022565313,0.81461245,0.5,0.83,0.11,26097,9968.90,0,0,165,-29.05,-1.05,57.05,0.50,0.83,0.11
27.932617,-0.3895851,0.11056531,0.8036124,0.5,0.82,0.1,26112,9967.60,0,0,0,-26.46,5.11,56.28,0.50,0.82,0.10
29.833008,-0.24558511,0.18556532,0.48161244,0.53,0.83,0.12,26120,9969.50,0,0,165,-16.38,10.36,33.74,0.53,0.83,0.12
28.833008,-0.12158512,0.22356531,0.28661242,0.53,0.84,0.13,26135,9968.50,0,0,0,-7.70,13.02,20.09,0.53,0.84,0.13
28.833008,-0.07758512,0.22056532,0.16261242,0.54,0.84,0.12,26150,9968.50,0,0,165,-4.62,12.81,11.41,0.54,0.84,0.12
29.833008,-0.104585126,0.19756532,0.19661242,0.58,0.85,0.18,26157,9969.50,0,0,0,-6.51,11.20,13.79,0.58,0.85,0.18
28.833008,-0.114585124,0.11956531,0.21261242,0.53,0.83,0.12,26172,9968.50,0,0,165,-7.21,5.74,14.91,0.53,0.83,0.12
28.833008,-0.045585126,0.16156532,0.081612416,0.56,0.84,0.14,26187,9968.50,0,0,0,-2.38,8.68,5.74,0.56,0.84,0.14
29.233398,-0.039585125,0.104565315,0.058612425,0.57,0.84,0.16,26197,9968.90,0,0,165,-1.96,4.69,4.13,0.57,0.84,0.16
29.833008,-0.026585124,0.06956531,0.027612425,0.56,0.84,0.15,26243,9969.50,0,0,0,-1.05,2.24,1.96,0.56,0.84,0.15
28.833008,-0.0095851235,0.05856531,-0.010387575,0.55,0.84,0.15,26247,9968.50,0,0,165,0.14,1.47,-0.70,0.55,0.84,0.15
28.833008,-0.0055851243,0.037565313,-0.021387575,0.55,0.84,0.14,26253,9968.50,0,0,0,0.42,0.00,-1.47,0.55,0.84,0.14
28.833008,4.1487534E-4,0.032565314,-0.043387577,0.55,0.84,0.14,26254,9968.50,0,0,165,0.84,-0.35,-3.01,0.55,0.84,0.14
28.833008,-0.006585124,0.037565313,-0.010387575,0.54,0.85,0.14,26262,9968.50,0,0,0,0.35,0.00,-0.70,0.54,0.85,0.14
27.932617,-0.054585125,0.048565313,0.10161242,0.53,0.85,0.14,26269,9967.60,0,0,165,-3.01,0.77,7.14,0.53,0.85,0.14
28.833008,-0.11758512,0.11356532,0.26661244,0.5,0.84,0.12,26285,9968.50,0,0,0,-7.42,5.32,18.69,0.50,0.84,0.12
27.932617,-0.17358512,0.24156532,0.3576124,0.5,0.84,0.12,26300,9967.60,0,0,165,-11.34,14.28,25.06,0.50,0.84,0.12
28.533203,-0.21658513,0.28556532,0.45461243,0.57,0.84,0.15,26307,9968.20,0,0,0,-14.35,17.36,31.85,0.57,0.84,0.15
28.833008,-0.30058512,0.25756532,0.5936125,0.56,0.82,0.15,26322,9968.50,0,0,165,-20.23,15.40,41.58,0.56,0.82,0.15
28.833008,-0.22958514,0.40056533,0.41861242,0.4,0.79,0.07,26338,9968.50,0,0,0,-15.26,25.41,29.33,0.40,0.79,0.07
32.132812,-0.11058512,0.8325653,0.21961242,0.72,0.81,0.24,26345,9971.80,0,0,165,-6.93,55.65,15.40,0.72,0.81,0.24
32.7334,-0.3735851,0.23156533,0.7516124,0.63,0.84,0.21,26360,9972.40,0,0,0,-25.34,13.58,52.64,0.63,0.84,0.21
34.632812,-0.3685851,0.2655653,0.6776124,0.58,0.79,0.18,26374,9974.30,0,0,165,-24.99,15.96,47.46,0.58,0.79,0.18
26.932617,-0.33058512,0.23356533,0.5996125,0.6,0.8,0.2,26382,9966.60,0,0,0,-22.33,13.72,42.00,0.60,0.80,0.20
39.132812,-0.26558512,0.24656531,0.4776124,0.58,0.78,0.19,26398,9978.80,0,0,165,-17.78,14.63,33.46,0.58,0.78,0.19
27.932617,-0.18758512,0.3145653,0.29561242,0.53,0.78,0.17,26413,9967.60,0,0,0,-12.32,19.39,20.72,0.53,0.78,0.17
21.833008,-0.17358512,0.36156532,0.22261241,0.61,0.78,0.23,26420,9961.50,0,0,165,-11.34,22.68,15.61,0.61,0.78,0.23
29.533203,-0.14358512,0.31256533,0.20961241,0.65,0.79,0.24,26434,9969.20,0,0,0,-9.24,19.25,14.70,0.65,0.79,0.24
34.333008,-0.17258513,0.1845653,0.26561242,0.65,0.79,0.26,26449,9974.00,0,0,165,-11.27,10.29,18.62,0.65,0.79,0.26
31.733398,-0.15458512,0.09756531,0.22061242,0.61,0.77,0.22,26457,9971.40,0,0,0,-10.01,4.20,15.47,0.61,0.77,0.22
41.7334,-0.111585125,0.09856531,0.13761242,0.62,0.78,0.23,26472,9981.40,0,0,165,-7.00,4.27,9.66,0.62,0.78,0.23
39.833008,-0.089585125,0.063565314,0.08261242,0.62,0.77,0.23,26487,9979.50,0,0,0,-5.46,1.82,5.81,0.62,0.77,0.23
39.432617,-0.06558512,0.050565314,0.043612424,0.62,0.77,0.23,26495,9979.10,0,0,165,-3.78,0.91,3.08,0.62,0.77,0.23
38.2334,-0.043585125,0.037565313,-0.012387575,0.62,0.77,0.24,26509,9977.90,0,0,0,-2.24,0.00,-0.84,0.62,0.77,0.24
38.533203,-0.013585124,0.025565315,-0.057387576,0.62,0.77,0.23,26524,9978.20,0,0,165,-0.14,-0.84,-3.99,0.62,0.77,0.23
39.132812,-0.0045851236,0.026565313,-0.056387577,0.61,0.77,0.23,26532,9978.80,0,0,0,0.49,-0.77,-3.92,0.61,0.77,0.23
38.2334,-0.060585126,0.040565312,0.09061242,0.6,0.78,0.22,26547,9977.90,0,0,165,-3.43,0.21,6.37,0.60,0.78,0.22
38.2334,-0.18358514,0.06256531,0.2876124,0.6,0.78,0.23,26562,9977.90,0,0,0,-12.04,1.75,20.16,0.60,0.78,0.23
