Pressure_Rel,GyroX_Rel,GyroY_Rel,GyroZ_Rel,AccX_Rel,AccY_Rel,AccZ_Rel,Timestamp,Pressure_abs,HeartRate,Oxygen,Status,GyroX,GyroY,GyroZ,AccX,AccY,AccZ
0.0,0.0,0.0,0.0,0.0,0.0,0.0,4514,10071.50,0,0,165,0.63,-2.66,0.14,-0.18,0.95,-0.27
0.0,0.0,0.0,0.0,0.0,0.0,0.0,4529,10070.50,0,0,0,0.63,-2.59,0.21,-0.18,0.95,-0.27
0.0,0.0,0.0,0.0,0.0,0.0,0.0,4544,10071.50,0,0,165,0.49,-2.66,0.07,-0.18,0.95,-0.27
0.0,0.0,0.0,0.0,0.0,0.0,0.0,4552,10071.50,0,0,0,0.49,-2.66,0.07,-0.18,0.95,-0.27
0.0,0.0,0.0,0.0,0.0,0.0,0.0,4582,10071.50,0,0,165,0.35,-2.87,-0.14,-0.18,0.96,-0.27
0.0,0.0,0.0,0.0,0.0,0.0,0.0,4589,10071.50,0,0,0,0.21,-2.94,-0.21,-0.18,0.96,-0.26
0.0,0.0,0.0,0.0,0.0,0.0,0.0,4591,10070.80,0,0,165,0.49,-3.15,-0.21,-0.18,0.96,-0.27
0.0,0.0,0.0,0.0,0.0,0.0,0.0,4604,10070.50,0,0,0,0.63,-3.08,-0.14,-0.18,0.95,-0.26
0.0,0.0,0.0,0.0,0.0,0.0,0.0,4619,10072.50,0,0,165,0.91,-3.08,-0.07,-0.18,0.95,-0.27
0.0,0.0,0.0,0.0,0.0,0.0,0.0,4626,10071.50,0,0,0,0.84,-3.01,0.07,-0.19,0.95,-0.27
0.0,0.0,0.0,0.0,0.0,0.0,0.0,4641,10070.50,0,0,165,1.12,-2.87,0.21,-0.19,0.95,-0.26
0.0,0.0,0.0,0.0,0.0,0.0,0.0,4658,10071.80,0,0,0,1.05,-2.87,0.21,-0.19,0.95,-0.27
0.0,0.0,0.0,0.0,0.0,0.0,0.0,4664,10071.80,0,0,165,1.05,-3.08,0.21,-0.19,0.95,-0.27
0.0,0.0,0.0,0.0,0.0,0.0,0.0,4679,10071.50,0,0,0,0.84,-3.15,0.14,-0.19,0.95,-0.27
0.0,0.0,0.0,0.0,0.0,0.0,0.0,4701,10071.80,0,0,165,0.70,-2.94,0.21,-0.19,0.95,-0.28
0.0,0.0,0.0,0.0,0.0,0.0,0.0,4703,10070.80,0,0,0,0.56,-2.66,0.07,-0.19,0.95,-0.28
0.0,0.0,0.0,0.0,0.0,0.0,0.0,4716,10070.80,0,0,165,0.35,-2.73,0.00,-0.19,0.95,-0.27
0.0,0.0,0.0,0.0,0.0,0.0,0.0,4732,10071.80,0,0,0,0.14,-2.73,0.00,-0.19,0.95,-0.28
0.0,0.0,0.0,0.0,0.0,0.0,0.0,4747,10070.50,0,0,165,0.07,-2.87,0.00,-0.18,0.95,-0.27
0.0,0.0,0.0,0.0,0.0,0.0,0.0,4755,10070.80,0,0,0,0.14,-3.01,0.07,-0.18,0.95,-0.27
0.0,0.0,0.0,0.0,0.0,0.0,0.0,4769,10071.80,0,0,165,0.28,-3.08,0.14,-0.19,0.95,-0.27
0.0,0.0,0.0,0.0,0.0,0.0,0.0,4777,10071.80,0,0,0,0.35,-2.94,0.35,-0.19,0.95,-0.27
0.0,0.0,0.0,0.0,0.0,0.0,0.0,4792,10072.80,0,0,165,0.49,-2.73,0.35,-0.19,0.95,-0.27
0.0,0.0,0.0,0.0,0.0,0.0,0.0,4799,10070.80,0,0,0,0.56,-2.59,0.35,-0.18,0.95,-0.27
0.0,0.0,0.0,0.0,0.0,0.0,0.0,4814,10070.80,0,0,165,0.84,-2.45,0.28,-0.18,0.96,-0.27
0.0,0.0,0.0,0.0,0.0,0.0,0.0,4829,10071.50,0,0,0,0.63,-2.59,0.21,-0.18,0.95,-0.27
0.0,0.0,0.0,0.0,0.0,0.0,0.0,4837,10070.50,0,0,165,0.56,-2.73,0.14,-0.18,0.95,-0.26
0.0,0.0,0.0,0.0,0.0,0.0,0.0,4860,10071.80,0,0,0,0.63,-2.87,0.00,-0.17,0.96,-0.26
0.0,0.0,0.0,0.0,0.0,0.0,0.0,4867,10070.50,0,0,165,0.49,-3.01,-0.07,-0.18,0.96,-0.26
0.0,0.0,0.0,0.0,0.0,0.0,0.0,4874,10071.80,0,0,0,0.49,-2.94,-0.07,-0.18,0.96,-0.26
0.0,0.0,0.0,0.0,0.0,0.0,0.0,4889,10070.80,0,0,165,0.70,-3.08,-0.07,-0.18,0.96,-0.26
0.0,0.0,0.0,0.0,0.0,0.0,0.0,4904,10071.80,0,0,0,0.84,-2.94,-0.07,-0.18,0.95,-0.26
0.0,0.0,0.0,0.0,0.0,0.0,0.0,4912,10071.80,0,0,165,0.70,-3.15,0.00,-0.18,0.95,-0.26
0.0,0.0,0.0,0.0,0.0,0.0,0.0,4926,10071.50,0,0,0,0.91,-3.01,0.07,-0.19,0.95,-0.27
0.0,0.0,0.0,0.0,0.0,0.0,0.0,4941,10071.80,0,0,165,0.49,-3.01,0.00,-0.19,0.95,-0.27
0.0,0.0,0.0,0.0,0.0,0.0,0.0,4949,10070.50,0,0,0,0.63,-3.22,0.21,-0.19,0.95,-0.27
0.0,0.0,0.0,0.0,0.0,0.0,0.0,4964,10070.80,0,0,165,0.84,-3.15,0.28,-0.20,0.95,-0.27
0.0,0.0,0.0,0.0,0.0,0.0,0.0,4987,10071.80,0,0,0,0.98,-3.29,0.28,-0.19,0.95,-0.28
0.0,0.0,0.0,0.0,0.0,0.0,0.0,4988,10070.80,0,0,165,1.12,-3.29,0.35,-0.20,0.95,-0.28
0.0,0.0,0.0,0.0,0.0,0.0,0.0,5002,10070.80,0,0,0,0.91,-3.15,0.35,-0.20,0.95,-0.28
0.0,0.0,0.0,0.0,0.0,0.0,0.0,5009,10071.50,0,0,165,0.63,-3.15,0.42,-0.20,0.95,-0.28
0.0,0.0,0.0,0.0,0.0,0.0,0.0,5025,10070.50,0,0,0,0.56,-3.15,0.35,-0.20,0.95,-0.28
0.0,0.0,0.0,0.0,0.0,0.0,0.0,5040,10070.50,0,0,165,0.35,-2.73,0.42,-0.19,0.95,-0.28
0.0,0.0,0.0,0.0,0.0,0.0,0.0,5047,10070.80,0,0,0,-0.07,-2.59,0.28,-0.19,0.95,-0.28
0.0,0.0,0.0,0.0,0.0,0.0,0.0,5070,10071.80,0,0,165,-0.28,-2.10,0.14,-0.19,0.95,-0.28
0.0,0.0,0.0,0.0,0.0,0.0,0.0,5077,10071.80,0,0,0,-0.35,-1.68,0.00,-0.18,0.96,-0.26
0.0,0.0,0.0,0.0,0.0,0.0,0.0,5085,10070.80,0,0,165,-0.07,-1.96,0.00,-0.17,0.96,-0.26
0.0,0.0,0.0,0.0,0.0,0.0,0.0,5099,10071.80,0,0,0,0.21,-2.52,0.28,-0.16,0.96,-0.25
0.0,0.0,0.0,0.0,0.0,0.0,0.0,5115,10071.80,0,0,165,0.21,-3.22,0.14,-0.17,0.96,-0.26
0.0,0.0,0.0,0.0,0.0,0.0,0.0,5121,10071.80,0,0,0,0.42,-3.64,0.14,-0.17,0.96,-0.26
0.0,0.0,0.0,0.0,0.0,0.0,0.0,5137,10072.50,0,0,165,0.91,-3.57,0.35,-0.18,0.96,-0.26
0.0,0.0,0.0,0.0,0.0,0.0,0.0,5152,10071.80,0,0,0,1.33,-3.08,0.35,-0.18,0.96,-0.26
0.0,0.0,0.0,0.0,0.0,0.0,0.0,5159,10071.80,0,0,165,1.12,-2.73,0.28,-0.18,0.95,-0.27
0.0,0.0,0.0,0.0,0.0,0.0,0.0,5175,10071.80,0,0,0,0.70,-2.45,-0.07,-0.18,0.95,-0.27
0.0,0.0,0.0,0.0,0.0,0.0,0.0,5189,10071.80,0,0,165,0.77,-2.59,-0.42,-0.18,0.95,-0.26
0.0,0.0,0.0,0.0,0.0,0.0,0.0,5197,10071.80,0,0,0,0.63,-3.01,-0.42,-0.17,0.96,-0.27
0.0,0.0,0.0,0.0,0.0,0.0,0.0,5211,10072.80,0,0,165,0.70,-3.57,-0.21,-0.18,0.95,-0.27
0.0,0.0,0.0,0.0,0.0,0.0,0.0,5227,10070.50,0,0,0,0.42,-3.99,-0.21,-0.18,0.95,-0.27
0.0,0.0,0.0,0.0,0.0,0.0,0.0,5241,10071.80,0,0,165,0.14,-3.85,-0.21,-0.19,0.95,-0.27
0.0,0.0,0.0,0.0,0.0,0.0,0.0,5249,10070.80,0,0,0,0.70,-3.71,-0.07,-0.19,0.95,-0.27
0.0,0.0,0.0,0.0,0.0,0.0,0.0,5264,10071.80,0,0,165,1.40,-3.43,0.28,-0.20,0.95,-0.27
0.0,0.0,0.0,0.0,0.0,0.0,0.0,5272,10071.80,0,0,0,1.26,-3.36,0.28,-0.19,0.95,-0.27
0.0,0.0,0.0,0.0,0.0,0.0,0.0,5287,10070.80,0,0,165,0.91,-3.36,0.21,-0.19,0.95,-0.27
0.0,0.0,0.0,0.0,0.0,0.0,0.0,5302,10069.80,0,0,0,1.05,-3.36,0.21,-0.20,0.95,-0.27
0.0,0.0,0.0,0.0,0.0,0.0,0.0,5309,10070.80,0,0,165,1.26,-2.94,0.35,-0.20,0.95,-0.27
0.0,0.0,0.0,0.0,0.0,0.0,0.0,5324,10071.80,0,0,0,0.91,-2.94,0.21,-0.19,0.95,-0.28
0.0,0.0,0.0,0.0,0.0,0.0,0.0,5346,10071.80,0,0,165,0.56,-2.94,0.07,-0.19,0.95,-0.28
0.0,0.0,0.0,0.0,0.0,0.0,0.0,5347,10071.80,0,0,0,0.14,-2.73,0.14,-0.19,0.95,-0.27
0.0,0.0,0.0,0.0,0.0,0.0,0.0,5361,10071.80,0,0,165,-0.14,-2.52,0.00,-0.19,0.95,-0.27
0.0,0.0,0.0,0.0,0.0,0.0,0.0,5376,10071.50,0,0,0,-0.07,-2.38,0.07,-0.19,0.95,-0.27
0.0,0.0,0.0,0.0,0.0,0.0,0.0,5399,10070.80,0,0,165,0.00,-2.31,0.07,-0.19,0.95,-0.27
0.0,0.0,0.0,0.0,0.0,0.0,0.0,5400,10071.80,0,0,0,-0.21,-2.38,0.00,-0.19,0.95,-0.27
0.0,0.0,0.0,0.0,0.0,0.0,0.0,5406,10071.80,0,0,165,-0.21,-2.31,0.00,-0.19,0.95,-0.27
0.0,0.0,0.0,0.0,0.0,0.0,0.0,5421,10072.80,0,0,0,0.35,-2.17,0.21,-0.19,0.95,-0.26
0.0,0.0,0.0,0.0,0.0,0.0,0.0,5436,10069.80,0,0,165,0.70,-2.10,0.35,-0.19,0.95,-0.27
0.0,0.0,0.0,0.0,0.0,0.0,0.0,5443,10070.50,0,0,0,0.77,-1.82,0.28,-0.19,0.95,-0.27
0.0,0.0,0.0,0.0,0.0,0.0,0.0,5459,10072.50,0,0,165,0.77,-2.03,0.21,-0.18,0.96,-0.26
0.0,0.0,0.0,0.0,0.0,0.0,0.0,5475,10071.80,0,0,0,0.91,-2.52,0.21,-0.17,0.96,-0.26
0.0,0.0,0.0,0.0,0.0,0.0,0.0,5482,10072.80,0,0,165,0.77,-2.87,0.28,-0.17,0.96,-0.26
0.0,0.0,0.0,0.0,0.0,0.0,0.0,5497,10072.80,0,0,0,0.56,-3.29,0.21,-0.17,0.95,-0.27
0.0,0.0,0.0,0.0,0.0,0.0,0.0,5512,10072.80,0,0,165,0.56,-3.29,0.14,-0.18,0.95,-0.27
0.0,0.0,0.0,0.0,0.0,0.0,0.0,5520,10071.80,0,0,0,0.35,-3.15,0.14,-0.18,0.95,-0.27
0.0,0.0,0.0,0.0,0.0,0.0,0.0,5534,10071.80,0,0,165,0.42,-3.01,-0.07,-0.18,0.95,-0.27
0.0,0.0,0.0,0.0,0.0,0.0,0.0,5557,10072.80,0,0,0,0.07,-3.01,-0.14,-0.18,0.95,-0.27
0.0,0.0,0.0,0.0,0.0,0.0,0.0,5559,10071.80,0,0,165,0.07,-3.08,-0.21,-0.18,0.95,-0.27
0.0,0.0,0.0,0.0,0.0,0.0,0.0,5572,10071.20,0,0,0,0.42,-3.01,-0.21,-0.18,0.95,-0.27
0.0,0.0,0.0,0.0,0.0,0.0,0.0,5586,10071.80,0,0,165,0.91,-3.08,0.00,-0.18,0.95,-0.27
0.0,0.0,0.0,0.0,0.0,0.0,0.0,5594,10071.80,0,0,0,1.12,-3.22,0.07,-0.18,0.95,-0.27
0.0,0.0,0.0,0.0,0.0,0.0,0.0,5609,10072.80,0,0,165,1.12,-3.36,0.07,-0.19,0.96,-0.27
0.0,0.0,0.0,0.0,0.0,0.0,0.0,5624,10070.80,0,0,0,1.26,-2.94,0.21,-0.20,0.94,-0.27
0.0,0.0,0.0,0.0,0.0,0.0,0.0,5632,10071.80,0,0,165,0.70,-2.73,0.28,-0.19,0.95,-0.26
0.0,0.0,0.0,0.0,0.0,0.0,0.0,5647,10071.80,0,0,0,1.61,-2.59,0.14,-0.20,0.96,-0.27
0.0,0.0,0.0,0.0,0.0,0.0,0.0,5662,10071.80,0,0,165,1.47,-2.17,0.42,-0.19,0.95,-0.27
0.0,0.0,0.0,0.0,0.0,0.0,0.0,5669,10071.80,0,0,0,0.56,-2.38,0.35,-0.18,0.95,-0.27
0.29296875,9.195125E-4,3.0343235E-4,-2.2909837E-4,-0.19,0.95,-0.27,9704,10072.50,0,0,0,0.63,-2.87,0.14,-0.19,0.95,-0.27
0.29296875,9.195125E-4,3.0343235E-4,-0.0012290984,-0.18,0.95,-0.27,9719,10072.50,0,0,165,0.63,-2.87,0.07,-0.18,0.95,-0.27
0.29296875,-0.0010804869,-6.965697E-4,7.7090133E-4,-0.18,0.95,-0.27,9740,10072.50,0,0,0,0.49,-2.94,0.21,-0.18,0.95,-0.27
0.59277344,-0.0020804876,3.0343235E-4,-2.2909837E-4,-0.19,0.95,-0.27,9745,10072.80,0,0,165,0.42,-2.87,0.14,-0.19,0.95,-0.27
0.29296875,-8.048676E-5,0.0013034306,-0.0022290985,-0.19,0.95,-0.27,9757,10072.50,0,0,0,0.56,-2.80,0.00,-0.19,0.95,-0.27
0.29296875,0.0019195126,3.0343235E-4,7.7090133E-4,-0.18,0.95,-0.27,9767,10072.50,0,0,165,0.70,-2.87,0.21,-0.18,0.95,-0.27
0.29296875,-8.048676E-5,3.0343235E-4,-2.2909837E-4,-0.18,0.95,-0.27,9785,10072.50,0,0,0,0.56,-2.87,0.14,-0.18,0.95,-0.27
0.29296875,-0.0010804869,-6.965697E-4,-2.2909837E-4,-0.19,0.95,-0.27,9797,10072.50,0,0,165,0.49,-2.94,0.14,-0.19,0.95,-0.27
0.29296875,-8.048676E-5,3.0343235E-4,-2.2909837E-4,-0.19,0.95,-0.27,9803,10072.50,0,0,0,0.56,-2.87,0.14,-0.19,0.95,-0.27
0.29296875,9.195125E-4,3.0343235E-4,-2.2909837E-4,-0.19,0.95,-0.27,9818,10072.50,0,0,165,0.63,-2.87,0.14,-0.19,0.95,-0.27
0.29296875,-8.048676E-5,0.0013034306,-2.2909837E-4,-0.19,0.95,-0.27,9832,10072.50,0,0,0,0.56,-2.80,0.14,-0.19,0.95,-0.27
0.29296875,9.195125E-4,0.0013034306,7.7090133E-4,-0.19,0.95,-0.27,9839,10072.50,0,0,165,0.63,-2.80,0.21,-0.19,0.95,-0.27
0.29296875,9.195125E-4,3.0343235E-4,-2.2909837E-4,-0.19,0.95,-0.27,9854,10072.50,0,0,0,0.63,-2.87,0.14,-0.19,0.95,-0.27
0.29296875,0.0029195128,0.0013034306,7.7090133E-4,-0.18,0.95,-0.27,9869,10072.50,0,0,165,0.77,-2.80,0.21,-0.18,0.95,-0.27
1.1933594,0.0019195126,3.0343235E-4,-2.2909837E-4,-0.19,0.95,-0.27,9877,10073.40,0,0,0,0.70,-2.87,0.14,-0.19,0.95,-0.27
0.29296875,-8.048676E-5,-6.965697E-4,-0.0012290984,-0.18,0.95,-0.27,9891,10072.50,0,0,165,0.56,-2.94,0.07,-0.18,0.95,-0.27
1.1933594,9.195125E-4,3.0343235E-4,-2.2909837E-4,-0.18,0.95,-0.27,9906,10073.40,0,0,0,0.63,-2.87,0.14,-0.18,0.95,-0.27
0.29296875,9.195125E-4,-6.965697E-4,-0.0022290985,-0.18,0.95,-0.27,9914,10072.50,0,0,165,0.63,-2.94,0.00,-0.18,0.95,-0.27
0.29296875,-0.0010804869,3.0343235E-4,-0.0022290985,-0.18,0.95,-0.27,9929,10072.50,0,0,0,0.49,-2.87,0.00,-0.18,0.95,-0.27
0.29296875,-0.0010804869,3.0343235E-4,-0.0012290984,-0.19,0.95,-0.27,9944,10072.50,0,0,165,0.49,-2.87,0.07,-0.19,0.95,-0.27
0.29296875,9.195125E-4,3.0343235E-4,-0.0012290984,-0.18,0.95,-0.27,9951,10072.50,0,0,0,0.63,-2.87,0.07,-0.18,0.95,-0.27
2.1933594,9.195125E-4,3.0343235E-4,-0.0012290984,-0.18,0.95,-0.27,9968,10074.40,0,0,165,0.63,-2.87,0.07,-0.18,0.95,-0.27
0.29296875,0.0019195126,-6.965697E-4,-2.2909837E-4,-0.18,0.95,-0.27,9982,10072.50,0,0,0,0.70,-2.94,0.14,-0.18,0.95,-0.27
0.59277344,9.195125E-4,-6.965697E-4,-2.2909837E-4,-0.18,0.95,-0.27,9989,10072.80,0,0,165,0.63,-2.94,0.14,-0.18,0.95,-0.27
1.1933594,9.195125E-4,3.0343235E-4,-0.0012290984,-0.19,0.95,-0.27,10004,10073.40,0,0,0,0.63,-2.87,0.07,-0.19,0.95,-0.27
1.1933594,0.0019195126,3.0343235E-4,-0.0012290984,-0.19,0.95,-0.27,10019,10073.40,0,0,165,0.70,-2.87,0.07,-0.19,0.95,-0.27
0.29296875,-8.048676E-5,3.0343235E-4,-0.0012290984,-0.18,0.95,-0.27,10027,10072.50,0,0,0,0.56,-2.87,0.07,-0.18,0.95,-0.27
0.29296875,-0.0010804869,-6.965697E-4,-0.0022290985,-0.19,0.95,-0.27,10042,10072.50,0,0,165,0.49,-2.94,0.00,-0.19,0.95,-0.27
0.29296875,-8.048676E-5,3.0343235E-4,-0.0022290985,-0.19,0.95,-0.27,10057,10072.50,0,0,0,0.56,-2.87,0.00,-0.19,0.95,-0.27
0.29296875,-0.0010804869,-6.965697E-4,-0.0032290984,-0.18,0.95,-0.27,10064,10072.50,0,0,165,0.49,-2.94,-0.07,-0.18,0.95,-0.27
0.29296875,-0.0010804869,0.0013034306,-2.2909837E-4,-0.19,0.95,-0.27,10079,10072.50,0,0,0,0.49,-2.80,0.14,-0.19,0.95,-0.27
1.5927734,-0.0010804869,3.0343235E-4,-0.0022290985,-0.19,0.95,-0.27,10094,10073.80,0,0,165,0.49,-2.87,0.00,-0.19,0.95,-0.27
1.1933594,9.195125E-4,3.0343235E-4,-2.2909837E-4,-0.19,0.95,-0.27,10102,10073.40,0,0,0,0.63,-2.87,0.14,-0.19,0.95,-0.27
1.1933594,0.0019195126,3.0343235E-4,-0.0022290985,-0.19,0.95,-0.27,10117,10073.40,0,0,165,0.70,-2.87,0.00,-0.19,0.95,-0.27
1.1933594,9.195125E-4,3.0343235E-4,-2.2909837E-4,-0.19,0.95,-0.27,10131,10073.40,0,0,0,0.63,-2.87,0.14,-0.19,0.95,-0.27
1.1933594,-8.048676E-5,3.0343235E-4,-2.2909837E-4,-0.19,0.95,-0.27,10146,10073.40,0,0,165,0.56,-2.87,0.14,-0.19,0.95,-0.27
1.1933594,9.195125E-4,0.0013034306,-2.2909837E-4,-0.18,0.95,-0.27,10154,10073.40,0,0,0,0.63,-2.80,0.14,-0.18,0.95,-0.27
1.5927734,0.0019195126,3.0343235E-4,-0.0012290984,-0.18,0.95,-0.27,10169,10073.80,0,0,165,0.70,-2.87,0.07,-0.18,0.95,-0.27
1.1933594,9.195125E-4,0.0013034306,-0.0012290984,-0.18,0.95,-0.27,10176,10073.40,0,0,0,0.63,-2.80,0.07,-0.18,0.95,-0.27
-0.70703125,-8.048676E-5,-6.965697E-4,-0.0012290984,-0.18,0.95,-0.27,10191,10071.50,0,0,165,0.56,-2.94,0.07,-0.18,0.95,-0.27
0.29296875,-0.0010804869,-0.0016965717,-0.0022290985,-0.18,0.95,-0.27,10206,10072.50,0,0,0,0.49,-3.01,0.00,-0.18,0.95,-0.27
1.1933594,9.195125E-4,3.0343235E-4,-2.2909837E-4,-0.18,0.95,-0.27,10213,10073.40,0,0,165,0.63,-2.87,0.14,-0.18,0.95,-0.27
0.29296875,9.195125E-4,-6.965697E-4,-0.0012290984,-0.18,0.95,-0.27,10230,10072.50,0,0,0,0.63,-2.94,0.07,-0.18,0.95,-0.27
0.29296875,9.195125E-4,3.0343235E-4,7.7090133E-4,-0.18,0.95,-0.27,10236,10072.50,0,0,165,0.63,-2.87,0.21,-0.18,0.95,-0.27
0.29296875,9.195125E-4,3.0343235E-4,-2.2909837E-4,-0.19,0.95,-0.27,10252,10072.50,0,0,0,0.63,-2.87,0.14,-0.19,0.95,-0.27
0.29296875,0.0019195126,-6.965697E-4,-0.0032290984,-0.19,0.95,-0.27,10266,10072.50,0,0,165,0.70,-2.94,-0.07,-0.19,0.95,-0.27
0.59277344,9.195125E-4,0.0013034306,-2.2909837E-4,-0.19,0.95,-0.27,10274,10072.80,0,0,0,0.63,-2.80,0.14,-0.19,0.95,-0.27
1.1933594,9.195125E-4,-6.965697E-4,-0.0022290985,-0.19,0.95,-0.27,10289,10073.40,0,0,165,0.63,-2.94,0.00,-0.19,0.95,-0.27
1.1933594,9.195125E-4,0.0013034306,-0.0022290985,-0.18,0.95,-0.27,10304,10073.40,0,0,0,0.63,-2.80,0.00,-0.18,0.95,-0.27
1.1933594,9.195125E-4,3.0343235E-4,-0.0012290984,-0.19,0.95,-0.27,10312,10073.40,0,0,165,0.63,-2.87,0.07,-0.19,0.95,-0.27
1.1933594,-0.0010804869,-6.965697E-4,-0.0012290984,-0.19,0.95,-0.27,10326,10073.40,0,0,0,0.49,-2.94,0.07,-0.19,0.95,-0.27
0.29296875,-0.0010804869,3.0343235E-4,-0.0012290984,-0.19,0.95,-0.27,10341,10072.50,0,0,165,0.49,-2.87,0.07,-0.19,0.95,-0.27
1.1933594,-0.0010804869,-6.965697E-4,7.7090133E-4,-0.19,0.95,-0.27,10348,10073.40,0,0,0,0.49,-2.94,0.21,-0.19,0.95,-0.27
0.29296875,9.195125E-4,3.0343235E-4,7.7090133E-4,-0.18,0.95,-0.27,10363,10072.50,0,0,165,0.63,-2.87,0.21,-0.18,0.95,-0.27
0.29296875,9.195125E-4,3.0343235E-4,-0.0012290984,-0.19,0.95,-0.27,10379,10072.50,0,0,0,0.63,-2.87,0.07,-0.19,0.95,-0.27
1.1933594,9.195125E-4,0.0013034306,7.7090133E-4,-0.18,0.95,-0.27,10386,10073.40,0,0,165,0.63,-2.80,0.21,-0.18,0.95,-0.27
0.29296875,-0.0010804869,3.0343235E-4,-0.0012290984,-0.19,0.95,-0.27,10402,10072.50,0,0,0,0.49,-2.87,0.07,-0.19,0.95,-0.27
0.29296875,-8.048676E-5,0.0013034306,7.7090133E-4,-0.19,0.95,-0.27,10417,10072.50,0,0,165,0.56,-2.80,0.21,-0.19,0.95,-0.27
0.29296875,-0.0010804869,3.0343235E-4,-2.2909837E-4,-0.19,0.95,-0.27,10424,10072.50,0,0,0,0.49,-2.87,0.14,-0.19,0.95,-0.27
1.1933594,-8.048676E-5,-6.965697E-4,7.7090133E-4,-0.19,0.95,-0.27,10439,10073.40,0,0,165,0.56,-2.94,0.21,-0.19,0.95,-0.27
-0.70703125,-0.0010804869,3.0343235E-4,-2.2909837E-4,-0.19,0.95,-0.27,10454,10071.50,0,0,0,0.49,-2.87,0.14,-0.19,0.95,-0.27
0.29296875,0.0019195126,-6.965697E-4,-0.0022290985,-0.18,0.95,-0.27,10462,10072.50,0,0,165,0.70,-2.94,0.00,-0.18,0.95,-0.27
0.29296875,9.195125E-4,3.0343235E-4,-2.2909837E-4,-0.18,0.95,-0.27,10476,10072.50,0,0,0,0.63,-2.87,0.14,-0.18,0.95,-0.27
0.29296875,9.195125E-4,0.0013034306,-2.2909837E-4,-0.18,0.95,-0.27,10499,10072.50,0,0,165,0.63,-2.80,0.14,-0.18,0.95,-0.27
1.1933594,0.0029195128,3.0343235E-4,7.7090133E-4,-0.18,0.95,-0.27,10500,10073.40,0,0,0,0.77,-2.87,0.21,-0.18,0.95,-0.27
1.1933594,9.195125E-4,3.0343235E-4,7.7090133E-4,-0.19,0.95,-0.27,10514,10073.40,0,0,165,0.63,-2.87,0.21,-0.19,0.95,-0.27
1.1933594,9.195125E-4,0.0013034306,7.7090133E-4,-0.19,0.95,-0.27,10529,10073.40,0,0,0,0.63,-2.80,0.21,-0.19,0.95,-0.27
0.29296875,-0.0010804869,3.0343235E-4,-2.2909837E-4,-0.19,0.95,-0.27,10536,10072.50,0,0,165,0.49,-2.87,0.14,-0.19,0.95,-0.27
0.29296875,9.195125E-4,-6.965697E-4,-0.0022290985,-0.19,0.95,-0.27,10552,10072.50,0,0,0,0.63,-2.94,0.00,-0.19,0.95,-0.27
1.1933594,0.0019195126,-6.965697E-4,-0.0022290985,-0.18,0.95,-0.27,10566,10073.40,0,0,165,0.70,-2.94,0.00,-0.18,0.95,-0.27
0.29296875,-0.0010804869,-6.965697E-4,-2.2909837E-4,-0.18,0.95,-0.27,10574,10072.50,0,0,0,0.49,-2.94,0.14,-0.18,0.95,-0.27
0.29296875,-8.048676E-5,3.0343235E-4,-0.0022290985,-0.18,0.95,-0.27,10589,10072.50,0,0,165,0.56,-2.87,0.00,-0.18,0.95,-0.27
-0.70703125,-8.048676E-5,3.0343235E-4,-0.0022290985,-0.19,0.95,-0.27,10604,10071.50,0,0,0,0.56,-2.87,0.00,-0.19,0.95,-0.27
1.1933594,-0.0010804869,3.0343235E-4,-0.0012290984,-0.19,0.95,-0.27,10611,10073.40,0,0,165,0.49,-2.87,0.07,-0.19,0.95,-0.27
1.1933594,-8.048676E-5,-6.965697E-4,-2.2909837E-4,-0.18,0.95,-0.27,10626,10073.40,0,0,0,0.56,-2.94,0.14,-0.18,0.95,-0.27
0.29296875,-0.0010804869,-6.965697E-4,-0.0012290984,-0.19,0.95,-0.27,10634,10072.50,0,0,165,0.49,-2.94,0.07,-0.19,0.95,-0.27
1.1933594,9.195125E-4,3.0343235E-4,7.7090133E-4,-0.18,0.95,-0.27,10649,10073.40,0,0,0,0.63,-2.87,0.21,-0.18,0.95,-0.27
1.1933594,-8.048676E-5,0.0013034306,7.7090133E-4,-0.18,0.95,-0.27,10664,10073.40,0,0,165,0.56,-2.80,0.21,-0.18,0.95,-0.27
0.29296875,-8.048676E-5,3.0343235E-4,7.7090133E-4,-0.19,0.95,-0.27,10671,10072.50,0,0,0,0.56,-2.87,0.21,-0.19,0.95,-0.27
0.29296875,-8.048676E-5,0.0013034306,-0.0012290984,-0.18,0.95,-0.27,10686,10072.50,0,0,165,0.56,-2.80,0.07,-0.18,0.95,-0.27
0.29296875,-8.048676E-5,3.0343235E-4,-2.2909837E-4,-0.19,0.95,-0.27,10701,10072.50,0,0,0,0.56,-2.87,0.14,-0.19,0.95,-0.27
1.1933594,9.195125E-4,3.0343235E-4,-2.2909837E-4,-0.19,0.95,-0.27,10709,10073.40,0,0,165,0.63,-2.87,0.14,-0.19,0.95,-0.27
1.1933594,-0.0010804869,-6.965697E-4,-0.0012290984,-0.19,0.96,-0.27,10726,10073.40,0,0,0,0.49,-2.94,0.07,-0.19,0.96,-0.27
1.1933594,-8.048676E-5,-6.965697E-4,-0.0022290985,-0.18,0.95,-0.27,10739,10073.40,0,0,165,0.56,-2.94,0.00,-0.18,0.95,-0.27
0.59277344,-0.0010804869,3.0343235E-4,-0.0012290984,-0.19,0.95,-0.27,10746,10072.80,0,0,0,0.49,-2.87,0.07,-0.19,0.95,-0.27
1.1933594,0.0019195126,0.0013034306,-0.0012290984,-0.18,0.95,-0.27,10761,10073.40,0,0,165,0.70,-2.80,0.07,-0.18,0.95,-0.27
1.1933594,9.195125E-4,0.002303429,-2.2909837E-4,-0.18,0.95,-0.27,10778,10073.40,0,0,0,0.63,-2.73,0.14,-0.18,0.95,-0.27
1.1933594,0.0019195126,3.0343235E-4,-2.2909837E-4,-0.18,0.95,-0.27,10784,10073.40,0,0,165,0.70,-2.87,0.14,-0.18,0.95,-0.27
0.29296875,-8.048676E-5,0.0013034306,7.7090133E-4,-0.18,0.95,-0.27,10799,10072.50,0,0,0,0.56,-2.80,0.21,-0.18,0.95,-0.27
1.1933594,-8.048676E-5,-6.965697E-4,-0.0022290985,-0.18,0.95,-0.27,10814,10073.40,0,0,165,0.56,-2.94,0.00,-0.18,0.95,-0.27
0.29296875,-8.048676E-5,3.0343235E-4,-0.0012290984,-0.19,0.95,-0.27,10821,10072.50,0,0,0,0.56,-2.87,0.07,-0.19,0.95,-0.27
0.8925781,-8.048676E-5,-6.965697E-4,-0.0012290984,-0.19,0.95,-0.27,10837,10073.10,0,0,165,0.56,-2.94,0.07,-0.19,0.95,-0.27
1.1933594,9.195125E-4,-6.965697E-4,-0.0012290984,-0.19,0.95,-0.27,10852,10073.40,0,0,0,0.63,-2.94,0.07,-0.19,0.95,-0.27
1.1933594,9.195125E-4,-6.965697E-4,-0.0012290984,-0.19,0.95,-0.27,10860,10073.40,0,0,165,0.63,-2.94,0.07,-0.19,0.95,-0.27
1.1933594,-8.048676E-5,3.0343235E-4,-0.0012290984,-0.19,0.95,-0.27,10875,10073.40,0,0,0,0.56,-2.87,0.07,-0.19,0.95,-0.27
1.1933594,-8.048676E-5,-6.965697E-4,-0.0012290984,-0.19,0.95,-0.27,10889,10073.40,0,0,165,0.56,-2.94,0.07,-0.19,0.95,-0.27
1.1933594,9.195125E-4,3.0343235E-4,-0.0022290985,-0.18,0.95,-0.27,10896,10073.40,0,0,0,0.63,-2.87,0.00,-0.18,0.95,-0.27
1.1933594,9.195125E-4,-6.965697E-4,-0.0012290984,-0.19,0.95,-0.27,10912,10073.40,0,0,165,0.63,-2.94,0.07,-0.19,0.95,-0.27
1.1933594,-8.048676E-5,3.0343235E-4,0.0017709017,-0.19,0.95,-0.27,10927,10073.40,0,0,0,0.56,-2.87,0.28,-0.19,0.95,-0.27
1.1933594,-8.048676E-5,-6.965697E-4,-2.2909837E-4,-0.19,0.95,-0.27,10934,10073.40,0,0,165,0.56,-2.94,0.14,-0.19,0.95,-0.27
0.29296875,-0.0010804869,-6.965697E-4,-0.0012290984,-0.18,0.95,-0.27,10949,10072.50,0,0,0,0.49,-2.94,0.07,-0.18,0.95,-0.27
1.1933594,-8.048676E-5,3.0343235E-4,-0.0012290984,-0.18,0.95,-0.27,10964,10073.40,0,0,165,0.56,-2.87,0.07,-0.18,0.95,-0.27
2.1933594,9.195125E-4,-6.965697E-4,-0.0012290984,-0.19,0.95,-0.27,10972,10074.40,0,0,0,0.63,-2.94,0.07,-0.19,0.95,-0.27
-0.70703125,-0.0010804869,-6.965697E-4,-0.0012290984,-0.19,0.95,-0.27,10986,10071.50,0,0,165,0.49,-2.94,0.07,-0.19,0.95,-0.27
1.1933594,-8.048676E-5,3.0343235E-4,-0.0012290984,-0.19,0.95,-0.27,11002,10073.40,0,0,0,0.56,-2.87,0.07,-0.19,0.95,-0.27
1.1933594,-8.048676E-5,0.0013034306,-2.2909837E-4,-0.19,0.95,-0.27,11009,10073.40,0,0,165,0.56,-2.80,0.14,-0.19,0.95,-0.27
1.1933594,-8.048676E-5,0.0013034306,7.7090133E-4,-0.18,0.95,-0.27,11024,10073.40,0,0,0,0.56,-2.80,0.21,-0.18,0.95,-0.27
1.1933594,0.0019195126,3.0343235E-4,-2.2909837E-4,-0.18,0.95,-0.27,11039,10073.40,0,0,165,0.70,-2.87,0.14,-0.18,0.95,-0.27
1.1933594,-8.048676E-5,0.002303429,-2.2909837E-4,-0.18,0.95,-0.27,11047,10073.40,0,0,0,0.56,-2.73,0.14,-0.18,0.95,-0.27
1.1933594,9.195125E-4,0.0013034306,-0.0012290984,-0.18,0.95,-0.27,11061,10073.40,0,0,165,0.63,-2.80,0.07,-0.18,0.95,-0.27
1.1933594,-0.0010804869,-6.965697E-4,-0.0022290985,-0.18,0.95,-0.27,11076,10073.40,0,0,0,0.49,-2.94,0.00,-0.18,0.95,-0.27
-0.107421875,9.195125E-4,3.0343235E-4,-0.0012290984,-0.19,0.95,-0.27,11084,10072.10,0,0,165,0.63,-2.87,0.07,-0.19,0.95,-0.27
0.29296875,9.195125E-4,3.0343235E-4,-2.2909837E-4,-0.18,0.95,-0.27,11099,10072.50,0,0,0,0.63,-2.87,0.14,-0.18,0.95,-0.27
0.8925781,-8.048676E-5,3.0343235E-4,-0.0012290984,-0.19,0.95,-0.27,11114,10073.10,0,0,165,0.56,-2.87,0.07,-0.19,0.95,-0.27
1.1933594,-0.0010804869,3.0343235E-4,-0.0022290985,-0.18,0.95,-0.27,11121,10073.40,0,0,0,0.49,-2.87,0.00,-0.18,0.95,-0.27
1.1933594,9.195125E-4,0.0013034306,-2.2909837E-4,-0.18,0.95,-0.27,11137,10073.40,0,0,165,0.63,-2.80,0.14,-0.18,0.95,-0.27
1.1933594,-8.048676E-5,0.0013034306,-2.2909837E-4,-0.18,0.95,-0.27,11151,10073.40,0,0,0,0.56,-2.80,0.14,-0.18,0.95,-0.27
1.1933594,0.0019195126,0.0013034306,-2.2909837E-4,-0.18,0.95,-0.27,11158,10073.40,0,0,165,0.70,-2.80,0.14,-0.18,0.95,-0.27
0.8925781,-8.048676E-5,-6.965697E-4,-0.0012290984,-0.18,0.95,-0.27,11174,10073.10,0,0,0,0.56,-2.94,0.07,-0.18,0.95,-0.27
1.1933594,-8.048676E-5,3.0343235E-4,-0.0012290984,-0.18,0.95,-0.27,11189,10073.40,0,0,165,0.56,-2.87,0.07,-0.18,0.95,-0.27
1.1933594,9.195125E-4,-6.965697E-4,-0.0012290984,-0.19,0.95,-0.27,11196,10073.40,0,0,0,0.63,-2.94,0.07,-0.19,0.95,-0.27
1.1933594,9.195125E-4,-6.965697E-4,-0.0042290986,-0.18,0.95,-0.27,11211,10073.40,0,0,165,0.63,-2.94,-0.14,-0.18,0.95,-0.27
-0.107421875,9.195125E-4,-6.965697E-4,-0.0012290984,-0.19,0.95,-0.27,11226,10072.10,0,0,0,0.63,-2.94,0.07,-0.19,0.95,-0.27
1.1933594,-8.048676E-5,3.0343235E-4,-0.0012290984,-0.19,0.95,-0.27,11234,10073.40,0,0,165,0.56,-2.87,0.07,-0.19,0.95,-0.27
0.29296875,-0.0010804869,0.0013034306,-0.0012290984,-0.18,0.95,-0.27,11249,10072.50,0,0,0,0.49,-2.80,0.07,-0.18,0.95,-0.27
1.1933594,-8.048676E-5,3.0343235E-4,7.7090133E-4,-0.19,0.95,-0.27,11263,10073.40,0,0,165,0.56,-2.87,0.21,-0.19,0.95,-0.27
1.1933594,9.195125E-4,3.0343235E-4,-2.2909837E-4,-0.19,0.95,-0.27,11279,10073.40,0,0,0,0.63,-2.87,0.14,-0.19,0.95,-0.27
1.1933594,-8.048676E-5,3.0343235E-4,-0.0012290984,-0.18,0.95,-0.27,11286,10073.40,0,0,165,0.56,-2.87,0.07,-0.18,0.95,-0.27
2.1933594,-0.0020804876,3.0343235E-4,-2.2909837E-4,-0.19,0.95,-0.27,11302,10074.40,0,0,0,0.42,-2.87,0.14,-0.19,0.95,-0.27
1.1933594,-8.048676E-5,3.0343235E-4,7.7090133E-4,-0.18,0.95,-0.27,11309,10073.40,0,0,165,0.56,-2.87,0.21,-0.18,0.95,-0.27
1.1933594,-8.048676E-5,0.0013034306,-0.0022290985,-0.19,0.95,-0.27,11325,10073.40,0,0,0,0.56,-2.80,0.00,-0.19,0.95,-0.27
1.5927734,-8.048676E-5,3.0343235E-4,-0.0022290985,-0.19,0.95,-0.27,11339,10073.80,0,0,165,0.56,-2.87,0.00,-0.19,0.95,-0.27
0.8925781,-8.048676E-5,-0.0016965717,-0.0032290984,-0.18,0.95,-0.27,11346,10073.10,0,0,0,0.56,-3.01,-0.07,-0.18,0.95,-0.27
1.1933594,-8.048676E-5,3.0343235E-4,-0.0022290985,-0.18,0.95,-0.27,11362,10073.40,0,0,165,0.56,-2.87,0.00,-0.18,0.95,-0.27
1.1933594,-8.048676E-5,3.0343235E-4,-0.0012290984,-0.18,0.95,-0.27,11376,10073.40,0,0,0,0.56,-2.87,0.07,-0.18,0.95,-0.27
1.1933594,9.195125E-4,3.0343235E-4,-0.0012290984,-0.18,0.95,-0.27,11384,10073.40,0,0,165,0.63,-2.87,0.07,-0.18,0.95,-0.27
1.1933594,-8.048676E-5,0.0013034306,7.7090133E-4,-0.18,0.95,-0.27,11399,10073.40,0,0,0,0.56,-2.80,0.21,-0.18,0.95,-0.27
0.8925781,0.0019195126,3.0343235E-4,7.7090133E-4,-0.18,0.95,-0.27,11414,10073.10,0,0,165,0.70,-2.87,0.21,-0.18,0.95,-0.27
1.1933594,9.195125E-4,3.0343235E-4,-0.0012290984,-0.18,0.95,-0.27,11422,10073.40,0,0,0,0.63,-2.87,0.07,-0.18,0.95,-0.27
1.1933594,9.195125E-4,0.0013034306,-0.0012290984,-0.18,0.95,-0.27,11437,10073.40,0,0,165,0.63,-2.80,0.07,-0.18,0.95,-0.27
1.1933594,9.195125E-4,-6.965697E-4,-0.0012290984,-0.18,0.95,-0.27,11451,10073.40,0,0,0,0.63,-2.94,0.07,-0.18,0.95,-0.27
1.1933594,-8.048676E-5,-6.965697E-4,-0.0022290985,-0.19,0.95,-0.27,11459,10073.40,0,0,165,0.56,-2.94,0.00,-0.19,0.95,-0.27
1.1933594,-0.0010804869,-0.0016965717,7.7090133E-4,-0.19,0.95,-0.27,11474,10073.40,0,0,0,0.49,-3.01,0.21,-0.19,0.95,-0.27
1.1933594,-8.048676E-5,-6.965697E-4,-2.2909837E-4,-0.19,0.95,-0.27,11489,10073.40,0,0,165,0.56,-2.94,0.14,-0.19,0.95,-0.27
1.1933594,-0.0010804869,-0.0016965717,-2.2909837E-4,-0.19,0.95,-0.27,11497,10073.40,0,0,0,0.49,-3.01,0.14,-0.19,0.95,-0.27
0.8925781,9.195125E-4,-6.965697E-4,-0.0022290985,-0.19,0.95,-0.27,11511,10073.10,0,0,165,0.63,-2.94,0.00,-0.19,0.95,-0.27
-0.107421875,9.195125E-4,-6.965697E-4,-2.2909837E-4,-0.19,0.95,-0.27,11526,10072.10,0,0,0,0.63,-2.94,0.14,-0.19,0.95,-0.27
1.1933594,9.195125E-4,3.0343235E-4,-0.0012290984,-0.19,0.95,-0.27,11534,10073.40,0,0,165,0.63,-2.87,0.07,-0.19,0.95,-0.27
1.1933594,9.195125E-4,3.0343235E-4,-2.2909837E-4,-0.19,0.95,-0.27,11549,10073.40,0,0,0,0.63,-2.87,0.14,-0.19,0.95,-0.27
0.29296875,-8.048676E-5,3.0343235E-4,7.7090133E-4,-0.19,0.95,-0.27,11564,10072.50,0,0,165,0.56,-2.87,0.21,-0.19,0.95,-0.27
0.29296875,-8.048676E-5,-6.965697E-4,-2.2909837E-4,-0.19,0.95,-0.27,11572,10072.50,0,0,0,0.56,-2.94,0.14,-0.19,0.95,-0.27
1.1933594,-0.0010804869,-6.965697E-4,-0.0032290984,-0.19,0.95,-0.27,11586,10073.40,0,0,165,0.49,-2.94,-0.07,-0.19,0.95,-0.27
3.1933594,0.0019195126,-0.0016965717,-2.2909837E-4,-0.19,0.95,-0.27,11601,10075.40,0,0,0,0.70,-3.01,0.14,-0.19,0.95,-0.27
0.8925781,-8.048676E-5,3.0343235E-4,-0.0012290984,-0.19,0.95,-0.27,11609,10073.10,0,0,165,0.56,-2.87,0.07,-0.19,0.95,-0.27
1.1933594,-8.048676E-5,3.0343235E-4,-2.2909837E-4,-0.19,0.95,-0.27,11624,10073.40,0,0,0,0.56,-2.87,0.14,-0.19,0.95,-0.27
2.1933594,-8.048676E-5,3.0343235E-4,-2.2909837E-4,-0.19,0.95,-0.27,11639,10074.40,0,0,165,0.56,-2.87,0.14,-0.19,0.95,-0.27
0.8925781,9.195125E-4,0.0013034306,7.7090133E-4,-0.18,0.95,-0.27,11646,10073.10,0,0,0,0.63,-2.80,0.21,-0.18,0.95,-0.27
-0.107421875,-0.0010804869,3.0343235E-4,-0.0012290984,-0.19,0.95,-0.27,11661,10072.10,0,0,165,0.49,-2.87,0.07,-0.19,0.95,-0.27
0.8925781,9.195125E-4,3.0343235E-4,-2.2909837E-4,-0.19,0.95,-0.27,11677,10073.10,0,0,0,0.63,-2.87,0.14,-0.19,0.95,-0.27
1.1933594,-8.048676E-5,3.0343235E-4,-2.2909837E-4,-0.19,0.95,-0.27,11684,10073.40,0,0,165,0.56,-2.87,0.14,-0.19,0.95,-0.27
1.1933594,-8.048676E-5,3.0343235E-4,7.7090133E-4,-0.19,0.95,-0.27,11699,10073.40,0,0,0,0.56,-2.87,0.21,-0.19,0.95,-0.27
1.1933594,0.0019195126,3.0343235E-4,-0.0012290984,-0.18,0.95,-0.27,11714,10073.40,0,0,165,0.70,-2.87,0.07,-0.18,0.95,-0.27
1.1933594,-8.048676E-5,-0.0016965717,-0.0022290985,-0.19,0.95,-0.27,11722,10073.40,0,0,0,0.56,-3.01,0.00,-0.19,0.95,-0.27
1.1933594,-8.048676E-5,-6.965697E-4,-0.0012290984,-0.19,0.95,-0.27,11737,10073.40,0,0,165,0.56,-2.94,0.07,-0.19,0.95,-0.27
0.29296875,-8.048676E-5,-6.965697E-4,-0.0012290984,-0.18,0.95,-0.27,11752,10072.50,0,0,0,0.56,-2.94,0.07,-0.18,0.95,-0.27
0.29296875,-0.0010804869,0.0013034306,-2.2909837E-4,-0.19,0.95,-0.27,11759,10072.50,0,0,165,0.49,-2.80,0.14,-0.19,0.95,-0.27
0.29296875,0.0019195126,3.0343235E-4,-2.2909837E-4,-0.19,0.95,-0.27,11774,10072.50,0,0,0,0.70,-2.87,0.14,-0.19,0.95,-0.27
2.1933594,-8.048676E-5,3.0343235E-4,-0.0012290984,-0.18,0.95,-0.27,11789,10074.40,0,0,165,0.56,-2.87,0.07,-0.18,0.95,-0.27
1.1933594,9.195125E-4,3.0343235E-4,-0.0012290984,-0.19,0.95,-0.27,11797,10073.40,0,0,0,0.63,-2.87,0.07,-0.19,0.95,-0.27
1.1933594,-8.048676E-5,-0.0016965717,-0.0012290984,-0.18,0.95,-0.27,11811,10073.40,0,0,165,0.56,-3.01,0.07,-0.18,0.95,-0.27
1.1933594,9.195125E-4,3.0343235E-4,-0.0012290984,-0.19,0.95,-0.27,11826,10073.40,0,0,0,0.63,-2.87,0.07,-0.19,0.95,-0.27
1.1933594,-8.048676E-5,3.0343235E-4,-0.0022290985,-0.19,0.95,-0.27,11834,10073.40,0,0,165,0.56,-2.87,0.00,-0.19,0.95,-0.27
-0.107421875,-0.0010804869,-6.965697E-4,-2.2909837E-4,-0.19,0.95,-0.27,11849,10072.10,0,0,0,0.49,-2.94,0.14,-0.19,0.95,-0.27
1.1933594,-0.0010804869,-6.965697E-4,-0.0012290984,-0.18,0.95,-0.27,11864,10073.40,0,0,165,0.49,-2.94,0.07,-0.18,0.95,-0.27
0.8925781,9.195125E-4,3.0343235E-4,-0.0012290984,-0.18,0.95,-0.27,11871,10073.10,0,0,0,0.63,-2.87,0.07,-0.18,0.95,-0.27
0.29296875,-8.048676E-5,0.0013034306,-2.2909837E-4,-0.19,0.95,-0.27,11887,10072.50,0,0,165,0.56,-2.80,0.14,-0.19,0.95,-0.27
0.8925781,-0.0010804869,3.0343235E-4,-2.2909837E-4,-0.18,0.95,-0.27,11901,10073.10,0,0,0,0.49,-2.87,0.14,-0.18,0.95,-0.27
1.1933594,9.195125E-4,3.0343235E-4,-2.2909837E-4,-0.18,0.95,-0.27,11909,10073.40,0,0,165,0.63,-2.87,0.14,-0.18,0.95,-0.27
0.29296875,9.195125E-4,3.0343235E-4,-2.2909837E-4,-0.19,0.95,-0.27,11923,10072.50,0,0,0,0.63,-2.87,0.14,-0.19,0.95,-0.27
1.1933594,-8.048676E-5,0.0013034306,-2.2909837E-4,-0.19,0.95,-0.27,11954,10073.40,0,0,165,0.56,-2.80,0.14,-0.19,0.95,-0.27
1.8925781,9.195125E-4,-6.965697E-4,-2.2909837E-4,-0.18,0.95,-0.27,11955,10074.10,0,0,0,0.63,-2.94,0.14,-0.18,0.95,-0.27
1.1933594,-8.048676E-5,-6.965697E-4,-0.0022290985,-0.19,0.95,-0.27,11961,10073.40,0,0,165,0.56,-2.94,0.00,-0.19,0.95,-0.27
1.1933594,-8.048676E-5,-6.965697E-4,7.7090133E-4,-0.19,0.95,-0.27,11977,10073.40,0,0,0,0.56,-2.94,0.21,-0.19,0.95,-0.27
1.1933594,-8.048676E-5,-6.965697E-4,-0.0012290984,-0.18,0.95,-0.27,11984,10073.40,0,0,165,0.56,-2.94,0.07,-0.18,0.95,-0.27
1.1933594,-8.048676E-5,0.0013034306,-0.0022290985,-0.18,0.95,-0.27,11999,10073.40,0,0,0,0.56,-2.80,0.00,-0.18,0.95,-0.27
1.1933594,-8.048676E-5,3.0343235E-4,-0.0022290985,-0.18,0.95,-0.27,12015,10073.40,0,0,165,0.56,-2.87,0.00,-0.18,0.95,-0.27
1.1933594,-0.0010804869,3.0343235E-4,-0.0012290984,-0.18,0.95,-0.27,12021,10073.40,0,0,0,0.49,-2.87,0.07,-0.18,0.95,-0.27
1.1933594,9.195125E-4,-6.965697E-4,-2.2909837E-4,-0.19,0.95,-0.27,12036,10073.40,0,0,165,0.63,-2.94,0.14,-0.19,0.95,-0.27
2.1933594,9.195125E-4,-6.965697E-4,-2.2909837E-4,-0.19,0.95,-0.27,12052,10074.40,0,0,0,0.63,-2.94,0.14,-0.19,0.95,-0.27
1.1933594,-8.048676E-5,3.0343235E-4,-0.0022290985,-0.18,0.95,-0.27,12060,10073.40,0,0,165,0.56,-2.87,0.00,-0.18,0.95,-0.27
0.29296875,-8.048676E-5,3.0343235E-4,-0.0012290984,-0.19,0.95,-0.27,12074,10072.50,0,0,0,0.56,-2.87,0.07,-0.19,0.95,-0.27
0.8925781,9.195125E-4,3.0343235E-4,7.7090133E-4,-0.18,0.95,-0.27,12089,10073.10,0,0,165,0.63,-2.87,0.21,-0.18,0.95,-0.27
0.29296875,-8.048676E-5,3.0343235E-4,-0.0012290984,-0.19,0.95,-0.27,12097,10072.50,0,0,0,0.56,-2.87,0.07,-0.19,0.95,-0.27
0.29296875,9.195125E-4,-6.965697E-4,-0.0012290984,-0.19,0.95,-0.27,12112,10072.50,0,0,165,0.63,-2.94,0.07,-0.19,0.95,-0.27
0.29296875,9.195125E-4,3.0343235E-4,-2.2909837E-4,-0.18,0.95,-0.27,12127,10072.50,0,0,0,0.63,-2.87,0.14,-0.18,0.95,-0.27
1.1933594,9.195125E-4,3.0343235E-4,-2.2909837E-4,-0.19,0.95,-0.27,12134,10073.40,0,0,165,0.63,-2.87,0.14,-0.19,0.95,-0.27
1.1933594,0.0019195126,3.0343235E-4,-2.2909837E-4,-0.19,0.95,-0.27,12149,10073.40,0,0,0,0.70,-2.87,0.14,-0.19,0.95,-0.27
1.1933594,9.195125E-4,0.0013034306,-0.0012290984,-0.19,0.95,-0.27,12164,10073.40,0,0,165,0.63,-2.80,0.07,-0.19,0.95,-0.27
1.1933594,9.195125E-4,3.0343235E-4,-0.0012290984,-0.19,0.95,-0.27,12171,10073.40,0,0,0,0.63,-2.87,0.07,-0.19,0.95,-0.27
1.1933594,-8.048676E-5,3.0343235E-4,0.0017709017,-0.18,0.95,-0.27,12195,10073.40,0,0,165,0.56,-2.87,0.28,-0.18,0.95,-0.27
0.8925781,-8.048676E-5,3.0343235E-4,-2.2909837E-4,-0.19,0.95,-0.27,12202,10073.10,0,0,0,0.56,-2.87,0.14,-0.19,0.95,-0.27
-0.107421875,9.195125E-4,3.0343235E-4,-0.0012290984,-0.19,0.95,-0.27,12210,10072.10,0,0,165,0.63,-2.87,0.07,-0.19,0.95,-0.27
2.1933594,-0.0010804869,0.0013034306,-0.0012290984,-0.18,0.95,-0.27,12224,10074.40,0,0,0,0.49,-2.80,0.07,-0.18,0.95,-0.27
2.1933594,9.195125E-4,3.0343235E-4,-0.0012290984,-0.19,0.95,-0.27,12232,10074.40,0,0,165,0.63,-2.87,0.07,-0.19,0.95,-0.27
1.1933594,-0.0010804869,3.0343235E-4,-0.0022290985,-0.19,0.95,-0.27,12246,10073.40,0,0,0,0.49,-2.87,0.00,-0.19,0.95,-0.27
2.1933594,-8.048676E-5,3.0343235E-4,-2.2909837E-4,-0.18,0.95,-0.27,12263,10074.40,0,0,165,0.56,-2.87,0.14,-0.18,0.95,-0.27
0.8925781,9.195125E-4,-6.965697E-4,-2.2909837E-4,-0.18,0.95,-0.27,12269,10073.10,0,0,0,0.63,-2.94,0.14,-0.18,0.95,-0.27
0.8925781,-8.048676E-5,3.0343235E-4,-0.0012290984,-0.18,0.95,-0.27,12284,10073.10,0,0,165,0.56,-2.87,0.07,-0.18,0.95,-0.27
2.1933594,-8.048676E-5,3.0343235E-4,-0.0012290984,-0.18,0.95,-0.27,12300,10074.40,0,0,0,0.56,-2.87,0.07,-0.18,0.95,-0.27
0.8925781,9.195125E-4,3.0343235E-4,-2.2909837E-4,-0.19,0.95,-0.27,12310,10073.10,0,0,165,0.63,-2.87,0.14,-0.19,0.95,-0.27
0.8925781,-8.048676E-5,-6.965697E-4,-0.0012290984,-0.18,0.95,-0.27,12321,10073.10,0,0,0,0.56,-2.94,0.07,-0.18,0.95,-0.27
1.1933594,0.0019195126,3.0343235E-4,-2.2909837E-4,-0.19,0.95,-0.27,12337,10073.40,0,0,165,0.70,-2.87,0.14,-0.19,0.95,-0.27
1.1933594,-0.0020804876,3.0343235E-4,-0.0032290984,-0.18,0.95,-0.27,12344,10073.40,0,0,0,0.42,-2.87,-0.07,-0.18,0.95,-0.27
1.1933594,-8.048676E-5,-6.965697E-4,-0.0012290984,-0.18,0.95,-0.27,12360,10073.40,0,0,165,0.56,-2.94,0.07,-0.18,0.95,-0.27
1.1933594,-0.0010804869,-6.965697E-4,-0.0012290984,-0.19,0.95,-0.27,12374,10073.40,0,0,0,0.49,-2.94,0.07,-0.19,0.95,-0.27
1.1933594,0.0019195126,3.0343235E-4,7.7090133E-4,-0.18,0.95,-0.27,12382,10073.40,0,0,165,0.70,-2.87,0.21,-0.18,0.95,-0.27
1.1933594,-8.048676E-5,3.0343235E-4,-0.0012290984,-0.19,0.95,-0.27,12396,10073.40,0,0,0,0.56,-2.87,0.07,-0.19,0.95,-0.27
2.1933594,9.195125E-4,3.0343235E-4,-0.0012290984,-0.18,0.95,-0.27,12412,10074.40,0,0,165,0.63,-2.87,0.07,-0.18,0.95,-0.27
-0.107421875,9.195125E-4,-6.965697E-4,-0.0012290984,-0.19,0.95,-0.27,12419,10072.10,0,0,0,0.63,-2.94,0.07,-0.19,0.95,-0.27
0.8925781,9.195125E-4,0.0013034306,-2.2909837E-4,-0.18,0.95,-0.27,12434,10073.10,0,0,165,0.63,-2.80,0.14,-0.18,0.95,-0.27
2.1933594,-8.048676E-5,-0.0016965717,-0.0012290984,-0.19,0.95,-0.27,12450,10074.40,0,0,0,0.56,-3.01,0.07,-0.19,0.95,-0.27
2.1933594,9.195125E-4,-6.965697E-4,-0.0012290984,-0.19,0.95,-0.27,12457,10074.40,0,0,165,0.63,-2.94,0.07,-0.19,0.95,-0.27
0.8925781,-8.048676E-5,0.0013034306,-0.0012290984,-0.18,0.95,-0.27,12471,10073.10,0,0,0,0.56,-2.80,0.07,-0.18,0.95,-0.27
0.8925781,-8.048676E-5,-6.965697E-4,-0.0012290984,-0.18,0.95,-0.27,12486,10073.10,0,0,165,0.56,-2.94,0.07,-0.18,0.95,-0.27
0.8925781,-8.048676E-5,3.0343235E-4,-2.2909837E-4,-0.19,0.95,-0.27,12494,10073.10,0,0,0,0.56,-2.87,0.14,-0.19,0.95,-0.27
1.1933594,-0.0010804869,3.0343235E-4,-0.0012290984,-0.19,0.95,-0.27,12510,10073.40,0,0,165,0.49,-2.87,0.07,-0.19,0.95,-0.27
-1.1074219,9.195125E-4,-6.965697E-4,-0.0012290984,-0.19,0.95,-0.27,12524,10071.10,0,0,0,0.63,-2.94,0.07,-0.19,0.95,-0.27
0.8925781,9.195125E-4,3.0343235E-4,-2.2909837E-4,-0.19,0.95,-0.27,12531,10073.10,0,0,165,0.63,-2.87,0.14,-0.19,0.95,-0.27
0.8925781,-0.0020804876,3.0343235E-4,-0.0012290984,-0.18,0.95,-0.27,12547,10073.10,0,0,0,0.42,-2.87,0.07,-0.18,0.95,-0.27
0.8925781,9.195125E-4,0.0013034306,-0.0012290984,-0.18,0.95,-0.27,12562,10073.10,0,0,165,0.63,-2.80,0.07,-0.18,0.95,-0.27
0.8925781,-8.048676E-5,3.0343235E-4,-0.0012290984,-0.19,0.95,-0.27,12569,10073.10,0,0,0,0.56,-2.87,0.07,-0.19,0.95,-0.27
1.1933594,-8.048676E-5,3.0343235E-4,-2.2909837E-4,-0.19,0.95,-0.27,12583,10073.40,0,0,165,0.56,-2.87,0.14,-0.19,0.95,-0.27
2.1933594,-8.048676E-5,-0.0016965717,-0.0022290985,-0.18,0.95,-0.27,12599,10074.40,0,0,0,0.56,-3.01,0.00,-0.18,0.95,-0.27
0.8925781,-0.0010804869,-0.0016965717,-0.0012290984,-0.19,0.95,-0.27,12607,10073.10,0,0,165,0.49,-3.01,0.07,-0.19,0.95,-0.27
1.1933594,-8.048676E-5,-6.965697E-4,-0.0022290985,-0.18,0.95,-0.27,12621,10073.40,0,0,0,0.56,-2.94,0.00,-0.18,0.95,-0.27
0.8925781,-0.0030804873,3.0343235E-4,-0.0032290984,-0.18,0.95,-0.27,12637,10073.10,0,0,165,0.35,-2.87,-0.07,-0.18,0.95,-0.27
1.8925781,0.0019195126,-0.00269657,-0.0012290984,-0.18,0.96,-0.27,12645,10074.10,0,0,0,0.70,-3.08,0.07,-0.18,0.96,-0.27
1.1933594,9.195125E-4,0.0013034306,-0.0042290986,-0.19,0.95,-0.27,12659,10073.40,0,0,165,0.63,-2.80,-0.14,-0.19,0.95,-0.27
0.8925781,-8.048676E-5,0.002303429,0.0017709017,-0.19,0.95,-0.27,12675,10073.10,0,0,0,0.56,-2.73,0.28,-0.19,0.95,-0.27
0.8925781,0.004919513,0.002303429,-2.2909837E-4,-0.18,0.94,-0.27,12681,10073.10,0,0,165,0.91,-2.73,0.14,-0.18,0.94,-0.27
0.8925781,-0.0020804876,0.0013034306,0.0027709014,-0.18,0.96,-0.27,12696,10073.10,0,0,0,0.42,-2.80,0.35,-0.18,0.96,-0.27
1.8925781,-0.0010804869,-0.0016965717,-0.0012290984,-0.18,0.95,-0.27,12712,10074.10,0,0,165,0.49,-3.01,0.07,-0.18,0.95,-0.27
0.8925781,-0.0020804876,-6.965697E-4,-0.0042290986,-0.18,0.96,-0.27,12719,10073.10,0,0,0,0.42,-2.94,-0.14,-0.18,0.96,-0.27
1.1933594,0.0069195125,-0.0046965703,-2.2909837E-4,-0.19,0.95,-0.28,12734,10073.40,0,0,165,1.05,-3.22,0.14,-0.19,0.95,-0.28
0.8925781,-0.006080487,0.0013034306,-0.0042290986,-0.18,0.95,-0.27,12754,10073.10,0,0,0,0.14,-2.80,-0.14,-0.18,0.95,-0.27
1.1933594,0.004919513,-0.003696572,0.0027709014,-0.19,0.95,-0.27,12760,10073.40,0,0,165,0.91,-3.15,0.35,-0.19,0.95,-0.27
0.8925781,-0.0010804869,0.002303429,-0.0032290984,-0.19,0.95,-0.27,12772,10073.10,0,0,0,0.49,-2.73,-0.07,-0.19,0.95,-0.27
0.8925781,-0.0030804873,0.002303429,-2.2909837E-4,-0.18,0.96,-0.27,12789,10073.10,0,0,165,0.35,-2.73,0.14,-0.18,0.96,-0.27
1.1933594,0.003919512,3.0343235E-4,0.0017709017,-0.19,0.95,-0.27,12794,10073.40,0,0,0,0.84,-2.87,0.28,-0.19,0.95,-0.27
1.1933594,-0.004080487,0.002303429,-0.0022290985,-0.18,0.95,-0.27,12810,10073.40,0,0,165,0.28,-2.73,0.00,-0.18,0.95,-0.27
2.1933594,-8.048676E-5,-0.00269657,-0.0022290985,-0.18,0.95,-0.27,12824,10074.40,0,0,0,0.56,-3.08,0.00,-0.18,0.95,-0.27
1.1933594,-8.048676E-5,3.0343235E-4,-0.0012290984,-0.19,0.96,-0.27,12832,10073.40,0,0,165,0.56,-2.87,0.07,-0.19,0.96,-0.27
1.8925781,0.0029195128,-6.965697E-4,-2.2909837E-4,-0.18,0.95,-0.27,12846,10074.10,0,0,0,0.77,-2.94,0.14,-0.18,0.95,-0.27
1.8925781,-0.0020804876,-6.965697E-4,-2.2909837E-4,-0.18,0.95,-0.27,12861,10074.10,0,0,165,0.42,-2.94,0.14,-0.18,0.95,-0.27
0.8925781,-8.048676E-5,3.0343235E-4,-0.0012290984,-0.19,0.95,-0.27,12868,10073.10,0,0,0,0.56,-2.87,0.07,-0.19,0.95,-0.27
1.1933594,-8.048676E-5,0.002303429,-2.2909837E-4,-0.18,0.95,-0.27,12884,10073.40,0,0,165,0.56,-2.73,0.14,-0.18,0.95,-0.27
0.8925781,-0.0010804869,0.002303429,-0.0012290984,-0.18,0.95,-0.27,12899,10073.10,0,0,0,0.49,-2.73,0.07,-0.18,0.95,-0.27
0.8925781,9.195125E-4,0.0013034306,-0.0022290985,-0.18,0.96,-0.27,12906,10073.10,0,0,165,0.63,-2.80,0.00,-0.18,0.96,-0.27
0.8925781,-8.048676E-5,3.0343235E-4,-0.0012290984,-0.18,0.95,-0.27,12921,10073.10,0,0,0,0.56,-2.87,0.07,-0.18,0.95,-0.27
1.8925781,9.195125E-4,-0.0016965717,-2.2909837E-4,-0.19,0.95,-0.27,12937,10074.10,0,0,165,0.63,-3.01,0.14,-0.19,0.95,-0.27
0.8925781,9.195125E-4,-6.965697E-4,-0.0012290984,-0.19,0.96,-0.27,12952,10073.10,0,0,0,0.63,-2.94,0.07,-0.19,0.96,-0.27
-0.107421875,9.195125E-4,3.0343235E-4,-2.2909837E-4,-0.18,0.95,-0.27,12959,10072.10,0,0,165,0.63,-2.87,0.14,-0.18,0.95,-0.27
1.8925781,-0.0010804869,3.0343235E-4,-0.0012290984,-0.18,0.95,-0.27,12974,10074.10,0,0,0,0.49,-2.87,0.07,-0.18,0.95,-0.27
1.1933594,9.195125E-4,3.0343235E-4,-2.2909837E-4,-0.19,0.95,-0.27,12981,10073.40,0,0,165,0.63,-2.87,0.14,-0.19,0.95,-0.27
0.8925781,-8.048676E-5,3.0343235E-4,-0.0022290985,-0.18,0.95,-0.27,12997,10073.10,0,0,0,0.56,-2.87,0.00,-0.18,0.95,-0.27
0.8925781,-8.048676E-5,3.0343235E-4,-0.0012290984,-0.18,0.95,-0.27,13011,10073.10,0,0,165,0.56,-2.87,0.07,-0.18,0.95,-0.27
0.8925781,-8.048676E-5,3.0343235E-4,-0.0012290984,-0.19,0.95,-0.27,13019,10073.10,0,0,0,0.56,-2.87,0.07,-0.19,0.95,-0.27
2.1933594,0.0029195128,-6.965697E-4,0.0017709017,-0.18,0.95,-0.27,13034,10074.40,0,0,165,0.77,-2.94,0.28,-0.18,0.95,-0.27
2.1933594,9.195125E-4,-0.0016965717,-2.2909837E-4,-0.19,0.95,-0.27,13049,10074.40,0,0,0,0.63,-3.01,0.14,-0.19,0.95,-0.27
1.1933594,-0.0010804869,-6.965697E-4,-0.0012290984,-0.19,0.95,-0.27,13057,10073.40,0,0,165,0.49,-2.94,0.07,-0.19,0.95,-0.27
0.8925781,9.195125E-4,3.0343235E-4,-2.2909837E-4,-0.19,0.95,-0.27,13072,10073.10,0,0,0,0.63,-2.87,0.14,-0.19,0.95,-0.27
0.8925781,-0.0030804873,0.0013034306,-0.0032290984,-0.19,0.95,-0.27,13087,10073.10,0,0,165,0.35,-2.80,-0.07,-0.19,0.95,-0.27
2.1933594,9.195125E-4,0.0013034306,-0.0022290985,-0.19,0.95,-0.27,13094,10074.40,0,0,0,0.63,-2.80,0.00,-0.19,0.95,-0.27
0.8925781,-8.048676E-5,-6.965697E-4,-0.0012290984,-0.19,0.95,-0.27,13110,10073.10,0,0,165,0.56,-2.94,0.07,-0.19,0.95,-0.27
-0.107421875,-0.0010804869,3.0343235E-4,7.7090133E-4,-0.19,0.95,-0.27,13124,10072.10,0,0,0,0.49,-2.87,0.21,-0.19,0.95,-0.27
2.1933594,-8.048676E-5,-6.965697E-4,-2.2909837E-4,-0.18,0.95,-0.27,13139,10074.40,0,0,165,0.56,-2.94,0.14,-0.18,0.95,-0.27
1.1933594,9.195125E-4,3.0343235E-4,7.7090133E-4,-0.19,0.95,-0.27,13147,10073.40,0,0,0,0.63,-2.87,0.21,-0.19,0.95,-0.27
1.8925781,-0.0010804869,-0.0016965717,-2.2909837E-4,-0.19,0.95,-0.27,13161,10074.10,0,0,165,0.49,-3.01,0.14,-0.19,0.95,-0.27
0.8925781,9.195125E-4,-6.965697E-4,-0.0012290984,-0.18,0.95,-0.27,13169,10073.10,0,0,0,0.63,-2.94,0.07,-0.18,0.95,-0.27
0.8925781,-8.048676E-5,-6.965697E-4,-2.2909837E-4,-0.19,0.95,-0.27,13184,10073.10,0,0,165,0.56,-2.94,0.14,-0.19,0.95,-0.27
2.1933594,9.195125E-4,0.0013034306,-0.0012290984,-0.19,0.95,-0.27,13199,10074.40,0,0,0,0.63,-2.80,0.07,-0.19,0.95,-0.27
2.1933594,-0.0010804869,3.0343235E-4,-2.2909837E-4,-0.18,0.95,-0.27,13206,10074.40,0,0,165,0.49,-2.87,0.14,-0.18,0.95,-0.27
0.8925781,9.195125E-4,-6.965697E-4,-0.0022290985,-0.18,0.95,-0.27,13221,10073.10,0,0,0,0.63,-2.94,0.00,-0.18,0.95,-0.27
1.1933594,-8.048676E-5,3.0343235E-4,-0.0022290985,-0.18,0.95,-0.27,13236,10073.40,0,0,165,0.56,-2.87,0.00,-0.18,0.95,-0.27
1.8925781,9.195125E-4,-6.965697E-4,-0.0012290984,-0.18,0.95,-0.27,13244,10074.10,0,0,0,0.63,-2.94,0.07,-0.18,0.95,-0.27
0.8925781,-8.048676E-5,-6.965697E-4,-0.0012290984,-0.19,0.95,-0.27,13259,10073.10,0,0,165,0.56,-2.94,0.07,-0.19,0.95,-0.27
2.1933594,9.195125E-4,3.0343235E-4,-0.0022290985,-0.19,0.95,-0.27,13276,10074.40,0,0,0,0.63,-2.87,0.00,-0.19,0.95,-0.27
0.59277344,9.195125E-4,3.0343235E-4,-2.2909837E-4,-0.19,0.95,-0.27,13282,10072.80,0,0,165,0.63,-2.87,0.14,-0.19,0.95,-0.27
2.1933594,0.0019195126,3.0343235E-4,-2.2909837E-4,-0.19,0.95,-0.27,13297,10074.40,0,0,0,0.70,-2.87,0.14,-0.19,0.95,-0.27
1.8925781,-8.048676E-5,0.0013034306,-0.0012290984,-0.19,0.95,-0.27,13311,10074.10,0,0,165,0.56,-2.80,0.07,-0.19,0.95,-0.27
1.8925781,9.195125E-4,3.0343235E-4,0.0017709017,-0.19,0.95,-0.27,13319,10074.10,0,0,0,0.63,-2.87,0.28,-0.19,0.95,-0.27
1.8925781,-8.048676E-5,3.0343235E-4,-2.2909837E-4,-0.18,0.95,-0.27,13342,10074.10,0,0,165,0.56,-2.87,0.14,-0.18,0.95,-0.27
1.8925781,9.195125E-4,-6.965697E-4,-0.0022290985,-0.19,0.95,-0.27,13349,10074.10,0,0,0,0.63,-2.94,0.00,-0.19,0.95,-0.27
1.8925781,-0.0010804869,-0.0016965717,-2.2909837E-4,-0.18,0.95,-0.27,13357,10074.10,0,0,165,0.49,-3.01,0.14,-0.18,0.95,-0.27
0.8925781,-8.048676E-5,-0.00269657,-0.0012290984,-0.18,0.95,-0.27,13371,10073.10,0,0,0,0.56,-3.08,0.07,-0.18,0.95,-0.27
0.8925781,-0.0010804869,3.0343235E-4,-0.0012290984,-0.19,0.95,-0.27,13379,10073.10,0,0,165,0.49,-2.87,0.07,-0.19,0.95,-0.27
1.8925781,-8.048676E-5,3.0343235E-4,-0.0022290985,-0.19,0.95,-0.27,13394,10074.10,0,0,0,0.56,-2.87,0.00,-0.19,0.95,-0.27
1.8925781,9.195125E-4,3.0343235E-4,-2.2909837E-4,-0.19,0.95,-0.27,13409,10074.10,0,0,165,0.63,-2.87,0.14,-0.19,0.95,-0.27
1.8925781,9.195125E-4,0.0013034306,-0.0012290984,-0.18,0.95,-0.27,13416,10074.10,0,0,0,0.63,-2.80,0.07,-0.18,0.95,-0.27
0.8925781,9.195125E-4,3.0343235E-4,-2.2909837E-4,-0.19,0.95,-0.27,13432,10073.10,0,0,165,0.63,-2.87,0.14,-0.19,0.95,-0.27
1.1933594,-8.048676E-5,-6.965697E-4,0.0017709017,-0.19,0.95,-0.27,13446,10073.40,0,0,0,0.56,-2.94,0.28,-0.19,0.95,-0.27
1.1933594,9.195125E-4,3.0343235E-4,0.0017709017,-0.18,0.95,-0.27,13454,10073.40,0,0,165,0.63,-2.87,0.28,-0.18,0.95,-0.27
-0.107421875,-8.048676E-5,-0.0016965717,-0.0012290984,-0.19,0.95,-0.27,13469,10072.10,0,0,0,0.56,-3.01,0.07,-0.19,0.95,-0.27
1.1933594,9.195125E-4,0.0013034306,-0.0012290984,-0.19,0.95,-0.27,13484,10073.40,0,0,165,0.63,-2.80,0.07,-0.19,0.95,-0.27
1.8925781,9.195125E-4,3.0343235E-4,-0.0022290985,-0.19,0.95,-0.27,13492,10074.10,0,0,0,0.63,-2.87,0.00,-0.19,0.95,-0.27
1.8925781,-0.0010804869,3.0343235E-4,-0.0012290984,-0.18,0.95,-0.27,13507,10074.10,0,0,165,0.49,-2.87,0.07,-0.18,0.95,-0.27
1.8925781,-8.048676E-5,3.0343235E-4,-2.2909837E-4,-0.18,0.95,-0.27,13529,10074.10,0,0,0,0.56,-2.87,0.14,-0.18,0.95,-0.27
1.8925781,9.195125E-4,-6.965697E-4,-0.0012290984,-0.19,0.95,-0.27,13537,10074.10,0,0,165,0.63,-2.94,0.07,-0.19,0.95,-0.27
0.8925781,-8.048676E-5,3.0343235E-4,-0.0012290984,-0.19,0.95,-0.27,13544,10073.10,0,0,0,0.56,-2.87,0.07,-0.19,0.95,-0.27
0.8925781,9.195125E-4,-0.0016965717,-2.2909837E-4,-0.18,0.95,-0.27,13560,10073.10,0,0,165,0.63,-3.01,0.14,-0.18,0.95,-0.27
1.8925781,-8.048676E-5,-0.0016965717,-0.0022290985,-0.19,0.95,-0.27,13566,10074.10,0,0,0,0.56,-3.01,0.00,-0.19,0.95,-0.27
2.1933594,-8.048676E-5,0.0013034306,-2.2909837E-4,-0.19,0.95,-0.27,13581,10074.40,0,0,165,0.56,-2.80,0.14,-0.19,0.95,-0.27
1.8925781,9.195125E-4,-6.965697E-4,-0.0022290985,-0.19,0.95,-0.27,13588,10074.10,0,0,0,0.63,-2.94,0.00,-0.19,0.95,-0.27
1.8925781,0.0019195126,3.0343235E-4,0.0017709017,-0.19,0.95,-0.27,13604,10074.10,0,0,165,0.70,-2.87,0.28,-0.19,0.95,-0.27
0.8925781,-0.0010804869,0.0013034306,-2.2909837E-4,-0.18,0.95,-0.27,13619,10073.10,0,0,0,0.49,-2.80,0.14,-0.18,0.95,-0.27
1.8925781,-0.0010804869,3.0343235E-4,-0.0012290984,-0.18,0.95,-0.27,13627,10074.10,0,0,165,0.49,-2.87,0.07,-0.18,0.95,-0.27
0.8925781,-8.048676E-5,-6.965697E-4,-2.2909837E-4,-0.18,0.95,-0.27,13642,10073.10,0,0,0,0.56,-2.94,0.14,-0.18,0.95,-0.27
1.8925781,9.195125E-4,-6.965697E-4,-0.0012290984,-0.18,0.95,-0.27,13656,10074.10,0,0,165,0.63,-2.94,0.07,-0.18,0.95,-0.27
2.1933594,-0.0010804869,-6.965697E-4,-0.0012290984,-0.19,0.95,-0.27,13664,10074.40,0,0,0,0.49,-2.94,0.07,-0.19,0.95,-0.27
0.8925781,0.0019195126,0.0013034306,7.7090133E-4,-0.19,0.95,-0.27,13679,10073.10,0,0,165,0.70,-2.80,0.21,-0.19,0.95,-0.27
1.1933594,9.195125E-4,0.0013034306,-2.2909837E-4,-0.18,0.95,-0.27,13693,10073.40,0,0,0,0.63,-2.80,0.14,-0.18,0.95,-0.27
0.8925781,9.195125E-4,0.0013034306,-2.2909837E-4,-0.19,0.95,-0.27,13701,10073.10,0,0,165,0.63,-2.80,0.14,-0.19,0.95,-0.27
1.1933594,9.195125E-4,3.0343235E-4,-0.0032290984,-0.19,0.95,-0.27,13716,10073.40,0,0,0,0.63,-2.87,-0.07,-0.19,0.95,-0.27
2.1933594,-8.048676E-5,3.0343235E-4,-0.0012290984,-0.18,0.95,-0.27,13731,10074.40,0,0,165,0.56,-2.87,0.07,-0.18,0.95,-0.27
0.8925781,-0.0010804869,3.0343235E-4,-0.0012290984,-0.19,0.95,-0.27,13739,10073.10,0,0,0,0.49,-2.87,0.07,-0.19,0.95,-0.27
2.1933594,-0.0010804869,-6.965697E-4,-0.0012290984,-0.18,0.95,-0.27,13753,10074.40,0,0,165,0.49,-2.94,0.07,-0.18,0.95,-0.27
1.8925781,-8.048676E-5,-0.0016965717,-0.0022290985,-0.19,0.95,-0.27,13768,10074.10,0,0,0,0.56,-3.01,0.00,-0.19,0.95,-0.27
1.8925781,0.0019195126,-6.965697E-4,-0.0012290984,-0.19,0.95,-0.27,13776,10074.10,0,0,165,0.70,-2.94,0.07,-0.19,0.95,-0.27
1.8925781,-8.048676E-5,3.0343235E-4,-0.0022290985,-0.18,0.95,-0.27,13792,10074.10,0,0,0,0.56,-2.87,0.00,-0.18,0.95,-0.27
1.8925781,0.0029195128,3.0343235E-4,-2.2909837E-4,-0.18,0.95,-0.27,13806,10074.10,0,0,165,0.77,-2.87,0.14,-0.18,0.95,-0.27
1.8925781,-0.0010804869,0.002303429,-0.0012290984,-0.19,0.95,-0.27,13813,10074.10,0,0,0,0.49,-2.73,0.07,-0.19,0.95,-0.27
0.8925781,0.0029195128,3.0343235E-4,-2.2909837E-4,-0.18,0.95,-0.27,13828,10073.10,0,0,165,0.77,-2.87,0.14,-0.18,0.95,-0.27
2.1933594,9.195125E-4,-6.965697E-4,7.7090133E-4,-0.18,0.95,-0.27,13844,10074.40,0,0,0,0.63,-2.94,0.21,-0.18,0.95,-0.27
-0.107421875,-8.048676E-5,3.0343235E-4,-0.0012290984,-0.18,0.95,-0.27,13852,10072.10,0,0,165,0.56,-2.87,0.07,-0.18,0.95,-0.27
0.8925781,9.195125E-4,-0.0016965717,-0.0022290985,-0.19,0.95,-0.27,13866,10073.10,0,0,0,0.63,-3.01,0.00,-0.19,0.95,-0.27
1.8925781,-8.048676E-5,3.0343235E-4,-0.0012290984,-0.19,0.95,-0.27,13889,10074.10,0,0,165,0.56,-2.87,0.07,-0.19,0.95,-0.27
0.8925781,-0.0010804869,3.0343235E-4,-2.2909837E-4,-0.19,0.95,-0.27,13893,10073.10,0,0,0,0.49,-2.87,0.14,-0.19,0.95,-0.27
1.8925781,-0.0010804869,3.0343235E-4,-0.0012290984,-0.19,0.95,-0.27,13904,10074.10,0,0,165,0.49,-2.87,0.07,-0.19,0.95,-0.27
2.1933594,-8.048676E-5,-6.965697E-4,-0.0012290984,-0.19,0.95,-0.27,13919,10074.40,0,0,0,0.56,-2.94,0.07,-0.19,0.95,-0.27
2.1933594,9.195125E-4,-6.965697E-4,-0.0012290984,-0.19,0.95,-0.27,13932,10074.40,0,0,165,0.63,-2.94,0.07,-0.19,0.95,-0.27
2.1933594,-8.048676E-5,-6.965697E-4,-2.2909837E-4,-0.19,0.95,-0.27,13943,10074.40,0,0,0,0.56,-2.94,0.14,-0.19,0.95,-0.27
3.1933594,-8.048676E-5,3.0343235E-4,-0.0012290984,-0.18,0.95,-0.27,13956,10075.40,0,0,165,0.56,-2.87,0.07,-0.18,0.95,-0.27
2.1933594,-0.0010804869,3.0343235E-4,-2.2909837E-4,-0.19,0.95,-0.27,13963,10074.40,0,0,0,0.49,-2.87,0.14,-0.19,0.95,-0.27
1.8925781,-8.048676E-5,3.0343235E-4,-2.2909837E-4,-0.19,0.95,-0.27,13979,10074.10,0,0,165,0.56,-2.87,0.14,-0.19,0.95,-0.27
0.8925781,9.195125E-4,3.0343235E-4,7.7090133E-4,-0.18,0.95,-0.27,14005,10073.10,0,0,0,0.63,-2.87,0.21,-0.18,0.95,-0.27
1.8925781,0.0019195126,-6.965697E-4,-0.0012290984,-0.19,0.95,-0.27,14005,10074.10,0,0,165,0.70,-2.94,0.07,-0.19,0.95,-0.27
1.8925781,-8.048676E-5,-6.965697E-4,-0.0012290984,-0.19,0.95,-0.27,14016,10074.10,0,0,0,0.56,-2.94,0.07,-0.19,0.95,-0.27
0.8925781,-8.048676E-5,-6.965697E-4,-0.0012290984,-0.19,0.95,-0.27,14031,10073.10,0,0,165,0.56,-2.94,0.07,-0.19,0.95,-0.27
1.8925781,-0.0010804869,0.0013034306,-0.0012290984,-0.18,0.95,-0.27,14039,10074.10,0,0,0,0.49,-2.80,0.07,-0.18,0.95,-0.27
1.8925781,9.195125E-4,0.0013034306,-2.2909837E-4,-0.19,0.95,-0.27,14059,10074.10,0,0,165,0.63,-2.80,0.14,-0.19,0.95,-0.27
1.8925781,9.195125E-4,0.002303429,-2.2909837E-4,-0.18,0.95,-0.27,14075,10074.10,0,0,0,0.63,-2.73,0.14,-0.18,0.95,-0.27
1.8925781,-0.0010804869,3.0343235E-4,-0.0012290984,-0.18,0.95,-0.27,14076,10074.10,0,0,165,0.49,-2.87,0.07,-0.18,0.95,-0.27
0.8925781,-8.048676E-5,-6.965697E-4,-2.2909837E-4,-0.19,0.95,-0.27,14099,10073.10,0,0,0,0.56,-2.94,0.14,-0.19,0.95,-0.27
1.8925781,9.195125E-4,-6.965697E-4,-2.2909837E-4,-0.19,0.95,-0.27,14109,10074.10,0,0,165,0.63,-2.94,0.14,-0.19,0.95,-0.27
1.1933594,-0.0010804869,-0.0016965717,-0.0012290984,-0.19,0.95,-0.27,14114,10073.40,0,0,0,0.49,-3.01,0.07,-0.19,0.95,-0.27
1.8925781,9.195125E-4,-6.965697E-4,-0.0012290984,-0.19,0.95,-0.27,14129,10074.10,0,0,165,0.63,-2.94,0.07,-0.19,0.95,-0.27
1.8925781,0.0019195126,3.0343235E-4,7.7090133E-4,-0.18,0.95,-0.27,14144,10074.10,0,0,0,0.70,-2.87,0.21,-0.18,0.95,-0.27
1.8925781,9.195125E-4,3.0343235E-4,-0.0012290984,-0.19,0.95,-0.27,14155,10074.10,0,0,165,0.63,-2.87,0.07,-0.19,0.95,-0.27
1.8925781,-8.048676E-5,0.0013034306,-2.2909837E-4,-0.18,0.96,-0.27,14167,10074.10,0,0,0,0.56,-2.80,0.14,-0.18,0.96,-0.27
1.8925781,9.195125E-4,3.0343235E-4,-0.0012290984,-0.19,0.95,-0.27,14181,10074.10,0,0,165,0.63,-2.87,0.07,-0.19,0.95,-0.27
0.8925781,-0.0020804876,-6.965697E-4,0.2527709,-0.18,0.95,-0.27,14191,10073.10,0,0,0,0.42,-2.94,17.85,-0.18,0.95,-0.27
0.8925781,9.195125E-4,-0.00269657,7.7090133E-4,-0.19,0.95,-0.27,14212,10073.10,0,0,165,0.63,-3.08,0.21,-0.19,0.95,-0.27
1.8925781,-8.048676E-5,-6.965697E-4,-0.0012290984,-0.18,0.95,-0.27,14220,10074.10,0,0,0,0.56,-2.94,0.07,-0.18,0.95,-0.27
0.8925781,-8.048676E-5,-6.965697E-4,7.7090133E-4,-0.18,0.95,-0.27,14226,10073.10,0,0,165,0.56,-2.94,0.21,-0.18,0.95,-0.27
1.8925781,0.0019195126,0.0013034306,-0.0022290985,-0.18,0.95,-0.27,14246,10074.10,0,0,0,0.70,-2.80,0.00,-0.18,0.95,-0.27
0.8925781,-8.048676E-5,3.0343235E-4,-0.0022290985,-0.19,0.95,-0.27,14258,10073.10,0,0,165,0.56,-2.87,0.00,-0.19,0.95,-0.27
1.8925781,-8.048676E-5,-6.965697E-4,-0.0012290984,-0.18,0.95,-0.27,14264,10074.10,0,0,0,0.56,-2.94,0.07,-0.18,0.95,-0.27
2.8925781,-8.048676E-5,3.0343235E-4,-0.0012290984,-0.18,0.95,-0.27,14278,10075.10,0,0,165,0.56,-2.87,0.07,-0.18,0.95,-0.27
0.8925781,-8.048676E-5,-6.965697E-4,-0.0012290984,-0.18,0.95,-0.27,14293,10073.10,0,0,0,0.56,-2.94,0.07,-0.18,0.95,-0.27
1.8925781,0.0019195126,-6.965697E-4,-2.2909837E-4,-0.19,0.95,-0.27,14301,10074.10,0,0,165,0.70,-2.94,0.14,-0.19,0.95,-0.27
1.8925781,9.195125E-4,3.0343235E-4,-0.0032290984,-0.19,0.95,-0.27,14316,10074.10,0,0,0,0.63,-2.87,-0.07,-0.19,0.95,-0.27
1.8925781,9.195125E-4,-0.0016965717,-0.0012290984,-0.19,0.95,-0.27,14331,10074.10,0,0,165,0.63,-3.01,0.07,-0.19,0.95,-0.27
1.8925781,-8.048676E-5,0.0013034306,-2.2909837E-4,-0.18,0.95,-0.27,14344,10074.10,0,0,0,0.56,-2.80,0.14,-0.18,0.95,-0.27
2.8925781,-8.048676E-5,0.0013034306,-0.0012290984,-0.18,0.95,-0.27,14356,10075.10,0,0,165,0.56,-2.80,0.07,-0.18,0.95,-0.27
0.8925781,-8.048676E-5,0.0013034306,-0.0012290984,-0.19,0.95,-0.27,14409,10073.10,0,0,0,0.56,-2.80,0.07,-0.19,0.95,-0.27
1.8925781,-8.048676E-5,-6.965697E-4,-0.0042290986,-0.18,0.95,-0.27,14410,10074.10,0,0,165,0.56,-2.94,-0.14,-0.18,0.95,-0.27
1.8925781,9.195125E-4,0.0013034306,7.7090133E-4,-0.18,0.95,-0.27,14410,10074.10,0,0,0,0.63,-2.80,0.21,-0.18,0.95,-0.27
2.8925781,9.195125E-4,-6.965697E-4,-0.0022290985,-0.19,0.95,-0.27,14411,10075.10,0,0,165,0.63,-2.94,0.00,-0.19,0.95,-0.27
1.8925781,-8.048676E-5,-6.965697E-4,-2.2909837E-4,-0.19,0.95,-0.27,14422,10074.10,0,0,0,0.56,-2.94,0.14,-0.19,0.95,-0.27
1.8925781,-8.048676E-5,-6.965697E-4,-0.0022290985,-0.18,0.95,-0.27,14429,10074.10,0,0,165,0.56,-2.94,0.00,-0.18,0.95,-0.27
0.8925781,0.0019195126,3.0343235E-4,-0.0012290984,-0.18,0.95,-0.27,14444,10073.10,0,0,0,0.70,-2.87,0.07,-0.18,0.95,-0.27
1.8925781,-8.048676E-5,0.0013034306,7.7090133E-4,-0.19,0.95,-0.27,14459,10074.10,0,0,165,0.56,-2.80,0.21,-0.19,0.95,-0.27
1.8925781,0.0019195126,3.0343235E-4,-0.0012290984,-0.18,0.95,-0.27,14466,10074.10,0,0,0,0.70,-2.87,0.07,-0.18,0.95,-0.27
1.8925781,9.195125E-4,-0.0016965717,-2.2909837E-4,-0.18,0.95,-0.27,14481,10074.10,0,0,165,0.63,-3.01,0.14,-0.18,0.95,-0.27
1.5927734,-8.048676E-5,-0.0016965717,-2.2909837E-4,-0.19,0.95,-0.27,14492,10073.80,0,0,0,0.56,-3.01,0.14,-0.19,0.95,-0.27
0.8925781,-0.0010804869,-6.965697E-4,-2.2909837E-4,-0.18,0.95,-0.27,14508,10073.10,0,0,165,0.49,-2.94,0.14,-0.18,0.95,-0.27
1.8925781,-0.0020804876,-6.965697E-4,-0.0022290985,-0.19,0.95,-0.27,14519,10074.10,0,0,0,0.42,-2.94,0.00,-0.19,0.95,-0.27
1.8925781,9.195125E-4,-6.965697E-4,-0.0012290984,-0.19,0.95,-0.27,14526,10074.10,0,0,165,0.63,-2.94,0.07,-0.19,0.95,-0.27
2.8925781,-8.048676E-5,3.0343235E-4,-0.0012290984,-0.19,0.95,-0.27,14541,10075.10,0,0,0,0.56,-2.87,0.07,-0.19,0.95,-0.27
0.8925781,-0.0010804869,-6.965697E-4,-2.2909837E-4,-0.19,0.95,-0.27,14558,10073.10,0,0,165,0.49,-2.94,0.14,-0.19,0.95,-0.27
1.8925781,-8.048676E-5,3.0343235E-4,-2.2909837E-4,-0.19,0.95,-0.27,14564,10074.10,0,0,0,0.56,-2.87,0.14,-0.19,0.95,-0.27
1.8925781,9.195125E-4,0.0013034306,7.7090133E-4,-0.18,0.95,-0.27,14579,10074.10,0,0,165,0.63,-2.80,0.21,-0.18,0.95,-0.27
1.8925781,9.195125E-4,3.0343235E-4,7.7090133E-4,-0.18,0.95,-0.27,14594,10074.10,0,0,0,0.63,-2.87,0.21,-0.18,0.95,-0.27
0.29296875,9.195125E-4,-6.965697E-4,-0.0012290984,-0.19,0.95,-0.27,14601,10072.50,0,0,165,0.63,-2.94,0.07,-0.19,0.95,-0.27
1.8925781,-8.048676E-5,-0.0016965717,-0.0022290985,-0.19,0.95,-0.27,14616,10074.10,0,0,0,0.56,-3.01,0.00,-0.19,0.95,-0.27
1.8925781,-0.0010804869,3.0343235E-4,-0.0012290984,-0.19,0.95,-0.27,14631,10074.10,0,0,165,0.49,-2.87,0.07,-0.19,0.95,-0.27
1.8925781,-8.048676E-5,3.0343235E-4,-0.0012290984,-0.19,0.95,-0.27,14639,10074.10,0,0,0,0.56,-2.87,0.07,-0.19,0.95,-0.27
1.8925781,9.195125E-4,0.0013034306,-0.0012290984,-0.19,0.95,-0.27,14656,10074.10,0,0,165,0.63,-2.80,0.07,-0.19,0.95,-0.27
2.8925781,-0.0010804869,3.0343235E-4,-0.0012290984,-0.18,0.95,-0.27,14669,10075.10,0,0,0,0.49,-2.87,0.07,-0.18,0.95,-0.27
1.8925781,-8.048676E-5,3.0343235E-4,-0.0022290985,-0.18,0.95,-0.27,14676,10074.10,0,0,165,0.56,-2.87,0.00,-0.18,0.95,-0.27
1.8925781,9.195125E-4,-6.965697E-4,-0.0012290984,-0.18,0.95,-0.27,14692,10074.10,0,0,0,0.63,-2.94,0.07,-0.18,0.95,-0.27
2.1933594,-8.048676E-5,-6.965697E-4,7.7090133E-4,-0.19,0.95,-0.27,14709,10074.40,0,0,165,0.56,-2.94,0.21,-0.19,0.95,-0.27
1.8925781,9.195125E-4,-0.00269657,-2.2909837E-4,-0.18,0.95,-0.27,14714,10074.10,0,0,0,0.63,-3.08,0.14,-0.18,0.95,-0.27
2.8925781,9.195125E-4,0.0013034306,-0.0012290984,-0.19,0.95,-0.27,14729,10075.10,0,0,165,0.63,-2.80,0.07,-0.19,0.95,-0.27
1.8925781,-0.0010804869,3.0343235E-4,-0.0022290985,-0.19,0.95,-0.27,14744,10074.10,0,0,0,0.49,-2.87,0.00,-0.19,0.95,-0.27
1.8925781,-0.0010804869,3.0343235E-4,-0.0022290985,-0.18,0.95,-0.27,14751,10074.10,0,0,165,0.49,-2.87,0.00,-0.18,0.95,-0.27
2.8925781,-8.048676E-5,3.0343235E-4,-0.0022290985,-0.19,0.95,-0.27,14767,10075.10,0,0,0,0.56,-2.87,0.00,-0.19,0.95,-0.27
2.8925781,-0.0010804869,3.0343235E-4,-0.0012290984,-0.18,0.95,-0.27,14781,10075.10,0,0,165,0.49,-2.87,0.07,-0.18,0.95,-0.27
2.493164,9.195125E-4,-6.965697E-4,-0.0012290984,-0.18,0.95,-0.27,14789,10074.70,0,0,0,0.63,-2.94,0.07,-0.18,0.95,-0.27
1.8925781,9.195125E-4,-0.0016965717,-2.2909837E-4,-0.18,0.95,-0.27,14803,10074.10,0,0,165,0.63,-3.01,0.14,-0.18,0.95,-0.27
1.8925781,9.195125E-4,-6.965697E-4,-2.2909837E-4,-0.18,0.95,-0.27,14827,10074.10,0,0,0,0.63,-2.94,0.14,-0.18,0.95,-0.27
1.8925781,-8.048676E-5,-6.965697E-4,-2.2909837E-4,-0.18,0.95,-0.27,14828,10074.10,0,0,165,0.56,-2.94,0.14,-0.18,0.95,-0.27
1.8925781,0.0019195126,3.0343235E-4,0.0017709017,-0.19,0.95,-0.27,14842,10074.10,0,0,0,0.70,-2.87,0.28,-0.19,0.95,-0.27
2.1933594,-8.048676E-5,0.0013034306,-2.2909837E-4,-0.19,0.95,-0.27,14856,10074.40,0,0,165,0.56,-2.80,0.14,-0.19,0.95,-0.27
1.8925781,-0.0010804869,0.0013034306,-0.0012290984,-0.19,0.95,-0.27,14864,10074.10,0,0,0,0.49,-2.80,0.07,-0.19,0.95,-0.27
1.8925781,9.195125E-4,-6.965697E-4,-2.2909837E-4,-0.18,0.95,-0.27,14879,10074.10,0,0,165,0.63,-2.94,0.14,-0.18,0.95,-0.27
2.8925781,9.195125E-4,3.0343235E-4,-0.0012290984,-0.18,0.95,-0.27,14893,10075.10,0,0,0,0.63,-2.87,0.07,-0.18,0.95,-0.27
2.8925781,9.195125E-4,-6.965697E-4,-0.0022290985,-0.19,0.95,-0.27,14901,10075.10,0,0,165,0.63,-2.94,0.00,-0.19,0.95,-0.27
0.8925781,0.0019195126,3.0343235E-4,-2.2909837E-4,-0.18,0.95,-0.27,14916,10073.10,0,0,0,0.70,-2.87,0.14,-0.18,0.95,-0.27
1.5927734,-8.048676E-5,-6.965697E-4,-0.0012290984,-0.18,0.95,-0.27,14931,10073.80,0,0,165,0.56,-2.94,0.07,-0.18,0.95,-0.27
1.8925781,-0.0010804869,3.0343235E-4,-2.2909837E-4,-0.19,0.95,-0.27,14939,10074.10,0,0,0,0.49,-2.87,0.14,-0.19,0.95,-0.27
1.8925781,-0.0010804869,-6.965697E-4,-0.0012290984,-0.19,0.95,-0.27,14956,10074.10,0,0,165,0.49,-2.94,0.07,-0.19,0.95,-0.27
2.8925781,0.0019195126,0.002303429,-2.2909837E-4,-0.18,0.95,-0.27,14969,10075.10,0,0,0,0.70,-2.73,0.14,-0.18,0.95,-0.27
1.8925781,-0.0010804869,3.0343235E-4,-2.2909837E-4,-0.18,0.95,-0.27,14977,10074.10,0,0,165,0.49,-2.87,0.14,-0.18,0.95,-0.27
1.8925781,-0.0010804869,3.0343235E-4,-0.0012290984,-0.18,0.95,-0.27,14993,10074.10,0,0,0,0.49,-2.87,0.07,-0.18,0.95,-0.27
2.8925781,-8.048676E-5,3.0343235E-4,-0.0012290984,-0.19,0.95,-0.27,15007,10075.10,0,0,165,0.56,-2.87,0.07,-0.19,0.95,-0.27
1.8925781,-8.048676E-5,-6.965697E-4,-0.0022290985,-0.18,0.95,-0.27,15022,10074.10,0,0,0,0.56,-2.94,0.00,-0.18,0.95,-0.27
2.8925781,-0.0010804869,-6.965697E-4,-0.0012290984,-0.19,0.95,-0.27,15038,10075.10,0,0,165,0.49,-2.94,0.07,-0.19,0.95,-0.27
2.8925781,9.195125E-4,-6.965697E-4,-0.0012290984,-0.19,0.95,-0.27,15044,10075.10,0,0,0,0.63,-2.94,0.07,-0.19,0.95,-0.27
2.8925781,9.195125E-4,0.0013034306,7.7090133E-4,-0.19,0.95,-0.27,15051,10075.10,0,0,165,0.63,-2.80,0.21,-0.19,0.95,-0.27
0.8925781,9.195125E-4,0.0013034306,-0.0012290984,-0.19,0.95,-0.27,15066,10073.10,0,0,0,0.63,-2.80,0.07,-0.19,0.95,-0.27
2.8925781,0.0019195126,3.0343235E-4,-2.2909837E-4,-0.19,0.95,-0.27,15081,10075.10,0,0,165,0.70,-2.87,0.14,-0.19,0.95,-0.27
1.8925781,-0.0010804869,3.0343235E-4,-0.0022290985,-0.18,0.95,-0.27,15088,10074.10,0,0,0,0.49,-2.87,0.00,-0.18,0.95,-0.27
2.8925781,-8.048676E-5,-6.965697E-4,-2.2909837E-4,-0.18,0.95,-0.27,15104,10075.10,0,0,165,0.56,-2.94,0.14,-0.18,0.95,-0.27
0.8925781,9.195125E-4,-6.965697E-4,-0.0012290984,-0.19,0.95,-0.27,15119,10073.10,0,0,0,0.63,-2.94,0.07,-0.19,0.95,-0.27
1.8925781,-0.0010804869,-6.965697E-4,-2.2909837E-4,-0.19,0.95,-0.27,15127,10074.10,0,0,165,0.49,-2.94,0.14,-0.19,0.95,-0.27
1.8925781,-0.0010804869,-6.965697E-4,-2.2909837E-4,-0.19,0.95,-0.27,15142,10074.10,0,0,0,0.49,-2.94,0.14,-0.19,0.95,-0.27
1.8925781,9.195125E-4,-6.965697E-4,-0.0022290985,-0.19,0.95,-0.27,15157,10074.10,0,0,165,0.63,-2.94,0.00,-0.19,0.95,-0.27
1.8925781,-8.048676E-5,0.0013034306,-0.0022290985,-0.19,0.95,-0.27,15164,10074.10,0,0,0,0.56,-2.80,0.00,-0.19,0.95,-0.27
1.8925781,-8.048676E-5,0.0013034306,-0.0022290985,-0.18,0.95,-0.27,15179,10074.10,0,0,165,0.56,-2.80,0.00,-0.18,0.95,-0.27
2.8925781,0.0019195126,-6.965697E-4,-2.2909837E-4,-0.19,0.95,-0.27,15194,10075.10,0,0,0,0.70,-2.94,0.14,-0.19,0.95,-0.27
1.8925781,9.195125E-4,0.0013034306,-0.0012290984,-0.19,0.95,-0.27,15201,10074.10,0,0,165,0.63,-2.80,0.07,-0.19,0.95,-0.27
0.8925781,-0.0010804869,3.0343235E-4,-0.0022290985,-0.18,0.95,-0.27,15216,10073.10,0,0,0,0.49,-2.87,0.00,-0.18,0.95,-0.27
1.8925781,-8.048676E-5,3.0343235E-4,-0.0012290984,-0.19,0.95,-0.27,15231,10074.10,0,0,165,0.56,-2.87,0.07,-0.19,0.95,-0.27
2.8925781,9.195125E-4,3.0343235E-4,-0.0022290985,-0.18,0.95,-0.27,15238,10075.10,0,0,0,0.63,-2.87,0.00,-0.18,0.95,-0.27
0.59277344,-0.0010804869,0.0013034306,-2.2909837E-4,-0.18,0.95,-0.27,15254,10072.80,0,0,165,0.49,-2.80,0.14,-0.18,0.95,-0.27
1.5927734,-0.0020804876,3.0343235E-4,-2.2909837E-4,-0.19,0.95,-0.27,15269,10073.80,0,0,0,0.42,-2.87,0.14,-0.19,0.95,-0.27
1.8925781,-8.048676E-5,3.0343235E-4,-0.0022290985,-0.18,0.95,-0.27,15276,10074.10,0,0,165,0.56,-2.87,0.00,-0.18,0.95,-0.27
2.493164,-8.048676E-5,0.0013034306,-0.0012290984,-0.19,0.95,-0.27,15292,10074.70,0,0,0,0.56,-2.80,0.07,-0.19,0.95,-0.27
0.8925781,-0.0010804869,-6.965697E-4,-0.0022290985,-0.19,0.95,-0.27,15307,10073.10,0,0,165,0.49,-2.94,0.00,-0.19,0.95,-0.27
0.8925781,-8.048676E-5,-6.965697E-4,-2.2909837E-4,-0.19,0.95,-0.27,15314,10073.10,0,0,0,0.56,-2.94,0.14,-0.19,0.95,-0.27
2.8925781,9.195125E-4,3.0343235E-4,-2.2909837E-4,-0.19,0.95,-0.27,15329,10075.10,0,0,165,0.63,-2.87,0.14,-0.19,0.95,-0.27
1.8925781,-0.0010804869,-6.965697E-4,-2.2909837E-4,-0.19,0.95,-0.27,15345,10074.10,0,0,0,0.49,-2.94,0.14,-0.19,0.95,-0.27
1.8925781,9.195125E-4,3.0343235E-4,-2.2909837E-4,-0.18,0.95,-0.27,15352,10074.10,0,0,165,0.63,-2.87,0.14,-0.18,0.95,-0.27
2.8925781,0.0019195126,3.0343235E-4,-0.0022290985,-0.18,0.95,-0.27,15367,10075.10,0,0,0,0.70,-2.87,0.00,-0.18,0.95,-0.27
0.59277344,-8.048676E-5,-6.965697E-4,-0.0012290984,-0.19,0.95,-0.27,15381,10072.80,0,0,165,0.56,-2.94,0.07,-0.19,0.95,-0.27
1.8925781,9.195125E-4,-6.965697E-4,-2.2909837E-4,-0.18,0.95,-0.27,15388,10074.10,0,0,0,0.63,-2.94,0.14,-0.18,0.95,-0.27
1.8925781,-8.048676E-5,3.0343235E-4,7.7090133E-4,-0.19,0.95,-0.27,15404,10074.10,0,0,165,0.56,-2.87,0.21,-0.19,0.95,-0.27
1.8925781,-0.0010804869,0.0013034306,7.7090133E-4,-0.19,0.95,-0.27,15426,10074.10,0,0,0,0.49,-2.80,0.21,-0.19,0.95,-0.27
1.8925781,9.195125E-4,-6.965697E-4,-2.2909837E-4,-0.18,0.95,-0.27,15428,10074.10,0,0,165,0.63,-2.94,0.14,-0.18,0.95,-0.27
1.8925781,-8.048676E-5,-6.965697E-4,-2.2909837E-4,-0.18,0.95,-0.27,15443,10074.10,0,0,0,0.56,-2.94,0.14,-0.18,0.95,-0.27
2.8925781,-0.0010804869,-6.965697E-4,-0.0012290984,-0.19,0.95,-0.27,15457,10075.10,0,0,165,0.49,-2.94,0.07,-0.19,0.95,-0.27
1.8925781,-0.0010804869,-6.965697E-4,-2.2909837E-4,-0.19,0.95,-0.27,15464,10074.10,0,0,0,0.49,-2.94,0.14,-0.19,0.95,-0.27
2.8925781,9.195125E-4,3.0343235E-4,-0.0012290984,-0.19,0.95,-0.27,15479,10075.10,0,0,165,0.63,-2.87,0.07,-0.19,0.95,-0.27
0.8925781,-0.0010804869,3.0343235E-4,-0.0022290985,-0.19,0.95,-0.27,15502,10073.10,0,0,0,0.49,-2.87,0.00,-0.19,0.95,-0.27
1.8925781,-8.048676E-5,3.0343235E-4,-0.0022290985,-0.18,0.95,-0.27,15511,10074.10,0,0,165,0.56,-2.87,0.00,-0.18,0.95,-0.27
2.8925781,0.0019195126,-6.965697E-4,-0.0022290985,-0.19,0.95,-0.27,15524,10075.10,0,0,0,0.70,-2.94,0.00,-0.19,0.95,-0.27
1.8925781,0.0019195126,-6.965697E-4,-2.2909837E-4,-0.18,0.95,-0.27,15532,10074.10,0,0,165,0.70,-2.94,0.14,-0.18,0.95,-0.27
1.8925781,-8.048676E-5,-6.965697E-4,-2.2909837E-4,-0.19,0.95,-0.27,15539,10074.10,0,0,0,0.56,-2.94,0.14,-0.19,0.95,-0.27
1.8925781,-0.0010804869,-6.965697E-4,-0.0012290984,-0.18,0.95,-0.27,15554,10074.10,0,0,165,0.49,-2.94,0.07,-0.18,0.95,-0.27
0.8925781,9.195125E-4,0.0013034306,-0.0022290985,-0.19,0.95,-0.27,15561,10073.10,0,0,0,0.63,-2.80,0.00,-0.19,0.95,-0.27
2.8925781,0.0019195126,0.0013034306,7.7090133E-4,-0.19,0.95,-0.27,15581,10075.10,0,0,165,0.70,-2.80,0.21,-0.19,0.95,-0.27
2.8925781,-8.048676E-5,0.0013034306,-2.2909837E-4,-0.18,0.95,-0.27,15592,10075.10,0,0,0,0.56,-2.80,0.14,-0.18,0.95,-0.27
2.8925781,-0.0010804869,3.0343235E-4,-2.2909837E-4,-0.18,0.95,-0.27,15599,10075.10,0,0,165,0.49,-2.87,0.14,-0.18,0.95,-0.27
1.8925781,-8.048676E-5,-0.0016965717,-2.2909837E-4,-0.18,0.95,-0.27,15614,10074.10,0,0,0,0.56,-3.01,0.14,-0.18,0.95,-0.27
1.8925781,0.0019195126,3.0343235E-4,-2.2909837E-4,-0.19,0.95,-0.27,15628,10074.10,0,0,165,0.70,-2.87,0.14,-0.19,0.95,-0.27
0.8925781,-0.0010804869,-6.965697E-4,-0.0012290984,-0.18,0.95,-0.27,15636,10073.10,0,0,0,0.49,-2.94,0.07,-0.18,0.95,-0.27
2.8925781,-8.048676E-5,-6.965697E-4,-0.0012290984,-0.18,0.95,-0.27,15651,10075.10,0,0,165,0.56,-2.94,0.07,-0.18,0.95,-0.27
1.8925781,-8.048676E-5,-6.965697E-4,7.7090133E-4,-0.18,0.95,-0.27,15666,10074.10,0,0,0,0.56,-2.94,0.21,-0.18,0.95,-0.27
1.8925781,-8.048676E-5,3.0343235E-4,-2.2909837E-4,-0.19,0.95,-0.27,15674,10074.10,0,0,165,0.56,-2.87,0.14,-0.19,0.95,-0.27
1.8925781,-8.048676E-5,-6.965697E-4,-0.0012290984,-0.19,0.95,-0.27,15689,10074.10,0,0,0,0.56,-2.94,0.07,-0.19,0.95,-0.27
2.8925781,9.195125E-4,0.0013034306,-0.0012290984,-0.19,0.95,-0.27,15704,10075.10,0,0,165,0.63,-2.80,0.07,-0.19,0.95,-0.27
1.5927734,-8.048676E-5,3.0343235E-4,-2.2909837E-4,-0.18,0.95,-0.27,15711,10073.80,0,0,0,0.56,-2.87,0.14,-0.18,0.95,-0.27
1.8925781,9.195125E-4,-6.965697E-4,-0.0012290984,-0.19,0.95,-0.27,15726,10074.10,0,0,165,0.63,-2.94,0.07,-0.19,0.95,-0.27
2.8925781,-8.048676E-5,3.0343235E-4,-2.2909837E-4,-0.18,0.95,-0.27,15742,10075.10,0,0,0,0.56,-2.87,0.14,-0.18,0.95,-0.27
2.493164,-8.048676E-5,-6.965697E-4,-2.2909837E-4,-0.19,0.95,-0.27,15749,10074.70,0,0,165,0.56,-2.94,0.14,-0.19,0.95,-0.27
1.5927734,-0.0010804869,-0.0016965717,-0.0012290984,-0.19,0.95,-0.27,15764,10073.80,0,0,0,0.49,-3.01,0.07,-0.19,0.95,-0.27
1.8925781,-0.0010804869,3.0343235E-4,-2.2909837E-4,-0.19,0.95,-0.27,15786,10074.10,0,0,165,0.49,-2.87,0.14,-0.19,0.95,-0.27
1.8925781,-0.0010804869,3.0343235E-4,-0.0012290984,-0.18,0.95,-0.27,15788,10074.10,0,0,0,0.49,-2.87,0.07,-0.18,0.95,-0.27
1.8925781,0.0019195126,0.0013034306,-0.0012290984,-0.19,0.95,-0.27,15802,10074.10,0,0,165,0.70,-2.80,0.07,-0.19,0.95,-0.27
1.8925781,9.195125E-4,3.0343235E-4,-0.0012290984,-0.18,0.95,-0.27,15817,10074.10,0,0,0,0.63,-2.87,0.07,-0.18,0.95,-0.27
1.8925781,-0.0010804869,3.0343235E-4,-0.0012290984,-0.19,0.95,-0.27,15824,10074.10,0,0,165,0.49,-2.87,0.07,-0.19,0.95,-0.27
1.8925781,-8.048676E-5,3.0343235E-4,-0.0012290984,-0.18,0.95,-0.27,15839,10074.10,0,0,0,0.56,-2.87,0.07,-0.18,0.95,-0.27
1.8925781,-8.048676E-5,-0.0016965717,-0.0032290984,-0.19,0.95,-0.27,15854,10074.10,0,0,165,0.56,-3.01,-0.07,-0.19,0.95,-0.27
2.8925781,9.195125E-4,-6.965697E-4,-2.2909837E-4,-0.18,0.95,-0.27,15862,10075.10,0,0,0,0.63,-2.94,0.14,-0.18,0.95,-0.27
1.8925781,-0.0010804869,-6.965697E-4,-2.2909837E-4,-0.19,0.95,-0.27,15877,10074.10,0,0,165,0.49,-2.94,0.14,-0.19,0.95,-0.27
1.8925781,-8.048676E-5,3.0343235E-4,-0.0012290984,-0.18,0.95,-0.27,15893,10074.10,0,0,0,0.56,-2.87,0.07,-0.18,0.95,-0.27
1.8925781,-0.0010804869,-6.965697E-4,-0.0012290984,-0.19,0.95,-0.27,15899,10074.10,0,0,165,0.49,-2.94,0.07,-0.19,0.95,-0.27
1.8925781,-0.0010804869,-6.965697E-4,-0.0012290984,-0.18,0.95,-0.27,15914,10074.10,0,0,0,0.49,-2.94,0.07,-0.18,0.95,-0.27
1.8925781,-0.0010804869,-6.965697E-4,-0.0012290984,-0.19,0.95,-0.27,15937,10074.10,0,0,165,0.49,-2.94,0.07,-0.19,0.95,-0.27
1.8925781,-8.048676E-5,0.0013034306,-0.0012290984,-0.19,0.95,-0.27,15938,10074.10,0,0,0,0.56,-2.80,0.07,-0.19,0.95,-0.27
1.8925781,9.195125E-4,3.0343235E-4,-0.0012290984,-0.18,0.95,-0.27,15952,10074.10,0,0,165,0.63,-2.87,0.07,-0.18,0.95,-0.27
3.493164,9.195125E-4,0.0013034306,-2.2909837E-4,-0.19,0.95,-0.27,15967,10075.70,0,0,0,0.63,-2.80,0.14,-0.19,0.95,-0.27
1.5927734,-0.0010804869,-6.965697E-4,-0.0022290985,-0.19,0.95,-0.27,15974,10073.80,0,0,165,0.49,-2.94,0.00,-0.19,0.95,-0.27
2.493164,-8.048676E-5,-6.965697E-4,-2.2909837E-4,-0.18,0.95,-0.27,15989,10074.70,0,0,0,0.56,-2.94,0.14,-0.18,0.95,-0.27
1.8925781,-8.048676E-5,0.0013034306,7.7090133E-4,-0.18,0.95,-0.27,16003,10074.10,0,0,165,0.56,-2.80,0.21,-0.18,0.95,-0.27
1.8925781,-0.0010804869,-6.965697E-4,-0.0012290984,-0.19,0.95,-0.27,16011,10074.10,0,0,0,0.49,-2.94,0.07,-0.19,0.95,-0.27
1.5927734,-8.048676E-5,3.0343235E-4,-0.0022290985,-0.18,0.95,-0.27,16026,10073.80,0,0,165,0.56,-2.87,0.00,-0.18,0.95,-0.27
1.8925781,9.195125E-4,-6.965697E-4,-0.0012290984,-0.18,0.95,-0.27,16041,10074.10,0,0,0,0.63,-2.94,0.07,-0.18,0.95,-0.27
1.8925781,0.0019195126,3.0343235E-4,-0.0012290984,-0.18,0.95,-0.27,16049,10074.10,0,0,165,0.70,-2.87,0.07,-0.18,0.95,-0.27
1.5927734,9.195125E-4,-6.965697E-4,-2.2909837E-4,-0.19,0.95,-0.27,16064,10073.80,0,0,0,0.63,-2.94,0.14,-0.19,0.95,-0.27
2.493164,0.0019195126,-0.0016965717,-0.0022290985,-0.19,0.95,-0.27,16079,10074.70,0,0,165,0.70,-3.01,0.00,-0.19,0.95,-0.27
1.8925781,-0.0010804869,0.002303429,-0.0012290984,-0.18,0.95,-0.27,16086,10074.10,0,0,0,0.49,-2.73,0.07,-0.18,0.95,-0.27
1.8925781,0.0019195126,-6.965697E-4,-2.2909837E-4,-0.19,0.95,-0.27,16102,10074.10,0,0,165,0.70,-2.94,0.14,-0.19,0.95,-0.27
2.8925781,-8.048676E-5,0.0013034306,7.7090133E-4,-0.19,0.95,-0.27,16116,10075.10,0,0,0,0.56,-2.80,0.21,-0.19,0.95,-0.27
2.493164,-8.048676E-5,-6.965697E-4,-0.0022290985,-0.18,0.95,-0.27,16124,10074.70,0,0,165,0.56,-2.94,0.00,-0.18,0.95,-0.27
1.8925781,-8.048676E-5,-0.0016965717,-0.0012290984,-0.18,0.95,-0.27,16138,10074.10,0,0,0,0.56,-3.01,0.07,-0.18,0.95,-0.27
1.8925781,9.195125E-4,3.0343235E-4,-0.0032290984,-0.18,0.95,-0.27,16162,10074.10,0,0,165,0.63,-2.87,-0.07,-0.18,0.95,-0.27
1.8925781,9.195125E-4,-6.965697E-4,-0.0022290985,-0.19,0.95,-0.27,16163,10074.10,0,0,0,0.63,-2.94,0.00,-0.19,0.95,-0.27
2.8925781,9.195125E-4,0.0013034306,-0.0012290984,-0.19,0.95,-0.27,16177,10075.10,0,0,165,0.63,-2.80,0.07,-0.19,0.95,-0.27
2.8925781,-8.048676E-5,-6.965697E-4,-0.0032290984,-0.18,0.95,-0.27,16199,10075.10,0,0,0,0.56,-2.94,-0.07,-0.18,0.95,-0.27
1.8925781,0.0019195126,3.0343235E-4,-0.0032290984,-0.18,0.95,-0.27,16200,10074.10,0,0,165,0.70,-2.87,-0.07,-0.18,0.95,-0.27
1.8925781,-8.048676E-5,0.0013034306,7.7090133E-4,-0.18,0.95,-0.27,16214,10074.10,0,0,0,0.56,-2.80,0.21,-0.18,0.95,-0.27
2.8925781,-8.048676E-5,-0.0016965717,-2.2909837E-4,-0.18,0.95,-0.27,16229,10075.10,0,0,165,0.56,-3.01,0.14,-0.18,0.95,-0.27
1.8925781,9.195125E-4,-6.965697E-4,-2.2909837E-4,-0.18,0.95,-0.27,16236,10074.10,0,0,0,0.63,-2.94,0.14,-0.18,0.95,-0.27
1.8925781,-0.0010804869,-6.965697E-4,-0.0022290985,-0.19,0.95,-0.27,16251,10074.10,0,0,165,0.49,-2.94,0.00,-0.19,0.95,-0.27
1.8925781,9.195125E-4,3.0343235E-4,-0.0022290985,-0.18,0.95,-0.27,16267,10074.10,0,0,0,0.63,-2.87,0.00,-0.18,0.95,-0.27
1.8925781,-8.048676E-5,3.0343235E-4,-0.0022290985,-0.18,0.95,-0.27,16274,10074.10,0,0,165,0.56,-2.87,0.00,-0.18,0.95,-0.27
2.8925781,-8.048676E-5,-6.965697E-4,-0.0022290985,-0.18,0.95,-0.27,16289,10075.10,0,0,0,0.56,-2.94,0.00,-0.18,0.95,-0.27
2.8925781,-0.0010804869,3.0343235E-4,-2.2909837E-4,-0.18,0.95,-0.27,16304,10075.10,0,0,165,0.49,-2.87,0.14,-0.18,0.95,-0.27
1.5927734,-8.048676E-5,3.0343235E-4,-2.2909837E-4,-0.18,0.95,-0.27,16311,10073.80,0,0,0,0.56,-2.87,0.14,-0.18,0.95,-0.27
1.5927734,9.195125E-4,3.0343235E-4,-0.0012290984,-0.19,0.95,-0.27,16326,10073.80,0,0,165,0.63,-2.87,0.07,-0.19,0.95,-0.27
3.7929688,0.0019195126,3.0343235E-4,-2.2909837E-4,-0.18,0.95,-0.27,16341,10076.00,0,0,0,0.70,-2.87,0.14,-0.18,0.95,-0.27
2.8925781,-8.048676E-5,3.0343235E-4,-2.2909837E-4,-0.18,0.95,-0.27,16349,10075.10,0,0,165,0.56,-2.87,0.14,-0.18,0.95,-0.27
2.8925781,9.195125E-4,-6.965697E-4,-0.0012290984,-0.19,0.95,-0.27,16364,10075.10,0,0,0,0.63,-2.94,0.07,-0.19,0.95,-0.27
1.8925781,-8.048676E-5,3.0343235E-4,-2.2909837E-4,-0.19,0.95,-0.27,16379,10074.10,0,0,165,0.56,-2.87,0.14,-0.19,0.95,-0.27
1.5927734,9.195125E-4,-6.965697E-4,-2.2909837E-4,-0.18,0.95,-0.27,16386,10073.80,0,0,0,0.63,-2.94,0.14,-0.18,0.95,-0.27
0.59277344,-8.048676E-5,3.0343235E-4,-0.0022290985,-0.19,0.95,-0.27,16401,10072.80,0,0,165,0.56,-2.87,0.00,-0.19,0.95,-0.27
1.8925781,-0.0010804869,-6.965697E-4,-0.0012290984,-0.18,0.95,-0.27,16427,10074.10,0,0,0,0.49,-2.94,0.07,-0.18,0.95,-0.27
1.5927734,-0.0010804869,3.0343235E-4,-0.0012290984,-0.18,0.95,-0.27,16428,10073.80,0,0,165,0.49,-2.87,0.07,-0.18,0.95,-0.27
2.493164,-8.048676E-5,-6.965697E-4,-0.0012290984,-0.19,0.95,-0.27,16438,10074.70,0,0,0,0.56,-2.94,0.07,-0.19,0.95,-0.27
1.5927734,9.195125E-4,3.0343235E-4,-0.0012290984,-0.19,0.95,-0.27,16455,10073.80,0,0,165,0.63,-2.87,0.07,-0.19,0.95,-0.27
1.8925781,9.195125E-4,3.0343235E-4,-2.2909837E-4,-0.19,0.95,-0.27,16461,10074.10,0,0,0,0.63,-2.87,0.14,-0.19,0.95,-0.27
2.493164,9.195125E-4,3.0343235E-4,-2.2909837E-4,-0.19,0.95,-0.27,16484,10074.70,0,0,165,0.63,-2.87,0.14,-0.19,0.95,-0.27
2.493164,-0.0010804869,-6.965697E-4,-2.2909837E-4,-0.18,0.95,-0.27,16499,10074.70,0,0,0,0.49,-2.94,0.14,-0.18,0.95,-0.27
2.493164,-8.048676E-5,3.0343235E-4,-2.2909837E-4,-0.18,0.95,-0.27,16500,10074.70,0,0,165,0.56,-2.87,0.14,-0.18,0.95,-0.27
1.8925781,-8.048676E-5,-6.965697E-4,-2.2909837E-4,-0.19,0.95,-0.27,16514,10074.10,0,0,0,0.56,-2.94,0.14,-0.19,0.95,-0.27
2.493164,-0.0010804869,-6.965697E-4,-0.0012290984,-0.19,0.95,-0.27,16521,10074.70,0,0,165,0.49,-2.94,0.07,-0.19,0.95,-0.27
1.8925781,9.195125E-4,-0.0016965717,-0.0012290984,-0.19,0.95,-0.27,16536,10074.10,0,0,0,0.63,-3.01,0.07,-0.19,0.95,-0.27
2.8925781,-8.048676E-5,3.0343235E-4,-0.0022290985,-0.19,0.95,-0.27,16551,10075.10,0,0,165,0.56,-2.87,0.00,-0.19,0.95,-0.27
2.493164,-0.0010804869,-6.965697E-4,-2.2909837E-4,-0.18,0.95,-0.27,16574,10074.70,0,0,0,0.49,-2.94,0.14,-0.18,0.95,-0.27
1.8925781,9.195125E-4,-6.965697E-4,-0.0012290984,-0.19,0.95,-0.27,16575,10074.10,0,0,165,0.63,-2.94,0.07,-0.19,0.95,-0.27
2.493164,9.195125E-4,3.0343235E-4,-2.2909837E-4,-0.19,0.95,-0.27,16589,10074.70,0,0,0,0.63,-2.87,0.14,-0.19,0.95,-0.27
1.5927734,-8.048676E-5,3.0343235E-4,-0.0012290984,-0.19,0.95,-0.27,16596,10073.80,0,0,165,0.56,-2.87,0.07,-0.19,0.95,-0.27
2.493164,9.195125E-4,0.0013034306,7.7090133E-4,-0.19,0.95,-0.27,16612,10074.70,0,0,0,0.63,-2.80,0.21,-0.19,0.95,-0.27
2.493164,-0.0010804869,-6.965697E-4,7.7090133E-4,-0.19,0.95,-0.27,16626,10074.70,0,0,165,0.49,-2.94,0.21,-0.19,0.95,-0.27
2.8925781,-8.048676E-5,3.0343235E-4,-2.2909837E-4,-0.18,0.95,-0.27,16633,10075.10,0,0,0,0.56,-2.87,0.14,-0.18,0.95,-0.27
1.8925781,9.195125E-4,3.0343235E-4,-0.0012290984,-0.19,0.95,-0.27,16649,10074.10,0,0,165,0.63,-2.87,0.07,-0.19,0.95,-0.27
1.5927734,-8.048676E-5,0.0013034306,-0.0012290984,-0.18,0.95,-0.27,16672,10073.80,0,0,0,0.56,-2.80,0.07,-0.18,0.95,-0.27
2.8925781,0.0029195128,3.0343235E-4,-0.0012290984,-0.18,0.95,-0.27,16679,10075.10,0,0,165,0.77,-2.87,0.07,-0.18,0.95,-0.27
2.493164,9.195125E-4,3.0343235E-4,-0.0022290985,-0.19,0.95,-0.27,16686,10074.70,0,0,0,0.63,-2.87,0.00,-0.19,0.95,-0.27
2.8925781,0.0019195126,3.0343235E-4,7.7090133E-4,-0.18,0.95,-0.27,16709,10075.10,0,0,165,0.70,-2.87,0.21,-0.18,0.95,-0.27
1.5927734,-8.048676E-5,-6.965697E-4,-2.2909837E-4,-0.18,0.95,-0.27,16710,10073.80,0,0,0,0.56,-2.94,0.14,-0.18,0.95,-0.27
2.493164,9.195125E-4,3.0343235E-4,-0.0012290984,-0.18,0.95,-0.27,16723,10074.70,0,0,165,0.63,-2.87,0.07,-0.18,0.95,-0.27
1.5927734,-8.048676E-5,3.0343235E-4,-0.0012290984,-0.18,0.95,-0.27,16739,10073.80,0,0,0,0.56,-2.87,0.07,-0.18,0.95,-0.27
2.8925781,-8.048676E-5,3.0343235E-4,-2.2909837E-4,-0.19,0.95,-0.27,16746,10075.10,0,0,165,0.56,-2.87,0.14,-0.19,0.95,-0.27
1.5927734,-0.0010804869,3.0343235E-4,-0.0012290984,-0.18,0.95,-0.27,16761,10073.80,0,0,0,0.49,-2.87,0.07,-0.18,0.95,-0.27
1.8925781,9.195125E-4,-6.965697E-4,-0.0022290985,-0.19,0.95,-0.27,16776,10074.10,0,0,165,0.63,-2.94,0.00,-0.19,0.95,-0.27
1.8925781,9.195125E-4,-6.965697E-4,-2.2909837E-4,-0.19,0.95,-0.27,16784,10074.10,0,0,0,0.63,-2.94,0.14,-0.19,0.95,-0.27
2.493164,-8.048676E-5,-6.965697E-4,-0.0022290985,-0.18,0.95,-0.27,16799,10074.70,0,0,165,0.56,-2.94,0.00,-0.18,0.95,-0.27
2.8925781,9.195125E-4,3.0343235E-4,-0.0012290984,-0.19,0.95,-0.27,16814,10075.10,0,0,0,0.63,-2.87,0.07,-0.19,0.95,-0.27
1.8925781,-8.048676E-5,0.0013034306,7.7090133E-4,-0.18,0.95,-0.27,16821,10074.10,0,0,165,0.56,-2.80,0.21,-0.18,0.95,-0.27
1.5927734,0.0019195126,0.0013034306,-0.0012290984,-0.18,0.95,-0.27,16837,10073.80,0,0,0,0.70,-2.80,0.07,-0.18,0.95,-0.27
2.8925781,9.195125E-4,-6.965697E-4,-2.2909837E-4,-0.18,0.95,-0.27,16851,10075.10,0,0,165,0.63,-2.94,0.14,-0.18,0.95,-0.27
1.5927734,-0.0010804869,3.0343235E-4,-2.2909837E-4,-0.19,0.95,-0.27,16859,10073.80,0,0,0,0.49,-2.87,0.14,-0.19,0.95,-0.27
2.493164,-8.048676E-5,0.0013034306,-2.2909837E-4,-0.18,0.95,-0.27,16875,10074.70,0,0,165,0.56,-2.80,0.14,-0.18,0.95,-0.27
2.493164,-8.048676E-5,-6.965697E-4,-2.2909837E-4,-0.19,0.95,-0.27,16888,10074.70,0,0,0,0.56,-2.94,0.14,-0.19,0.95,-0.27
2.8925781,0.0019195126,3.0343235E-4,-0.0012290984,-0.18,0.95,-0.27,16896,10075.10,0,0,165,0.70,-2.87,0.07,-0.18,0.95,-0.27
2.493164,-8.048676E-5,3.0343235E-4,-0.0022290985,-0.18,0.95,-0.27,16911,10074.70,0,0,0,0.56,-2.87,0.00,-0.18,0.95,-0.27
2.8925781,-8.048676E-5,-6.965697E-4,-0.0022290985,-0.19,0.95,-0.27,16927,10075.10,0,0,165,0.56,-2.94,0.00,-0.19,0.95,-0.27
3.7929688,-8.048676E-5,0.0013034306,-0.0012290984,-0.18,0.95,-0.27,16934,10076.00,0,0,0,0.56,-2.80,0.07,-0.18,0.95,-0.27
2.8925781,-8.048676E-5,3.0343235E-4,-0.0012290984,-0.19,0.95,-0.27,16949,10075.10,0,0,165,0.56,-2.87,0.07,-0.19,0.95,-0.27
2.8925781,-8.048676E-5,3.0343235E-4,-0.0012290984,-0.19,0.95,-0.27,16964,10075.10,0,0,0,0.56,-2.87,0.07,-0.19,0.95,-0.27
1.5927734,9.195125E-4,3.0343235E-4,-0.0012290984,-0.18,0.95,-0.27,16971,10073.80,0,0,165,0.63,-2.87,0.07,-0.18,0.95,-0.27
2.493164,-8.048676E-5,-6.965697E-4,-2.2909837E-4,-0.19,0.95,-0.27,16987,10074.70,0,0,0,0.56,-2.94,0.14,-0.19,0.95,-0.27
2.493164,9.195125E-4,-6.965697E-4,-2.2909837E-4,-0.19,0.95,-0.27,17001,10074.70,0,0,165,0.63,-2.94,0.14,-0.19,0.95,-0.27
2.493164,9.195125E-4,-6.965697E-4,-0.0022290985,-0.19,0.95,-0.27,17010,10074.70,0,0,0,0.63,-2.94,0.00,-0.19,0.95,-0.27
2.493164,9.195125E-4,-6.965697E-4,-0.0032290984,-0.18,0.95,-0.27,17031,10074.70,0,0,165,0.63,-2.94,-0.07,-0.18,0.95,-0.27
1.5927734,-0.009080487,3.0343235E-4,-0.0052290983,-0.16,0.96,-0.26,17039,10073.80,0,0,0,-0.07,-2.87,-0.21,-0.16,0.96,-0.26
2.493164,0.023919515,-0.019696571,-0.009229098,-0.2,0.96,-0.26,17047,10074.70,0,0,165,2.24,-4.27,-0.49,-0.20,0.96,-0.26
2.8925781,-0.0010804869,-0.026696574,-0.009229098,-0.19,0.94,-0.26,17062,10075.10,0,0,0,0.49,-4.76,-0.49,-0.19,0.94,-0.26
3.493164,0.0069195125,-0.02869657,0.020770902,-0.19,0.96,-0.27,17076,10075.70,0,0,165,1.05,-4.90,1.61,-0.19,0.96,-0.27
1.5927734,0.019919515,-0.01369657,0.020770902,-0.2,0.96,-0.28,17084,10073.80,0,0,0,1.96,-3.85,1.61,-0.20,0.96,-0.28
2.493164,0.023919515,0.012303431,0.010770902,-0.17,0.91,-0.28,17099,10074.70,0,0,165,2.24,-2.03,0.91,-0.17,0.91,-0.28
2.493164,-0.012080487,0.0043034293,-0.0022290985,-0.17,0.94,-0.27,17114,10074.70,0,0,0,-0.28,-2.59,0.00,-0.17,0.94,-0.27
2.493164,-0.015080487,-0.010696571,-0.020229097,-0.21,0.99,-0.29,17122,10074.70,0,0,165,-0.49,-3.64,-1.26,-0.21,0.99,-0.29
2.493164,-0.0100804875,0.01830343,-0.0022290985,-0.19,0.95,-0.26,17136,10074.70,0,0,0,-0.14,-1.61,0.00,-0.19,0.95,-0.26
2.493164,-0.007080487,0.02830343,-0.0012290984,-0.17,0.91,-0.25,17159,10074.70,0,0,165,0.07,-0.91,0.07,-0.17,0.91,-0.25
2.493164,-0.006080487,0.02030343,-0.0052290983,-0.19,0.97,-0.29,17160,10074.70,0,0,0,0.14,-1.47,-0.21,-0.19,0.97,-0.29
3.7929688,0.004919513,0.02030343,-0.011229098,-0.19,0.96,-0.27,17176,10076.00,0,0,165,0.91,-1.47,-0.63,-0.19,0.96,-0.27
1.5927734,-0.028080486,0.01630343,-0.018229099,-0.16,0.95,-0.25,17189,10073.80,0,0,0,-1.40,-1.75,-1.12,-0.16,0.95,-0.25
1.8925781,-0.0050804876,0.002303429,-0.006229099,-0.16,0.96,-0.25,17196,10074.10,0,0,165,0.21,-2.73,-0.28,-0.16,0.96,-0.25
2.493164,0.029919516,-0.01169657,0.0077709015,-0.18,0.96,-0.27,17211,10074.70,0,0,0,2.66,-3.71,0.70,-0.18,0.96,-0.27
1.5927734,0.017919514,-0.018696569,0.0027709014,-0.18,0.93,-0.27,17226,10073.80,0,0,165,1.82,-4.20,0.35,-0.18,0.93,-0.27
2.493164,-0.009080487,-0.021696571,7.7090133E-4,-0.2,0.96,-0.28,17234,10074.70,0,0,0,-0.07,-4.41,0.21,-0.20,0.96,-0.28
1.5927734,0.003919512,-0.008696571,0.0017709017,-0.2,0.96,-0.27,17249,10073.80,0,0,165,0.84,-3.50,0.28,-0.20,0.96,-0.27
2.493164,0.019919515,-0.0016965717,0.008770902,-0.19,0.94,-0.27,17264,10074.70,0,0,0,1.96,-3.01,0.77,-0.19,0.94,-0.27
2.493164,0.0019195126,3.0343235E-4,0.0017709017,-0.19,0.95,-0.28,17272,10074.70,0,0,165,0.70,-2.87,0.28,-0.19,0.95,-0.28
2.493164,-0.014080487,-0.003696572,-0.008229098,-0.19,0.96,-0.28,17286,10074.70,0,0,0,-0.42,-3.15,-0.42,-0.19,0.96,-0.28
3.493164,-0.016080488,3.0343235E-4,-0.011229098,-0.19,0.94,-0.26,17302,10075.70,0,0,165,-0.56,-2.87,-0.63,-0.19,0.94,-0.26
1.5927734,-0.006080487,0.0063034296,-0.007229098,-0.19,0.95,-0.26,17310,10073.80,0,0,0,0.14,-2.45,-0.35,-0.19,0.95,-0.26
2.493164,0.0029195128,0.0063034296,-0.0032290984,-0.2,0.96,-0.27,17326,10074.70,0,0,165,0.77,-2.45,-0.07,-0.20,0.96,-0.27
2.493164,-0.0030804873,0.00830343,-0.0032290984,-0.19,0.95,-0.27,17339,10074.70,0,0,0,0.35,-2.31,-0.07,-0.19,0.95,-0.27
2.493164,-0.007080487,0.0063034296,-0.0032290984,-0.19,0.95,-0.26,17346,10074.70,0,0,165,0.07,-2.45,-0.07,-0.19,0.95,-0.26
2.493164,0.004919513,0.0053034313,0.0027709014,-0.19,0.96,-0.27,17361,10074.70,0,0,0,0.91,-2.52,0.35,-0.19,0.96,-0.27
1.5927734,0.01591951,0.0053034313,0.0067709014,-0.18,0.95,-0.27,17377,10073.80,0,0,165,1.68,-2.52,0.63,-0.18,0.95,-0.27
1.5927734,0.0059195133,3.0343235E-4,0.004770902,-0.18,0.95,-0.27,17394,10073.80,0,0,0,0.98,-2.87,0.49,-0.18,0.95,-0.27
1.5927734,-8.048676E-5,-0.00269657,0.0027709014,-0.19,0.95,-0.28,17399,10073.80,0,0,165,0.56,-3.08,0.35,-0.19,0.95,-0.28
2.493164,-0.0030804873,3.0343235E-4,0.0027709014,-0.19,0.95,-0.27,17413,10074.70,0,0,0,0.35,-2.87,0.35,-0.19,0.95,-0.27
2.8925781,-0.0010804869,0.0033034272,0.0017709017,-0.18,0.95,-0.27,17421,10075.10,0,0,165,0.49,-2.66,0.28,-0.18,0.95,-0.27
2.493164,-0.0030804873,0.0043034293,-0.0032290984,-0.18,0.95,-0.27,17436,10074.70,0,0,0,0.35,-2.59,-0.07,-0.18,0.95,-0.27
2.8925781,-0.008080487,0.0043034293,-0.0042290986,-0.18,0.95,-0.27,17451,10075.10,0,0,165,0.00,-2.59,-0.14,-0.18,0.95,-0.27
2.493164,-0.011080487,3.0343235E-4,-0.007229098,-0.18,0.95,-0.26,17460,10074.70,0,0,0,-0.21,-2.87,-0.35,-0.18,0.95,-0.26
2.493164,-0.008080487,-0.00269657,-0.0052290983,-0.18,0.96,-0.27,17474,10074.70,0,0,165,0.00,-3.08,-0.21,-0.18,0.96,-0.27
3.493164,-0.0010804869,-0.0046965703,-0.0032290984,-0.18,0.96,-0.26,17489,10075.70,0,0,0,0.49,-3.22,-0.07,-0.18,0.96,-0.26
2.493164,9.195125E-4,-0.0046965703,-0.0012290984,-0.18,0.95,-0.26,17497,10074.70,0,0,165,0.63,-3.22,0.07,-0.18,0.95,-0.26
2.493164,0.0029195128,-0.0046965703,-0.0022290985,-0.19,0.95,-0.27,17519,10074.70,0,0,0,0.77,-3.22,0.00,-0.19,0.95,-0.27
2.493164,0.0069195125,-6.965697E-4,-2.2909837E-4,-0.19,0.95,-0.27,17526,10074.70,0,0,165,1.05,-2.94,0.14,-0.19,0.95,-0.27
1.8925781,0.0069195125,0.002303429,0.0017709017,-0.19,0.95,-0.27,17534,10074.10,0,0,0,1.05,-2.73,0.28,-0.19,0.95,-0.27
2.493164,0.007919514,0.002303429,-2.2909837E-4,-0.18,0.95,-0.27,17549,10074.70,0,0,165,1.12,-2.73,0.14,-0.18,0.95,-0.27
0.8925781,0.0059195133,0.002303429,0.0017709017,-0.18,0.95,-0.27,17564,10073.10,0,0,0,0.98,-2.73,0.28,-0.18,0.95,-0.27
2.493164,0.003919512,3.0343235E-4,-0.0022290985,-0.18,0.95,-0.27,17571,10074.70,0,0,165,0.84,-2.87,0.00,-0.18,0.95,-0.27
3.493164,-8.048676E-5,-0.0046965703,-0.0022290985,-0.18,0.95,-0.27,17586,10075.70,0,0,0,0.56,-3.22,0.00,-0.18,0.95,-0.27
2.493164,-0.0020804876,-0.0046965703,-0.0022290985,-0.19,0.95,-0.27,17601,10074.70,0,0,165,0.42,-3.22,0.00,-0.19,0.95,-0.27
2.493164,-0.0030804873,-0.003696572,-2.2909837E-4,-0.19,0.95,-0.27,17610,10074.70,0,0,0,0.35,-3.15,0.14,-0.19,0.95,-0.27
2.8925781,-0.0030804873,-0.0016965717,-2.2909837E-4,-0.19,0.95,-0.27,17626,10075.10,0,0,165,0.35,-3.01,0.14,-0.19,0.95,-0.27
2.493164,-0.0010804869,-0.0016965717,-2.2909837E-4,-0.19,0.95,-0.27,17639,10074.70,0,0,0,0.49,-3.01,0.14,-0.19,0.95,-0.27
2.493164,-0.0030804873,3.0343235E-4,7.7090133E-4,-0.19,0.95,-0.27,17646,10074.70,0,0,165,0.35,-2.87,0.21,-0.19,0.95,-0.27
2.8925781,-0.0010804869,0.0013034306,-0.0012290984,-0.19,0.95,-0.27,17661,10075.10,0,0,0,0.49,-2.80,0.07,-0.19,0.95,-0.27
2.8925781,9.195125E-4,0.002303429,-0.0012290984,-0.19,0.95,-0.27,17677,10075.10,0,0,165,0.63,-2.73,0.07,-0.19,0.95,-0.27
2.493164,0.003919512,0.0063034296,-2.2909837E-4,-0.19,0.95,-0.27,17693,10074.70,0,0,0,0.84,-2.45,0.14,-0.19,0.95,-0.27
2.493164,0.003919512,0.0043034293,7.7090133E-4,-0.19,0.95,-0.27,17703,10074.70,0,0,165,0.84,-2.59,0.21,-0.19,0.95,-0.27
2.8925781,0.003919512,0.0043034293,7.7090133E-4,-0.18,0.95,-0.27,17713,10075.10,0,0,0,0.84,-2.59,0.21,-0.18,0.95,-0.27
2.493164,0.0019195126,3.0343235E-4,0.0017709017,-0.18,0.95,-0.27,17721,10074.70,0,0,165,0.70,-2.87,0.28,-0.18,0.95,-0.27
2.493164,-8.048676E-5,-0.0016965717,0.0017709017,-0.18,0.95,-0.27,17736,10074.70,0,0,0,0.56,-3.01,0.28,-0.18,0.95,-0.27
1.5927734,-0.0020804876,-0.0016965717,7.7090133E-4,-0.18,0.95,-0.27,17751,10073.80,0,0,165,0.42,-3.01,0.21,-0.18,0.95,-0.27
2.493164,-0.0050804876,3.0343235E-4,-2.2909837E-4,-0.18,0.95,-0.27,17759,10074.70,0,0,0,0.21,-2.87,0.14,-0.18,0.95,-0.27
2.493164,-0.006080487,3.0343235E-4,-0.0012290984,-0.18,0.95,-0.27,17774,10074.70,0,0,165,0.14,-2.87,0.07,-0.18,0.95,-0.27
2.493164,-0.004080487,0.002303429,-0.0022290985,-0.18,0.95,-0.27,17789,10074.70,0,0,0,0.28,-2.73,0.00,-0.18,0.95,-0.27
2.493164,-0.006080487,0.0013034306,-0.0042290986,-0.18,0.96,-0.27,17797,10074.70,0,0,165,0.14,-2.80,-0.14,-0.18,0.96,-0.27
2.493164,-0.0010804869,3.0343235E-4,-0.0022290985,-0.18,0.95,-0.26,17812,10074.70,0,0,0,0.49,-2.87,0.00,-0.18,0.95,-0.26
2.493164,9.195125E-4,-0.0016965717,-0.0012290984,-0.18,0.95,-0.27,17827,10074.70,0,0,165,0.63,-3.01,0.07,-0.18,0.95,-0.27
3.7929688,0.0029195128,-0.0016965717,-2.2909837E-4,-0.18,0.95,-0.26,17834,10076.00,0,0,0,0.77,-3.01,0.14,-0.18,0.95,-0.26
2.493164,0.0059195133,-0.0016965717,-2.2909837E-4,-0.18,0.95,-0.27,17849,10074.70,0,0,165,0.98,-3.01,0.14,-0.18,0.95,-0.27
2.493164,0.0069195125,-0.0016965717,7.7090133E-4,-0.19,0.95,-0.27,17864,10074.70,0,0,0,1.05,-3.01,0.21,-0.19,0.95,-0.27
2.8925781,0.0059195133,-0.0016965717,-2.2909837E-4,-0.19,0.95,-0.27,17871,10075.10,0,0,165,0.98,-3.01,0.14,-0.19,0.95,-0.27
2.493164,0.003919512,0.0013034306,-2.2909837E-4,-0.19,0.95,-0.27,17886,10074.70,0,0,0,0.84,-2.80,0.14,-0.19,0.95,-0.27
1.5927734,9.195125E-4,-6.965697E-4,-0.0012290984,-0.19,0.95,-0.27,17901,10073.80,0,0,165,0.63,-2.94,0.07,-0.19,0.95,-0.27
3.493164,-0.0020804876,-6.965697E-4,-0.0042290986,-0.18,0.95,-0.27,17909,10075.70,0,0,0,0.42,-2.94,-0.14,-0.18,0.95,-0.27
1.5927734,-0.0020804876,-6.965697E-4,-0.0022290985,-0.19,0.95,-0.27,17924,10073.80,0,0,165,0.42,-2.94,0.00,-0.19,0.95,-0.27
2.493164,-0.004080487,-6.965697E-4,-0.0032290984,-0.19,0.95,-0.27,17939,10074.70,0,0,0,0.28,-2.94,-0.07,-0.19,0.95,-0.27
2.493164,-0.0030804873,-6.965697E-4,-0.0032290984,-0.19,0.95,-0.27,17947,10074.70,0,0,165,0.35,-2.94,-0.07,-0.19,0.95,-0.27
2.493164,-0.0020804876,-0.0016965717,-0.0012290984,-0.19,0.95,-0.27,17961,10074.70,0,0,0,0.42,-3.01,0.07,-0.19,0.95,-0.27
3.493164,-0.0010804869,3.0343235E-4,7.7090133E-4,-0.19,0.95,-0.27,17984,10075.70,0,0,165,0.49,-2.87,0.21,-0.19,0.95,-0.27
3.493164,-8.048676E-5,-6.965697E-4,0.0017709017,-0.19,0.95,-0.27,17985,10075.70,0,0,0,0.56,-2.94,0.28,-0.19,0.95,-0.27
1.5927734,9.195125E-4,0.002303429,0.0017709017,-0.19,0.95,-0.27,18006,10073.80,0,0,165,0.63,-2.73,0.28,-0.19,0.95,-0.27
2.8925781,0.0019195126,0.0033034272,7.7090133E-4,-0.19,0.95,-0.27,18013,10075.10,0,0,0,0.70,-2.66,0.21,-0.19,0.95,-0.27
1.5927734,0.0029195128,0.0033034272,0.0017709017,-0.18,0.95,-0.27,18028,10073.80,0,0,165,0.77,-2.66,0.28,-0.18,0.95,-0.27
2.493164,0.003919512,0.002303429,-2.2909837E-4,-0.18,0.95,-0.27,18036,10074.70,0,0,0,0.84,-2.73,0.14,-0.18,0.95,-0.27
2.493164,0.0019195126,0.0013034306,-2.2909837E-4,-0.18,0.95,-0.27,18043,10074.70,0,0,165,0.70,-2.80,0.14,-0.18,0.95,-0.27
2.493164,9.195125E-4,3.0343235E-4,7.7090133E-4,-0.18,0.95,-0.27,18059,10074.70,0,0,0,0.63,-2.87,0.21,-0.18,0.95,-0.27
1.5927734,-0.0030804873,3.0343235E-4,-2.2909837E-4,-0.18,0.95,-0.27,18074,10073.80,0,0,165,0.35,-2.87,0.14,-0.18,0.95,-0.27
2.493164,-0.0030804873,3.0343235E-4,-0.0012290984,-0.18,0.95,-0.27,18081,10074.70,0,0,0,0.35,-2.87,0.07,-0.18,0.95,-0.27
3.493164,-0.0050804876,3.0343235E-4,-0.0022290985,-0.18,0.95,-0.27,18096,10075.70,0,0,165,0.21,-2.87,0.00,-0.18,0.95,-0.27
2.493164,-0.0030804873,-6.965697E-4,-0.0012290984,-0.18,0.95,-0.27,18111,10074.70,0,0,0,0.35,-2.94,0.07,-0.18,0.95,-0.27
2.493164,-0.0010804869,3.0343235E-4,-0.0012290984,-0.18,0.95,-0.27,18119,10074.70,0,0,165,0.49,-2.87,0.07,-0.18,0.95,-0.27
2.493164,-8.048676E-5,-6.965697E-4,-0.0022290985,-0.19,0.95,-0.27,18143,10074.70,0,0,0,0.56,-2.94,0.00,-0.19,0.95,-0.27
3.493164,9.195125E-4,-0.0016965717,-0.0012290984,-0.19,0.95,-0.27,18148,10075.70,0,0,165,0.63,-3.01,0.07,-0.19,0.95,-0.27
2.493164,0.003919512,-0.0016965717,-0.0012290984,-0.18,0.96,-0.27,18156,10074.70,0,0,0,0.84,-3.01,0.07,-0.18,0.96,-0.27
3.493164,0.004919513,-0.0016965717,-0.0012290984,-0.19,0.95,-0.27,18171,10075.70,0,0,165,0.91,-3.01,0.07,-0.19,0.95,-0.27
2.493164,0.0069195125,-0.0016965717,-2.2909837E-4,-0.18,0.95,-0.27,18186,10074.70,0,0,0,1.05,-3.01,0.14,-0.18,0.95,-0.27
2.493164,0.003919512,3.0343235E-4,-0.0012290984,-0.19,0.95,-0.27,18193,10074.70,0,0,165,0.84,-2.87,0.07,-0.19,0.95,-0.27
2.493164,0.003919512,-6.965697E-4,-0.0022290985,-0.19,0.95,-0.27,18208,10074.70,0,0,0,0.84,-2.94,0.00,-0.19,0.95,-0.27
3.493164,9.195125E-4,-6.965697E-4,-0.0012290984,-0.19,0.95,-0.27,18223,10075.70,0,0,165,0.63,-2.94,0.07,-0.19,0.95,-0.27
2.493164,-0.0010804869,-0.0016965717,-0.0042290986,-0.19,0.95,-0.27,18231,10074.70,0,0,0,0.49,-3.01,-0.14,-0.19,0.95,-0.27
2.493164,-0.0020804876,-6.965697E-4,-2.2909837E-4,-0.19,0.95,-0.27,18246,10074.70,0,0,165,0.42,-2.94,0.14,-0.19,0.95,-0.27
2.493164,-0.0030804873,-6.965697E-4,-2.2909837E-4,-0.19,0.95,-0.27,18261,10074.70,0,0,0,0.35,-2.94,0.14,-0.19,0.95,-0.27
2.493164,-0.004080487,-0.0016965717,-0.0022290985,-0.19,0.95,-0.27,18269,10074.70,0,0,165,0.28,-3.01,0.00,-0.19,0.95,-0.27
2.493164,-0.0020804876,3.0343235E-4,-0.0012290984,-0.19,0.95,-0.27,18284,10074.70,0,0,0,0.42,-2.87,0.07,-0.19,0.95,-0.27
1.5927734,-0.0010804869,3.0343235E-4,-2.2909837E-4,-0.19,0.95,-0.27,18299,10073.80,0,0,165,0.49,-2.87,0.14,-0.19,0.95,-0.27
2.493164,-0.0010804869,0.002303429,7.7090133E-4,-0.19,0.95,-0.27,18307,10074.70,0,0,0,0.49,-2.73,0.21,-0.19,0.95,-0.27
2.1933594,-8.048676E-5,0.002303429,7.7090133E-4,-0.19,0.95,-0.27,18321,10074.40,0,0,165,0.56,-2.73,0.21,-0.19,0.95,-0.27
1.8925781,9.195125E-4,0.0033034272,0.0027709014,-0.18,0.95,-0.27,18336,10074.10,0,0,0,0.63,-2.66,0.35,-0.18,0.95,-0.27
2.8925781,0.0019195126,0.0013034306,-0.0012290984,-0.18,0.95,-0.27,18346,10075.10,0,0,165,0.70,-2.80,0.07,-0.18,0.95,-0.27
2.493164,0.0019195126,0.002303429,7.7090133E-4,-0.18,0.96,-0.27,18359,10074.70,0,0,0,0.70,-2.73,0.21,-0.18,0.96,-0.27
2.493164,0.0019195126,0.002303429,-2.2909837E-4,-0.18,0.95,-0.27,18374,10074.70,0,0,165,0.70,-2.73,0.14,-0.18,0.95,-0.27
3.493164,9.195125E-4,3.0343235E-4,7.7090133E-4,-0.18,0.95,-0.27,18381,10075.70,0,0,0,0.63,-2.87,0.21,-0.18,0.95,-0.27
3.493164,-0.0020804876,3.0343235E-4,-2.2909837E-4,-0.18,0.95,-0.27,18404,10075.70,0,0,165,0.42,-2.87,0.14,-0.18,0.95,-0.27
2.493164,-0.0030804873,3.0343235E-4,-0.0012290984,-0.18,0.95,-0.27,18411,10074.70,0,0,0,0.35,-2.87,0.07,-0.18,0.95,-0.27
2.493164,-0.0020804876,3.0343235E-4,-0.0032290984,-0.18,0.95,-0.27,18424,10074.70,0,0,165,0.42,-2.87,-0.07,-0.18,0.95,-0.27
2.8925781,-0.0030804873,-6.965697E-4,-0.0032290984,-0.18,0.95,-0.27,18438,10075.10,0,0,0,0.35,-2.94,-0.07,-0.18,0.95,-0.27
2.493164,-8.048676E-5,-6.965697E-4,-0.0012290984,-0.18,0.95,-0.27,18455,10074.70,0,0,165,0.56,-2.94,0.07,-0.18,0.95,-0.27
2.493164,-8.048676E-5,-0.0016965717,-0.0022290985,-0.18,0.95,-0.27,18456,10074.70,0,0,0,0.56,-3.01,0.00,-0.18,0.95,-0.27
2.493164,0.0029195128,-0.0016965717,-0.0012290984,-0.18,0.95,-0.27,18471,10074.70,0,0,165,0.77,-3.01,0.07,-0.18,0.95,-0.27
3.493164,0.004919513,-0.00269657,-0.0012290984,-0.19,0.95,-0.27,18486,10075.70,0,0,0,0.91,-3.08,0.07,-0.19,0.95,-0.27
2.493164,0.003919512,3.0343235E-4,-2.2909837E-4,-0.19,0.95,-0.27,18494,10074.70,0,0,165,0.84,-2.87,0.14,-0.19,0.95,-0.27
2.493164,0.0019195126,-0.0016965717,-2.2909837E-4,-0.19,0.95,-0.27,18509,10074.70,0,0,0,0.70,-3.01,0.14,-0.19,0.95,-0.27
3.493164,0.0029195128,-6.965697E-4,-2.2909837E-4,-0.19,0.95,-0.27,18523,10075.70,0,0,165,0.77,-2.94,0.14,-0.19,0.95,-0.27
2.493164,9.195125E-4,3.0343235E-4,7.7090133E-4,-0.19,0.95,-0.27,18531,10074.70,0,0,0,0.63,-2.87,0.21,-0.19,0.95,-0.27
3.493164,-8.048676E-5,0.0013034306,-2.2909837E-4,-0.19,0.95,-0.27,18546,10075.70,0,0,165,0.56,-2.80,0.14,-0.19,0.95,-0.27
3.493164,-0.0010804869,-6.965697E-4,-2.2909837E-4,-0.19,0.95,-0.27,18561,10075.70,0,0,0,0.49,-2.94,0.14,-0.19,0.95,-0.27
3.493164,-0.004080487,-0.0016965717,-0.0022290985,-0.19,0.95,-0.27,18568,10075.70,0,0,165,0.28,-3.01,0.00,-0.19,0.95,-0.27
2.493164,-0.0030804873,-6.965697E-4,-2.2909837E-4,-0.19,0.95,-0.27,18584,10074.70,0,0,0,0.35,-2.94,0.14,-0.19,0.95,-0.27
2.493164,-0.0020804876,-6.965697E-4,-2.2909837E-4,-0.19,0.95,-0.27,18599,10074.70,0,0,165,0.42,-2.94,0.14,-0.19,0.95,-0.27
2.493164,-0.0020804876,3.0343235E-4,7.7090133E-4,-0.19,0.95,-0.27,18606,10074.70,0,0,0,0.42,-2.87,0.21,-0.19,0.95,-0.27
3.493164,-0.0010804869,0.0013034306,0.0017709017,-0.19,0.95,-0.27,18627,10075.70,0,0,165,0.49,-2.80,0.28,-0.19,0.95,-0.27
2.493164,9.195125E-4,3.0343235E-4,-2.2909837E-4,-0.19,0.95,-0.27,18642,10074.70,0,0,0,0.63,-2.87,0.14,-0.19,0.95,-0.27
2.493164,0.0029195128,0.0013034306,-2.2909837E-4,-0.19,0.95,-0.27,18644,10074.70,0,0,165,0.77,-2.80,0.14,-0.19,0.95,-0.27
2.493164,0.0019195126,0.0013034306,-2.2909837E-4,-0.18,0.95,-0.27,18659,10074.70,0,0,0,0.70,-2.80,0.14,-0.18,0.95,-0.27
3.493164,0.0019195126,-6.965697E-4,-2.2909837E-4,-0.18,0.95,-0.27,18674,10075.70,0,0,165,0.70,-2.94,0.14,-0.18,0.95,-0.27
2.493164,9.195125E-4,0.0013034306,-0.0012290984,-0.18,0.95,-0.27,18681,10074.70,0,0,0,0.63,-2.80,0.07,-0.18,0.95,-0.27
2.493164,-8.048676E-5,3.0343235E-4,-0.0012290984,-0.18,0.95,-0.27,18696,10074.70,0,0,165,0.56,-2.87,0.07,-0.18,0.95,-0.27
2.493164,-0.0010804869,-0.0016965717,-2.2909837E-4,-0.18,0.95,-0.27,18711,10074.70,0,0,0,0.49,-3.01,0.14,-0.18,0.95,-0.27
2.493164,-0.0020804876,-6.965697E-4,-0.0012290984,-0.18,0.95,-0.27,18719,10074.70,0,0,165,0.42,-2.94,0.07,-0.18,0.95,-0.27
3.493164,-8.048676E-5,-6.965697E-4,-0.0012290984,-0.18,0.95,-0.27,18734,10075.70,0,0,0,0.56,-2.94,0.07,-0.18,0.95,-0.27
2.493164,-8.048676E-5,-6.965697E-4,-2.2909837E-4,-0.18,0.95,-0.27,18749,10074.70,0,0,165,0.56,-2.94,0.14,-0.18,0.95,-0.27
3.493164,-0.0010804869,-6.965697E-4,-0.0032290984,-0.18,0.95,-0.27,18756,10075.70,0,0,0,0.49,-2.94,-0.07,-0.18,0.95,-0.27
2.493164,-8.048676E-5,-6.965697E-4,-0.0012290984,-0.18,0.95,-0.27,18776,10074.70,0,0,165,0.56,-2.94,0.07,-0.18,0.95,-0.27
2.493164,9.195125E-4,-0.00269657,-0.0012290984,-0.19,0.95,-0.27,18786,10074.70,0,0,0,0.63,-3.08,0.07,-0.19,0.95,-0.27
2.493164,0.0029195128,-0.0016965717,-0.0022290985,-0.19,0.95,-0.27,18794,10074.70,0,0,165,0.77,-3.01,0.00,-0.19,0.95,-0.27
3.493164,9.195125E-4,-6.965697E-4,-0.0022290985,-0.19,0.95,-0.27,18809,10075.70,0,0,0,0.63,-2.94,0.00,-0.19,0.95,-0.27
2.493164,0.003919512,-0.00269657,-0.0022290985,-0.19,0.95,-0.27,18825,10074.70,0,0,165,0.84,-3.08,0.00,-0.19,0.95,-0.27
2.8925781,0.003919512,3.0343235E-4,-0.0022290985,-0.19,0.95,-0.27,18831,10075.10,0,0,0,0.84,-2.87,0.00,-0.19,0.95,-0.27
2.493164,0.0019195126,-6.965697E-4,7.7090133E-4,-0.19,0.95,-0.27,18846,10074.70,0,0,165,0.70,-2.94,0.21,-0.19,0.95,-0.27
2.493164,9.195125E-4,3.0343235E-4,-0.0012290984,-0.19,0.95,-0.27,18861,10074.70,0,0,0,0.63,-2.87,0.07,-0.19,0.95,-0.27
2.493164,-8.048676E-5,-6.965697E-4,-2.2909837E-4,-0.19,0.95,-0.27,18869,10074.70,0,0,165,0.56,-2.94,0.14,-0.19,0.95,-0.27
2.493164,-0.0020804876,-6.965697E-4,-0.0012290984,-0.19,0.95,-0.27,18884,10074.70,0,0,0,0.42,-2.94,0.07,-0.19,0.95,-0.27
2.493164,-0.004080487,3.0343235E-4,-2.2909837E-4,-0.19,0.95,-0.27,18898,10074.70,0,0,165,0.28,-2.87,0.14,-0.19,0.95,-0.27
3.493164,-0.0030804873,3.0343235E-4,-2.2909837E-4,-0.19,0.95,-0.27,18906,10075.70,0,0,0,0.35,-2.87,0.14,-0.19,0.95,-0.27
2.493164,-0.0010804869,-6.965697E-4,-0.0012290984,-0.19,0.95,-0.27,18921,10074.70,0,0,165,0.49,-2.94,0.07,-0.19,0.95,-0.27
3.493164,-0.0020804876,-6.965697E-4,-0.0022290985,-0.19,0.95,-0.27,18936,10075.70,0,0,0,0.42,-2.94,0.00,-0.19,0.95,-0.27
2.493164,-0.0010804869,3.0343235E-4,-2.2909837E-4,-0.19,0.95,-0.27,18944,10074.70,0,0,165,0.49,-2.87,0.14,-0.19,0.95,-0.27
2.493164,9.195125E-4,0.002303429,-2.2909837E-4,-0.18,0.95,-0.27,18959,10074.70,0,0,0,0.63,-2.73,0.14,-0.18,0.95,-0.27
2.493164,0.0029195128,-6.965697E-4,7.7090133E-4,-0.18,0.95,-0.27,18974,10074.70,0,0,165,0.77,-2.94,0.21,-0.18,0.95,-0.27
1.5927734,9.195125E-4,0.0013034306,0.0017709017,-0.18,0.95,-0.27,18981,10073.80,0,0,0,0.63,-2.80,0.28,-0.18,0.95,-0.27
3.493164,9.195125E-4,0.0013034306,0.0017709017,-0.18,0.95,-0.27,18996,10075.70,0,0,165,0.63,-2.80,0.28,-0.18,0.95,-0.27
1.5927734,0.0019195126,0.0013034306,-2.2909837E-4,-0.18,0.95,-0.27,19011,10073.80,0,0,0,0.70,-2.80,0.14,-0.18,0.95,-0.27
2.493164,9.195125E-4,3.0343235E-4,-2.2909837E-4,-0.18,0.95,-0.27,19019,10074.70,0,0,165,0.63,-2.87,0.14,-0.18,0.95,-0.27
2.8925781,-0.0020804876,-6.965697E-4,-0.0022290985,-0.18,0.95,-0.27,19033,10075.10,0,0,0,0.42,-2.94,0.00,-0.18,0.95,-0.27
2.493164,-0.0030804873,-6.965697E-4,-0.0032290984,-0.18,0.95,-0.27,19048,10074.70,0,0,165,0.35,-2.94,-0.07,-0.18,0.95,-0.27
3.493164,-0.0020804876,-0.0016965717,-0.0022290985,-0.18,0.95,-0.27,19056,10075.70,0,0,0,0.42,-3.01,0.00,-0.18,0.95,-0.27
2.493164,-0.0020804876,-0.0016965717,-0.0022290985,-0.18,0.95,-0.27,19071,10074.70,0,0,165,0.42,-3.01,0.00,-0.18,0.95,-0.27
2.493164,9.195125E-4,-6.965697E-4,-0.0022290985,-0.19,0.95,-0.27,19087,10074.70,0,0,0,0.63,-2.94,0.00,-0.19,0.95,-0.27
2.493164,-8.048676E-5,3.0343235E-4,-0.0022290985,-0.19,0.95,-0.27,19094,10074.70,0,0,165,0.56,-2.87,0.00,-0.19,0.95,-0.27
3.493164,0.0019195126,-6.965697E-4,-0.0022290985,-0.19,0.95,-0.27,19109,10075.70,0,0,0,0.70,-2.94,0.00,-0.19,0.95,-0.27
3.493164,0.0019195126,-6.965697E-4,-2.2909837E-4,-0.19,0.95,-0.27,19125,10075.70,0,0,165,0.70,-2.94,0.14,-0.19,0.95,-0.27
2.1933594,0.0019195126,0.0013034306,-2.2909837E-4,-0.19,0.95,-0.27,19131,10074.40,0,0,0,0.70,-2.80,0.14,-0.19,0.95,-0.27
3.1933594,9.195125E-4,-6.965697E-4,-0.0012290984,-0.19,0.95,-0.27,19146,10075.40,0,0,165,0.63,-2.94,0.07,-0.19,0.95,-0.27
1.1933594,9.195125E-4,-6.965697E-4,-2.2909837E-4,-0.19,0.95,-0.27,19161,10073.40,0,0,0,0.63,-2.94,0.14,-0.19,0.95,-0.27
2.493164,-8.048676E-5,-6.965697E-4,-0.0022290985,-0.19,0.95,-0.27,19169,10074.70,0,0,165,0.56,-2.94,0.00,-0.19,0.95,-0.27
3.493164,-0.0020804876,-0.0016965717,-0.0012290984,-0.19,0.95,-0.27,19192,10075.70,0,0,0,0.42,-3.01,0.07,-0.19,0.95,-0.27
2.493164,-0.0010804869,3.0343235E-4,-2.2909837E-4,-0.19,0.95,-0.27,19199,10074.70,0,0,165,0.49,-2.87,0.14,-0.19,0.95,-0.27
2.8925781,-0.0020804876,3.0343235E-4,-0.0012290984,-0.19,0.95,-0.27,19208,10075.10,0,0,0,0.42,-2.87,0.07,-0.19,0.95,-0.27
3.493164,-0.0030804873,0.0013034306,-2.2909837E-4,-0.19,0.95,-0.27,19221,10075.70,0,0,165,0.35,-2.80,0.14,-0.19,0.95,-0.27
3.1933594,-0.0010804869,0.0013034306,7.7090133E-4,-0.19,0.95,-0.27,19236,10075.40,0,0,0,0.49,-2.80,0.21,-0.19,0.95,-0.27
2.493164,-0.0010804869,-6.965697E-4,-2.2909837E-4,-0.19,0.95,-0.27,19243,10074.70,0,0,165,0.49,-2.94,0.14,-0.19,0.95,-0.27
3.493164,-8.048676E-5,0.0013034306,-0.0012290984,-0.19,0.95,-0.27,19259,10075.70,0,0,0,0.56,-2.80,0.07,-0.19,0.95,-0.27
3.493164,9.195125E-4,3.0343235E-4,7.7090133E-4,-0.18,0.95,-0.27,19274,10075.70,0,0,165,0.63,-2.87,0.21,-0.18,0.95,-0.27
3.1933594,0.0019195126,0.0013034306,-0.0012290984,-0.18,0.95,-0.27,19288,10075.40,0,0,0,0.70,-2.80,0.07,-0.18,0.95,-0.27
2.493164,9.195125E-4,0.0013034306,-2.2909837E-4,-0.18,0.95,-0.27,19296,10074.70,0,0,165,0.63,-2.80,0.14,-0.18,0.95,-0.27
3.493164,0.0019195126,3.0343235E-4,-2.2909837E-4,-0.18,0.95,-0.27,19311,10075.70,0,0,0,0.70,-2.87,0.14,-0.18,0.95,-0.27
2.493164,9.195125E-4,0.0013034306,-0.0022290985,-0.18,0.95,-0.27,19318,10074.70,0,0,165,0.63,-2.80,0.00,-0.18,0.95,-0.27
3.493164,0.0019195126,3.0343235E-4,7.7090133E-4,-0.18,0.95,-0.27,19334,10075.70,0,0,0,0.70,-2.87,0.21,-0.18,0.95,-0.27
3.493164,9.195125E-4,-6.965697E-4,-2.2909837E-4,-0.18,0.95,-0.27,19349,10075.70,0,0,165,0.63,-2.94,0.14,-0.18,0.95,-0.27
2.493164,-8.048676E-5,-6.965697E-4,-0.0022290985,-0.18,0.95,-0.27,19356,10074.70,0,0,0,0.56,-2.94,0.00,-0.18,0.95,-0.27
2.493164,-0.0010804869,3.0343235E-4,-0.0012290984,-0.18,0.95,-0.27,19371,10074.70,0,0,165,0.49,-2.87,0.07,-0.18,0.95,-0.27
1.5927734,-0.0010804869,-6.965697E-4,-0.0022290985,-0.18,0.95,-0.27,19386,10073.80,0,0,0,0.49,-2.94,0.00,-0.18,0.95,-0.27
3.493164,-0.0020804876,-6.965697E-4,-0.0022290985,-0.19,0.95,-0.27,19394,10075.70,0,0,165,0.42,-2.94,0.00,-0.19,0.95,-0.27
2.493164,9.195125E-4,-6.965697E-4,-0.0012290984,-0.19,0.95,-0.27,19409,10074.70,0,0,0,0.63,-2.94,0.07,-0.19,0.95,-0.27
2.1933594,9.195125E-4,-0.0016965717,-0.0022290985,-0.19,0.95,-0.27,19432,10074.40,0,0,165,0.63,-3.01,0.00,-0.19,0.95,-0.27
3.493164,-8.048676E-5,-0.0016965717,-0.0022290985,-0.19,0.95,-0.27,19433,10075.70,0,0,0,0.56,-3.01,0.00,-0.19,0.95,-0.27
3.493164,0.0019195126,-6.965697E-4,-2.2909837E-4,-0.19,0.95,-0.27,19446,10075.70,0,0,165,0.70,-2.94,0.14,-0.19,0.95,-0.27
3.493164,0.0029195128,0.0013034306,-2.2909837E-4,-0.19,0.95,-0.27,19461,10075.70,0,0,0,0.77,-2.80,0.14,-0.19,0.95,-0.27
3.1933594,0.0019195126,3.0343235E-4,-0.0012290984,-0.19,0.95,-0.27,19468,10075.40,0,0,165,0.70,-2.87,0.07,-0.19,0.95,-0.27
2.493164,9.195125E-4,-6.965697E-4,-0.0012290984,-0.18,0.95,-0.27,19484,10074.70,0,0,0,0.63,-2.94,0.07,-0.18,0.95,-0.27
3.493164,9.195125E-4,3.0343235E-4,0.0017709017,-0.19,0.95,-0.27,19499,10075.70,0,0,165,0.63,-2.87,0.28,-0.19,0.95,-0.27
2.493164,-8.048676E-5,3.0343235E-4,-0.0012290984,-0.19,0.95,-0.27,19507,10074.70,0,0,0,0.56,-2.87,0.07,-0.19,0.95,-0.27
2.493164,-0.0020804876,3.0343235E-4,-2.2909837E-4,-0.19,0.95,-0.27,19521,10074.70,0,0,165,0.42,-2.87,0.14,-0.19,0.95,-0.27
2.1933594,-0.0030804873,-0.0016965717,-2.2909837E-4,-0.19,0.95,-0.27,19536,10074.40,0,0,0,0.35,-3.01,0.14,-0.19,0.95,-0.27
3.493164,-0.0010804869,0.0013034306,-0.0022290985,-0.19,0.95,-0.27,19544,10075.70,0,0,165,0.49,-2.80,0.00,-0.19,0.95,-0.27
3.493164,-0.0020804876,3.0343235E-4,-0.0012290984,-0.19,0.95,-0.27,19559,10075.70,0,0,0,0.42,-2.87,0.07,-0.19,0.95,-0.27
2.1933594,-0.0010804869,3.0343235E-4,7.7090133E-4,-0.19,0.95,-0.27,19575,10074.40,0,0,165,0.49,-2.87,0.21,-0.19,0.95,-0.27
3.493164,-0.0010804869,0.0013034306,-2.2909837E-4,-0.18,0.95,-0.27,19581,10075.70,0,0,0,0.49,-2.80,0.14,-0.18,0.95,-0.27
2.493164,9.195125E-4,-6.965697E-4,7.7090133E-4,-0.19,0.95,-0.27,19596,10074.70,0,0,165,0.63,-2.94,0.21,-0.19,0.95,-0.27
3.493164,0.0029195128,0.0013034306,-2.2909837E-4,-0.18,0.95,-0.27,19611,10075.70,0,0,0,0.77,-2.80,0.14,-0.18,0.95,-0.27
2.493164,0.0019195126,-6.965697E-4,-2.2909837E-4,-0.18,0.95,-0.27,19626,10074.70,0,0,165,0.70,-2.94,0.14,-0.18,0.95,-0.27
3.493164,9.195125E-4,3.0343235E-4,-0.0012290984,-0.18,0.95,-0.27,19633,10075.70,0,0,0,0.63,-2.87,0.07,-0.18,0.95,-0.27
1.5927734,9.195125E-4,-6.965697E-4,-0.0022290985,-0.18,0.95,-0.27,19641,10073.80,0,0,165,0.63,-2.94,0.00,-0.18,0.95,-0.27
3.493164,-8.048676E-5,-6.965697E-4,-0.0012290984,-0.18,0.95,-0.27,19656,10075.70,0,0,0,0.56,-2.94,0.07,-0.18,0.95,-0.27
4.493164,-8.048676E-5,-6.965697E-4,-2.2909837E-4,-0.19,0.95,-0.27,19671,10076.70,0,0,165,0.56,-2.94,0.14,-0.19,0.95,-0.27
3.493164,-0.0010804869,-0.0016965717,-0.0012290984,-0.18,0.95,-0.27,19679,10075.70,0,0,0,0.49,-3.01,0.07,-0.18,0.95,-0.27
3.1933594,-0.0010804869,-6.965697E-4,-0.0012290984,-0.18,0.95,-0.27,19694,10075.40,0,0,165,0.49,-2.94,0.07,-0.18,0.95,-0.27
2.1933594,-0.0010804869,-0.0016965717,-2.2909837E-4,-0.18,0.95,-0.27,19709,10074.40,0,0,0,0.49,-3.01,0.14,-0.18,0.95,-0.27
3.493164,-8.048676E-5,-0.0016965717,-0.0022290985,-0.19,0.95,-0.27,19716,10075.70,0,0,165,0.56,-3.01,0.00,-0.19,0.95,-0.27
3.493164,0.0019195126,3.0343235E-4,-0.0012290984,-0.19,0.95,-0.27,19731,10075.70,0,0,0,0.70,-2.87,0.07,-0.19,0.95,-0.27
3.493164,9.195125E-4,3.0343235E-4,-0.0012290984,-0.19,0.95,-0.27,19747,10075.70,0,0,165,0.63,-2.87,0.07,-0.19,0.95,-0.27
3.493164,9.195125E-4,-6.965697E-4,-2.2909837E-4,-0.19,0.95,-0.27,19755,10075.70,0,0,0,0.63,-2.94,0.14,-0.19,0.95,-0.27
3.1933594,0.0019195126,-6.965697E-4,-0.0022290985,-0.19,0.95,-0.27,19776,10075.40,0,0,165,0.70,-2.94,0.00,-0.19,0.95,-0.27
2.493164,9.195125E-4,3.0343235E-4,-0.0012290984,-0.19,0.95,-0.27,19792,10074.70,0,0,0,0.63,-2.87,0.07,-0.19,0.95,-0.27
2.1933594,9.195125E-4,0.0013034306,-0.0012290984,-0.19,0.95,-0.27,19793,10074.40,0,0,165,0.63,-2.80,0.07,-0.19,0.95,-0.27
2.1933594,9.195125E-4,3.0343235E-4,-2.2909837E-4,-0.18,0.95,-0.27,19808,10074.40,0,0,0,0.63,-2.87,0.14,-0.18,0.95,-0.27
3.1933594,-0.0010804869,-6.965697E-4,-0.0022290985,-0.18,0.95,-0.27,19822,10075.40,0,0,165,0.49,-2.94,0.00,-0.18,0.95,-0.27
3.1933594,-8.048676E-5,-6.965697E-4,-0.0012290984,-0.19,0.95,-0.27,19829,10075.40,0,0,0,0.56,-2.94,0.07,-0.19,0.95,-0.27
3.1933594,-0.0020804876,0.0013034306,-0.0022290985,-0.18,0.95,-0.27,19844,10075.40,0,0,165,0.42,-2.80,0.00,-0.18,0.95,-0.27
4.1933594,-8.048676E-5,0.0013034306,-2.2909837E-4,-0.19,0.95,-0.27,19859,10076.40,0,0,0,0.56,-2.80,0.14,-0.19,0.95,-0.27
3.493164,-8.048676E-5,0.0013034306,-2.2909837E-4,-0.18,0.95,-0.27,19866,10075.70,0,0,165,0.56,-2.80,0.14,-0.18,0.95,-0.27
3.493164,-0.0020804876,3.0343235E-4,-2.2909837E-4,-0.18,0.95,-0.27,19881,10075.70,0,0,0,0.42,-2.87,0.14,-0.18,0.95,-0.27
3.1933594,-8.048676E-5,0.0013034306,-0.0012290984,-0.19,0.95,-0.27,19896,10075.40,0,0,165,0.56,-2.80,0.07,-0.19,0.95,-0.27
2.493164,-8.048676E-5,3.0343235E-4,-2.2909837E-4,-0.19,0.95,-0.26,19904,10074.70,0,0,0,0.56,-2.87,0.14,-0.19,0.95,-0.26
2.493164,0.0019195126,-6.965697E-4,-0.0012290984,-0.18,0.95,-0.27,19919,10074.70,0,0,165,0.70,-2.94,0.07,-0.18,0.95,-0.27
3.1933594,0.0019195126,-6.965697E-4,-2.2909837E-4,-0.18,0.95,-0.27,19934,10075.40,0,0,0,0.70,-2.94,0.14,-0.18,0.95,-0.27
3.1933594,0.0019195126,3.0343235E-4,-0.0012290984,-0.18,0.95,-0.27,19941,10075.40,0,0,165,0.70,-2.87,0.07,-0.18,0.95,-0.27
4.1933594,9.195125E-4,-6.965697E-4,-2.2909837E-4,-0.18,0.95,-0.27,19959,10076.40,0,0,0,0.63,-2.94,0.14,-0.18,0.95,-0.27
3.493164,9.195125E-4,-6.965697E-4,-2.2909837E-4,-0.18,0.95,-0.27,19971,10075.70,0,0,165,0.63,-2.94,0.14,-0.18,0.95,-0.27
3.1933594,-0.08008049,-0.023696575,-0.0412291,-0.16,0.92,-0.28,19984,10075.40,0,0,0,-5.04,-4.55,-2.73,-0.16,0.92,-0.28
3.1933594,-0.03508049,-0.033696573,-0.018229099,-0.18,0.96,-0.27,19994,10075.40,0,0,165,-1.89,-5.25,-1.12,-0.18,0.96,-0.27
3.493164,-0.028080486,-0.012696572,-0.008229098,-0.22,0.97,-0.27,20008,10075.70,0,0,0,-1.40,-3.78,-0.42,-0.22,0.97,-0.27
2.493164,0.029919516,0.010303428,0.009770901,-0.2,0.94,-0.24,20016,10074.70,0,0,165,2.66,-2.17,0.84,-0.20,0.94,-0.24
3.1933594,0.028919514,3.0343235E-4,0.025770903,-0.17,0.92,-0.29,20031,10075.40,0,0,0,2.59,-2.87,1.96,-0.17,0.92,-0.29
3.493164,-0.042080488,-0.0016965717,-0.0322291,-0.2,0.97,-0.26,20046,10075.70,0,0,165,-2.38,-3.01,-2.10,-0.20,0.97,-0.26
2.493164,-0.028080486,0.017303431,-0.028229099,-0.22,0.91,-0.25,20053,10074.70,0,0,0,-1.40,-1.68,-1.82,-0.22,0.91,-0.25
3.493164,0.019919515,-0.0056965686,0.0077709015,-0.17,0.96,-0.27,20068,10075.70,0,0,165,1.96,-3.29,0.70,-0.17,0.96,-0.27
3.493164,-0.029080488,-0.02869657,-0.0322291,-0.2,0.92,-0.29,20083,10075.70,0,0,0,-1.47,-4.90,-2.10,-0.20,0.92,-0.29
3.493164,-0.044080485,-0.029696565,-0.008229098,-0.19,0.96,-0.25,20096,10075.70,0,0,165,-2.52,-4.97,-0.42,-0.19,0.96,-0.25
3.1933594,-0.068080485,-0.03569657,-0.035229098,-0.2,0.96,-0.26,20117,10075.40,0,0,0,-4.20,-5.39,-2.31,-0.20,0.96,-0.26
2.1933594,-0.015080487,-0.0076965727,-0.0052290983,-0.21,0.96,-0.25,20121,10074.40,0,0,165,-0.49,-3.43,-0.21,-0.21,0.96,-0.25
3.493164,0.0029195128,0.0033034272,-0.0012290984,-0.18,1.09,-0.2,20136,10075.70,0,0,0,0.77,-2.66,0.07,-0.18,1.09,-0.20
3.1933594,1.4289194,0.03330343,0.1367709,-0.21,0.79,-0.1,20144,10075.40,0,0,165,100.59,-0.56,9.73,-0.21,0.79,-0.10
2.493164,0.8589195,0.13030343,0.47077093,-0.27,1.05,-0.39,20160,10074.70,0,0,0,60.69,6.23,33.11,-0.27,1.05,-0.39
2.493164,0.9209195,0.20430343,0.4587709,-0.26,1.0,-0.36,20166,10074.70,0,0,165,65.03,11.41,32.27,-0.26,1.00,-0.36
3.1933594,0.17991951,0.17630342,0.3237709,-0.13,0.85,-0.39,20181,10075.40,0,0,0,13.16,9.45,22.82,-0.13,0.85,-0.39
2.493164,-0.31008047,0.017303431,-0.0032290984,-0.05,0.92,-0.48,20196,10074.70,0,0,165,-21.14,-1.68,-0.07,-0.05,0.92,-0.48
3.1933594,-0.7480805,-0.11969659,-0.2662291,-0.17,0.93,-0.29,20203,10075.40,0,0,0,-51.80,-11.27,-18.48,-0.17,0.93,-0.29
3.493164,-0.89908046,-0.16969658,-0.2782291,-0.21,0.98,-0.25,20218,10075.70,0,0,165,-62.37,-14.77,-19.32,-0.21,0.98,-0.25
3.493164,-0.54808044,-0.09269658,-0.16922909,-0.21,0.97,-0.21,20234,10075.70,0,0,0,-37.80,-9.38,-11.69,-0.21,0.97,-0.21
3.493164,-0.03308049,-0.034696575,-0.0342291,-0.11,0.93,-0.17,20243,10075.70,0,0,165,-1.75,-5.32,-2.24,-0.11,0.93,-0.17
3.493164,0.22191952,-0.04669657,0.0927709,-0.16,0.89,-0.25,20256,10075.70,0,0,0,16.10,-6.16,6.65,-0.16,0.89,-0.25
2.1933594,0.16391952,-0.020696573,0.0397709,-0.26,0.99,-0.34,20270,10074.40,0,0,165,12.04,-4.34,2.94,-0.26,0.99,-0.34
3.1933594,-0.054080486,-0.019696571,-0.0212291,-0.2,1.04,-0.28,20279,10075.40,0,0,0,-3.22,-4.27,-1.33,-0.20,1.04,-0.28
2.493164,-0.025080487,-0.041696567,0.008770902,-0.15,0.92,-0.26,20294,10074.70,0,0,165,-1.19,-5.81,0.77,-0.15,0.92,-0.26
3.1933594,0.059919517,-0.05369657,-0.016229099,-0.17,0.9,-0.26,20309,10075.40,0,0,0,4.76,-6.65,-0.98,-0.17,0.90,-0.26
3.493164,0.12391951,-0.012696572,0.020770902,-0.17,0.93,-0.3,20316,10075.70,0,0,165,9.24,-3.78,1.61,-0.17,0.93,-0.30
3.1933594,0.09791951,0.05130343,0.0397709,-0.14,0.97,-0.26,20332,10075.40,0,0,0,7.42,0.70,2.94,-0.14,0.97,-0.26
2.1933594,0.11191951,0.024303429,0.0217709,-0.17,0.92,-0.28,20347,10074.40,0,0,165,8.40,-1.19,1.68,-0.17,0.92,-0.28
3.1933594,0.067919515,0.02630343,0.031770904,-0.17,0.94,-0.25,20354,10075.40,0,0,0,5.32,-1.05,2.38,-0.17,0.94,-0.25
2.1933594,0.1209195,0.031303428,0.030770902,-0.17,0.92,-0.27,20369,10074.40,0,0,165,9.03,-0.70,2.31,-0.17,0.92,-0.27
2.1933594,0.2679195,0.05230343,0.12577091,-0.11,0.92,-0.24,20384,10074.40,0,0,0,19.32,0.77,8.96,-0.11,0.92,-0.24
3.1933594,0.25491953,0.03930343,0.110770896,-0.16,1.0,-0.38,20393,10075.40,0,0,165,18.41,-0.14,7.91,-0.16,1.00,-0.38
3.1933594,-0.34208047,-0.19169657,-0.3562291,-0.19,0.32,0.05,20411,10075.40,0,0,0,-23.38,-16.31,-24.78,-0.19,0.32,0.05
3.1933594,-0.27308047,-0.43269658,-0.24422911,0.04,0.95,-0.31,20421,10075.40,0,0,165,-18.55,-33.18,-16.94,0.04,0.95,-0.31
3.1933594,-0.09908049,-0.36769655,-0.2132291,-0.2,1.05,-0.41,20429,10075.40,0,0,0,-6.37,-28.63,-14.77,-0.20,1.05,-0.41
3.493164,-0.31108046,-0.31069657,-0.1162291,-0.22,1.16,-0.35,20444,10075.70,0,0,165,-21.21,-24.64,-7.98,-0.22,1.16,-0.35
3.1933594,-0.029080488,-0.2746966,0.009770901,-0.2,0.86,-0.16,20460,10075.40,0,0,0,-1.47,-22.12,0.84,-0.20,0.86,-0.16
3.493164,-0.21208048,-0.32869658,-0.1072291,-0.13,0.99,-0.24,20466,10075.70,0,0,165,-14.28,-25.90,-7.35,-0.13,0.99,-0.24
3.493164,-0.25808048,-0.32769656,-0.0612291,-0.21,0.95,-0.38,20482,10075.70,0,0,0,-17.50,-25.83,-4.13,-0.21,0.95,-0.38
3.1933594,-0.42008048,-0.3806966,-0.1802291,-0.22,0.92,-0.26,20497,10075.40,0,0,165,-28.84,-29.54,-12.46,-0.22,0.92,-0.26
3.1933594,0.08191951,-0.13469657,-0.12522909,-0.16,0.9,-0.21,20504,10075.40,0,0,0,6.30,-12.32,-8.61,-0.16,0.90,-0.21
3.493164,-0.14708048,0.04030343,-0.0692291,-0.26,0.95,-0.29,20519,10075.70,0,0,165,-9.73,-0.07,-4.69,-0.26,0.95,-0.29
2.493164,-0.20308048,-0.084696576,-0.023229098,-0.17,1.0,-0.32,20534,10074.70,0,0,0,-13.65,-8.82,-1.47,-0.17,1.00,-0.32
3.1933594,-0.3570805,-0.13169657,-0.029229099,-0.22,0.98,-0.28,20544,10075.40,0,0,165,-24.43,-12.11,-1.89,-0.22,0.98,-0.28
3.1933594,-0.40308046,-0.11869657,-0.062229097,-0.23,1.06,-0.23,20561,10075.40,0,0,0,-27.65,-11.20,-4.20,-0.23,1.06,-0.23
3.1933594,-0.46008047,-0.055696573,-0.023229098,-0.26,1.05,-0.31,20571,10075.40,0,0,165,-31.64,-6.79,-1.47,-0.26,1.05,-0.31
2.493164,-0.64908046,-0.10369657,0.025770903,-0.26,1.09,-0.24,20579,10074.70,0,0,0,-44.87,-10.15,1.96,-0.26,1.09,-0.24
3.1933594,-0.41008046,-0.16169657,0.0507709,-0.25,1.06,-0.2,20594,10075.40,0,0,165,-28.14,-14.21,3.71,-0.25,1.06,-0.20
3.493164,-0.34008047,-0.16969658,0.1307709,-0.27,1.09,-0.21,20615,10075.70,0,0,0,-23.24,-14.77,9.31,-0.27,1.09,-0.21
2.493164,-0.45108047,-0.33169657,0.15877092,-0.28,1.06,-0.26,20619,10074.70,0,0,165,-31.01,-26.11,11.27,-0.28,1.06,-0.26
3.493164,-0.83808047,-0.36569658,0.017770901,-0.3,0.99,-0.21,20631,10075.70,0,0,0,-58.10,-28.49,1.40,-0.30,0.99,-0.21
3.493164,-1.0330805,-0.31969658,0.0137709025,-0.32,1.04,-0.23,20646,10075.70,0,0,165,-71.75,-25.27,1.12,-0.32,1.04,-0.23
2.1933594,-0.9330805,-0.31069657,-0.0522291,-0.23,1.03,-0.36,20654,10074.40,0,0,0,-64.75,-24.64,-3.50,-0.23,1.03,-0.36
3.493164,-1.0280805,-0.54569656,-0.117229104,-0.25,1.0,-0.31,20669,10075.70,0,0,165,-71.40,-41.09,-8.05,-0.25,1.00,-0.31
2.493164,-1.2480805,-0.7056966,-0.2462291,-0.29,1.05,-0.19,20684,10074.70,0,0,0,-86.80,-52.29,-17.08,-0.29,1.05,-0.19
3.1933594,-1.2720805,-0.7386965,-0.24022909,-0.28,1.07,-0.12,20693,10075.40,0,0,165,-88.48,-54.60,-16.66,-0.28,1.07,-0.12
3.493164,-1.3280805,-0.7116965,-0.0972291,-0.23,1.09,-0.06,20709,10075.70,0,0,0,-92.40,-52.71,-6.65,-0.23,1.09,-0.06
3.493164,-1.3750805,-0.69769657,-2.2909837E-4,-0.28,1.1,-0.03,20721,10075.70,0,0,165,-95.69,-51.73,0.14,-0.28,1.10,-0.03
2.1933594,-1.3190805,-0.6406966,0.047770903,-0.33,1.03,-0.03,20736,10074.40,0,0,0,-91.77,-47.74,3.50,-0.33,1.03,-0.03
3.493164,-1.3850805,-0.52369654,0.0857709,-0.23,1.02,-0.05,20744,10075.70,0,0,165,-96.39,-39.55,6.16,-0.23,1.02,-0.05
2.1933594,-1.5330805,-0.5646965,0.18277091,-0.11,1.0,-0.15,20760,10074.40,0,0,0,-106.75,-42.42,12.95,-0.11,1.00,-0.15
3.1933594,-1.8590806,-0.80569655,0.077770896,-0.26,0.91,-0.08,20767,10075.40,0,0,165,-129.57,-59.29,5.60,-0.26,0.91,-0.08
2.1933594,-1.8890804,-0.8176966,-0.06722911,-0.28,0.93,0.04,20781,10074.40,0,0,0,-131.67,-60.13,-4.55,-0.28,0.93,0.04
3.1933594,-1.5160805,-0.65369654,-0.049229097,-0.18,0.9,0.04,20796,10075.40,0,0,165,-105.56,-48.65,-3.29,-0.18,0.90,0.04
4.1933594,-1.2010806,-0.4546966,0.051770903,-0.14,0.91,0.08,20804,10076.40,0,0,0,-83.51,-34.72,3.78,-0.14,0.91,0.08
3.493164,-0.98808044,-0.3576966,0.0547709,-0.24,0.87,0.07,20818,10075.70,0,0,165,-68.60,-27.93,3.99,-0.24,0.87,0.07
3.493164,-0.8930805,-0.25969657,0.009770901,-0.24,0.87,0.14,20834,10075.70,0,0,0,-61.95,-21.07,0.84,-0.24,0.87,0.14
3.493164,-0.9200805,-0.12169658,0.1127709,-0.1,0.92,0.13,20843,10075.70,0,0,165,-63.84,-11.41,8.05,-0.10,0.92,0.13
3.1933594,-1.0320805,-0.051696572,0.3067709,-0.15,1.0,0.2,20857,10075.40,0,0,0,-71.68,-6.51,21.63,-0.15,1.00,0.20
3.493164,-1.1300805,-0.05769657,0.3737709,-0.23,0.99,0.18,20871,10075.70,0,0,165,-78.54,-6.93,26.32,-0.23,0.99,0.18
2.493164,-1.1490805,-0.05769657,0.2967709,-0.25,1.0,0.2,20878,10074.70,0,0,0,-79.87,-6.93,20.93,-0.25,1.00,0.20
3.493164,-1.0920805,-0.069696575,0.2257709,-0.24,1.01,0.22,20894,10075.70,0,0,165,-75.88,-7.77,15.96,-0.24,1.01,0.22
2.1933594,-0.9500805,-0.14269657,0.24477091,-0.2,1.04,0.25,20910,10074.40,0,0,0,-65.94,-12.88,17.29,-0.20,1.04,0.25
3.1933594,-0.92108047,-0.19669656,0.2657709,-0.26,1.0,0.31,20916,10075.40,0,0,165,-63.91,-16.66,18.76,-0.26,1.00,0.31
3.1933594,-1.0580804,-0.17669658,0.38277093,-0.23,1.07,0.38,20931,10075.40,0,0,0,-73.50,-15.26,26.95,-0.23,1.07,0.38
3.1933594,-1.1670804,-0.15169658,0.46877092,-0.2,0.99,0.25,20946,10075.40,0,0,165,-81.13,-13.51,32.97,-0.20,0.99,0.25
3.1933594,-1.1970805,-0.13169657,0.37877092,-0.21,0.95,0.18,20953,10075.40,0,0,0,-83.23,-12.11,26.67,-0.21,0.95,0.18
2.493164,-1.0360805,-0.34269655,0.2667709,-0.22,0.93,0.16,20969,10074.70,0,0,165,-71.96,-26.88,18.83,-0.22,0.93,0.16
4.1933594,-0.82608044,-0.62969655,0.012770901,-0.2,0.89,0.27,20984,10076.40,0,0,0,-57.26,-46.97,1.05,-0.20,0.89,0.27
3.1933594,-0.7930805,-0.7146965,0.0387709,-0.17,0.93,0.35,20994,10075.40,0,0,165,-54.95,-52.92,2.87,-0.17,0.93,0.35
3.493164,-0.83408046,-0.73069656,0.2187709,-0.2,0.87,0.37,21011,10075.70,0,0,0,-57.82,-54.04,15.47,-0.20,0.87,0.37
3.493164,-0.81208044,-0.69469655,0.4137709,-0.16,0.89,0.45,21022,10075.70,0,0,165,-56.28,-51.52,29.12,-0.16,0.89,0.45
3.1933594,-0.79608047,-0.6906966,0.58877087,-0.2,0.94,0.44,21029,10075.40,0,0,0,-55.16,-51.24,41.37,-0.20,0.94,0.44
2.493164,-0.86108047,-0.71769655,0.6267709,-0.19,0.91,0.38,21044,10074.70,0,0,165,-59.71,-53.13,44.03,-0.19,0.91,0.38
3.1933594,-0.8290805,-0.69569653,0.5087709,-0.14,0.91,0.29,21060,10075.40,0,0,0,-57.47,-51.59,35.77,-0.14,0.91,0.29
3.1933594,-0.6890805,-0.64269656,0.3687709,-0.1,0.89,0.29,21066,10075.40,0,0,165,-47.67,-47.88,25.97,-0.10,0.89,0.29
3.1933594,-0.47208047,-0.48969653,0.2797709,-0.11,0.85,0.28,21082,10075.40,0,0,0,-32.48,-37.17,19.74,-0.11,0.85,0.28
3.493164,-0.41108048,-0.36869657,0.20877092,-0.14,0.81,0.32,21097,10075.70,0,0,165,-28.21,-28.70,14.77,-0.14,0.81,0.32
3.493164,-0.40308046,-0.2886966,0.2857709,-0.14,0.91,0.4,21104,10075.70,0,0,0,-27.65,-23.10,20.16,-0.14,0.91,0.40
3.493164,-0.3270805,-0.10969657,0.2237709,-0.18,0.95,0.41,21119,10075.70,0,0,165,-22.33,-10.57,15.82,-0.18,0.95,0.41
3.1933594,-0.35108048,-0.08769657,0.118770905,-0.15,0.96,0.37,21134,10075.40,0,0,0,-24.01,-9.03,8.47,-0.15,0.96,0.37
3.1933594,-0.3710805,-0.045696575,0.0577709,-0.11,0.98,0.39,21152,10075.40,0,0,165,-25.41,-6.09,4.20,-0.11,0.98,0.39
4.1933594,-0.3710805,-0.012696572,0.0837709,-0.11,0.99,0.36,21159,10076.40,0,0,0,-25.41,-3.78,6.02,-0.11,0.99,0.36
3.1933594,-0.37908047,-0.040696565,0.1237709,-0.11,0.95,0.36,21171,10075.40,0,0,165,-25.97,-5.74,8.82,-0.11,0.95,0.36
3.493164,-0.2750805,-0.054696564,0.0337709,-0.19,0.91,0.33,21179,10075.70,0,0,0,-18.69,-6.72,2.52,-0.19,0.91,0.33
3.1933594,-0.15208048,-0.076696575,-0.1222291,-0.27,0.86,0.39,21194,10075.40,0,0,165,-10.08,-8.26,-8.40,-0.27,0.86,0.39
3.1933594,-0.11808049,-0.08569658,-0.3012291,-0.3,0.87,0.47,21209,10075.40,0,0,0,-7.70,-8.89,-20.93,-0.30,0.87,0.47
