Pressure_Rel,GyroX_Rel,GyroY_Rel,GyroZ_Rel,AccX_Rel,AccY_Rel,AccZ_Rel,Timestamp,Pressure_abs,HeartRate,Oxygen,Status,GyroX,GyroY,GyroZ,AccX,AccY,AccZ
0.0,0.0,0.0,0.0,0.0,0.0,0.0,2370,9948.50,0,0,165,1.75,-2.80,-2.10,0.15,1.00,-0.03
0.0,0.0,0.0,0.0,0.0,0.0,0.0,2385,9947.20,0,0,0,1.75,-2.80,-1.75,0.15,1.00,-0.02
0.0,0.0,0.0,0.0,0.0,0.0,0.0,2400,9948.20,0,0,165,0.84,-2.66,-0.35,0.15,1.00,-0.02
0.0,0.0,0.0,0.0,0.0,0.0,0.0,2407,9945.00,0,0,0,0.00,-2.66,1.40,0.15,1.00,-0.02
0.0,0.0,0.0,0.0,0.0,0.0,0.0,2422,9946.90,0,0,165,-0.56,-2.45,2.52,0.15,1.00,-0.02
0.0,0.0,0.0,0.0,0.0,0.0,0.0,2438,9947.20,0,0,0,-0.35,-2.59,1.96,0.16,0.99,-0.02
0.0,0.0,0.0,0.0,0.0,0.0,0.0,2448,9946.20,0,0,165,0.35,-2.73,0.21,0.16,1.00,-0.02
0.0,0.0,0.0,0.0,0.0,0.0,0.0,2459,9948.20,0,0,0,1.68,-2.80,-1.68,0.16,1.00,-0.02
0.0,0.0,0.0,0.0,0.0,0.0,0.0,2475,9947.20,0,0,165,2.10,-2.87,-2.24,0.15,1.00,-0.02
0.0,0.0,0.0,0.0,0.0,0.0,0.0,2481,9947.20,0,0,0,1.68,-2.87,-1.75,0.15,1.00,-0.03
0.0,0.0,0.0,0.0,0.0,0.0,0.0,2497,9948.20,0,0,165,0.91,-2.80,-0.21,0.15,1.00,-0.03
0.0,0.0,0.0,0.0,0.0,0.0,0.0,2511,9946.20,0,0,0,0.00,-2.66,1.19,0.15,1.00,-0.02
0.0,0.0,0.0,0.0,0.0,0.0,0.0,2519,9948.20,0,0,165,-0.42,-2.59,1.75,0.15,1.00,-0.02
0.0,0.0,0.0,0.0,0.0,0.0,0.0,2534,9947.20,0,0,0,0.21,-2.59,1.26,0.15,0.99,-0.02
0.0,0.0,0.0,0.0,0.0,0.0,0.0,2550,9947.20,0,0,165,0.63,-2.80,0.00,0.16,0.99,-0.02
0.0,0.0,0.0,0.0,0.0,0.0,0.0,2557,9947.20,0,0,0,1.40,-2.87,-1.12,0.15,0.99,-0.02
0.0,0.0,0.0,0.0,0.0,0.0,0.0,2572,9947.20,0,0,165,1.47,-2.80,-1.19,0.15,1.00,-0.02
0.0,0.0,0.0,0.0,0.0,0.0,0.0,2586,9947.20,0,0,0,1.12,-2.73,-0.42,0.15,1.00,-0.02
0.0,0.0,0.0,0.0,0.0,0.0,0.0,2594,9947.20,0,0,165,0.28,-2.80,0.70,0.15,1.00,-0.02
0.0,0.0,0.0,0.0,0.0,0.0,0.0,2609,9946.20,0,0,0,-0.21,-2.45,1.75,0.15,1.00,-0.02
0.0,0.0,0.0,0.0,0.0,0.0,0.0,2624,9947.50,0,0,165,-0.28,-2.73,1.54,0.15,0.99,-0.02
0.0,0.0,0.0,0.0,0.0,0.0,0.0,2631,9947.20,0,0,0,0.21,-2.66,0.91,0.15,1.00,-0.02
0.0,0.0,0.0,0.0,0.0,0.0,0.0,2647,9947.20,0,0,165,0.91,-2.80,-0.35,0.15,1.00,-0.02
0.0,0.0,0.0,0.0,0.0,0.0,0.0,2662,9947.20,0,0,0,1.33,-2.94,-1.33,0.15,1.00,-0.02
0.0,0.0,0.0,0.0,0.0,0.0,0.0,2669,9947.20,0,0,165,1.54,-2.80,-1.47,0.15,1.00,-0.02
0.0,0.0,0.0,0.0,0.0,0.0,0.0,2684,9947.20,0,0,0,1.19,-2.80,-0.77,0.15,1.00,-0.03
0.0,0.0,0.0,0.0,0.0,0.0,0.0,2699,9947.20,0,0,165,0.49,-2.73,0.21,0.15,1.00,-0.03
0.0,0.0,0.0,0.0,0.0,0.0,0.0,2706,9947.20,0,0,0,0.14,-2.66,0.98,0.15,1.00,-0.02
0.0,0.0,0.0,0.0,0.0,0.0,0.0,2721,9946.20,0,0,165,0.00,-2.73,1.12,0.15,1.00,-0.02
0.0,0.0,0.0,0.0,0.0,0.0,0.0,2736,9947.20,0,0,0,0.28,-2.73,0.42,0.15,1.00,-0.02
0.0,0.0,0.0,0.0,0.0,0.0,0.0,2744,9948.20,0,0,165,1.05,-2.73,-0.28,0.16,1.00,-0.02
0.0,0.0,0.0,0.0,0.0,0.0,0.0,2758,9947.50,0,0,0,1.26,-2.73,-0.91,0.15,1.00,-0.02
0.0,0.0,0.0,0.0,0.0,0.0,0.0,2773,9948.50,0,0,165,1.33,-2.80,-0.91,0.15,1.00,-0.03
0.0,0.0,0.0,0.0,0.0,0.0,0.0,2781,9948.50,0,0,0,0.98,-2.73,-0.21,0.15,1.00,-0.03
0.0,0.0,0.0,0.0,0.0,0.0,0.0,2797,9947.50,0,0,165,0.42,-2.73,0.49,0.15,0.99,-0.03
0.0,0.0,0.0,0.0,0.0,0.0,0.0,2813,9947.20,0,0,0,0.21,-2.73,1.05,0.15,1.00,-0.02
0.0,0.0,0.0,0.0,0.0,0.0,0.0,2819,9947.20,0,0,165,0.07,-2.66,1.19,0.15,1.00,-0.02
0.0,0.0,0.0,0.0,0.0,0.0,0.0,2834,9947.50,0,0,0,0.42,-2.73,0.42,0.16,1.00,-0.02
0.0,0.0,0.0,0.0,0.0,0.0,0.0,2849,9947.20,0,0,165,0.91,-2.73,-0.21,0.15,1.00,-0.02
0.0,0.0,0.0,0.0,0.0,0.0,0.0,2856,9947.50,0,0,0,1.05,-2.73,-0.49,0.15,1.00,-0.02
0.0,0.0,0.0,0.0,0.0,0.0,0.0,2872,9947.20,0,0,165,1.12,-2.80,-0.49,0.15,1.00,-0.02
0.0,0.0,0.0,0.0,0.0,0.0,0.0,2886,9947.50,0,0,0,0.91,-2.73,-0.14,0.15,1.00,-0.02
0.0,0.0,0.0,0.0,0.0,0.0,0.0,2894,9947.50,0,0,165,0.70,-2.66,0.42,0.15,1.00,-0.02
0.0,0.0,0.0,0.0,0.0,0.0,0.0,2909,9947.20,0,0,0,0.42,-2.66,0.70,0.15,1.00,-0.02
0.0,0.0,0.0,0.0,0.0,0.0,0.0,2924,9947.50,0,0,165,0.49,-2.73,0.35,0.15,1.00,-0.03
0.0,0.0,0.0,0.0,0.0,0.0,0.0,2932,9946.60,0,0,0,0.84,-2.80,-0.21,0.16,1.00,-0.02
0.0,0.0,0.0,0.0,0.0,0.0,0.0,2947,9947.50,0,0,165,1.19,-2.73,-0.63,0.15,1.00,-0.02
0.0,0.0,0.0,0.0,0.0,0.0,0.0,2962,9947.50,0,0,0,1.19,-2.66,-0.84,0.15,1.00,-0.02
0.0,0.0,0.0,0.0,0.0,0.0,0.0,2969,9947.50,0,0,165,1.05,-2.73,-0.56,0.15,1.00,-0.02
0.0,0.0,0.0,0.0,0.0,0.0,0.0,2992,9947.50,0,0,0,0.84,-2.66,0.07,0.15,1.00,-0.02
0.0,0.0,0.0,0.0,0.0,0.0,0.0,2999,9947.90,0,0,165,0.49,-2.73,0.56,0.15,1.00,-0.02
0.0,0.0,0.0,0.0,0.0,0.0,0.0,3007,9947.50,0,0,0,0.28,-2.66,0.70,0.15,1.00,-0.02
0.0,0.0,0.0,0.0,0.0,0.0,0.0,3022,9947.50,0,0,165,0.49,-2.73,0.49,0.15,1.00,-0.03
0.0,0.0,0.0,0.0,0.0,0.0,0.0,3036,9947.50,0,0,0,0.49,-2.80,0.14,0.15,1.00,-0.02
0.0,0.0,0.0,0.0,0.0,0.0,0.0,3046,9947.50,0,0,165,0.70,-2.94,-0.28,0.15,1.00,-0.02
0.0,0.0,0.0,0.0,0.0,0.0,0.0,3058,9947.50,0,0,0,0.98,-2.73,-0.35,0.15,1.00,-0.02
0.0,0.0,0.0,0.0,0.0,0.0,0.0,3074,9947.50,0,0,165,0.77,-2.73,-0.14,0.15,1.00,-0.03
0.0,0.0,0.0,0.0,0.0,0.0,0.0,3082,9947.50,0,0,0,0.63,-2.73,0.21,0.15,1.00,-0.02
0.0,0.0,0.0,0.0,0.0,0.0,0.0,3096,9946.60,0,0,165,0.42,-2.66,0.56,0.15,1.00,-0.02
0.0,0.0,0.0,0.0,0.0,0.0,0.0,3111,9947.20,0,0,0,0.56,-2.73,0.49,0.15,1.00,-0.02
0.0,0.0,0.0,0.0,0.0,0.0,0.0,3119,9947.90,0,0,165,0.63,-2.73,0.42,0.15,1.00,-0.02
0.0,0.0,0.0,0.0,0.0,0.0,0.0,3134,9946.60,0,0,0,0.84,-2.73,-0.07,0.15,1.00,-0.02
0.0,0.0,0.0,0.0,0.0,0.0,0.0,3148,9948.80,0,0,165,0.91,-2.73,-0.42,0.15,1.00,-0.02
0.0,0.0,0.0,0.0,0.0,0.0,0.0,3157,9946.60,0,0,0,0.98,-2.80,-0.42,0.15,1.00,-0.03
0.0,0.0,0.0,0.0,0.0,0.0,0.0,3172,9947.20,0,0,165,0.84,-2.73,-0.21,0.15,1.00,-0.02
0.0,0.0,0.0,0.0,0.0,0.0,0.0,3187,9947.50,0,0,0,0.70,-2.66,0.07,0.15,1.00,-0.03
0.0,0.0,0.0,0.0,0.0,0.0,0.0,3193,9947.20,0,0,165,0.63,-2.73,0.21,0.15,1.00,-0.02
0.0,0.0,0.0,0.0,0.0,0.0,0.0,3208,9947.90,0,0,0,0.56,-2.80,0.28,0.15,1.00,-0.02
0.0,0.0,0.0,0.0,0.0,0.0,0.0,3224,9946.60,0,0,165,0.63,-2.73,0.14,0.16,1.00,-0.02
0.0,0.0,0.0,0.0,0.0,0.0,0.0,3231,9947.50,0,0,0,0.77,-2.80,-0.21,0.15,1.00,-0.02
0.0,0.0,0.0,0.0,0.0,0.0,0.0,3247,9947.50,0,0,165,0.91,-2.94,-0.42,0.15,1.00,-0.02
0.0,0.0,0.0,0.0,0.0,0.0,0.0,3262,9946.60,0,0,0,0.91,-2.73,-0.28,0.15,1.00,-0.03
0.0,0.0,0.0,0.0,0.0,0.0,0.0,3269,9947.50,0,0,165,0.98,-2.66,-0.14,0.15,1.00,-0.03
0.0,0.0,0.0,0.0,0.0,0.0,0.0,3284,9947.50,0,0,0,0.77,-2.73,0.14,0.15,1.00,-0.03
0.0,0.0,0.0,0.0,0.0,0.0,0.0,3299,9947.50,0,0,165,0.49,-2.73,0.42,0.15,1.00,-0.02
0.0,0.0,0.0,0.0,0.0,0.0,0.0,3306,9947.50,0,0,0,0.49,-2.66,0.63,0.15,1.00,-0.02
0.0,0.0,0.0,0.0,0.0,0.0,0.0,3321,9948.50,0,0,165,0.49,-2.59,0.56,0.15,1.00,-0.02
0.0,0.0,0.0,0.0,0.0,0.0,0.0,3337,9946.60,0,0,0,0.56,-2.66,0.28,0.15,1.00,-0.02
0.0,0.0,0.0,0.0,0.0,0.0,0.0,3344,9946.60,0,0,165,0.91,-2.73,-0.14,0.15,1.00,-0.02
0.0,0.0,0.0,0.0,0.0,0.0,0.0,3359,9946.60,0,0,0,0.98,-2.80,-0.42,0.15,1.00,-0.02
0.0,0.0,0.0,0.0,0.0,0.0,0.0,3374,9947.90,0,0,165,0.98,-2.80,-0.35,0.15,1.00,-0.03
0.0,0.0,0.0,0.0,0.0,0.0,0.0,3382,9947.50,0,0,0,0.77,-2.73,-0.14,0.15,1.00,-0.03
0.0,0.0,0.0,0.0,0.0,0.0,0.0,3396,9947.90,0,0,165,0.70,-2.66,0.21,0.15,1.00,-0.02
0.0,0.0,0.0,0.0,0.0,0.0,0.0,3412,9947.20,0,0,0,0.42,-2.73,0.49,0.15,1.00,-0.02
0.0,0.0,0.0,0.0,0.0,0.0,0.0,3419,9947.90,0,0,165,0.56,-2.66,0.42,0.16,1.00,-0.03
0.0,0.0,0.0,0.0,0.0,0.0,0.0,3434,9947.50,0,0,0,0.70,-2.73,0.14,0.15,1.00,-0.03
0.0,0.0,0.0,0.0,0.0,0.0,0.0,3450,9947.20,0,0,165,1.05,-2.73,-0.42,0.15,0.99,-0.02
0.0,0.0,0.0,0.0,0.0,0.0,0.0,3457,9947.50,0,0,0,1.05,-2.73,-0.56,0.15,1.00,-0.02
0.0,0.0,0.0,0.0,0.0,0.0,0.0,3472,9946.60,0,0,165,1.05,-2.80,-0.42,0.15,1.00,-0.02
0.0,0.0,0.0,0.0,0.0,0.0,0.0,3488,9947.50,0,0,0,0.63,-2.73,0.00,0.15,1.00,-0.02
0.0,0.0,0.0,0.0,0.0,0.0,0.0,3500,9947.50,0,0,165,0.42,-2.80,0.70,0.15,0.99,-0.02
0.0,0.0,0.0,0.0,0.0,0.0,0.0,3515,9946.60,0,0,0,0.35,-2.73,0.77,0.16,1.00,-0.02
0.0,0.0,0.0,0.0,0.0,0.0,0.0,3538,9947.50,0,0,165,0.70,-2.66,0.35,0.15,1.00,-0.03
0.0,0.0,0.0,0.0,0.0,0.0,0.0,3539,9947.50,0,0,0,0.77,-2.80,-0.28,0.15,1.00,-0.02
0.0,0.0,0.0,0.0,0.0,0.0,0.0,3549,9946.90,0,0,165,0.98,-2.80,-0.56,0.15,1.00,-0.03
0.0,0.0,0.0,0.0,0.0,0.0,0.0,3573,9946.90,0,0,0,1.05,-2.87,-0.56,0.15,1.00,-0.02
0.0,0.0,0.0,0.0,0.0,0.0,0.0,3574,9946.60,0,0,165,0.84,-2.66,-0.07,0.15,1.00,-0.02
0.0,0.0,0.0,0.0,0.0,0.0,0.0,3584,9946.60,0,0,0,0.56,-2.66,0.56,0.15,1.00,-0.03
0.0,0.0,0.0,0.0,0.0,0.0,0.0,3599,9946.90,0,0,165,0.35,-2.73,0.84,0.15,1.00,-0.02
0.0,0.0,0.0,0.0,0.0,0.0,0.0,3606,9947.50,0,0,0,0.42,-2.73,0.84,0.15,1.00,-0.02
0.0,0.0,0.0,0.0,0.0,0.0,0.0,3624,9947.90,0,0,165,0.49,-2.80,0.21,0.15,1.00,-0.02
0.0,0.0,0.0,0.0,0.0,0.0,0.0,3642,9946.90,0,0,0,0.84,-2.80,-0.21,0.15,1.00,-0.02
0.0,0.0,0.0,0.0,0.0,0.0,0.0,3644,9946.90,0,0,165,1.05,-2.73,-0.77,0.15,1.00,-0.02
0.0,0.0,0.0,0.0,0.0,0.0,0.0,3659,9946.60,0,0,0,1.05,-2.80,-0.63,0.15,1.00,-0.03
0.0,0.0,0.0,0.0,0.0,0.0,0.0,3674,9946.90,0,0,165,0.91,-2.66,-0.35,0.15,1.00,-0.03
0.0,0.0,0.0,0.0,0.0,0.0,0.0,3682,9947.90,0,0,0,0.56,-2.73,0.28,0.15,1.00,-0.02
0.0,0.0,0.0,0.0,0.0,0.0,0.0,3697,9946.90,0,0,165,0.35,-2.80,0.56,0.15,1.00,-0.02
0.0,0.0,0.0,0.0,0.0,0.0,0.0,3712,9947.90,0,0,0,0.42,-2.66,0.56,0.15,1.00,-0.02
0.0,0.0,0.0,0.0,0.0,0.0,0.0,3720,9947.20,0,0,165,0.56,-2.66,0.28,0.15,1.00,-0.02
0.0,0.0,0.0,0.0,0.0,0.0,0.0,3734,9949.10,0,0,0,0.91,-2.73,-0.42,0.15,1.00,-0.02
0.0,0.0,0.0,0.0,0.0,0.0,0.0,3749,9946.90,0,0,165,1.05,-2.80,-0.56,0.15,1.00,-0.03
0.0,0.0,0.0,0.0,0.0,0.0,0.0,3760,9947.90,0,0,0,0.98,-2.87,-0.49,0.15,1.00,-0.03
0.0,0.0,0.0,0.0,0.0,0.0,0.0,3772,9947.20,0,0,165,0.77,-2.80,0.07,0.15,0.99,-0.03
-0.3076172,0.0036558462,-8.229166E-4,-0.0036496245,0.15,1.0,-0.03,13799,9947.30,0,0,0,0.98,-2.80,-0.14,0.15,1.00,-0.03
-0.3076172,-3.4415442E-4,-8.229166E-4,0.0013503752,0.15,1.0,-0.03,13814,9947.30,0,0,165,0.70,-2.80,0.21,0.15,1.00,-0.03
-0.3076172,-0.0043441546,0.00117708,0.0053503755,0.15,1.0,-0.02,13850,9947.30,0,0,0,0.42,-2.66,0.49,0.15,1.00,-0.02
-0.6074219,-0.0043441546,-8.229166E-4,0.0063503757,0.16,1.0,-0.02,13851,9947.00,0,0,165,0.42,-2.80,0.56,0.16,1.00,-0.02
-0.3076172,-0.0023441538,-8.229166E-4,0.0023503755,0.15,1.0,-0.02,13852,9947.30,0,0,0,0.56,-2.80,0.28,0.15,1.00,-0.02
-0.3076172,-3.4415442E-4,-8.229166E-4,-0.0026496246,0.15,1.0,-0.02,13859,9947.30,0,0,165,0.70,-2.80,-0.07,0.15,1.00,-0.02
0.29296875,0.0046558455,-8.229166E-4,-0.008649625,0.15,1.0,-0.02,13874,9947.90,0,0,0,1.05,-2.80,-0.49,0.15,1.00,-0.02
-0.3076172,0.0046558455,-8.229166E-4,-0.008649625,0.15,1.0,-0.03,13888,9947.30,0,0,165,1.05,-2.80,-0.49,0.15,1.00,-0.03
0.6923828,0.002655846,1.7708167E-4,-0.004649624,0.15,1.0,-0.02,13897,9948.30,0,0,0,0.91,-2.73,-0.21,0.15,1.00,-0.02
0.6923828,-0.0013441546,-8.229166E-4,0.0013503752,0.15,1.0,-0.02,13911,9948.30,0,0,165,0.63,-2.80,0.21,0.15,1.00,-0.02
1.5927734,-0.0043441546,0.00117708,0.0063503757,0.15,1.0,-0.02,13926,9949.20,0,0,0,0.42,-2.66,0.56,0.15,1.00,-0.02
0.6923828,-0.0043441546,1.7708167E-4,0.0053503755,0.15,1.0,-0.03,13936,9948.30,0,0,165,0.42,-2.73,0.49,0.15,1.00,-0.03
0.6923828,-3.4415442E-4,1.7708167E-4,3.5037554E-4,0.15,1.0,-0.02,13948,9948.30,0,0,0,0.70,-2.73,0.14,0.15,1.00,-0.02
0.6923828,0.0036558462,1.7708167E-4,-0.005649625,0.15,1.0,-0.02,13964,9948.30,0,0,165,0.98,-2.73,-0.28,0.15,1.00,-0.02
0.6923828,0.0046558455,-8.229166E-4,-0.009649625,0.15,1.0,-0.02,13971,9948.30,0,0,0,1.05,-2.80,-0.56,0.15,1.00,-0.02
-0.0078125,0.002655846,0.00117708,-0.0066496246,0.15,1.0,-0.02,13986,9947.60,0,0,165,0.91,-2.66,-0.35,0.15,1.00,-0.02
-0.3076172,-0.0013441546,-8.229166E-4,0.0013503752,0.16,1.0,-0.02,14001,9947.30,0,0,0,0.63,-2.80,0.21,0.16,1.00,-0.02
0.6923828,-0.0043441546,0.00117708,0.008350375,0.15,1.0,-0.02,14009,9948.30,0,0,165,0.42,-2.66,0.70,0.15,1.00,-0.02
0.6923828,-0.0043441546,1.7708167E-4,0.0063503757,0.15,1.0,-0.02,14025,9948.30,0,0,0,0.42,-2.73,0.56,0.15,1.00,-0.02
-0.3076172,-0.0023441538,1.7708167E-4,0.0013503752,0.15,1.0,-0.02,14040,9947.30,0,0,165,0.56,-2.73,0.21,0.15,1.00,-0.02
-0.3076172,0.001655845,-8.229166E-4,-0.0036496245,0.16,1.0,-0.02,14050,9947.30,0,0,0,0.84,-2.80,-0.14,0.16,1.00,-0.02
-0.3076172,0.0046558455,-8.229166E-4,-0.008649625,0.15,1.0,-0.02,14064,9947.30,0,0,165,1.05,-2.80,-0.49,0.15,1.00,-0.02
0.39257812,0.0036558462,1.7708167E-4,-0.0076496243,0.15,1.0,-0.02,14076,9948.00,0,0,0,0.98,-2.73,-0.42,0.15,1.00,-0.02
-0.3076172,0.001655845,1.7708167E-4,-0.0036496245,0.15,1.0,-0.02,14083,9947.30,0,0,165,0.84,-2.73,-0.14,0.15,1.00,-0.02
-0.3076172,-0.0023441538,1.7708167E-4,0.0023503755,0.15,1.0,-0.02,14099,9947.30,0,0,0,0.56,-2.73,0.28,0.15,1.00,-0.02
0.6923828,-0.003344154,1.7708167E-4,0.0063503757,0.15,1.0,-0.02,14114,9948.30,0,0,165,0.49,-2.73,0.56,0.15,1.00,-0.02
-0.3076172,-0.0023441538,0.002177082,0.007350375,0.15,1.0,-0.02,14123,9947.30,0,0,0,0.56,-2.59,0.63,0.15,1.00,-0.02
-0.3076172,-3.4415442E-4,0.00117708,-6.496245E-4,0.15,1.0,-0.03,14136,9947.30,0,0,165,0.70,-2.66,0.07,0.15,1.00,-0.03
-0.3076172,0.0046558455,1.7708167E-4,-0.0076496243,0.15,1.0,-0.03,14151,9947.30,0,0,0,1.05,-2.73,-0.42,0.15,1.00,-0.03
0.6923828,0.0056558466,-8.229166E-4,-0.009649625,0.15,1.0,-0.02,14158,9948.30,0,0,165,1.12,-2.80,-0.56,0.15,1.00,-0.02
0.6923828,0.002655846,1.7708167E-4,-0.005649625,0.15,1.0,-0.03,14173,9948.30,0,0,0,0.91,-2.73,-0.28,0.15,1.00,-0.03
-0.3076172,-0.0013441546,1.7708167E-4,-0.0016496246,0.15,1.0,-0.02,14189,9947.30,0,0,165,0.63,-2.73,0.00,0.15,1.00,-0.02
0.6923828,-0.0053441543,0.00117708,0.004350375,0.15,1.0,-0.02,14203,9948.30,0,0,0,0.35,-2.66,0.42,0.15,1.00,-0.02
-0.3076172,-0.003344154,1.7708167E-4,0.0063503757,0.15,1.0,-0.02,14211,9947.30,0,0,165,0.49,-2.73,0.56,0.15,1.00,-0.02
-1.6074219,-0.0013441546,1.7708167E-4,0.0023503755,0.15,1.0,-0.02,14226,9946.00,0,0,0,0.63,-2.73,0.28,0.15,1.00,-0.02
0.6923828,0.001655845,-8.229166E-4,-0.0036496245,0.15,1.0,-0.02,14233,9948.30,0,0,165,0.84,-2.80,-0.14,0.15,1.00,-0.02
0.9921875,0.002655846,-8.229166E-4,-0.0076496243,0.15,1.0,-0.02,14248,9948.60,0,0,0,0.91,-2.80,-0.42,0.15,1.00,-0.02
0.6923828,0.0046558455,0.00117708,-0.0066496246,0.15,1.0,-0.03,14265,9948.30,0,0,165,1.05,-2.66,-0.35,0.15,1.00,-0.03
0.6923828,6.5584574E-4,-8.229166E-4,-0.0026496246,0.15,1.0,-0.03,14271,9948.30,0,0,0,0.77,-2.80,-0.07,0.15,1.00,-0.03
0.9921875,-0.003344154,0.00117708,0.0033503752,0.15,1.0,-0.03,14286,9948.60,0,0,165,0.49,-2.66,0.35,0.15,1.00,-0.03
0.9921875,-0.0053441543,1.7708167E-4,0.007350375,0.15,1.0,-0.02,14301,9948.60,0,0,0,0.35,-2.73,0.63,0.15,1.00,-0.02
0.9921875,-0.003344154,0.002177082,0.0063503757,0.15,0.99,-0.02,14308,9948.60,0,0,165,0.49,-2.59,0.56,0.15,0.99,-0.02
0.9921875,-3.4415442E-4,1.7708167E-4,-6.496245E-4,0.16,1.0,-0.02,14323,9948.60,0,0,0,0.70,-2.73,0.07,0.16,1.00,-0.02
0.6923828,0.0036558462,1.7708167E-4,-0.005649625,0.15,1.0,-0.02,14339,9948.30,0,0,165,0.98,-2.73,-0.28,0.15,1.00,-0.02
-0.3076172,0.0046558455,-8.229166E-4,-0.008649625,0.15,1.0,-0.02,14346,9947.30,0,0,0,1.05,-2.80,-0.49,0.15,1.00,-0.02
0.9921875,0.0036558462,1.7708167E-4,-0.0076496243,0.15,1.0,-0.03,14361,9948.60,0,0,165,0.98,-2.73,-0.42,0.15,1.00,-0.03
0.6923828,-0.0023441538,1.7708167E-4,-0.0016496246,0.15,1.0,-0.02,14376,9948.30,0,0,0,0.56,-2.73,0.00,0.15,1.00,-0.02
0.9921875,-0.0023441538,1.7708167E-4,0.0053503755,0.15,1.0,-0.03,14384,9948.60,0,0,165,0.56,-2.73,0.49,0.15,1.00,-0.03
-1.3076172,-0.0023441538,1.7708167E-4,0.0053503755,0.15,1.0,-0.03,14398,9946.30,0,0,0,0.56,-2.73,0.49,0.15,1.00,-0.03
-0.0078125,-3.4415442E-4,0.00117708,0.0033503752,0.15,1.0,-0.02,14414,9947.60,0,0,165,0.70,-2.66,0.35,0.15,1.00,-0.02
0.6923828,-3.4415442E-4,1.7708167E-4,-0.0016496246,0.15,1.0,-0.02,14421,9948.30,0,0,0,0.70,-2.73,0.00,0.15,1.00,-0.02
-0.3076172,0.002655846,0.00117708,-0.004649624,0.15,1.0,-0.02,14436,9947.30,0,0,165,0.91,-2.66,-0.21,0.15,1.00,-0.02
0.9921875,0.0036558462,1.7708167E-4,-0.005649625,0.15,1.0,-0.02,14451,9948.60,0,0,0,0.98,-2.73,-0.28,0.15,1.00,-0.02
-0.0078125,0.001655845,1.7708167E-4,-0.0026496246,0.15,1.0,-0.03,14459,9947.60,0,0,165,0.84,-2.73,-0.07,0.15,1.00,-0.03
-0.3076172,-0.0013441546,0.00117708,3.5037554E-4,0.15,1.0,-0.03,14473,9947.30,0,0,0,0.63,-2.66,0.14,0.15,1.00,-0.03
-0.0078125,-0.0023441538,0.00117708,0.004350375,0.15,1.0,-0.03,14488,9947.60,0,0,165,0.56,-2.66,0.42,0.15,1.00,-0.03
0.9921875,-0.0023441538,0.00117708,0.004350375,0.15,1.0,-0.02,14496,9948.60,0,0,0,0.56,-2.66,0.42,0.15,1.00,-0.02
-1.3076172,-0.0013441546,1.7708167E-4,0.0013503752,0.15,1.0,-0.02,14511,9946.30,0,0,165,0.63,-2.73,0.21,0.15,1.00,-0.02
0.9921875,6.5584574E-4,-8.229166E-4,-0.0016496246,0.15,1.0,-0.02,14526,9948.60,0,0,0,0.77,-2.80,0.00,0.15,1.00,-0.02
-0.3076172,0.002655846,0.00117708,-0.005649625,0.15,1.0,-0.03,14534,9947.30,0,0,165,0.91,-2.66,-0.28,0.15,1.00,-0.03
-0.3076172,0.0036558462,0.00117708,-0.004649624,0.15,1.0,-0.03,14549,9947.30,0,0,0,0.98,-2.66,-0.21,0.15,1.00,-0.03
-0.0078125,6.5584574E-4,0.00117708,-6.496245E-4,0.15,1.0,-0.02,14564,9947.60,0,0,165,0.77,-2.66,0.07,0.15,1.00,-0.02
0.9921875,-0.0023441538,-8.229166E-4,3.5037554E-4,0.15,1.0,-0.02,14571,9948.60,0,0,0,0.56,-2.80,0.14,0.15,1.00,-0.02
0.9921875,-0.0023441538,0.00117708,0.004350375,0.15,1.0,-0.02,14586,9948.60,0,0,165,0.56,-2.66,0.42,0.15,1.00,-0.02
-0.0078125,-0.0013441546,1.7708167E-4,0.004350375,0.15,1.0,-0.02,14601,9947.60,0,0,0,0.63,-2.73,0.42,0.15,1.00,-0.02
-0.90722656,-3.4415442E-4,1.7708167E-4,3.5037554E-4,0.15,1.0,-0.02,14608,9946.70,0,0,165,0.70,-2.73,0.14,0.15,1.00,-0.02
-0.90722656,0.0036558462,0.00117708,-0.004649624,0.15,1.0,-0.02,14623,9946.70,0,0,0,0.98,-2.66,-0.21,0.15,1.00,-0.02
-0.0078125,0.001655845,-8.229166E-4,-0.0066496246,0.15,1.0,-0.03,14638,9947.60,0,0,165,0.84,-2.80,-0.35,0.15,1.00,-0.03
-0.0078125,0.0036558462,-8.229166E-4,-0.0076496243,0.15,1.0,-0.02,14646,9947.60,0,0,0,0.98,-2.80,-0.42,0.15,1.00,-0.02
0.6923828,-3.4415442E-4,0.00117708,-6.496245E-4,0.15,1.0,-0.02,14661,9948.30,0,0,165,0.70,-2.66,0.07,0.15,1.00,-0.02
-0.0078125,-0.0013441546,-8.229166E-4,0.0023503755,0.15,1.0,-0.02,14675,9947.60,0,0,0,0.63,-2.80,0.28,0.15,1.00,-0.02
-0.0078125,-0.003344154,0.00117708,0.004350375,0.15,1.0,-0.03,14684,9947.60,0,0,165,0.49,-2.66,0.42,0.15,1.00,-0.03
1.2929688,-0.003344154,1.7708167E-4,0.0023503755,0.15,1.0,-0.02,14699,9948.90,0,0,0,0.49,-2.73,0.28,0.15,1.00,-0.02
-0.0078125,-0.0023441538,1.7708167E-4,3.5037554E-4,0.15,1.0,-0.02,14714,9947.60,0,0,165,0.56,-2.73,0.14,0.15,1.00,-0.02
0.9921875,6.5584574E-4,-8.229166E-4,-0.0036496245,0.15,1.0,-0.02,14721,9948.60,0,0,0,0.77,-2.80,-0.14,0.15,1.00,-0.02
0.9921875,0.001655845,-8.229166E-4,-0.004649624,0.15,1.0,-0.03,14736,9948.60,0,0,165,0.84,-2.80,-0.21,0.15,1.00,-0.03
-0.0078125,6.5584574E-4,1.7708167E-4,-0.0016496246,0.15,1.0,-0.02,14751,9947.60,0,0,0,0.77,-2.73,0.00,0.15,1.00,-0.02
-0.0078125,6.5584574E-4,1.7708167E-4,0.0013503752,0.15,1.0,-0.03,14758,9947.60,0,0,165,0.77,-2.73,0.21,0.15,1.00,-0.03
-0.3076172,-0.0023441538,1.7708167E-4,0.0023503755,0.15,1.0,-0.03,14773,9947.30,0,0,0,0.56,-2.73,0.28,0.15,1.00,-0.03
-0.0078125,-3.4415442E-4,1.7708167E-4,0.0013503752,0.15,1.0,-0.02,14795,9947.60,0,0,165,0.70,-2.73,0.21,0.15,1.00,-0.02
-0.0078125,-3.4415442E-4,-8.229166E-4,3.5037554E-4,0.15,1.0,-0.02,14797,9947.60,0,0,0,0.70,-2.80,0.14,0.15,1.00,-0.02
-0.0078125,0.002655846,1.7708167E-4,-0.0026496246,0.15,1.0,-0.02,14812,9947.60,0,0,165,0.91,-2.73,-0.07,0.15,1.00,-0.02
-0.0078125,0.002655846,-8.229166E-4,-0.004649624,0.15,1.0,-0.02,14826,9947.60,0,0,0,0.91,-2.80,-0.21,0.15,1.00,-0.02
-0.0078125,0.001655845,-8.229166E-4,-0.0026496246,0.15,1.0,-0.02,14834,9947.60,0,0,165,0.84,-2.80,-0.07,0.15,1.00,-0.02
-0.3076172,-0.0013441546,-8.229166E-4,-0.0016496246,0.15,1.0,-0.02,14848,9947.30,0,0,0,0.63,-2.80,0.00,0.15,1.00,-0.02
-0.0078125,-3.4415442E-4,0.00117708,0.0013503752,0.15,1.0,-0.02,14863,9947.60,0,0,165,0.70,-2.66,0.21,0.15,1.00,-0.02
-0.0078125,-0.0013441546,1.7708167E-4,0.0023503755,0.15,1.0,-0.03,14871,9947.60,0,0,0,0.63,-2.73,0.28,0.15,1.00,-0.03
-0.0078125,-0.0013441546,1.7708167E-4,3.5037554E-4,0.16,1.0,-0.02,14886,9947.60,0,0,165,0.63,-2.73,0.14,0.16,1.00,-0.02
-0.90722656,-0.0013441546,1.7708167E-4,3.5037554E-4,0.15,1.0,-0.02,14902,9946.70,0,0,0,0.63,-2.73,0.14,0.15,1.00,-0.02
0.9921875,6.5584574E-4,-8.229166E-4,-0.0026496246,0.15,1.0,-0.02,14909,9948.60,0,0,165,0.77,-2.80,-0.07,0.15,1.00,-0.02
-0.0078125,0.001655845,-8.229166E-4,-0.004649624,0.15,1.0,-0.02,14924,9947.60,0,0,0,0.84,-2.80,-0.21,0.15,1.00,-0.02
-0.0078125,6.5584574E-4,-8.229166E-4,-0.0036496245,0.15,1.0,-0.02,14939,9947.60,0,0,165,0.77,-2.80,-0.14,0.15,1.00,-0.02
1.2929688,6.5584574E-4,1.7708167E-4,-6.496245E-4,0.15,1.0,-0.02,14946,9948.90,0,0,0,0.77,-2.73,0.07,0.15,1.00,-0.02
-0.0078125,-0.0023441538,1.7708167E-4,3.5037554E-4,0.15,1.0,-0.03,14961,9947.60,0,0,165,0.56,-2.73,0.14,0.15,1.00,-0.03
-0.0078125,-3.4415442E-4,-8.229166E-4,3.5037554E-4,0.15,1.0,-0.02,14975,9947.60,0,0,0,0.70,-2.80,0.14,0.15,1.00,-0.02
-0.0078125,-0.0013441546,0.00117708,0.0013503752,0.15,1.0,-0.02,14984,9947.60,0,0,165,0.63,-2.66,0.21,0.15,1.00,-0.02
-0.0078125,-3.4415442E-4,1.7708167E-4,-0.0016496246,0.15,1.0,-0.02,15002,9947.60,0,0,0,0.70,-2.73,0.00,0.15,1.00,-0.02
-0.0078125,-3.4415442E-4,-8.229166E-4,-0.0026496246,0.15,1.0,-0.03,15015,9947.60,0,0,165,0.70,-2.80,-0.07,0.15,1.00,-0.03
-0.3076172,0.001655845,1.7708167E-4,-0.0016496246,0.15,1.0,-0.02,15021,9947.30,0,0,0,0.84,-2.73,0.00,0.15,1.00,-0.02
-0.0078125,0.001655845,0.00117708,-6.496245E-4,0.16,1.0,-0.03,15037,9947.60,0,0,165,0.84,-2.66,0.07,0.16,1.00,-0.03
0.9921875,0.001655845,1.7708167E-4,-0.0026496246,0.15,1.0,-0.03,15051,9948.60,0,0,0,0.84,-2.73,-0.07,0.15,1.00,-0.03
0.9921875,-0.0013441546,1.7708167E-4,-0.0016496246,0.15,1.0,-0.02,15059,9948.60,0,0,165,0.63,-2.73,0.00,0.15,1.00,-0.02
-0.0078125,-0.0023441538,-8.229166E-4,0.0013503752,0.15,1.0,-0.02,15074,9947.60,0,0,0,0.56,-2.80,0.21,0.15,1.00,-0.02
-0.0078125,-0.0013441546,1.7708167E-4,0.0013503752,0.15,1.0,-0.02,15105,9947.60,0,0,165,0.63,-2.73,0.21,0.15,1.00,-0.02
0.9921875,-3.4415442E-4,0.00117708,-0.0016496246,0.15,1.0,-0.02,15106,9948.60,0,0,0,0.70,-2.66,0.00,0.15,1.00,-0.02
-0.0078125,6.5584574E-4,1.7708167E-4,-0.0026496246,0.15,1.0,-0.02,15121,9947.60,0,0,165,0.77,-2.73,-0.07,0.15,1.00,-0.02
-0.0078125,6.5584574E-4,-8.229166E-4,-0.0026496246,0.15,1.0,-0.02,15126,9947.60,0,0,0,0.77,-2.80,-0.07,0.15,1.00,-0.02
0.9921875,6.5584574E-4,1.7708167E-4,-0.0016496246,0.15,1.0,-0.03,15133,9948.60,0,0,165,0.77,-2.73,0.00,0.15,1.00,-0.03
-0.90722656,-3.4415442E-4,0.00117708,-6.496245E-4,0.15,1.0,-0.02,15149,9946.70,0,0,0,0.70,-2.66,0.07,0.15,1.00,-0.02
-0.0078125,-0.0013441546,1.7708167E-4,3.5037554E-4,0.15,1.0,-0.03,15164,9947.60,0,0,165,0.63,-2.73,0.14,0.15,1.00,-0.03
-0.90722656,-0.0013441546,1.7708167E-4,0.0023503755,0.15,1.0,-0.02,15171,9946.70,0,0,0,0.63,-2.73,0.28,0.15,1.00,-0.02
-0.0078125,-3.4415442E-4,0.002177082,3.5037554E-4,0.15,1.0,-0.02,15186,9947.60,0,0,165,0.70,-2.59,0.14,0.15,1.00,-0.02
-0.90722656,6.5584574E-4,0.00117708,-0.0016496246,0.15,1.0,-0.02,15201,9946.70,0,0,0,0.77,-2.66,0.00,0.15,1.00,-0.02
-0.0078125,-3.4415442E-4,-8.229166E-4,-0.004649624,0.15,1.0,-0.02,15208,9947.60,0,0,165,0.70,-2.80,-0.21,0.15,1.00,-0.02
0.9921875,6.5584574E-4,-8.229166E-4,-0.0026496246,0.15,1.0,-0.02,15224,9948.60,0,0,0,0.77,-2.80,-0.07,0.15,1.00,-0.02
-0.0078125,6.5584574E-4,-8.229166E-4,-0.0026496246,0.15,1.0,-0.03,15239,9947.60,0,0,165,0.77,-2.80,-0.07,0.15,1.00,-0.03
-0.0078125,-3.4415442E-4,1.7708167E-4,-6.496245E-4,0.15,1.0,-0.02,15247,9947.60,0,0,0,0.70,-2.73,0.07,0.15,1.00,-0.02
-0.0078125,-0.0013441546,1.7708167E-4,3.5037554E-4,0.15,1.0,-0.03,15261,9947.60,0,0,165,0.63,-2.73,0.14,0.15,1.00,-0.03
-0.0078125,-0.0023441538,-8.229166E-4,0.0013503752,0.15,1.0,-0.03,15276,9947.60,0,0,0,0.56,-2.80,0.21,0.15,1.00,-0.03
-0.0078125,-0.0013441546,-0.0018229149,-0.0016496246,0.15,1.0,-0.02,15283,9947.60,0,0,165,0.63,-2.87,0.00,0.15,1.00,-0.02
0.9921875,0.001655845,-8.229166E-4,-0.0036496245,0.15,1.0,-0.02,15298,9948.60,0,0,0,0.84,-2.80,-0.14,0.15,1.00,-0.02
-0.0078125,0.0036558462,-8.229166E-4,-0.0026496246,0.15,1.0,-0.02,15313,9947.60,0,0,165,0.98,-2.80,-0.07,0.15,1.00,-0.02
0.39257812,0.001655845,0.00117708,-0.0026496246,0.15,1.0,-0.02,15321,9948.00,0,0,0,0.84,-2.66,-0.07,0.15,1.00,-0.02
-0.0078125,-3.4415442E-4,1.7708167E-4,-6.496245E-4,0.15,1.0,-0.03,15336,9947.60,0,0,165,0.70,-2.73,0.07,0.15,1.00,-0.03
0.9921875,-0.0023441538,-8.229166E-4,3.5037554E-4,0.15,1.0,-0.03,15351,9948.60,0,0,0,0.56,-2.80,0.14,0.15,1.00,-0.03
-0.0078125,-0.0013441546,1.7708167E-4,0.0013503752,0.15,1.0,-0.02,15359,9947.60,0,0,165,0.63,-2.73,0.21,0.15,1.00,-0.02
-0.0078125,-3.4415442E-4,1.7708167E-4,-6.496245E-4,0.15,1.0,-0.03,15374,9947.60,0,0,0,0.70,-2.73,0.07,0.15,1.00,-0.03
-0.0078125,6.5584574E-4,1.7708167E-4,-0.0016496246,0.15,1.0,-0.02,15388,9947.60,0,0,165,0.77,-2.73,0.00,0.15,1.00,-0.02
-0.0078125,0.002655846,-0.0018229149,-0.0016496246,0.15,1.0,-0.03,15396,9947.60,0,0,0,0.91,-2.87,0.00,0.15,1.00,-0.03
0.9921875,6.5584574E-4,0.00117708,-0.0036496245,0.15,1.0,-0.03,15411,9948.60,0,0,165,0.77,-2.66,-0.14,0.15,1.00,-0.03
-0.0078125,6.5584574E-4,-8.229166E-4,3.5037554E-4,0.15,1.0,-0.03,15426,9947.60,0,0,0,0.77,-2.80,0.14,0.15,1.00,-0.03
-0.0078125,-0.0013441546,1.7708167E-4,-6.496245E-4,0.15,1.0,-0.02,15433,9947.60,0,0,165,0.63,-2.73,0.07,0.15,1.00,-0.02
-0.0078125,-0.0013441546,1.7708167E-4,3.5037554E-4,0.15,1.0,-0.03,15448,9947.60,0,0,0,0.63,-2.73,0.14,0.15,1.00,-0.03
0.39257812,-3.4415442E-4,0.00117708,-6.496245E-4,0.15,1.0,-0.02,15464,9948.00,0,0,165,0.70,-2.66,0.07,0.15,1.00,-0.02
0.39257812,-3.4415442E-4,1.7708167E-4,-0.0016496246,0.15,1.0,-0.02,15471,9948.00,0,0,0,0.70,-2.73,0.00,0.15,1.00,-0.02
-0.0078125,-3.4415442E-4,-0.0018229149,-0.0036496245,0.15,1.0,-0.02,15486,9947.60,0,0,165,0.70,-2.87,-0.14,0.15,1.00,-0.02
-0.0078125,-3.4415442E-4,1.7708167E-4,-6.496245E-4,0.15,1.0,-0.02,15501,9947.60,0,0,0,0.70,-2.73,0.07,0.15,1.00,-0.02
0.39257812,6.5584574E-4,1.7708167E-4,-0.0016496246,0.15,1.0,-0.02,15509,9948.00,0,0,165,0.77,-2.73,0.00,0.15,1.00,-0.02
-0.0078125,0.001655845,0.00117708,-6.496245E-4,0.15,1.0,-0.03,15524,9947.60,0,0,0,0.84,-2.66,0.07,0.15,1.00,-0.03
0.39257812,0.001655845,1.7708167E-4,-0.0016496246,0.15,0.99,-0.03,15539,9948.00,0,0,165,0.84,-2.73,0.00,0.15,0.99,-0.03
-0.0078125,-3.4415442E-4,1.7708167E-4,-0.0016496246,0.15,1.0,-0.02,15547,9947.60,0,0,0,0.70,-2.73,0.00,0.15,1.00,-0.02
0.39257812,-0.0013441546,-8.229166E-4,3.5037554E-4,0.15,1.0,-0.03,15561,9948.00,0,0,165,0.63,-2.80,0.14,0.15,1.00,-0.03
-0.0078125,-3.4415442E-4,1.7708167E-4,-6.496245E-4,0.15,1.0,-0.02,15576,9947.60,0,0,0,0.70,-2.73,0.07,0.15,1.00,-0.02
0.9921875,6.5584574E-4,0.00117708,-6.496245E-4,0.15,1.0,-0.03,15584,9948.60,0,0,165,0.77,-2.66,0.07,0.15,1.00,-0.03
0.39257812,-3.4415442E-4,1.7708167E-4,-6.496245E-4,0.15,1.0,-0.02,15598,9948.00,0,0,0,0.70,-2.73,0.07,0.15,1.00,-0.02
-0.3076172,-3.4415442E-4,1.7708167E-4,-0.0026496246,0.15,1.0,-0.02,15615,9947.30,0,0,165,0.70,-2.73,-0.07,0.15,1.00,-0.02
-0.0078125,6.5584574E-4,-8.229166E-4,-0.0026496246,0.15,1.0,-0.02,15621,9947.60,0,0,0,0.77,-2.80,-0.07,0.15,1.00,-0.02
-0.0078125,6.5584574E-4,1.7708167E-4,3.5037554E-4,0.15,1.0,-0.02,15636,9947.60,0,0,165,0.77,-2.73,0.14,0.15,1.00,-0.02
-0.0078125,-3.4415442E-4,-8.229166E-4,0.0023503755,0.15,1.0,-0.02,15651,9947.60,0,0,0,0.70,-2.80,0.28,0.15,1.00,-0.02
-0.0078125,-3.4415442E-4,0.00117708,-0.0016496246,0.16,1.0,-0.02,15658,9947.60,0,0,165,0.70,-2.66,0.00,0.16,1.00,-0.02
1.2929688,-3.4415442E-4,-8.229166E-4,-6.496245E-4,0.15,1.0,-0.02,15673,9948.90,0,0,0,0.70,-2.80,0.07,0.15,1.00,-0.02
0.39257812,6.5584574E-4,-8.229166E-4,-0.0016496246,0.15,1.0,-0.02,15688,9948.00,0,0,165,0.77,-2.80,0.00,0.15,1.00,-0.02
0.9921875,0.002655846,0.00117708,-0.0036496245,0.15,1.0,-0.02,15696,9948.60,0,0,0,0.91,-2.66,-0.14,0.15,1.00,-0.02
-0.0078125,0.002655846,0.00117708,-0.0016496246,0.15,1.0,-0.02,15710,9947.60,0,0,165,0.91,-2.66,0.00,0.15,1.00,-0.02
-0.6074219,-3.4415442E-4,1.7708167E-4,3.5037554E-4,0.15,1.0,-0.02,15726,9947.00,0,0,0,0.70,-2.73,0.14,0.15,1.00,-0.02
1.2929688,-3.4415442E-4,0.00117708,0.0013503752,0.15,1.0,-0.02,15733,9948.90,0,0,165,0.70,-2.66,0.21,0.15,1.00,-0.02
0.39257812,-3.4415442E-4,1.7708167E-4,-6.496245E-4,0.15,1.0,-0.02,15748,9948.00,0,0,0,0.70,-2.73,0.07,0.15,1.00,-0.02
0.39257812,6.5584574E-4,-0.0018229149,3.5037554E-4,0.15,1.0,-0.03,15764,9948.00,0,0,165,0.77,-2.87,0.14,0.15,1.00,-0.03
-0.0078125,-3.4415442E-4,-8.229166E-4,-0.0026496246,0.15,1.0,-0.03,15771,9947.60,0,0,0,0.70,-2.80,-0.07,0.15,1.00,-0.03
0.9921875,-0.0013441546,1.7708167E-4,-0.0036496245,0.15,1.0,-0.02,15787,9948.60,0,0,165,0.63,-2.73,-0.14,0.15,1.00,-0.02
-0.0078125,6.5584574E-4,0.00117708,-6.496245E-4,0.16,1.0,-0.02,15801,9947.60,0,0,0,0.77,-2.66,0.07,0.16,1.00,-0.02
-0.0078125,-0.0013441546,-8.229166E-4,-0.0026496246,0.15,1.0,-0.02,15809,9947.60,0,0,165,0.63,-2.80,-0.07,0.15,1.00,-0.02
-0.6074219,-0.0013441546,0.00117708,-6.496245E-4,0.15,1.0,-0.02,15824,9947.00,0,0,0,0.63,-2.66,0.07,0.15,1.00,-0.02
-0.0078125,-3.4415442E-4,0.00117708,0.0023503755,0.15,1.0,-0.02,15839,9947.60,0,0,165,0.70,-2.66,0.28,0.15,1.00,-0.02
-0.0078125,-3.4415442E-4,-8.229166E-4,-0.0016496246,0.15,1.0,-0.02,15847,9947.60,0,0,0,0.70,-2.80,0.00,0.15,1.00,-0.02
-0.6074219,-3.4415442E-4,-8.229166E-4,-0.0016496246,0.15,1.0,-0.02,15861,9947.00,0,0,165,0.70,-2.80,0.00,0.15,1.00,-0.02
-0.90722656,6.5584574E-4,1.7708167E-4,-0.0016496246,0.15,1.0,-0.02,15876,9946.70,0,0,0,0.77,-2.73,0.00,0.15,1.00,-0.02
0.39257812,0.001655845,-8.229166E-4,-0.0036496245,0.15,1.0,-0.02,15883,9948.00,0,0,165,0.84,-2.80,-0.14,0.15,1.00,-0.02
0.39257812,0.001655845,0.00117708,-6.496245E-4,0.15,1.0,-0.02,15898,9948.00,0,0,0,0.84,-2.66,0.07,0.15,1.00,-0.02
-0.90722656,-3.4415442E-4,1.7708167E-4,-6.496245E-4,0.15,1.0,-0.02,15913,9946.70,0,0,165,0.70,-2.73,0.07,0.15,1.00,-0.02
-0.0078125,-3.4415442E-4,-8.229166E-4,-6.496245E-4,0.15,1.0,-0.02,15920,9947.60,0,0,0,0.70,-2.80,0.07,0.15,1.00,-0.02
0.39257812,-3.4415442E-4,-0.0018229149,-6.496245E-4,0.16,1.0,-0.02,15935,9948.00,0,0,165,0.70,-2.87,0.07,0.16,1.00,-0.02
0.39257812,-0.0013441546,-8.229166E-4,-6.496245E-4,0.15,1.0,-0.03,15958,9948.00,0,0,0,0.63,-2.80,0.07,0.15,1.00,-0.03
0.39257812,0.001655845,1.7708167E-4,-0.0026496246,0.15,1.0,-0.02,15959,9948.00,0,0,165,0.84,-2.73,-0.07,0.15,1.00,-0.02
0.39257812,6.5584574E-4,1.7708167E-4,-0.0026496246,0.15,1.0,-0.02,15974,9948.00,0,0,0,0.77,-2.73,-0.07,0.15,1.00,-0.02
0.39257812,-3.4415442E-4,-8.229166E-4,-0.0026496246,0.15,1.0,-0.03,15989,9948.00,0,0,165,0.70,-2.80,-0.07,0.15,1.00,-0.03
-0.0078125,6.5584574E-4,1.7708167E-4,3.5037554E-4,0.15,1.0,-0.03,15996,9947.60,0,0,0,0.77,-2.73,0.14,0.15,1.00,-0.03
-0.6074219,-3.4415442E-4,1.7708167E-4,0.0023503755,0.15,1.0,-0.03,16011,9947.00,0,0,165,0.70,-2.73,0.28,0.15,1.00,-0.03
0.39257812,-0.0013441546,-8.229166E-4,0.0023503755,0.15,1.0,-0.03,16026,9948.00,0,0,0,0.63,-2.80,0.28,0.15,1.00,-0.03
0.39257812,-3.4415442E-4,1.7708167E-4,-0.004649624,0.15,1.0,-0.02,16033,9948.00,0,0,165,0.70,-2.73,-0.21,0.15,1.00,-0.02
1.2929688,-3.4415442E-4,1.7708167E-4,-0.0026496246,0.15,1.0,-0.02,16048,9948.90,0,0,0,0.70,-2.73,-0.07,0.15,1.00,-0.02
0.39257812,-3.4415442E-4,-8.229166E-4,-0.0026496246,0.15,1.0,-0.02,16063,9948.00,0,0,165,0.70,-2.80,-0.07,0.15,1.00,-0.02
0.39257812,-3.4415442E-4,1.7708167E-4,-0.0016496246,0.15,1.0,-0.02,16071,9948.00,0,0,0,0.70,-2.73,0.00,0.15,1.00,-0.02
0.39257812,-3.4415442E-4,0.00117708,3.5037554E-4,0.15,1.0,-0.03,16085,9948.00,0,0,165,0.70,-2.66,0.14,0.15,1.00,-0.03
-0.0078125,-0.0013441546,1.7708167E-4,0.0013503752,0.15,1.0,-0.03,16101,9947.60,0,0,0,0.63,-2.73,0.21,0.15,1.00,-0.03
-0.0078125,6.5584574E-4,0.00117708,3.5037554E-4,0.15,1.0,-0.02,16109,9947.60,0,0,165,0.77,-2.66,0.14,0.15,1.00,-0.02
0.39257812,-0.0023441538,-8.229166E-4,3.5037554E-4,0.15,1.0,-0.02,16123,9948.00,0,0,0,0.56,-2.80,0.14,0.15,1.00,-0.02
0.39257812,-3.4415442E-4,0.00117708,-0.0016496246,0.15,1.0,-0.02,16138,9948.00,0,0,165,0.70,-2.66,0.00,0.15,1.00,-0.02
0.39257812,6.5584574E-4,0.00117708,3.5037554E-4,0.15,1.0,-0.02,16146,9948.00,0,0,0,0.77,-2.66,0.14,0.15,1.00,-0.02
2.2929688,-3.4415442E-4,-8.229166E-4,-0.0016496246,0.15,1.0,-0.02,16163,9949.90,0,0,165,0.70,-2.80,0.00,0.15,1.00,-0.02
0.39257812,0.001655845,1.7708167E-4,-0.0026496246,0.15,1.0,-0.02,16176,9948.00,0,0,0,0.84,-2.73,-0.07,0.15,1.00,-0.02
-0.6074219,-3.4415442E-4,-8.229166E-4,-6.496245E-4,0.15,1.0,-0.03,16184,9947.00,0,0,165,0.70,-2.80,0.07,0.15,1.00,-0.03
0.39257812,-3.4415442E-4,1.7708167E-4,-6.496245E-4,0.15,1.0,-0.03,16198,9948.00,0,0,0,0.70,-2.73,0.07,0.15,1.00,-0.03
0.6923828,6.5584574E-4,1.7708167E-4,-6.496245E-4,0.15,1.0,-0.02,16214,9948.30,0,0,165,0.77,-2.73,0.07,0.15,1.00,-0.02
1.2929688,6.5584574E-4,1.7708167E-4,-0.0016496246,0.15,1.0,-0.02,16221,9948.90,0,0,0,0.77,-2.73,0.00,0.15,1.00,-0.02
0.39257812,0.002655846,0.00117708,-0.0016496246,0.15,1.0,-0.02,16236,9948.00,0,0,165,0.91,-2.66,0.00,0.15,1.00,-0.02
0.39257812,-3.4415442E-4,1.7708167E-4,-0.0016496246,0.15,1.0,-0.02,16251,9948.00,0,0,0,0.70,-2.73,0.00,0.15,1.00,-0.02
0.39257812,-0.0013441546,1.7708167E-4,-0.0026496246,0.15,1.0,-0.02,16259,9948.00,0,0,165,0.63,-2.73,-0.07,0.15,1.00,-0.02
0.39257812,-3.4415442E-4,-8.229166E-4,-0.0016496246,0.15,1.0,-0.02,16273,9948.00,0,0,0,0.70,-2.80,0.00,0.15,1.00,-0.02
-0.6074219,-0.0013441546,1.7708167E-4,-0.0016496246,0.15,1.0,-0.03,16288,9947.00,0,0,165,0.63,-2.73,0.00,0.15,1.00,-0.03
0.39257812,-3.4415442E-4,0.00117708,3.5037554E-4,0.15,1.0,-0.03,16296,9948.00,0,0,0,0.70,-2.66,0.14,0.15,1.00,-0.03
0.39257812,-3.4415442E-4,0.00117708,0.0013503752,0.15,1.0,-0.02,16310,9948.00,0,0,165,0.70,-2.66,0.21,0.15,1.00,-0.02
-0.6074219,-3.4415442E-4,1.7708167E-4,-6.496245E-4,0.15,1.0,-0.03,16326,9947.00,0,0,0,0.70,-2.73,0.07,0.15,1.00,-0.03
0.39257812,-3.4415442E-4,-8.229166E-4,-0.0026496246,0.15,1.0,-0.02,16333,9948.00,0,0,165,0.70,-2.80,-0.07,0.15,1.00,-0.02
0.39257812,-3.4415442E-4,1.7708167E-4,-6.496245E-4,0.15,0.99,-0.03,16349,9948.00,0,0,0,0.70,-2.73,0.07,0.15,0.99,-0.03
-0.90722656,-0.0013441546,1.7708167E-4,-6.496245E-4,0.15,1.0,-0.02,16364,9946.70,0,0,165,0.63,-2.73,0.07,0.15,1.00,-0.02
0.39257812,-3.4415442E-4,-8.229166E-4,-6.496245E-4,0.15,1.0,-0.02,16371,9948.00,0,0,0,0.70,-2.80,0.07,0.15,1.00,-0.02
-0.6074219,0.001655845,1.7708167E-4,-0.0036496245,0.15,1.0,-0.02,16386,9947.00,0,0,165,0.84,-2.73,-0.14,0.15,1.00,-0.02
-0.6074219,6.5584574E-4,0.00117708,-0.0016496246,0.15,1.0,-0.02,16401,9947.00,0,0,0,0.77,-2.66,0.00,0.15,1.00,-0.02
0.39257812,-3.4415442E-4,1.7708167E-4,3.5037554E-4,0.15,1.0,-0.02,16409,9948.00,0,0,165,0.70,-2.73,0.14,0.15,1.00,-0.02
0.39257812,0.001655845,0.00117708,3.5037554E-4,0.15,1.0,-0.03,16424,9948.00,0,0,0,0.84,-2.66,0.14,0.15,1.00,-0.03
0.39257812,-3.4415442E-4,-8.229166E-4,3.5037554E-4,0.16,1.0,-0.02,16438,9948.00,0,0,165,0.70,-2.80,0.14,0.16,1.00,-0.02
0.39257812,-0.0023441538,1.7708167E-4,0.0013503752,0.15,1.0,-0.03,16446,9948.00,0,0,0,0.56,-2.73,0.21,0.15,1.00,-0.03
-0.3076172,6.5584574E-4,1.7708167E-4,0.0013503752,0.15,1.0,-0.03,16460,9947.30,0,0,165,0.77,-2.73,0.21,0.15,1.00,-0.03
0.6923828,6.5584574E-4,0.00117708,-6.496245E-4,0.15,0.99,-0.02,16476,9948.30,0,0,0,0.77,-2.66,0.07,0.15,0.99,-0.02
0.6923828,6.5584574E-4,1.7708167E-4,0.0013503752,0.15,1.0,-0.02,16483,9948.30,0,0,165,0.77,-2.73,0.21,0.15,1.00,-0.02
0.39257812,-3.4415442E-4,-8.229166E-4,-0.004649624,0.15,1.0,-0.02,16498,9948.00,0,0,0,0.70,-2.80,-0.21,0.15,1.00,-0.02
0.39257812,0.002655846,1.7708167E-4,-0.0036496245,0.15,1.0,-0.02,16513,9948.00,0,0,165,0.91,-2.73,-0.14,0.15,1.00,-0.02
0.39257812,6.5584574E-4,-8.229166E-4,-0.0016496246,0.15,1.0,-0.02,16521,9948.00,0,0,0,0.77,-2.80,0.00,0.15,1.00,-0.02
-0.6074219,-0.0023441538,0.00117708,0.0013503752,0.15,1.0,-0.02,16536,9947.00,0,0,165,0.56,-2.66,0.21,0.15,1.00,-0.02
-0.6074219,-0.0023441538,0.00117708,0.0033503752,0.15,1.0,-0.02,16559,9947.00,0,0,0,0.56,-2.66,0.35,0.15,1.00,-0.02
-0.3076172,-3.4415442E-4,-8.229166E-4,3.5037554E-4,0.15,1.0,-0.02,16561,9947.30,0,0,165,0.70,-2.80,0.14,0.15,1.00,-0.02
0.39257812,-3.4415442E-4,1.7708167E-4,-0.0026496246,0.15,1.0,-0.02,16574,9948.00,0,0,0,0.70,-2.73,-0.07,0.15,1.00,-0.02
1.2929688,6.5584574E-4,1.7708167E-4,-0.004649624,0.15,1.0,-0.03,16589,9948.90,0,0,165,0.77,-2.73,-0.21,0.15,1.00,-0.03
0.39257812,0.002655846,-8.229166E-4,-0.0036496245,0.15,1.0,-0.03,16596,9948.00,0,0,0,0.91,-2.80,-0.14,0.15,1.00,-0.03
0.39257812,0.001655845,0.00117708,-0.0026496246,0.15,1.0,-0.02,16612,9948.00,0,0,165,0.84,-2.66,-0.07,0.15,1.00,-0.02
0.39257812,-3.4415442E-4,-8.229166E-4,-0.0016496246,0.15,0.88,-0.02,16618,9948.00,0,0,0,0.70,-2.80,0.00,0.15,0.88,-0.02
-0.6074219,-0.0023441538,0.00117708,0.0023503755,0.15,1.0,-0.02,16633,9947.00,0,0,165,0.56,-2.66,0.28,0.15,1.00,-0.02
0.6923828,-0.0013441546,0.00117708,0.0053503755,0.15,1.0,-0.02,16648,9948.30,0,0,0,0.63,-2.66,0.49,0.15,1.00,-0.02
0.6923828,-3.4415442E-4,0.00117708,0.0023503755,0.15,1.0,-0.02,16655,9948.30,0,0,165,0.70,-2.66,0.28,0.15,1.00,-0.02
-0.6074219,0.002655846,-8.229166E-4,-0.004649624,0.15,1.0,-0.03,16671,9947.00,0,0,0,0.91,-2.80,-0.21,0.15,1.00,-0.03
0.39257812,0.0036558462,0.00117708,-0.005649625,0.15,1.0,-0.03,16685,9948.00,0,0,165,0.98,-2.66,-0.28,0.15,1.00,-0.03
0.6923828,0.0046558455,-0.0018229149,-0.0066496246,0.15,1.0,-0.03,16693,9948.30,0,0,0,1.05,-2.87,-0.35,0.15,1.00,-0.03
-0.3076172,0.001655845,0.00117708,-0.0016496246,0.15,1.0,-0.03,16708,9947.30,0,0,165,0.84,-2.66,0.00,0.15,1.00,-0.03
0.6923828,-0.003344154,0.00117708,0.0033503752,0.15,1.0,-0.03,16724,9948.30,0,0,0,0.49,-2.66,0.35,0.15,1.00,-0.03
0.39257812,-0.0043441546,0.002177082,0.0063503757,0.15,1.0,-0.03,16732,9948.00,0,0,165,0.42,-2.59,0.56,0.15,1.00,-0.03
0.6923828,-0.003344154,0.00117708,0.0033503752,0.15,0.99,-0.02,16746,9948.30,0,0,0,0.49,-2.66,0.35,0.15,0.99,-0.02
-0.6074219,-3.4415442E-4,1.7708167E-4,-6.496245E-4,0.15,1.0,-0.02,16761,9947.00,0,0,165,0.70,-2.73,0.07,0.15,1.00,-0.02
0.39257812,0.001655845,0.00117708,-0.005649625,0.15,1.0,-0.02,16768,9948.00,0,0,0,0.84,-2.66,-0.28,0.15,1.00,-0.02
-0.6074219,0.002655846,-8.229166E-4,-0.0076496243,0.15,1.0,-0.02,16783,9947.00,0,0,165,0.91,-2.80,-0.42,0.15,1.00,-0.02
-0.3076172,0.002655846,-8.229166E-4,-0.0026496246,0.15,1.0,-0.02,16798,9947.30,0,0,0,0.91,-2.80,-0.07,0.15,1.00,-0.02
-0.3076172,-0.0023441538,-8.229166E-4,0.0013503752,0.15,1.0,-0.03,16806,9947.30,0,0,165,0.56,-2.80,0.21,0.15,1.00,-0.03
-0.3076172,-0.0023441538,1.7708167E-4,0.0013503752,0.16,1.0,-0.03,16821,9947.30,0,0,0,0.56,-2.73,0.21,0.16,1.00,-0.03
-1.6074219,-0.0013441546,0.002177082,0.0023503755,0.15,1.0,-0.03,16836,9946.00,0,0,165,0.63,-2.59,0.28,0.15,1.00,-0.03
-0.3076172,-3.4415442E-4,0.00117708,-0.0026496246,0.15,1.0,-0.03,16843,9947.30,0,0,0,0.70,-2.66,-0.07,0.15,1.00,-0.03
0.6923828,0.002655846,1.7708167E-4,-0.004649624,0.15,1.0,-0.02,16858,9948.30,0,0,165,0.91,-2.73,-0.21,0.15,1.00,-0.02
0.39257812,0.001655845,0.002177082,-0.004649624,0.15,1.0,-0.03,16873,9948.00,0,0,0,0.84,-2.59,-0.21,0.15,1.00,-0.03
0.6923828,0.001655845,1.7708167E-4,-0.0026496246,0.15,1.0,-0.02,16881,9948.30,0,0,165,0.84,-2.73,-0.07,0.15,1.00,-0.02
1.5927734,-0.0023441538,-8.229166E-4,0.0033503752,0.15,1.0,-0.02,16895,9949.20,0,0,0,0.56,-2.80,0.35,0.15,1.00,-0.02
-0.3076172,-0.0053441543,-8.229166E-4,0.0063503757,0.15,1.0,-0.02,16911,9947.30,0,0,165,0.35,-2.80,0.56,0.15,1.00,-0.02
0.39257812,-0.003344154,1.7708167E-4,0.0063503757,0.16,1.0,-0.02,16918,9948.00,0,0,0,0.49,-2.73,0.56,0.16,1.00,-0.02
-0.3076172,-0.0023441538,1.7708167E-4,0.0023503755,0.15,1.0,-0.03,16933,9947.30,0,0,165,0.56,-2.73,0.28,0.15,1.00,-0.03
0.6923828,0.001655845,-8.229166E-4,-0.0026496246,0.15,1.0,-0.03,16948,9948.30,0,0,0,0.84,-2.80,-0.07,0.15,1.00,-0.03
-0.3076172,0.0036558462,-8.229166E-4,-0.010649624,0.15,1.0,-0.03,16956,9947.30,0,0,165,0.98,-2.80,-0.63,0.15,1.00,-0.03
0.39257812,0.0046558455,1.7708167E-4,-0.008649625,0.15,1.0,-0.03,16971,9948.00,0,0,0,1.05,-2.73,-0.49,0.15,1.00,-0.03
0.6923828,0.0036558462,0.00117708,-0.005649625,0.15,1.0,-0.03,16986,9948.30,0,0,165,0.98,-2.66,-0.28,0.15,1.00,-0.03
-0.3076172,-3.4415442E-4,1.7708167E-4,-0.0016496246,0.15,1.0,-0.02,16994,9947.30,0,0,0,0.70,-2.73,0.00,0.15,1.00,-0.02
-0.3076172,-0.0043441546,1.7708167E-4,0.0053503755,0.15,1.0,-0.02,17008,9947.30,0,0,165,0.42,-2.73,0.49,0.15,1.00,-0.02
-0.3076172,-0.0023441538,1.7708167E-4,0.0053503755,0.15,1.0,-0.02,17023,9947.30,0,0,0,0.56,-2.73,0.49,0.15,1.00,-0.02
-0.3076172,6.5584574E-4,0.00117708,0.0033503752,0.15,1.0,-0.02,17031,9947.30,0,0,165,0.77,-2.66,0.35,0.15,1.00,-0.02
-0.3076172,6.5584574E-4,-0.0018229149,-0.0036496245,0.15,1.0,-0.02,17046,9947.30,0,0,0,0.77,-2.87,-0.14,0.15,1.00,-0.02
-0.3076172,0.002655846,-0.0018229149,-0.005649625,0.15,1.0,-0.03,17062,9947.30,0,0,165,0.91,-2.87,-0.28,0.15,1.00,-0.03
0.6923828,0.0036558462,1.7708167E-4,-0.005649625,0.15,1.0,-0.03,17068,9948.30,0,0,0,0.98,-2.73,-0.28,0.15,1.00,-0.03
0.6923828,-3.4415442E-4,1.7708167E-4,3.5037554E-4,0.15,1.0,-0.03,17083,9948.30,0,0,165,0.70,-2.73,0.14,0.15,1.00,-0.03
-0.3076172,-0.003344154,0.00117708,0.0033503752,0.15,1.0,-0.03,17098,9947.30,0,0,0,0.49,-2.66,0.35,0.15,1.00,-0.03
0.6923828,-0.003344154,0.00117708,0.0053503755,0.16,1.0,-0.02,17106,9948.30,0,0,165,0.49,-2.66,0.49,0.16,1.00,-0.02
0.6923828,-0.003344154,0.00117708,0.004350375,0.15,1.0,-0.02,17121,9948.30,0,0,0,0.49,-2.66,0.42,0.15,1.00,-0.02
0.39257812,-3.4415442E-4,-8.229166E-4,-0.0016496246,0.15,1.0,-0.02,17136,9948.00,0,0,165,0.70,-2.80,0.00,0.15,1.00,-0.02
-0.3076172,0.0046558455,1.7708167E-4,-0.0076496243,0.15,1.0,-0.02,17144,9947.30,0,0,0,1.05,-2.73,-0.42,0.15,1.00,-0.02
-0.3076172,0.0036558462,-8.229166E-4,-0.010649624,0.15,1.0,-0.03,17159,9947.30,0,0,165,0.98,-2.80,-0.63,0.15,1.00,-0.03
0.39257812,0.0036558462,-0.0018229149,-0.0036496245,0.15,1.0,-0.03,17174,9948.00,0,0,0,0.98,-2.87,-0.14,0.15,1.00,-0.03
0.09277344,-3.4415442E-4,-8.229166E-4,3.5037554E-4,0.15,1.0,-0.03,17181,9947.70,0,0,165,0.70,-2.80,0.14,0.15,1.00,-0.03
-0.3076172,-0.003344154,0.00117708,0.009350375,0.15,1.0,-0.03,17196,9947.30,0,0,0,0.49,-2.66,0.77,0.15,1.00,-0.03
0.6923828,-0.006344154,1.7708167E-4,0.007350375,0.15,1.0,-0.03,17211,9948.30,0,0,165,0.28,-2.73,0.63,0.15,1.00,-0.03
0.6923828,-0.0043441546,0.00117708,0.004350375,0.15,1.0,-0.02,17219,9948.30,0,0,0,0.42,-2.66,0.42,0.15,1.00,-0.02
0.6923828,-3.4415442E-4,1.7708167E-4,-0.0036496245,0.15,0.99,-0.02,17234,9948.30,0,0,165,0.70,-2.73,-0.14,0.15,0.99,-0.02
-0.3076172,0.002655846,-8.229166E-4,-0.008649625,0.15,1.0,-0.02,17249,9947.30,0,0,0,0.91,-2.80,-0.49,0.15,1.00,-0.02
-1.6074219,0.0036558462,1.7708167E-4,-0.0066496246,0.15,1.0,-0.02,17256,9946.00,0,0,165,0.98,-2.73,-0.35,0.15,1.00,-0.02
0.6923828,0.0036558462,0.00117708,-0.0036496245,0.15,1.0,-0.02,17271,9948.30,0,0,0,0.98,-2.66,-0.14,0.15,1.00,-0.02
0.6923828,-3.4415442E-4,-8.229166E-4,3.5037554E-4,0.15,1.0,-0.02,17286,9948.30,0,0,165,0.70,-2.80,0.14,0.15,1.00,-0.02
-0.3076172,-0.0023441538,0.00117708,0.004350375,0.15,1.0,-0.03,17294,9947.30,0,0,0,0.56,-2.66,0.42,0.15,1.00,-0.03
-1.2070312,-0.0023441538,1.7708167E-4,0.0023503755,0.15,1.0,-0.02,17308,9946.40,0,0,165,0.56,-2.73,0.28,0.15,1.00,-0.02
-0.3076172,-0.0013441546,-8.229166E-4,-6.496245E-4,0.15,1.0,-0.02,17324,9947.30,0,0,0,0.63,-2.80,0.07,0.15,1.00,-0.02
0.6923828,0.001655845,-8.229166E-4,-6.496245E-4,0.15,1.0,-0.02,17331,9948.30,0,0,165,0.84,-2.80,0.07,0.15,1.00,-0.02
-0.3076172,0.0036558462,-8.229166E-4,-0.004649624,0.15,1.0,-0.03,17346,9947.30,0,0,0,0.98,-2.80,-0.21,0.15,1.00,-0.03
-0.3076172,0.002655846,1.7708167E-4,-0.0026496246,0.15,1.0,-0.02,17362,9947.30,0,0,165,0.91,-2.73,-0.07,0.15,1.00,-0.02
0.6923828,-3.4415442E-4,1.7708167E-4,-6.496245E-4,0.15,1.0,-0.02,17368,9948.30,0,0,0,0.70,-2.73,0.07,0.15,1.00,-0.02
0.6923828,-0.0023441538,1.7708167E-4,0.004350375,0.15,1.0,-0.02,17383,9948.30,0,0,165,0.56,-2.73,0.42,0.15,1.00,-0.02
-0.90722656,-0.0043441546,1.7708167E-4,0.0053503755,0.15,1.0,-0.02,17398,9946.70,0,0,0,0.42,-2.73,0.49,0.15,1.00,-0.02
0.6923828,-0.0013441546,1.7708167E-4,0.004350375,0.15,1.0,-0.03,17405,9948.30,0,0,165,0.63,-2.73,0.42,0.15,1.00,-0.03
-0.3076172,0.001655845,1.7708167E-4,-0.0016496246,0.15,1.0,-0.02,17420,9947.30,0,0,0,0.84,-2.73,0.00,0.15,1.00,-0.02
-0.3076172,0.001655845,-8.229166E-4,-0.005649625,0.15,1.0,-0.03,17435,9947.30,0,0,165,0.84,-2.80,-0.28,0.15,1.00,-0.03
-1.2070312,6.5584574E-4,1.7708167E-4,-0.005649625,0.15,1.0,-0.03,17443,9946.40,0,0,0,0.77,-2.73,-0.28,0.15,1.00,-0.03
-0.3076172,6.5584574E-4,1.7708167E-4,-0.0016496246,0.15,1.0,-0.02,17458,9947.30,0,0,165,0.77,-2.73,0.00,0.15,1.00,-0.02
0.39257812,-0.0023441538,0.00117708,0.0033503752,0.15,1.0,-0.02,17473,9948.00,0,0,0,0.56,-2.66,0.35,0.15,1.00,-0.02
-0.3076172,-0.0023441538,0.00117708,0.0033503752,0.15,1.0,-0.02,17481,9947.30,0,0,165,0.56,-2.66,0.35,0.15,1.00,-0.02
0.9921875,-0.0013441546,0.00117708,0.0023503755,0.15,1.0,-0.02,17497,9948.60,0,0,0,0.63,-2.66,0.28,0.15,1.00,-0.02
0.6923828,-3.4415442E-4,-8.229166E-4,-0.0016496246,0.15,1.0,-0.02,17513,9948.30,0,0,165,0.70,-2.80,0.00,0.15,1.00,-0.02
-0.3076172,0.002655846,-8.229166E-4,-0.004649624,0.15,1.0,-0.02,17518,9947.30,0,0,0,0.91,-2.80,-0.21,0.15,1.00,-0.02
-0.3076172,0.0036558462,-8.229166E-4,-0.0066496246,0.15,1.0,-0.02,17534,9947.30,0,0,165,0.98,-2.80,-0.35,0.15,1.00,-0.02
0.6923828,0.0046558455,1.7708167E-4,-0.0036496245,0.15,1.0,-0.02,17548,9948.30,0,0,0,1.05,-2.73,-0.14,0.15,1.00,-0.02
-0.3076172,-0.0013441546,0.00117708,3.5037554E-4,0.16,1.0,-0.02,17556,9947.30,0,0,165,0.63,-2.66,0.14,0.16,1.00,-0.02
0.9921875,-0.0053441543,1.7708167E-4,0.007350375,0.16,1.0,-0.03,17571,9948.60,0,0,0,0.35,-2.73,0.63,0.16,1.00,-0.03
-0.3076172,-0.0043441546,0.00117708,0.007350375,0.16,1.0,-0.02,17586,9947.30,0,0,165,0.42,-2.66,0.63,0.16,1.00,-0.02
0.6923828,-0.0013441546,1.7708167E-4,0.0023503755,0.16,1.0,-0.02,17594,9948.30,0,0,0,0.63,-2.73,0.28,0.16,1.00,-0.02
-0.3076172,6.5584574E-4,-8.229166E-4,-0.0036496245,0.15,1.0,-0.02,17608,9947.30,0,0,165,0.77,-2.80,-0.14,0.15,1.00,-0.02
-0.3076172,0.001655845,-8.229166E-4,-0.0066496246,0.15,1.0,-0.02,17623,9947.30,0,0,0,0.84,-2.80,-0.35,0.15,1.00,-0.02
0.6923828,6.5584574E-4,-8.229166E-4,-0.0066496246,0.15,1.0,-0.02,17631,9948.30,0,0,165,0.77,-2.80,-0.35,0.15,1.00,-0.02
-0.3076172,-3.4415442E-4,0.00117708,-6.496245E-4,0.15,1.0,-0.02,17646,9947.30,0,0,0,0.70,-2.66,0.07,0.15,1.00,-0.02
-0.3076172,-0.0013441546,0.00117708,0.0023503755,0.15,1.0,-0.03,17661,9947.30,0,0,165,0.63,-2.66,0.28,0.15,1.00,-0.03
0.09277344,-0.003344154,1.7708167E-4,0.004350375,0.16,1.0,-0.03,17668,9947.70,0,0,0,0.49,-2.73,0.42,0.16,1.00,-0.03
0.9921875,-0.0023441538,0.00117708,0.0023503755,0.15,1.0,-0.03,17683,9948.60,0,0,165,0.56,-2.66,0.28,0.15,1.00,-0.03
0.6923828,6.5584574E-4,0.00117708,-0.0016496246,0.15,1.0,-0.02,17698,9948.30,0,0,0,0.77,-2.66,0.00,0.15,1.00,-0.02
0.9921875,-3.4415442E-4,-8.229166E-4,-0.005649625,0.15,1.0,-0.02,17706,9948.60,0,0,165,0.70,-2.80,-0.28,0.15,1.00,-0.02
0.6923828,0.001655845,-8.229166E-4,-0.004649624,0.15,1.0,-0.02,17721,9948.30,0,0,0,0.84,-2.80,-0.21,0.15,1.00,-0.02
-0.3076172,0.0036558462,1.7708167E-4,-0.0036496245,0.15,1.0,-0.02,17736,9947.30,0,0,165,0.98,-2.73,-0.14,0.15,1.00,-0.02
0.6923828,-3.4415442E-4,1.7708167E-4,-6.496245E-4,0.15,1.0,-0.02,17744,9948.30,0,0,0,0.70,-2.73,0.07,0.15,1.00,-0.02
0.09277344,-0.0013441546,-8.229166E-4,0.0013503752,0.15,1.0,-0.02,17758,9947.70,0,0,165,0.63,-2.80,0.21,0.15,1.00,-0.02
-0.3076172,-0.0023441538,-8.229166E-4,0.0023503755,0.15,1.0,-0.02,17773,9947.30,0,0,0,0.56,-2.80,0.28,0.15,1.00,-0.02
-0.3076172,-3.4415442E-4,1.7708167E-4,0.0023503755,0.15,1.0,-0.03,17781,9947.30,0,0,165,0.70,-2.73,0.28,0.15,1.00,-0.03
-0.3076172,6.5584574E-4,-8.229166E-4,-0.0036496245,0.15,1.0,-0.03,17796,9947.30,0,0,0,0.77,-2.80,-0.14,0.15,1.00,-0.03
0.09277344,0.001655845,1.7708167E-4,-0.004649624,0.15,1.0,-0.03,17812,9947.70,0,0,165,0.84,-2.73,-0.21,0.15,1.00,-0.03
0.09277344,0.001655845,-8.229166E-4,-0.005649625,0.15,1.0,-0.03,17819,9947.70,0,0,0,0.84,-2.80,-0.28,0.15,1.00,-0.03
0.09277344,-3.4415442E-4,1.7708167E-4,-0.0026496246,0.15,1.0,-0.03,17833,9947.70,0,0,165,0.70,-2.73,-0.07,0.15,1.00,-0.03
0.09277344,-0.0013441546,0.00117708,0.0023503755,0.15,1.0,-0.02,17848,9947.70,0,0,0,0.63,-2.66,0.28,0.15,1.00,-0.02
-0.3076172,-0.0023441538,1.7708167E-4,0.004350375,0.15,1.0,-0.02,17856,9947.30,0,0,165,0.56,-2.73,0.42,0.15,1.00,-0.02
0.09277344,-0.0023441538,0.00117708,0.0053503755,0.15,1.0,-0.02,17871,9947.70,0,0,0,0.56,-2.66,0.49,0.15,1.00,-0.02
-0.3076172,6.5584574E-4,0.00117708,0.0013503752,0.15,1.0,-0.02,17885,9947.30,0,0,165,0.77,-2.66,0.21,0.15,1.00,-0.02
0.6923828,0.002655846,1.7708167E-4,-0.005649625,0.15,1.0,-0.02,17895,9948.30,0,0,0,0.91,-2.73,-0.28,0.15,1.00,-0.02
0.09277344,0.0046558455,-8.229166E-4,-0.0076496243,0.15,1.0,-0.03,17908,9947.70,0,0,165,1.05,-2.80,-0.42,0.15,1.00,-0.03
-0.3076172,0.0036558462,1.7708167E-4,-0.0076496243,0.15,1.0,-0.03,17923,9947.30,0,0,0,0.98,-2.73,-0.42,0.15,1.00,-0.03
0.9921875,6.5584574E-4,-8.229166E-4,-0.0036496245,0.15,1.0,-0.02,17930,9948.60,0,0,165,0.77,-2.80,-0.14,0.15,1.00,-0.02
0.9921875,-0.003344154,0.00117708,0.0013503752,0.15,1.0,-0.03,17946,9948.60,0,0,0,0.49,-2.66,0.21,0.15,1.00,-0.03
-0.3076172,-0.0043441546,0.002177082,0.004350375,0.15,1.0,-0.03,17961,9947.30,0,0,165,0.42,-2.59,0.42,0.15,1.00,-0.03
-0.90722656,-0.003344154,0.00117708,0.004350375,0.15,1.0,-0.03,17968,9946.70,0,0,0,0.49,-2.66,0.42,0.15,1.00,-0.03
0.39257812,-0.0013441546,0.00117708,-6.496245E-4,0.15,1.0,-0.02,17984,9948.00,0,0,165,0.63,-2.66,0.07,0.15,1.00,-0.02
0.09277344,0.001655845,-8.229166E-4,-0.0026496246,0.15,1.0,-0.02,17998,9947.70,0,0,0,0.84,-2.80,-0.07,0.15,1.00,-0.02
0.09277344,0.001655845,-8.229166E-4,-0.005649625,0.15,1.0,-0.02,18006,9947.70,0,0,165,0.84,-2.80,-0.28,0.15,1.00,-0.02
0.9921875,0.002655846,1.7708167E-4,-0.0026496246,0.15,1.0,-0.02,18021,9948.60,0,0,0,0.91,-2.73,-0.07,0.15,1.00,-0.02
0.09277344,-3.4415442E-4,0.00117708,0.0013503752,0.15,1.0,-0.02,18035,9947.70,0,0,165,0.70,-2.66,0.21,0.15,1.00,-0.02
0.09277344,-0.003344154,0.00117708,0.004350375,0.15,1.0,-0.03,18043,9947.70,0,0,0,0.49,-2.66,0.42,0.15,1.00,-0.03
-0.3076172,-0.003344154,0.00117708,0.0033503752,0.15,1.0,-0.03,18058,9947.30,0,0,165,0.49,-2.66,0.35,0.15,1.00,-0.03
0.09277344,6.5584574E-4,0.002177082,-6.496245E-4,0.15,1.0,-0.02,18073,9947.70,0,0,0,0.77,-2.59,0.07,0.15,1.00,-0.02
-0.90722656,6.5584574E-4,1.7708167E-4,-0.0026496246,0.15,1.0,-0.02,18082,9946.70,0,0,165,0.77,-2.73,-0.07,0.15,1.00,-0.02
-0.90722656,0.001655845,0.00117708,-0.0026496246,0.15,1.0,-0.02,18096,9946.70,0,0,0,0.84,-2.66,-0.07,0.15,1.00,-0.02
0.09277344,6.5584574E-4,0.00117708,-0.0026496246,0.15,1.0,-0.02,18111,9947.70,0,0,165,0.77,-2.66,-0.07,0.15,1.00,-0.02
0.6923828,-3.4415442E-4,1.7708167E-4,3.5037554E-4,0.15,1.0,-0.02,18119,9948.30,0,0,0,0.70,-2.73,0.14,0.15,1.00,-0.02
0.9921875,-0.0013441546,1.7708167E-4,0.0023503755,0.15,1.0,-0.02,18134,9948.60,0,0,165,0.63,-2.73,0.28,0.15,1.00,-0.02
0.09277344,-0.0023441538,1.7708167E-4,0.0013503752,0.16,1.0,-0.03,18148,9947.70,0,0,0,0.56,-2.73,0.21,0.16,1.00,-0.03
0.09277344,-0.0023441538,1.7708167E-4,0.0033503752,0.15,1.0,-0.02,18155,9947.70,0,0,165,0.56,-2.73,0.35,0.15,1.00,-0.02
0.09277344,6.5584574E-4,1.7708167E-4,-0.0016496246,0.15,1.0,-0.03,18171,9947.70,0,0,0,0.77,-2.73,0.00,0.15,1.00,-0.03
0.9921875,0.002655846,1.7708167E-4,-0.0036496245,0.15,1.0,-0.03,18186,9948.60,0,0,165,0.91,-2.73,-0.14,0.15,1.00,-0.03
0.09277344,0.001655845,1.7708167E-4,-0.004649624,0.15,1.0,-0.03,18194,9947.70,0,0,0,0.84,-2.73,-0.21,0.15,1.00,-0.03
0.09277344,0.002655846,0.00117708,-0.0026496246,0.16,1.0,-0.03,18209,9947.70,0,0,165,0.91,-2.66,-0.07,0.16,1.00,-0.03
0.09277344,-3.4415442E-4,1.7708167E-4,-6.496245E-4,0.15,1.0,-0.02,18223,9947.70,0,0,0,0.70,-2.73,0.07,0.15,1.00,-0.02
0.09277344,-3.4415442E-4,-8.229166E-4,3.5037554E-4,0.15,1.0,-0.02,18231,9947.70,0,0,165,0.70,-2.80,0.14,0.15,1.00,-0.02
0.09277344,-0.003344154,-8.229166E-4,0.0023503755,0.15,1.0,-0.02,18246,9947.70,0,0,0,0.49,-2.80,0.28,0.15,1.00,-0.02
0.09277344,-3.4415442E-4,0.00117708,3.5037554E-4,0.15,1.0,-0.02,18261,9947.70,0,0,165,0.70,-2.66,0.14,0.15,1.00,-0.02
0.09277344,6.5584574E-4,1.7708167E-4,-0.0016496246,0.15,1.0,-0.02,18268,9947.70,0,0,0,0.77,-2.73,0.00,0.15,1.00,-0.02
0.9921875,0.001655845,-0.0018229149,-0.0016496246,0.15,1.0,-0.03,18284,9948.60,0,0,165,0.84,-2.87,0.00,0.15,1.00,-0.03
0.09277344,0.002655846,0.002177082,-6.496245E-4,0.15,0.99,-0.03,18299,9947.70,0,0,0,0.91,-2.59,0.07,0.15,0.99,-0.03
0.09277344,-3.4415442E-4,0.00117708,-6.496245E-4,0.15,1.0,-0.03,18306,9947.70,0,0,165,0.70,-2.66,0.07,0.15,1.00,-0.03
0.6923828,-0.0023441538,-8.229166E-4,3.5037554E-4,0.15,1.0,-0.02,18321,9948.30,0,0,0,0.56,-2.80,0.14,0.15,1.00,-0.02
0.09277344,-0.0023441538,-8.229166E-4,0.0023503755,0.15,1.0,-0.02,18336,9947.70,0,0,165,0.56,-2.80,0.28,0.15,1.00,-0.02
0.39257812,-0.0013441546,-8.229166E-4,-0.0016496246,0.15,1.0,-0.02,18345,9948.00,0,0,0,0.63,-2.80,0.00,0.15,1.00,-0.02
0.09277344,-3.4415442E-4,-8.229166E-4,-0.0016496246,0.15,1.0,-0.02,18357,9947.70,0,0,165,0.70,-2.80,0.00,0.15,1.00,-0.02
0.6923828,0.001655845,-8.229166E-4,-0.0036496245,0.15,1.0,-0.02,18373,9948.30,0,0,0,0.84,-2.80,-0.14,0.15,1.00,-0.02
0.09277344,0.002655846,1.7708167E-4,-0.0036496245,0.15,1.0,-0.03,18381,9947.70,0,0,165,0.91,-2.73,-0.14,0.15,1.00,-0.03
-0.90722656,6.5584574E-4,0.00117708,-6.496245E-4,0.15,1.0,-0.02,18396,9946.70,0,0,0,0.77,-2.66,0.07,0.15,1.00,-0.02
-0.90722656,-0.0013441546,-8.229166E-4,0.0013503752,0.15,1.0,-0.03,18411,9946.70,0,0,165,0.63,-2.80,0.21,0.15,1.00,-0.03
0.09277344,-0.0013441546,0.00117708,0.0013503752,0.15,1.0,-0.03,18418,9947.70,0,0,0,0.63,-2.66,0.21,0.15,1.00,-0.03
0.09277344,-3.4415442E-4,0.00117708,0.0023503755,0.15,1.0,-0.02,18433,9947.70,0,0,165,0.70,-2.66,0.28,0.15,1.00,-0.02
0.09277344,-3.4415442E-4,0.00117708,-0.0016496246,0.15,1.0,-0.03,18448,9947.70,0,0,0,0.70,-2.66,0.00,0.15,1.00,-0.03
0.09277344,-3.4415442E-4,-8.229166E-4,-0.0016496246,0.15,1.0,-0.02,18455,9947.70,0,0,165,0.70,-2.80,0.00,0.15,1.00,-0.02
0.09277344,6.5584574E-4,1.7708167E-4,-0.0036496245,0.15,1.0,-0.02,18471,9947.70,0,0,0,0.77,-2.73,-0.14,0.15,1.00,-0.02
-0.3076172,-3.4415442E-4,1.7708167E-4,0.25335038,0.15,1.0,-0.02,18486,9947.30,0,0,165,0.70,-2.73,17.85,0.15,1.00,-0.02
0.09277344,0.001655845,-8.229166E-4,3.5037554E-4,0.15,1.0,-0.02,18493,9947.70,0,0,0,0.84,-2.80,0.14,0.15,1.00,-0.02
-0.90722656,-0.0013441546,0.00117708,3.5037554E-4,0.15,1.0,-0.02,18516,9946.70,0,0,165,0.63,-2.66,0.14,0.15,1.00,-0.02
0.9921875,-0.0013441546,1.7708167E-4,-0.0016496246,0.15,1.0,-0.03,18523,9948.60,0,0,0,0.63,-2.73,0.00,0.15,1.00,-0.03
0.09277344,6.5584574E-4,-8.229166E-4,-0.0026496246,0.15,1.0,-0.02,18530,9947.70,0,0,165,0.77,-2.80,-0.07,0.15,1.00,-0.02
0.09277344,0.001655845,1.7708167E-4,-0.0026496246,0.15,0.99,-0.03,18546,9947.70,0,0,0,0.84,-2.73,-0.07,0.15,0.99,-0.03
-0.6074219,0.001655845,1.7708167E-4,-0.0016496246,0.15,1.0,-0.03,18561,9947.00,0,0,165,0.84,-2.73,0.00,0.15,1.00,-0.03
-0.6074219,-3.4415442E-4,1.7708167E-4,-0.0016496246,0.16,1.0,-0.02,18569,9947.00,0,0,0,0.70,-2.73,0.00,0.16,1.00,-0.02
0.09277344,-3.4415442E-4,1.7708167E-4,3.5037554E-4,0.15,1.0,-0.02,18584,9947.70,0,0,165,0.70,-2.73,0.14,0.15,1.00,-0.02
1.9921875,-0.0013441546,1.7708167E-4,0.0023503755,0.15,0.99,-0.02,18606,9949.60,0,0,0,0.63,-2.73,0.28,0.15,0.99,-0.02
0.09277344,-3.4415442E-4,-8.229166E-4,3.5037554E-4,0.15,1.0,-0.03,18607,9947.70,0,0,165,0.70,-2.80,0.14,0.15,1.00,-0.03
0.9921875,-3.4415442E-4,-8.229166E-4,0.25335038,0.15,1.0,-0.02,18621,9948.60,0,0,0,0.70,-2.80,17.85,0.15,1.00,-0.02
0.6923828,0.001655845,1.7708167E-4,-0.0016496246,0.15,1.0,-0.02,18636,9948.30,0,0,165,0.84,-2.73,0.00,0.15,1.00,-0.02
0.09277344,6.5584574E-4,-8.229166E-4,-0.0036496245,0.16,1.0,-0.03,18643,9947.70,0,0,0,0.77,-2.80,-0.14,0.16,1.00,-0.03
0.9921875,6.5584574E-4,-8.229166E-4,-0.0036496245,0.15,1.0,-0.03,18658,9948.60,0,0,165,0.77,-2.80,-0.14,0.15,1.00,-0.03
0.09277344,-3.4415442E-4,-8.229166E-4,-6.496245E-4,0.15,1.0,-0.02,18673,9947.70,0,0,0,0.70,-2.80,0.07,0.15,1.00,-0.02
-0.90722656,-3.4415442E-4,0.00117708,3.5037554E-4,0.15,1.0,-0.02,18681,9946.70,0,0,165,0.70,-2.66,0.14,0.15,1.00,-0.02
0.09277344,-0.0013441546,1.7708167E-4,0.0013503752,0.15,1.0,-0.02,18696,9947.70,0,0,0,0.63,-2.73,0.21,0.15,1.00,-0.02
0.09277344,-0.0013441546,-8.229166E-4,-0.0036496245,0.15,1.0,-0.02,18712,9947.70,0,0,165,0.63,-2.80,-0.14,0.15,1.00,-0.02
0.09277344,0.002655846,1.7708167E-4,-0.005649625,0.15,1.0,-0.03,18718,9947.70,0,0,0,0.91,-2.73,-0.28,0.15,1.00,-0.03
0.09277344,6.5584574E-4,-8.229166E-4,-0.004649624,0.15,1.0,-0.02,18733,9947.70,0,0,165,0.77,-2.80,-0.21,0.15,1.00,-0.02
0.09277344,0.001655845,1.7708167E-4,-0.0016496246,0.15,1.0,-0.02,18748,9947.70,0,0,0,0.84,-2.73,0.00,0.15,1.00,-0.02
0.39257812,-3.4415442E-4,1.7708167E-4,3.5037554E-4,0.15,1.0,-0.02,18756,9948.00,0,0,165,0.70,-2.73,0.14,0.15,1.00,-0.02
0.39257812,-0.0023441538,1.7708167E-4,0.0053503755,0.15,1.0,-0.03,18771,9948.00,0,0,0,0.56,-2.73,0.49,0.15,1.00,-0.03
0.09277344,-0.0013441546,1.7708167E-4,0.0033503752,0.15,1.0,-0.02,18786,9947.70,0,0,165,0.63,-2.73,0.35,0.15,1.00,-0.02
0.9921875,6.5584574E-4,0.00117708,0.0013503752,0.15,1.0,-0.02,18794,9948.60,0,0,0,0.77,-2.66,0.21,0.15,1.00,-0.02
0.9921875,-3.4415442E-4,1.7708167E-4,-0.0016496246,0.15,1.0,-0.02,18808,9948.60,0,0,165,0.70,-2.73,0.00,0.15,1.00,-0.02
0.09277344,0.002655846,1.7708167E-4,-0.0036496245,0.15,1.0,-0.02,18823,9947.70,0,0,0,0.91,-2.73,-0.14,0.15,1.00,-0.02
0.09277344,0.001655845,1.7708167E-4,-0.0036496245,0.15,1.0,-0.02,18831,9947.70,0,0,165,0.84,-2.73,-0.14,0.15,1.00,-0.02
0.09277344,-3.4415442E-4,-8.229166E-4,-0.0026496246,0.15,1.0,-0.02,18846,9947.70,0,0,0,0.70,-2.80,-0.07,0.15,1.00,-0.02
0.9921875,-3.4415442E-4,1.7708167E-4,-0.0016496246,0.15,1.0,-0.02,18861,9948.60,0,0,165,0.70,-2.73,0.00,0.15,1.00,-0.02
0.09277344,-0.003344154,1.7708167E-4,0.0033503752,0.15,1.0,-0.02,18868,9947.70,0,0,0,0.49,-2.73,0.35,0.15,1.00,-0.02
0.39257812,-0.003344154,-8.229166E-4,0.0013503752,0.15,1.0,-0.03,18883,9948.00,0,0,165,0.49,-2.80,0.21,0.15,1.00,-0.03
-0.6074219,-3.4415442E-4,1.7708167E-4,0.0013503752,0.15,1.0,-0.03,18898,9947.00,0,0,0,0.70,-2.73,0.21,0.15,1.00,-0.03
0.09277344,6.5584574E-4,1.7708167E-4,-0.0036496245,0.15,1.0,-0.02,18906,9947.70,0,0,165,0.77,-2.73,-0.14,0.15,1.00,-0.02
0.09277344,0.001655845,0.00117708,-0.004649624,0.15,1.0,-0.02,18921,9947.70,0,0,0,0.84,-2.66,-0.21,0.15,1.00,-0.02
0.09277344,0.001655845,0.00117708,-0.0026496246,0.15,1.0,-0.03,18935,9947.70,0,0,165,0.84,-2.66,-0.07,0.15,1.00,-0.03
-0.90722656,-3.4415442E-4,0.00117708,-0.0026496246,0.15,1.0,-0.02,18943,9946.70,0,0,0,0.70,-2.66,-0.07,0.15,1.00,-0.02
0.39257812,-0.0013441546,0.00117708,3.5037554E-4,0.15,1.0,-0.03,18958,9948.00,0,0,165,0.63,-2.66,0.14,0.15,1.00,-0.03
0.39257812,-0.0013441546,0.00117708,0.0023503755,0.15,1.0,-0.03,18973,9948.00,0,0,0,0.63,-2.66,0.28,0.15,1.00,-0.03
0.39257812,-3.4415442E-4,0.00117708,3.5037554E-4,0.15,1.0,-0.03,18981,9948.00,0,0,165,0.70,-2.66,0.14,0.15,1.00,-0.03
0.09277344,0.001655845,1.7708167E-4,-0.0016496246,0.15,1.0,-0.02,18996,9947.70,0,0,0,0.84,-2.73,0.00,0.15,1.00,-0.02
-0.6074219,0.002655846,0.00117708,-0.0016496246,0.15,1.0,-0.02,19018,9947.00,0,0,165,0.91,-2.66,0.00,0.15,1.00,-0.02
0.39257812,6.5584574E-4,1.7708167E-4,-0.0036496245,0.15,1.0,-0.03,19019,9948.00,0,0,0,0.77,-2.73,-0.14,0.15,1.00,-0.03
0.09277344,0.001655845,1.7708167E-4,-6.496245E-4,0.15,1.0,-0.03,19034,9947.70,0,0,165,0.84,-2.73,0.07,0.15,1.00,-0.03
0.39257812,-0.0013441546,1.7708167E-4,3.5037554E-4,0.15,1.0,-0.02,19049,9948.00,0,0,0,0.63,-2.73,0.14,0.15,1.00,-0.02
0.39257812,-0.0013441546,1.7708167E-4,0.0023503755,0.15,1.0,-0.02,19056,9948.00,0,0,165,0.63,-2.73,0.28,0.15,1.00,-0.02
1.2929688,-0.0013441546,-8.229166E-4,3.5037554E-4,0.15,1.0,-0.02,19071,9948.90,0,0,0,0.63,-2.80,0.14,0.15,1.00,-0.02
1.2929688,-0.0013441546,-8.229166E-4,-0.0026496246,0.15,1.0,-0.03,19086,9948.90,0,0,165,0.63,-2.80,-0.07,0.15,1.00,-0.03
1.2929688,0.001655845,1.7708167E-4,-0.005649625,0.15,1.0,-0.03,19094,9948.90,0,0,0,0.84,-2.73,-0.28,0.15,1.00,-0.03
1.2929688,0.001655845,-8.229166E-4,-0.004649624,0.15,1.0,-0.03,19108,9948.90,0,0,165,0.84,-2.80,-0.21,0.15,1.00,-0.03
0.39257812,6.5584574E-4,1.7708167E-4,-0.0016496246,0.15,1.0,-0.02,19124,9948.00,0,0,0,0.77,-2.73,0.00,0.15,1.00,-0.02
0.09277344,-3.4415442E-4,-8.229166E-4,0.0013503752,0.15,1.0,-0.02,19131,9947.70,0,0,165,0.70,-2.80,0.21,0.15,1.00,-0.02
1.6923828,-0.0023441538,0.00117708,0.0033503752,0.15,1.0,-0.02,19146,9949.30,0,0,0,0.56,-2.66,0.35,0.15,1.00,-0.02
0.39257812,-0.0023441538,1.7708167E-4,0.0023503755,0.15,1.0,-0.03,19161,9948.00,0,0,165,0.56,-2.73,0.28,0.15,1.00,-0.03
0.09277344,-3.4415442E-4,-0.0018229149,-6.496245E-4,0.15,1.0,-0.03,19169,9947.70,0,0,0,0.70,-2.87,0.07,0.15,1.00,-0.03
0.09277344,0.002655846,1.7708167E-4,-0.0026496246,0.15,1.0,-0.02,19184,9947.70,0,0,165,0.91,-2.73,-0.07,0.15,1.00,-0.02
1.2929688,0.001655845,0.00117708,-0.0036496245,0.15,1.0,-0.02,19198,9948.90,0,0,0,0.84,-2.66,-0.14,0.15,1.00,-0.02
0.39257812,0.001655845,0.00117708,-0.0036496245,0.16,1.0,-0.03,19206,9948.00,0,0,165,0.84,-2.66,-0.14,0.16,1.00,-0.03
0.39257812,0.001655845,1.7708167E-4,-0.0016496246,0.15,1.0,-0.02,19221,9948.00,0,0,0,0.84,-2.73,0.00,0.15,1.00,-0.02
0.39257812,-0.0013441546,0.00117708,0.0013503752,0.15,1.0,-0.02,19236,9948.00,0,0,165,0.63,-2.66,0.21,0.15,1.00,-0.02
0.39257812,-0.0023441538,-8.229166E-4,0.0013503752,0.15,1.0,-0.02,19243,9948.00,0,0,0,0.56,-2.80,0.21,0.15,1.00,-0.02
0.39257812,-0.003344154,-8.229166E-4,0.0013503752,0.15,1.0,-0.03,19258,9948.00,0,0,165,0.49,-2.80,0.21,0.15,1.00,-0.03
-0.6074219,6.5584574E-4,1.7708167E-4,-6.496245E-4,0.15,1.0,-0.02,19273,9947.00,0,0,0,0.77,-2.73,0.07,0.15,1.00,-0.02
0.39257812,6.5584574E-4,1.7708167E-4,-0.004649624,0.15,1.0,-0.03,19281,9948.00,0,0,165,0.77,-2.73,-0.21,0.15,1.00,-0.03
0.39257812,6.5584574E-4,-8.229166E-4,-0.0036496245,0.15,1.0,-0.03,19296,9948.00,0,0,0,0.77,-2.80,-0.14,0.15,1.00,-0.03
0.39257812,0.001655845,-8.229166E-4,-0.0026496246,0.15,1.0,-0.02,19311,9948.00,0,0,165,0.84,-2.80,-0.07,0.15,1.00,-0.02
-0.6074219,-3.4415442E-4,0.00117708,3.5037554E-4,0.15,1.0,-0.02,19318,9947.00,0,0,0,0.70,-2.66,0.14,0.15,1.00,-0.02
0.09277344,-0.0013441546,1.7708167E-4,0.0023503755,0.15,1.0,-0.03,19334,9947.70,0,0,165,0.63,-2.73,0.28,0.15,1.00,-0.03
-0.6074219,-0.0023441538,0.00117708,0.0033503752,0.15,1.0,-0.02,19348,9947.00,0,0,0,0.56,-2.66,0.35,0.15,1.00,-0.02
0.39257812,-3.4415442E-4,1.7708167E-4,0.0013503752,0.15,1.0,-0.03,19356,9948.00,0,0,165,0.70,-2.73,0.21,0.15,1.00,-0.03
0.39257812,6.5584574E-4,1.7708167E-4,-0.0036496245,0.15,1.0,-0.03,19371,9948.00,0,0,0,0.77,-2.73,-0.14,0.15,1.00,-0.03
0.39257812,0.001655845,-8.229166E-4,-0.005649625,0.15,1.0,-0.02,19385,9948.00,0,0,165,0.84,-2.80,-0.28,0.15,1.00,-0.02
0.39257812,0.002655846,1.7708167E-4,-0.005649625,0.15,1.0,-0.02,19393,9948.00,0,0,0,0.91,-2.73,-0.28,0.15,1.00,-0.02
0.39257812,6.5584574E-4,0.00117708,-6.496245E-4,0.15,1.0,-0.02,19408,9948.00,0,0,165,0.77,-2.66,0.07,0.15,1.00,-0.02
0.39257812,-3.4415442E-4,-8.229166E-4,0.0023503755,0.15,1.0,-0.02,19423,9948.00,0,0,0,0.70,-2.80,0.28,0.15,1.00,-0.02
0.39257812,-0.0023441538,-8.229166E-4,0.004350375,0.15,1.0,-0.02,19434,9948.00,0,0,165,0.56,-2.80,0.42,0.15,1.00,-0.02
0.39257812,-0.0023441538,1.7708167E-4,0.0013503752,0.15,1.0,-0.02,19445,9948.00,0,0,0,0.56,-2.73,0.21,0.15,1.00,-0.02
1.2929688,-3.4415442E-4,1.7708167E-4,0.0013503752,0.15,1.0,-0.02,19462,9948.90,0,0,165,0.70,-2.73,0.21,0.15,1.00,-0.02
0.39257812,0.001655845,0.00117708,-0.0026496246,0.16,1.0,-0.02,19468,9948.00,0,0,0,0.84,-2.66,-0.07,0.16,1.00,-0.02
0.39257812,0.001655845,-8.229166E-4,-0.004649624,0.15,1.0,-0.02,19483,9948.00,0,0,165,0.84,-2.80,-0.21,0.15,1.00,-0.02
-0.90722656,6.5584574E-4,1.7708167E-4,-0.0036496245,0.15,1.0,-0.03,19498,9946.70,0,0,0,0.77,-2.73,-0.14,0.15,1.00,-0.03
0.39257812,6.5584574E-4,1.7708167E-4,3.5037554E-4,0.15,1.0,-0.03,19505,9948.00,0,0,165,0.77,-2.73,0.14,0.15,1.00,-0.03
0.39257812,-0.0013441546,1.7708167E-4,0.0033503752,0.15,1.0,-0.02,19521,9948.00,0,0,0,0.63,-2.73,0.35,0.15,1.00,-0.02
0.39257812,-0.0013441546,0.002177082,0.0023503755,0.16,1.0,-0.03,19536,9948.00,0,0,165,0.63,-2.59,0.28,0.16,1.00,-0.03
0.39257812,-0.0013441546,0.00117708,0.0023503755,0.15,0.99,-0.02,19543,9948.00,0,0,0,0.63,-2.66,0.28,0.15,0.99,-0.02
0.39257812,6.5584574E-4,-8.229166E-4,3.5037554E-4,0.15,1.0,-0.02,19559,9948.00,0,0,165,0.77,-2.80,0.14,0.15,1.00,-0.02
-0.6074219,0.002655846,-8.229166E-4,-0.0026496246,0.15,1.0,-0.02,19574,9947.00,0,0,0,0.91,-2.80,-0.07,0.15,1.00,-0.02
-0.90722656,0.002655846,1.7708167E-4,-0.0016496246,0.15,1.0,-0.02,19581,9946.70,0,0,165,0.91,-2.73,0.00,0.15,1.00,-0.02
0.39257812,0.001655845,-0.0018229149,-0.004649624,0.15,1.0,-0.02,19596,9948.00,0,0,0,0.84,-2.87,-0.21,0.15,1.00,-0.02
0.39257812,-3.4415442E-4,0.002177082,-0.25564963,0.15,1.0,-0.02,19611,9948.00,0,0,165,0.70,-2.59,-17.78,0.15,1.00,-0.02
0.39257812,-0.0023441538,1.7708167E-4,-0.0016496246,0.15,1.0,-0.02,19618,9948.00,0,0,0,0.56,-2.73,0.00,0.15,1.00,-0.02
-0.6074219,-0.0023441538,0.00117708,-0.0016496246,0.15,1.0,-0.03,19634,9947.00,0,0,165,0.56,-2.66,0.00,0.15,1.00,-0.03
-0.6074219,-3.4415442E-4,0.00117708,-0.0016496246,0.15,1.0,-0.02,19649,9947.00,0,0,0,0.70,-2.66,0.00,0.15,1.00,-0.02
-0.6074219,6.5584574E-4,1.7708167E-4,-0.0036496245,0.15,1.0,-0.02,19656,9947.00,0,0,165,0.77,-2.73,-0.14,0.15,1.00,-0.02
1.2929688,6.5584574E-4,0.00117708,-0.0026496246,0.15,1.0,-0.02,19671,9948.90,0,0,0,0.77,-2.66,-0.07,0.15,1.00,-0.02
-0.6074219,0.002655846,0.002177082,-0.0016496246,0.15,1.0,-0.02,19686,9947.00,0,0,165,0.91,-2.59,0.00,0.15,1.00,-0.02
0.39257812,-0.0023441538,1.7708167E-4,0.0013503752,0.15,1.0,-0.02,19693,9948.00,0,0,0,0.56,-2.73,0.21,0.15,1.00,-0.02
-0.6074219,-3.4415442E-4,0.00117708,0.0023503755,0.15,1.0,-0.02,19708,9947.00,0,0,165,0.70,-2.66,0.28,0.15,1.00,-0.02
0.39257812,-0.0013441546,0.00117708,0.0023503755,0.15,1.0,-0.02,19723,9948.00,0,0,0,0.63,-2.66,0.28,0.15,1.00,-0.02
0.6923828,-0.0013441546,-8.229166E-4,3.5037554E-4,0.15,1.0,-0.02,19731,9948.30,0,0,165,0.63,-2.80,0.14,0.15,1.00,-0.02
0.39257812,6.5584574E-4,0.002177082,-6.496245E-4,0.15,0.99,-0.03,19745,9948.00,0,0,0,0.77,-2.59,0.07,0.15,0.99,-0.03
-0.6074219,6.5584574E-4,1.7708167E-4,-0.25764963,0.15,1.0,-0.02,19761,9947.00,0,0,165,0.77,-2.73,-17.92,0.15,1.00,-0.02
-0.20703125,-3.4415442E-4,1.7708167E-4,-0.0026496246,0.15,1.0,-0.03,19768,9947.40,0,0,0,0.70,-2.73,-0.07,0.15,1.00,-0.03
-0.20703125,6.5584574E-4,-8.229166E-4,-0.0026496246,0.15,1.0,-0.02,19784,9947.40,0,0,165,0.77,-2.80,-0.07,0.15,1.00,-0.02
0.39257812,-3.4415442E-4,1.7708167E-4,-6.496245E-4,0.16,1.0,-0.03,19798,9948.00,0,0,0,0.70,-2.73,0.07,0.16,1.00,-0.03
0.39257812,6.5584574E-4,0.00117708,-6.496245E-4,0.15,1.0,-0.02,19806,9948.00,0,0,165,0.77,-2.66,0.07,0.15,1.00,-0.02
-0.6074219,-0.0013441546,-8.229166E-4,3.5037554E-4,0.15,1.0,-0.02,19821,9947.00,0,0,0,0.63,-2.80,0.14,0.15,1.00,-0.02
0.39257812,-0.0013441546,1.7708167E-4,0.0013503752,0.15,0.99,-0.02,19835,9948.00,0,0,165,0.63,-2.73,0.21,0.15,0.99,-0.02
0.6923828,-3.4415442E-4,1.7708167E-4,3.5037554E-4,0.15,1.0,-0.02,19844,9948.30,0,0,0,0.70,-2.73,0.14,0.15,1.00,-0.02
-0.6074219,6.5584574E-4,0.00117708,3.5037554E-4,0.15,0.99,-0.02,19858,9947.00,0,0,165,0.77,-2.66,0.14,0.15,0.99,-0.02
0.6923828,0.001655845,0.00117708,-0.0016496246,0.15,1.0,-0.03,19873,9948.30,0,0,0,0.84,-2.66,0.00,0.15,1.00,-0.03
0.39257812,0.001655845,1.7708167E-4,-0.0016496246,0.15,1.0,-0.03,19880,9948.00,0,0,165,0.84,-2.73,0.00,0.15,1.00,-0.03
-0.20703125,0.001655845,-8.229166E-4,-0.0026496246,0.15,1.0,-0.03,19895,9947.40,0,0,0,0.84,-2.80,-0.07,0.15,1.00,-0.03
-0.20703125,0.001655845,1.7708167E-4,-0.0016496246,0.15,1.0,-0.02,19910,9947.40,0,0,165,0.84,-2.73,0.00,0.15,1.00,-0.02
-0.6074219,6.5584574E-4,1.7708167E-4,3.5037554E-4,0.15,1.0,-0.02,19919,9947.00,0,0,0,0.77,-2.73,0.14,0.15,1.00,-0.02
0.39257812,-0.0023441538,-8.229166E-4,3.5037554E-4,0.15,1.0,-0.02,19934,9948.00,0,0,165,0.56,-2.80,0.14,0.15,1.00,-0.02
0.39257812,-0.0013441546,1.7708167E-4,-6.496245E-4,0.15,1.0,-0.02,19948,9948.00,0,0,0,0.63,-2.73,0.07,0.15,1.00,-0.02
0.6923828,-0.0013441546,1.7708167E-4,-6.496245E-4,0.15,1.0,-0.03,19956,9948.30,0,0,165,0.63,-2.73,0.07,0.15,1.00,-0.03
-0.6074219,-0.0013441546,1.7708167E-4,-6.496245E-4,0.15,1.0,-0.02,19971,9947.00,0,0,0,0.63,-2.73,0.07,0.15,1.00,-0.02
0.39257812,-3.4415442E-4,1.7708167E-4,-6.496245E-4,0.15,1.0,-0.02,19986,9948.00,0,0,165,0.70,-2.73,0.07,0.15,1.00,-0.02
0.6923828,6.5584574E-4,0.00117708,-6.496245E-4,0.15,1.0,-0.03,19993,9948.30,0,0,0,0.77,-2.66,0.07,0.15,1.00,-0.03
0.6923828,-0.0013441546,0.00117708,-6.496245E-4,0.15,1.0,-0.02,20008,9948.30,0,0,165,0.63,-2.66,0.07,0.15,1.00,-0.02
0.39257812,-3.4415442E-4,1.7708167E-4,0.0013503752,0.15,1.0,-0.02,20023,9948.00,0,0,0,0.70,-2.73,0.21,0.15,1.00,-0.02
0.39257812,-3.4415442E-4,1.7708167E-4,-6.496245E-4,0.15,1.0,-0.03,20030,9948.00,0,0,165,0.70,-2.73,0.07,0.15,1.00,-0.03
-0.6074219,-3.4415442E-4,1.7708167E-4,3.5037554E-4,0.15,1.0,-0.02,20046,9947.00,0,0,0,0.70,-2.73,0.14,0.15,1.00,-0.02
0.39257812,-0.0013441546,0.00117708,-6.496245E-4,0.15,1.0,-0.02,20061,9948.00,0,0,165,0.63,-2.66,0.07,0.15,1.00,-0.02
-0.20703125,6.5584574E-4,0.00117708,-0.0026496246,0.15,1.0,-0.02,20069,9947.40,0,0,0,0.77,-2.66,-0.07,0.15,1.00,-0.02
-0.20703125,0.002655846,1.7708167E-4,-0.0036496245,0.15,1.0,-0.02,20083,9947.40,0,0,165,0.91,-2.73,-0.14,0.15,1.00,-0.02
-1.5078125,6.5584574E-4,1.7708167E-4,-6.496245E-4,0.15,1.0,-0.02,20098,9946.10,0,0,0,0.77,-2.73,0.07,0.15,1.00,-0.02
-1.5078125,6.5584574E-4,-8.229166E-4,-0.0016496246,0.15,1.0,-0.02,20105,9946.10,0,0,165,0.77,-2.80,0.00,0.15,1.00,-0.02
-0.6074219,-3.4415442E-4,0.00117708,0.0013503752,0.15,1.0,-0.03,20121,9947.00,0,0,0,0.70,-2.66,0.21,0.15,1.00,-0.03
0.6923828,-0.0023441538,1.7708167E-4,0.0013503752,0.15,1.0,-0.02,20144,9948.30,0,0,165,0.56,-2.73,0.21,0.15,1.00,-0.02
0.39257812,-0.0023441538,-8.229166E-4,-6.496245E-4,0.16,1.0,-0.03,20145,9948.00,0,0,0,0.56,-2.80,0.07,0.16,1.00,-0.03
0.6923828,6.5584574E-4,1.7708167E-4,-0.0026496246,0.15,1.0,-0.03,20158,9948.30,0,0,165,0.77,-2.73,-0.07,0.15,1.00,-0.03
-0.6074219,0.001655845,1.7708167E-4,-0.0026496246,0.15,1.0,-0.02,20173,9947.00,0,0,0,0.84,-2.73,-0.07,0.15,1.00,-0.02
-0.20703125,0.002655846,-8.229166E-4,-0.004649624,0.15,1.0,-0.02,20181,9947.40,0,0,165,0.91,-2.80,-0.21,0.15,1.00,-0.02
0.6923828,6.5584574E-4,0.00117708,-0.0036496245,0.15,1.0,-0.02,20196,9948.30,0,0,0,0.77,-2.66,-0.14,0.15,1.00,-0.02
0.39257812,-0.0013441546,1.7708167E-4,-0.0016496246,0.15,1.0,-0.02,20211,9948.00,0,0,165,0.63,-2.73,0.00,0.15,1.00,-0.02
0.39257812,-0.0023441538,1.7708167E-4,0.0013503752,0.15,1.0,-0.02,20218,9948.00,0,0,0,0.56,-2.73,0.21,0.15,1.00,-0.02
0.6923828,-0.0013441546,0.00117708,0.0023503755,0.15,1.0,-0.02,20233,9948.30,0,0,165,0.63,-2.66,0.28,0.15,1.00,-0.02
0.6923828,-3.4415442E-4,0.002177082,0.0023503755,0.15,1.0,-0.02,20248,9948.30,0,0,0,0.70,-2.59,0.28,0.15,1.00,-0.02
-0.20703125,0.001655845,1.7708167E-4,-0.0026496246,0.15,1.0,-0.02,20255,9947.40,0,0,165,0.84,-2.73,-0.07,0.15,1.00,-0.02
-0.6074219,6.5584574E-4,1.7708167E-4,-0.004649624,0.16,1.0,-0.02,20271,9947.00,0,0,0,0.77,-2.73,-0.21,0.16,1.00,-0.02
-0.20703125,6.5584574E-4,-8.229166E-4,-0.0026496246,0.16,1.0,-0.02,20286,9947.40,0,0,165,0.77,-2.80,-0.07,0.16,1.00,-0.02
0.6923828,-3.4415442E-4,-8.229166E-4,-0.0026496246,0.15,1.0,-0.03,20294,9948.30,0,0,0,0.70,-2.80,-0.07,0.15,1.00,-0.03
0.6923828,-3.4415442E-4,1.7708167E-4,3.5037554E-4,0.15,1.0,-0.02,20308,9948.30,0,0,165,0.70,-2.73,0.14,0.15,1.00,-0.02
-0.20703125,-0.0013441546,-8.229166E-4,0.0013503752,0.15,1.0,-0.02,20323,9947.40,0,0,0,0.63,-2.80,0.21,0.15,1.00,-0.02
0.09277344,-0.0013441546,1.7708167E-4,3.5037554E-4,0.16,1.0,-0.02,20330,9947.70,0,0,165,0.63,-2.73,0.14,0.16,1.00,-0.02
-0.20703125,-0.0013441546,1.7708167E-4,-0.0026496246,0.15,1.0,-0.02,20345,9947.40,0,0,0,0.63,-2.73,-0.07,0.15,1.00,-0.02
-0.20703125,6.5584574E-4,1.7708167E-4,-0.004649624,0.16,1.0,-0.02,20360,9947.40,0,0,165,0.77,-2.73,-0.21,0.16,1.00,-0.02
0.6923828,6.5584574E-4,-8.229166E-4,-0.004649624,0.15,1.0,-0.02,20368,9948.30,0,0,0,0.77,-2.80,-0.21,0.15,1.00,-0.02
0.6923828,-3.4415442E-4,0.002177082,-0.0016496246,0.15,1.0,-0.02,20383,9948.30,0,0,165,0.70,-2.59,0.00,0.15,1.00,-0.02
-0.20703125,-3.4415442E-4,0.00117708,-0.0016496246,0.15,1.0,-0.02,20398,9947.40,0,0,0,0.70,-2.66,0.00,0.15,1.00,-0.02
0.6923828,-0.0023441538,-8.229166E-4,0.0023503755,0.15,1.0,-0.02,20405,9948.30,0,0,165,0.56,-2.80,0.28,0.15,1.00,-0.02
-0.20703125,-0.0023441538,-8.229166E-4,0.0033503752,0.15,1.0,-0.02,20421,9947.40,0,0,0,0.56,-2.80,0.35,0.15,1.00,-0.02
-0.20703125,-0.0023441538,1.7708167E-4,3.5037554E-4,0.15,1.0,-0.03,20436,9947.40,0,0,165,0.56,-2.73,0.14,0.15,1.00,-0.03
-0.20703125,6.5584574E-4,1.7708167E-4,-0.0016496246,0.15,1.0,-0.02,20443,9947.40,0,0,0,0.77,-2.73,0.00,0.15,1.00,-0.02
-0.20703125,6.5584574E-4,-8.229166E-4,-0.0036496245,0.15,1.0,-0.02,20458,9947.40,0,0,165,0.77,-2.80,-0.14,0.15,1.00,-0.02
-0.20703125,6.5584574E-4,-0.0018229149,-0.0036496245,0.15,1.0,-0.02,20474,9947.40,0,0,0,0.77,-2.87,-0.14,0.15,1.00,-0.02
0.6923828,0.001655845,0.00117708,-6.496245E-4,0.15,1.0,-0.02,20480,9948.30,0,0,165,0.84,-2.66,0.07,0.15,1.00,-0.02
0.6923828,-3.4415442E-4,-8.229166E-4,-0.0016496246,0.15,1.0,-0.02,20496,9948.30,0,0,0,0.70,-2.80,0.00,0.15,1.00,-0.02
-0.20703125,-0.0023441538,1.7708167E-4,0.0023503755,0.15,1.0,-0.03,20513,9947.40,0,0,165,0.56,-2.73,0.28,0.15,1.00,-0.03
-0.6074219,-0.0013441546,1.7708167E-4,0.0023503755,0.15,1.0,-0.02,20518,9947.00,0,0,0,0.63,-2.73,0.28,0.15,1.00,-0.02
0.6923828,6.5584574E-4,0.00117708,3.5037554E-4,0.16,1.0,-0.03,20533,9948.30,0,0,165,0.77,-2.66,0.14,0.16,1.00,-0.03
0.6923828,6.5584574E-4,-8.229166E-4,-0.0026496246,0.15,1.0,-0.02,20548,9948.30,0,0,0,0.77,-2.80,-0.07,0.15,1.00,-0.02
-0.20703125,0.001655845,1.7708167E-4,-0.0036496245,0.15,1.0,-0.02,20563,9947.40,0,0,165,0.84,-2.73,-0.14,0.15,1.00,-0.02
0.6923828,0.002655846,0.00117708,-0.0026496246,0.15,1.0,-0.02,20571,9948.30,0,0,0,0.91,-2.66,-0.07,0.15,1.00,-0.02
-0.6074219,6.5584574E-4,-8.229166E-4,0.0023503755,0.15,1.0,-0.03,20585,9947.00,0,0,165,0.77,-2.80,0.28,0.15,1.00,-0.03
-0.20703125,-0.0013441546,1.7708167E-4,0.0013503752,0.15,1.0,-0.02,20593,9947.40,0,0,0,0.63,-2.73,0.21,0.15,1.00,-0.02
0.6923828,-0.003344154,1.7708167E-4,0.0013503752,0.15,1.0,-0.02,20608,9948.30,0,0,165,0.49,-2.73,0.21,0.15,1.00,-0.02
0.6923828,6.5584574E-4,0.00117708,0.0013503752,0.15,1.0,-0.02,20623,9948.30,0,0,0,0.77,-2.66,0.21,0.15,1.00,-0.02
-0.20703125,6.5584574E-4,1.7708167E-4,-0.0016496246,0.15,1.0,-0.02,20630,9947.40,0,0,165,0.77,-2.73,0.00,0.15,1.00,-0.02
-0.20703125,6.5584574E-4,-0.0018229149,-0.0066496246,0.15,1.0,-0.03,20646,9947.40,0,0,0,0.77,-2.87,-0.35,0.15,1.00,-0.03
0.6923828,0.001655845,-8.229166E-4,-0.0036496245,0.15,1.0,-0.02,20661,9948.30,0,0,165,0.84,-2.80,-0.14,0.15,1.00,-0.02
-0.20703125,0.001655845,1.7708167E-4,-0.0016496246,0.15,1.0,-0.02,20669,9947.40,0,0,0,0.84,-2.73,0.00,0.15,1.00,-0.02
-0.20703125,-3.4415442E-4,1.7708167E-4,0.0013503752,0.15,1.0,-0.02,20683,9947.40,0,0,165,0.70,-2.73,0.21,0.15,1.00,-0.02
0.09277344,-0.0023441538,1.7708167E-4,0.0023503755,0.15,1.0,-0.02,20698,9947.70,0,0,0,0.56,-2.73,0.28,0.15,1.00,-0.02
-0.20703125,-0.0013441546,1.7708167E-4,0.0023503755,0.15,0.99,-0.02,20706,9947.40,0,0,165,0.63,-2.73,0.28,0.15,0.99,-0.02
0.6923828,-3.4415442E-4,1.7708167E-4,-6.496245E-4,0.15,1.0,-0.02,20721,9948.30,0,0,0,0.70,-2.73,0.07,0.15,1.00,-0.02
-0.20703125,0.001655845,0.002177082,-0.0016496246,0.15,0.99,-0.03,20735,9947.40,0,0,165,0.84,-2.59,0.00,0.15,0.99,-0.03
0.6923828,0.002655846,0.00117708,-0.004649624,0.15,1.0,-0.02,20743,9948.30,0,0,0,0.91,-2.66,-0.21,0.15,1.00,-0.02
0.6923828,0.002655846,0.00117708,-0.0036496245,0.15,1.0,-0.02,20759,9948.30,0,0,165,0.91,-2.66,-0.14,0.15,1.00,-0.02
-0.20703125,-3.4415442E-4,0.00117708,-6.496245E-4,0.15,1.0,-0.02,20773,9947.40,0,0,0,0.70,-2.66,0.07,0.15,1.00,-0.02
-0.20703125,-0.0023441538,1.7708167E-4,3.5037554E-4,0.15,1.0,-0.02,20780,9947.40,0,0,165,0.56,-2.73,0.14,0.15,1.00,-0.02
0.6923828,-0.0023441538,1.7708167E-4,0.0023503755,0.15,1.0,-0.02,20796,9948.30,0,0,0,0.56,-2.73,0.28,0.15,1.00,-0.02
-0.20703125,-0.0013441546,1.7708167E-4,0.0013503752,0.15,1.0,-0.02,20811,9947.40,0,0,165,0.63,-2.73,0.21,0.15,1.00,-0.02
-0.20703125,0.001655845,1.7708167E-4,-6.496245E-4,0.15,1.0,-0.02,20818,9947.40,0,0,0,0.84,-2.73,0.07,0.15,1.00,-0.02
-0.20703125,0.002655846,1.7708167E-4,-0.0036496245,0.15,1.0,-0.02,20833,9947.40,0,0,165,0.91,-2.73,-0.14,0.15,1.00,-0.02
-0.20703125,0.001655845,1.7708167E-4,-0.0026496246,0.15,1.0,-0.03,20848,9947.40,0,0,0,0.84,-2.73,-0.07,0.15,1.00,-0.03
0.9921875,0.001655845,-8.229166E-4,-0.004649624,0.15,0.99,-0.02,20856,9948.60,0,0,165,0.84,-2.80,-0.21,0.15,0.99,-0.02
0.09277344,-3.4415442E-4,0.00117708,3.5037554E-4,0.15,1.0,-0.02,20871,9947.70,0,0,0,0.70,-2.66,0.14,0.15,1.00,-0.02
0.6923828,-0.0013441546,0.00117708,-6.496245E-4,0.15,1.0,-0.02,20886,9948.30,0,0,165,0.63,-2.66,0.07,0.15,1.00,-0.02
-0.20703125,-3.4415442E-4,-8.229166E-4,3.5037554E-4,0.15,1.0,-0.02,20897,9947.40,0,0,0,0.70,-2.80,0.14,0.15,1.00,-0.02
-0.20703125,6.5584574E-4,-8.229166E-4,3.5037554E-4,0.15,1.0,-0.02,20914,9947.40,0,0,165,0.77,-2.80,0.14,0.15,1.00,-0.02
0.6923828,6.5584574E-4,1.7708167E-4,-6.496245E-4,0.15,1.0,-0.02,20924,9948.30,0,0,0,0.77,-2.73,0.07,0.15,1.00,-0.02
-0.20703125,0.001655845,0.002177082,-0.0016496246,0.15,1.0,-0.02,20930,9947.40,0,0,165,0.84,-2.59,0.00,0.15,1.00,-0.02
-0.20703125,6.5584574E-4,1.7708167E-4,-0.0016496246,0.15,1.0,-0.02,20945,9947.40,0,0,0,0.77,-2.73,0.00,0.15,1.00,-0.02
-0.90722656,-3.4415442E-4,0.00117708,3.5037554E-4,0.15,1.0,-0.02,20960,9946.70,0,0,165,0.70,-2.66,0.14,0.15,1.00,-0.02
-0.20703125,-0.0013441546,0.00117708,3.5037554E-4,0.15,1.0,-0.03,20969,9947.40,0,0,0,0.63,-2.66,0.14,0.15,1.00,-0.03
-0.20703125,-0.003344154,0.00117708,0.0023503755,0.15,1.0,-0.03,20983,9947.40,0,0,165,0.49,-2.66,0.28,0.15,1.00,-0.03
-0.20703125,-0.0013441546,-8.229166E-4,0.0013503752,0.15,1.0,-0.03,20998,9947.40,0,0,0,0.63,-2.80,0.21,0.15,1.00,-0.03
0.9921875,6.5584574E-4,0.00117708,-0.0016496246,0.15,1.0,-0.02,21006,9948.60,0,0,165,0.77,-2.66,0.00,0.15,1.00,-0.02
-0.6074219,6.5584574E-4,1.7708167E-4,-0.0026496246,0.15,1.0,-0.03,21021,9947.00,0,0,0,0.77,-2.73,-0.07,0.15,1.00,-0.03
0.09277344,6.5584574E-4,-8.229166E-4,-0.004649624,0.15,1.0,-0.02,21036,9947.70,0,0,165,0.77,-2.80,-0.21,0.15,1.00,-0.02
-1.2070312,6.5584574E-4,1.7708167E-4,-0.0036496245,0.15,1.0,-0.02,21044,9946.40,0,0,0,0.77,-2.73,-0.14,0.15,1.00,-0.02
0.9921875,6.5584574E-4,-8.229166E-4,-0.0016496246,0.15,1.0,-0.02,21058,9948.60,0,0,165,0.77,-2.80,0.00,0.15,1.00,-0.02
-0.90722656,-3.4415442E-4,0.002177082,0.0013503752,0.15,1.0,-0.02,21073,9946.70,0,0,0,0.70,-2.59,0.21,0.15,1.00,-0.02
0.09277344,-3.4415442E-4,1.7708167E-4,3.5037554E-4,0.15,1.0,-0.02,21081,9947.70,0,0,165,0.70,-2.73,0.14,0.15,1.00,-0.02
1.9921875,6.5584574E-4,-8.229166E-4,-0.0016496246,0.15,1.0,-0.02,21103,9949.60,0,0,0,0.77,-2.80,0.00,0.15,1.00,-0.02
0.6923828,6.5584574E-4,0.00117708,-6.496245E-4,0.15,1.0,-0.02,21110,9948.30,0,0,165,0.77,-2.66,0.07,0.15,1.00,-0.02
0.09277344,6.5584574E-4,0.00117708,-0.0016496246,0.15,1.0,-0.02,21118,9947.70,0,0,0,0.77,-2.66,0.00,0.15,1.00,-0.02
0.6923828,0.001655845,1.7708167E-4,-0.005649625,0.15,1.0,-0.03,21133,9948.30,0,0,165,0.84,-2.73,-0.28,0.15,1.00,-0.03
0.9921875,0.001655845,0.00117708,-0.0026496246,0.15,1.0,-0.02,21148,9948.60,0,0,0,0.84,-2.66,-0.07,0.15,1.00,-0.02
0.09277344,-3.4415442E-4,1.7708167E-4,-6.496245E-4,0.15,1.0,-0.02,21156,9947.70,0,0,165,0.70,-2.73,0.07,0.15,1.00,-0.02
-0.90722656,-0.0023441538,0.00117708,3.5037554E-4,0.15,1.0,-0.02,21171,9946.70,0,0,0,0.56,-2.66,0.14,0.15,1.00,-0.02
-0.20703125,6.5584574E-4,1.7708167E-4,0.0023503755,0.15,1.0,-0.02,21185,9947.40,0,0,165,0.77,-2.73,0.28,0.15,1.00,-0.02
1.3925781,-3.4415442E-4,0.00117708,0.0013503752,0.15,1.0,-0.02,21193,9949.00,0,0,0,0.70,-2.66,0.21,0.15,1.00,-0.02
0.9921875,-3.4415442E-4,1.7708167E-4,-0.0036496245,0.15,1.0,-0.02,21208,9948.60,0,0,165,0.70,-2.73,-0.14,0.15,1.00,-0.02
-0.20703125,6.5584574E-4,-8.229166E-4,-0.005649625,0.15,1.0,-0.02,21223,9947.40,0,0,0,0.77,-2.80,-0.28,0.15,1.00,-0.02
0.6923828,0.002655846,0.00117708,-0.0036496245,0.15,1.0,-0.03,21231,9948.30,0,0,165,0.91,-2.66,-0.14,0.15,1.00,-0.03
0.09277344,-3.4415442E-4,-8.229166E-4,-0.0016496246,0.15,1.0,-0.03,21246,9947.70,0,0,0,0.70,-2.80,0.00,0.15,1.00,-0.03
-0.20703125,-3.4415442E-4,0.00117708,0.0013503752,0.15,1.0,-0.02,21260,9947.40,0,0,165,0.70,-2.66,0.21,0.15,1.00,-0.02
0.09277344,-0.0013441546,0.00117708,0.0013503752,0.15,1.0,-0.03,21268,9947.70,0,0,0,0.63,-2.66,0.21,0.15,1.00,-0.03
-0.20703125,-3.4415442E-4,0.00117708,3.5037554E-4,0.15,1.0,-0.02,21283,9947.40,0,0,165,0.70,-2.66,0.14,0.15,1.00,-0.02
0.09277344,6.5584574E-4,1.7708167E-4,-6.496245E-4,0.15,1.0,-0.02,21298,9947.70,0,0,0,0.77,-2.73,0.07,0.15,1.00,-0.02
0.09277344,6.5584574E-4,-8.229166E-4,-0.0026496246,0.15,1.0,-0.02,21306,9947.70,0,0,165,0.77,-2.80,-0.07,0.15,1.00,-0.02
-0.90722656,6.5584574E-4,-8.229166E-4,-0.0036496245,0.15,1.0,-0.03,21321,9946.70,0,0,0,0.77,-2.80,-0.14,0.15,1.00,-0.03
0.09277344,0.002655846,1.7708167E-4,-0.0036496245,0.15,1.0,-0.02,21336,9947.70,0,0,165,0.91,-2.73,-0.14,0.15,1.00,-0.02
-0.20703125,-3.4415442E-4,0.00117708,-6.496245E-4,0.15,1.0,-0.03,21343,9947.40,0,0,0,0.70,-2.66,0.07,0.15,1.00,-0.03
0.39257812,-0.0013441546,1.7708167E-4,-6.496245E-4,0.15,1.0,-0.02,21358,9948.00,0,0,165,0.63,-2.73,0.07,0.15,1.00,-0.02
-0.20703125,-0.0013441546,1.7708167E-4,0.0013503752,0.15,1.0,-0.03,21373,9947.40,0,0,0,0.63,-2.73,0.21,0.15,1.00,-0.03
0.9921875,-0.0013441546,1.7708167E-4,0.0013503752,0.15,0.99,-0.02,21381,9948.60,0,0,165,0.63,-2.73,0.21,0.15,0.99,-0.02
0.09277344,-0.0013441546,-8.229166E-4,-6.496245E-4,0.15,1.0,-0.03,21396,9947.70,0,0,0,0.63,-2.80,0.07,0.15,1.00,-0.03
0.09277344,0.001655845,1.7708167E-4,-0.0036496245,0.15,0.99,-0.02,21411,9947.70,0,0,165,0.84,-2.73,-0.14,0.15,0.99,-0.02
0.09277344,0.001655845,1.7708167E-4,-0.0016496246,0.15,1.0,-0.03,21418,9947.70,0,0,0,0.84,-2.73,0.00,0.15,1.00,-0.03
0.9921875,0.002655846,-8.229166E-4,-0.0026496246,0.15,1.0,-0.02,21433,9948.60,0,0,165,0.91,-2.80,-0.07,0.15,1.00,-0.02
-0.20703125,-3.4415442E-4,1.7708167E-4,3.5037554E-4,0.15,1.0,-0.02,21448,9947.40,0,0,0,0.70,-2.73,0.14,0.15,1.00,-0.02
0.09277344,-0.0013441546,-8.229166E-4,0.0023503755,0.15,1.0,-0.02,21456,9947.70,0,0,165,0.63,-2.80,0.28,0.15,1.00,-0.02
-0.20703125,-0.0013441546,1.7708167E-4,-6.496245E-4,0.15,1.0,-0.02,21470,9947.40,0,0,0,0.63,-2.73,0.07,0.15,1.00,-0.02
0.09277344,-3.4415442E-4,1.7708167E-4,-6.496245E-4,0.15,1.0,-0.02,21486,9947.70,0,0,165,0.70,-2.73,0.07,0.15,1.00,-0.02
0.09277344,-0.0013441546,1.7708167E-4,-0.0016496246,0.15,1.0,-0.02,21493,9947.70,0,0,0,0.63,-2.73,0.00,0.15,1.00,-0.02
0.09277344,0.002655846,1.7708167E-4,-0.0016496246,0.15,1.0,-0.03,21508,9947.70,0,0,165,0.91,-2.73,0.00,0.15,1.00,-0.03
-0.5078125,0.002655846,0.00117708,-0.0026496246,0.15,1.0,-0.02,21523,9947.10,0,0,0,0.91,-2.66,-0.07,0.15,1.00,-0.02
0.9921875,0.001655845,0.00117708,-0.0036496245,0.16,1.0,-0.02,21530,9948.60,0,0,165,0.84,-2.66,-0.14,0.16,1.00,-0.02
0.09277344,-0.0023441538,1.7708167E-4,3.5037554E-4,0.15,1.0,-0.03,21546,9947.70,0,0,0,0.56,-2.73,0.14,0.15,1.00,-0.03
0.09277344,6.5584574E-4,1.7708167E-4,3.5037554E-4,0.15,1.0,-0.03,21561,9947.70,0,0,165,0.77,-2.73,0.14,0.15,1.00,-0.03
0.09277344,-0.0013441546,1.7708167E-4,0.0023503755,0.16,1.0,-0.03,21569,9947.70,0,0,0,0.63,-2.73,0.28,0.16,1.00,-0.03
-0.90722656,-0.0013441546,0.00117708,-6.496245E-4,0.15,1.0,-0.02,21583,9946.70,0,0,165,0.63,-2.66,0.07,0.15,1.00,-0.02
0.09277344,0.002655846,-8.229166E-4,-0.0036496245,0.15,1.0,-0.02,21598,9947.70,0,0,0,0.91,-2.80,-0.14,0.15,1.00,-0.02
0.9921875,6.5584574E-4,-8.229166E-4,-0.0026496246,0.15,1.0,-0.03,21606,9948.60,0,0,165,0.77,-2.80,-0.07,0.15,1.00,-0.03
0.09277344,-3.4415442E-4,0.00117708,-0.0026496246,0.15,1.0,-0.02,21621,9947.70,0,0,0,0.70,-2.66,-0.07,0.15,1.00,-0.02
-0.90722656,6.5584574E-4,-8.229166E-4,-0.0016496246,0.15,1.0,-0.02,21635,9946.70,0,0,165,0.77,-2.80,0.00,0.15,1.00,-0.02
0.09277344,6.5584574E-4,0.00117708,-6.496245E-4,0.15,1.0,-0.03,21643,9947.70,0,0,0,0.77,-2.66,0.07,0.15,1.00,-0.03
-0.90722656,-0.0023441538,0.00117708,0.0023503755,0.16,1.0,-0.03,21659,9946.70,0,0,165,0.56,-2.66,0.28,0.16,1.00,-0.03
0.09277344,-3.4415442E-4,0.00117708,0.0023503755,0.15,1.0,-0.02,21673,9947.70,0,0,0,0.70,-2.66,0.28,0.15,1.00,-0.02
0.09277344,-3.4415442E-4,1.7708167E-4,-6.496245E-4,0.15,1.0,-0.03,21681,9947.70,0,0,165,0.70,-2.73,0.07,0.15,1.00,-0.03
0.09277344,6.5584574E-4,1.7708167E-4,-0.0026496246,0.15,1.0,-0.02,21696,9947.70,0,0,0,0.77,-2.73,-0.07,0.15,1.00,-0.02
0.09277344,0.001655845,0.00117708,-0.0026496246,0.15,1.0,-0.02,21710,9947.70,0,0,165,0.84,-2.66,-0.07,0.15,1.00,-0.02
0.09277344,-3.4415442E-4,1.7708167E-4,-0.0016496246,0.15,1.0,-0.03,21718,9947.70,0,0,0,0.70,-2.73,0.00,0.15,1.00,-0.03
0.09277344,-0.0013441546,0.00117708,-6.496245E-4,0.15,1.0,-0.02,21733,9947.70,0,0,165,0.63,-2.66,0.07,0.15,1.00,-0.02
0.09277344,-0.0013441546,0.00117708,0.0033503752,0.15,1.0,-0.02,21748,9947.70,0,0,0,0.63,-2.66,0.35,0.15,1.00,-0.02
-0.5078125,6.5584574E-4,-8.229166E-4,0.0023503755,0.15,1.0,-0.02,21756,9947.10,0,0,165,0.77,-2.80,0.28,0.15,1.00,-0.02
0.09277344,6.5584574E-4,-8.229166E-4,-6.496245E-4,0.15,1.0,-0.03,21771,9947.70,0,0,0,0.77,-2.80,0.07,0.15,1.00,-0.03
-0.90722656,0.001655845,-0.0018229149,-0.0036496245,0.15,1.0,-0.03,21786,9946.70,0,0,165,0.84,-2.87,-0.14,0.15,1.00,-0.03
0.09277344,0.002655846,1.7708167E-4,-0.004649624,0.15,1.0,-0.03,21794,9947.70,0,0,0,0.91,-2.73,-0.21,0.15,1.00,-0.03
0.09277344,0.001655845,-8.229166E-4,-0.004649624,0.15,1.0,-0.03,21808,9947.70,0,0,165,0.84,-2.80,-0.21,0.15,1.00,-0.03
-0.90722656,6.5584574E-4,-0.0018229149,-0.0016496246,0.15,1.0,-0.02,21823,9946.70,0,0,0,0.77,-2.87,0.00,0.15,1.00,-0.02
0.9921875,-3.4415442E-4,1.7708167E-4,-0.0016496246,0.15,1.0,-0.03,21831,9948.60,0,0,165,0.70,-2.73,0.00,0.15,1.00,-0.03
0.09277344,-0.003344154,-8.229166E-4,0.004350375,0.15,1.0,-0.02,21846,9947.70,0,0,0,0.49,-2.80,0.42,0.15,1.00,-0.02
0.39257812,-3.4415442E-4,0.00117708,3.5037554E-4,0.15,1.0,-0.02,21864,9948.00,0,0,165,0.70,-2.66,0.14,0.15,1.00,-0.02
0.09277344,6.5584574E-4,1.7708167E-4,-0.0016496246,0.15,1.0,-0.03,21868,9947.70,0,0,0,0.77,-2.73,0.00,0.15,1.00,-0.03
0.39257812,6.5584574E-4,1.7708167E-4,-0.005649625,0.15,1.0,-0.02,21883,9948.00,0,0,165,0.77,-2.73,-0.28,0.15,1.00,-0.02
0.09277344,0.002655846,1.7708167E-4,-0.005649625,0.15,1.0,-0.02,21898,9947.70,0,0,0,0.91,-2.73,-0.28,0.15,1.00,-0.02
0.09277344,0.001655845,1.7708167E-4,-0.0036496245,0.16,1.0,-0.03,21906,9947.70,0,0,165,0.84,-2.73,-0.14,0.16,1.00,-0.03
0.09277344,-0.0013441546,0.00117708,-6.496245E-4,0.15,1.0,-0.02,21921,9947.70,0,0,0,0.63,-2.66,0.07,0.15,1.00,-0.02
0.09277344,-0.0013441546,-8.229166E-4,3.5037554E-4,0.15,1.0,-0.02,21936,9947.70,0,0,165,0.63,-2.80,0.14,0.15,1.00,-0.02
0.9921875,-0.0023441538,0.00117708,0.0023503755,0.15,1.0,-0.02,21943,9948.60,0,0,0,0.56,-2.66,0.28,0.15,1.00,-0.02
0.09277344,-0.0013441546,1.7708167E-4,3.5037554E-4,0.15,1.0,-0.02,21959,9947.70,0,0,165,0.63,-2.73,0.14,0.15,1.00,-0.02
0.09277344,-3.4415442E-4,1.7708167E-4,-6.496245E-4,0.15,1.0,-0.02,21973,9947.70,0,0,0,0.70,-2.73,0.07,0.15,1.00,-0.02
1.3925781,0.002655846,-8.229166E-4,-0.0036496245,0.15,1.0,-0.03,21981,9949.00,0,0,165,0.91,-2.80,-0.14,0.15,1.00,-0.03
0.09277344,0.002655846,-8.229166E-4,-0.0026496246,0.15,1.0,-0.03,21997,9947.70,0,0,0,0.91,-2.80,-0.07,0.15,1.00,-0.03
0.39257812,-3.4415442E-4,-8.229166E-4,-0.0016496246,0.15,1.0,-0.02,22011,9948.00,0,0,165,0.70,-2.80,0.00,0.15,1.00,-0.02
1.3925781,6.5584574E-4,1.7708167E-4,0.0033503752,0.15,1.0,-0.03,22018,9949.00,0,0,0,0.77,-2.73,0.35,0.15,1.00,-0.03
0.39257812,-0.0013441546,0.00117708,0.0033503752,0.15,1.0,-0.02,22033,9948.00,0,0,165,0.63,-2.66,0.35,0.15,1.00,-0.02
0.09277344,-0.0023441538,1.7708167E-4,0.0023503755,0.15,1.0,-0.03,22048,9947.70,0,0,0,0.56,-2.73,0.28,0.15,1.00,-0.03
0.09277344,-3.4415442E-4,0.00117708,3.5037554E-4,0.15,1.0,-0.02,22055,9947.70,0,0,165,0.70,-2.66,0.14,0.15,1.00,-0.02
-0.20703125,6.5584574E-4,1.7708167E-4,-0.0036496245,0.15,1.0,-0.02,22070,9947.40,0,0,0,0.77,-2.73,-0.14,0.15,1.00,-0.02
0.09277344,0.002655846,1.7708167E-4,-0.004649624,0.15,1.0,-0.02,22086,9947.70,0,0,165,0.91,-2.73,-0.21,0.15,1.00,-0.02
-0.5078125,0.002655846,0.00117708,-0.004649624,0.15,1.0,-0.03,22093,9947.10,0,0,0,0.91,-2.66,-0.21,0.15,1.00,-0.03
-0.5078125,0.002655846,0.00117708,-0.0016496246,0.15,1.0,-0.03,22108,9947.10,0,0,165,0.91,-2.66,0.00,0.15,1.00,-0.03
0.39257812,-0.0013441546,1.7708167E-4,0.0023503755,0.15,1.0,-0.02,22123,9948.00,0,0,0,0.63,-2.73,0.28,0.15,1.00,-0.02
0.09277344,-0.003344154,1.7708167E-4,0.0033503752,0.15,1.0,-0.03,22130,9947.70,0,0,165,0.49,-2.73,0.35,0.15,1.00,-0.03
0.39257812,-0.0013441546,-8.229166E-4,0.0023503755,0.15,1.0,-0.02,22146,9948.00,0,0,0,0.63,-2.80,0.28,0.15,1.00,-0.02
0.39257812,-3.4415442E-4,-8.229166E-4,-6.496245E-4,0.15,1.0,-0.03,22161,9948.00,0,0,165,0.70,-2.80,0.07,0.15,1.00,-0.03
0.39257812,6.5584574E-4,-8.229166E-4,-0.005649625,0.15,1.0,-0.03,22168,9948.00,0,0,0,0.77,-2.80,-0.28,0.15,1.00,-0.03
0.39257812,0.002655846,1.7708167E-4,-0.0036496245,0.15,1.0,-0.02,22191,9948.00,0,0,165,0.91,-2.73,-0.14,0.15,1.00,-0.02
0.39257812,0.001655845,-8.229166E-4,-0.0036496245,0.15,1.0,-0.02,22198,9948.00,0,0,0,0.84,-2.80,-0.14,0.15,1.00,-0.02
-0.5078125,-3.4415442E-4,1.7708167E-4,-6.496245E-4,0.15,1.0,-0.02,22206,9947.10,0,0,165,0.70,-2.73,0.07,0.15,1.00,-0.02
0.39257812,-0.0023441538,1.7708167E-4,0.0053503755,0.15,1.0,-0.02,22221,9948.00,0,0,0,0.56,-2.73,0.49,0.15,1.00,-0.02
0.39257812,-0.0013441546,0.002177082,0.004350375,0.16,1.0,-0.02,22235,9948.00,0,0,165,0.63,-2.59,0.42,0.16,1.00,-0.02
-1.8076172,-0.0013441546,0.00117708,0.0023503755,0.15,1.0,-0.02,22243,9945.80,0,0,0,0.63,-2.66,0.28,0.15,1.00,-0.02
-0.90722656,6.5584574E-4,-8.229166E-4,-0.0026496246,0.15,1.0,-0.03,22258,9946.70,0,0,165,0.77,-2.80,-0.07,0.15,1.00,-0.03
0.39257812,0.001655845,1.7708167E-4,-0.0036496245,0.15,1.0,-0.03,22273,9948.00,0,0,0,0.84,-2.73,-0.14,0.15,1.00,-0.03
0.6923828,0.0036558462,1.7708167E-4,-0.005649625,0.15,1.0,-0.02,22281,9948.30,0,0,165,0.98,-2.73,-0.28,0.15,1.00,-0.02
0.39257812,0.0036558462,1.7708167E-4,-0.0026496246,0.15,1.0,-0.03,22295,9948.00,0,0,0,0.98,-2.73,-0.07,0.15,1.00,-0.03
-0.5078125,-3.4415442E-4,0.00117708,0.0013503752,0.15,1.0,-0.02,22310,9947.10,0,0,165,0.70,-2.66,0.21,0.15,1.00,-0.02
-0.5078125,-3.4415442E-4,-8.229166E-4,0.0023503755,0.15,1.0,-0.03,22319,9947.10,0,0,0,0.70,-2.80,0.28,0.15,1.00,-0.03
0.9921875,-0.0023441538,0.002177082,0.0033503752,0.15,1.0,-0.03,22334,9948.60,0,0,165,0.56,-2.59,0.35,0.15,1.00,-0.03
1.3925781,6.5584574E-4,0.00117708,0.0013503752,0.15,0.99,-0.02,22348,9949.00,0,0,0,0.77,-2.66,0.21,0.15,0.99,-0.02
0.39257812,-3.4415442E-4,1.7708167E-4,-0.0026496246,0.15,1.0,-0.02,22356,9948.00,0,0,165,0.70,-2.73,-0.07,0.15,1.00,-0.02
0.39257812,0.001655845,1.7708167E-4,-0.004649624,0.15,1.0,-0.02,22371,9948.00,0,0,0,0.84,-2.73,-0.21,0.15,1.00,-0.02
0.39257812,0.002655846,0.00117708,-0.0026496246,0.15,1.0,-0.03,22386,9948.00,0,0,165,0.91,-2.66,-0.07,0.15,1.00,-0.03
0.39257812,6.5584574E-4,0.00117708,-6.496245E-4,0.15,1.0,-0.03,22394,9948.00,0,0,0,0.77,-2.66,0.07,0.15,1.00,-0.03
-0.5078125,-3.4415442E-4,1.7708167E-4,0.0013503752,0.15,1.0,-0.03,22408,9947.10,0,0,165,0.70,-2.73,0.21,0.15,1.00,-0.03
0.39257812,6.5584574E-4,0.00117708,0.0013503752,0.15,1.0,-0.03,22424,9948.00,0,0,0,0.77,-2.66,0.21,0.15,1.00,-0.03
1.3925781,-0.003344154,1.7708167E-4,0.0013503752,0.16,0.99,-0.02,22431,9949.00,0,0,165,0.49,-2.73,0.21,0.16,0.99,-0.02
0.39257812,-0.0013441546,-8.229166E-4,3.5037554E-4,0.15,1.0,-0.03,22448,9948.00,0,0,0,0.63,-2.80,0.14,0.15,1.00,-0.03
1.3925781,6.5584574E-4,1.7708167E-4,-0.0016496246,0.15,1.0,-0.02,22461,9949.00,0,0,165,0.77,-2.73,0.00,0.15,1.00,-0.02
0.39257812,0.002655846,1.7708167E-4,-0.0026496246,0.15,1.0,-0.02,22468,9948.00,0,0,0,0.91,-2.73,-0.07,0.15,1.00,-0.02
-0.5078125,6.5584574E-4,1.7708167E-4,-0.0026496246,0.15,1.0,-0.02,22484,9947.10,0,0,165,0.77,-2.73,-0.07,0.15,1.00,-0.02
0.39257812,-3.4415442E-4,0.00117708,-0.0016496246,0.15,0.99,-0.03,22498,9948.00,0,0,0,0.70,-2.66,0.00,0.15,0.99,-0.03
0.39257812,-3.4415442E-4,1.7708167E-4,0.0023503755,0.15,1.0,-0.03,22516,9948.00,0,0,165,0.70,-2.73,0.28,0.15,1.00,-0.03
0.39257812,-3.4415442E-4,-8.229166E-4,3.5037554E-4,0.15,1.0,-0.02,22520,9948.00,0,0,0,0.70,-2.80,0.14,0.15,1.00,-0.02
0.39257812,0.001655845,0.00117708,3.5037554E-4,0.15,0.99,-0.02,22535,9948.00,0,0,165,0.84,-2.66,0.14,0.15,0.99,-0.02
0.09277344,0.001655845,0.00117708,-6.496245E-4,0.15,1.0,-0.02,22543,9947.70,0,0,0,0.84,-2.66,0.07,0.15,1.00,-0.02
-0.5078125,-3.4415442E-4,1.7708167E-4,-6.496245E-4,0.15,1.0,-0.02,22558,9947.10,0,0,165,0.70,-2.73,0.07,0.15,1.00,-0.02
-0.5078125,-3.4415442E-4,1.7708167E-4,-0.0016496246,0.15,1.0,-0.02,22573,9947.10,0,0,0,0.70,-2.73,0.00,0.15,1.00,-0.02
0.39257812,-3.4415442E-4,0.00117708,-6.496245E-4,0.15,1.0,-0.02,22581,9948.00,0,0,165,0.70,-2.66,0.07,0.15,1.00,-0.02
0.39257812,6.5584574E-4,1.7708167E-4,3.5037554E-4,0.15,1.0,-0.02,22595,9948.00,0,0,0,0.77,-2.73,0.14,0.15,1.00,-0.02
1.3925781,-0.0013441546,-8.229166E-4,-6.496245E-4,0.15,1.0,-0.02,22611,9949.00,0,0,165,0.63,-2.80,0.07,0.15,1.00,-0.02
0.39257812,6.5584574E-4,1.7708167E-4,-0.0016496246,0.15,1.0,-0.02,22618,9948.00,0,0,0,0.77,-2.73,0.00,0.15,1.00,-0.02
0.39257812,-3.4415442E-4,1.7708167E-4,-0.0036496245,0.15,1.0,-0.03,22633,9948.00,0,0,165,0.70,-2.73,-0.14,0.15,1.00,-0.03
-0.5078125,-3.4415442E-4,-8.229166E-4,-0.0016496246,0.15,1.0,-0.03,22648,9947.10,0,0,0,0.70,-2.80,0.00,0.15,1.00,-0.03
0.6923828,-0.0013441546,-8.229166E-4,-0.0026496246,0.15,1.0,-0.02,22655,9948.30,0,0,165,0.63,-2.80,-0.07,0.15,1.00,-0.02
-0.5078125,-3.4415442E-4,1.7708167E-4,-6.496245E-4,0.15,1.0,-0.02,22670,9947.10,0,0,0,0.70,-2.73,0.07,0.15,1.00,-0.02
0.39257812,-0.0013441546,1.7708167E-4,-6.496245E-4,0.15,1.0,-0.03,22685,9948.00,0,0,165,0.63,-2.73,0.07,0.15,1.00,-0.03
0.39257812,-3.4415442E-4,0.00117708,-6.496245E-4,0.15,1.0,-0.02,22694,9948.00,0,0,0,0.70,-2.66,0.07,0.15,1.00,-0.02
0.39257812,-0.0023441538,0.00117708,0.0013503752,0.15,1.0,-0.02,22708,9948.00,0,0,165,0.56,-2.66,0.21,0.15,1.00,-0.02
0.39257812,0.002655846,-8.229166E-4,-6.496245E-4,0.15,1.0,-0.02,22723,9948.00,0,0,0,0.91,-2.80,0.07,0.15,1.00,-0.02
-0.5078125,0.001655845,1.7708167E-4,-0.0016496246,0.15,1.0,-0.03,22730,9947.10,0,0,165,0.84,-2.73,0.00,0.15,1.00,-0.03
0.6923828,0.001655845,1.7708167E-4,-0.0036496245,0.15,1.0,-0.03,22745,9948.30,0,0,0,0.84,-2.73,-0.14,0.15,1.00,-0.03
0.39257812,-0.0013441546,1.7708167E-4,-0.0016496246,0.15,1.0,-0.02,22761,9948.00,0,0,165,0.63,-2.73,0.00,0.15,1.00,-0.02
-1.2070312,-0.0013441546,1.7708167E-4,3.5037554E-4,0.15,1.0,-0.02,22771,9946.40,0,0,0,0.63,-2.73,0.14,0.15,1.00,-0.02
0.39257812,-3.4415442E-4,0.00117708,-0.0016496246,0.15,1.0,-0.03,22783,9948.00,0,0,165,0.70,-2.66,0.00,0.15,1.00,-0.03
0.39257812,-0.0013441546,-8.229166E-4,3.5037554E-4,0.15,1.0,-0.02,22806,9948.00,0,0,0,0.63,-2.80,0.14,0.15,1.00,-0.02
-0.5078125,-0.0013441546,0.00117708,-0.0026496246,0.15,1.0,-0.02,22807,9947.10,0,0,165,0.63,-2.66,-0.07,0.15,1.00,-0.02
0.6923828,6.5584574E-4,0.00117708,-0.0016496246,0.15,1.0,-0.02,22821,9948.30,0,0,0,0.77,-2.66,0.00,0.15,1.00,-0.02
-0.20703125,6.5584574E-4,1.7708167E-4,-0.0016496246,0.15,1.0,-0.02,22828,9947.40,0,0,165,0.77,-2.73,0.00,0.15,1.00,-0.02
0.39257812,0.001655845,1.7708167E-4,3.5037554E-4,0.15,1.0,-0.02,22843,9948.00,0,0,0,0.84,-2.73,0.14,0.15,1.00,-0.02
0.39257812,-0.0013441546,1.7708167E-4,-0.0016496246,0.15,1.0,-0.03,22858,9948.00,0,0,165,0.63,-2.73,0.00,0.15,1.00,-0.03
0.39257812,-0.0013441546,1.7708167E-4,3.5037554E-4,0.15,1.0,-0.03,22865,9948.00,0,0,0,0.63,-2.73,0.14,0.15,1.00,-0.03
-0.5078125,-0.0023441538,-8.229166E-4,3.5037554E-4,0.15,1.0,-0.02,22881,9947.10,0,0,165,0.56,-2.80,0.14,0.15,1.00,-0.02
1.3925781,-3.4415442E-4,0.00117708,-6.496245E-4,0.15,1.0,-0.02,22895,9949.00,0,0,0,0.70,-2.66,0.07,0.15,1.00,-0.02
0.39257812,-3.4415442E-4,0.002177082,-6.496245E-4,0.15,1.0,-0.02,22910,9948.00,0,0,165,0.70,-2.59,0.07,0.15,1.00,-0.02
0.39257812,6.5584574E-4,1.7708167E-4,-0.0026496246,0.15,1.0,-0.03,22919,9948.00,0,0,0,0.77,-2.73,-0.07,0.15,1.00,-0.03
0.6923828,-3.4415442E-4,-8.229166E-4,-0.0036496245,0.15,1.0,-0.02,22933,9948.30,0,0,165,0.70,-2.80,-0.14,0.15,1.00,-0.02
-0.5078125,6.5584574E-4,0.00117708,-6.496245E-4,0.15,1.0,-0.02,22940,9947.10,0,0,0,0.77,-2.66,0.07,0.15,1.00,-0.02
0.39257812,-0.0013441546,0.00117708,0.0013503752,0.15,1.0,-0.02,22956,9948.00,0,0,165,0.63,-2.66,0.21,0.15,1.00,-0.02
0.6923828,-3.4415442E-4,1.7708167E-4,0.0023503755,0.15,1.0,-0.02,22970,9948.30,0,0,0,0.70,-2.73,0.28,0.15,1.00,-0.02
0.39257812,-0.0023441538,1.7708167E-4,0.0013503752,0.15,1.0,-0.02,22978,9948.00,0,0,165,0.56,-2.73,0.21,0.15,1.00,-0.02
0.39257812,-3.4415442E-4,1.7708167E-4,0.0013503752,0.16,1.0,-0.02,22993,9948.00,0,0,0,0.70,-2.73,0.21,0.16,1.00,-0.02
0.39257812,-3.4415442E-4,1.7708167E-4,-6.496245E-4,0.15,1.0,-0.02,23008,9948.00,0,0,165,0.70,-2.73,0.07,0.15,1.00,-0.02
0.6923828,0.001655845,0.00117708,-0.0026496246,0.15,1.0,-0.03,23016,9948.30,0,0,0,0.84,-2.66,-0.07,0.15,1.00,-0.03
0.6923828,6.5584574E-4,1.7708167E-4,-0.0016496246,0.15,1.0,-0.03,23031,9948.30,0,0,165,0.77,-2.73,0.00,0.15,1.00,-0.03
0.39257812,0.001655845,1.7708167E-4,-6.496245E-4,0.16,1.0,-0.02,23046,9948.00,0,0,0,0.84,-2.73,0.07,0.16,1.00,-0.02
0.39257812,6.5584574E-4,0.00117708,-6.496245E-4,0.15,1.0,-0.02,23053,9948.00,0,0,165,0.77,-2.66,0.07,0.15,1.00,-0.02
0.39257812,-3.4415442E-4,1.7708167E-4,0.0013503752,0.15,1.0,-0.03,23069,9948.00,0,0,0,0.70,-2.73,0.21,0.15,1.00,-0.03
-0.20703125,6.5584574E-4,-8.229166E-4,3.5037554E-4,0.15,1.0,-0.02,23083,9947.40,0,0,165,0.77,-2.80,0.14,0.15,1.00,-0.02
-0.20703125,-3.4415442E-4,0.00117708,3.5037554E-4,0.15,1.0,-0.03,23090,9947.40,0,0,0,0.70,-2.66,0.14,0.15,1.00,-0.03
-0.5078125,6.5584574E-4,1.7708167E-4,-0.0026496246,0.15,1.0,-0.02,23106,9947.10,0,0,165,0.77,-2.73,-0.07,0.15,1.00,-0.02
0.6923828,6.5584574E-4,-8.229166E-4,-0.0026496246,0.15,1.0,-0.02,23120,9948.30,0,0,0,0.77,-2.80,-0.07,0.15,1.00,-0.02
-0.20703125,-3.4415442E-4,1.7708167E-4,-6.496245E-4,0.15,1.0,-0.02,23129,9947.40,0,0,165,0.70,-2.73,0.07,0.15,1.00,-0.02
-1.2070312,0.001655845,0.00117708,3.5037554E-4,0.15,1.0,-0.03,23144,9946.40,0,0,0,0.84,-2.66,0.14,0.15,1.00,-0.03
-0.5078125,-3.4415442E-4,1.7708167E-4,0.0023503755,0.15,1.0,-0.02,23158,9947.10,0,0,165,0.70,-2.73,0.28,0.15,1.00,-0.02
-0.20703125,-3.4415442E-4,0.002177082,3.5037554E-4,0.15,1.0,-0.03,23166,9947.40,0,0,0,0.70,-2.59,0.14,0.15,1.00,-0.03
-0.20703125,-3.4415442E-4,1.7708167E-4,-6.496245E-4,0.15,1.0,-0.03,23180,9947.40,0,0,165,0.70,-2.73,0.07,0.15,1.00,-0.03
0.39257812,-3.4415442E-4,1.7708167E-4,-0.0026496246,0.16,1.0,-0.02,23196,9948.00,0,0,0,0.70,-2.73,-0.07,0.16,1.00,-0.02
0.39257812,-3.4415442E-4,0.00117708,-0.0016496246,0.15,1.0,-0.02,23203,9948.00,0,0,165,0.70,-2.66,0.00,0.15,1.00,-0.02
0.39257812,6.5584574E-4,1.7708167E-4,3.5037554E-4,0.15,1.0,-0.02,23218,9948.00,0,0,0,0.77,-2.73,0.14,0.15,1.00,-0.02
0.39257812,0.001655845,0.00117708,-6.496245E-4,0.15,1.0,-0.02,23233,9948.00,0,0,165,0.84,-2.66,0.07,0.15,1.00,-0.02
-0.20703125,6.5584574E-4,1.7708167E-4,-0.0016496246,0.15,1.0,-0.02,23241,9947.40,0,0,0,0.77,-2.73,0.00,0.15,1.00,-0.02
-0.5078125,-0.0013441546,1.7708167E-4,3.5037554E-4,0.15,1.0,-0.02,23256,9947.10,0,0,165,0.63,-2.73,0.14,0.15,1.00,-0.02
-0.5078125,-3.4415442E-4,0.00117708,-0.0016496246,0.15,1.0,-0.03,23271,9947.10,0,0,0,0.70,-2.66,0.00,0.15,1.00,-0.03
-0.20703125,6.5584574E-4,0.00117708,-0.0016496246,0.15,1.0,-0.02,23279,9947.40,0,0,165,0.77,-2.66,0.00,0.15,1.00,-0.02
-0.20703125,6.5584574E-4,1.7708167E-4,-0.0026496246,0.15,1.0,-0.03,23293,9947.40,0,0,0,0.77,-2.73,-0.07,0.15,1.00,-0.03
-0.5078125,0.002655846,0.00117708,-0.0026496246,0.15,1.0,-0.02,23308,9947.10,0,0,165,0.91,-2.66,-0.07,0.15,1.00,-0.02
0.6923828,6.5584574E-4,1.7708167E-4,-0.0016496246,0.15,1.0,-0.02,23315,9948.30,0,0,0,0.77,-2.73,0.00,0.15,1.00,-0.02
-0.5078125,-3.4415442E-4,-8.229166E-4,-6.496245E-4,0.15,1.0,-0.02,23330,9947.10,0,0,165,0.70,-2.80,0.07,0.15,1.00,-0.02
-0.20703125,6.5584574E-4,-8.229166E-4,-0.0026496246,0.15,1.0,-0.03,23345,9947.40,0,0,0,0.77,-2.80,-0.07,0.15,1.00,-0.03
-0.5078125,-0.0013441546,-8.229166E-4,3.5037554E-4,0.15,1.0,-0.02,23353,9947.10,0,0,165,0.63,-2.80,0.14,0.15,1.00,-0.02
0.6923828,-3.4415442E-4,1.7708167E-4,-6.496245E-4,0.15,1.0,-0.03,23368,9948.30,0,0,0,0.70,-2.73,0.07,0.15,1.00,-0.03
0.39257812,-0.0023441538,-8.229166E-4,-6.496245E-4,0.15,1.0,-0.02,23383,9948.00,0,0,165,0.56,-2.80,0.07,0.15,1.00,-0.02
-0.20703125,0.001655845,1.7708167E-4,3.5037554E-4,0.16,0.99,-0.03,23391,9947.40,0,0,0,0.84,-2.73,0.14,0.16,0.99,-0.03
-0.20703125,0.001655845,1.7708167E-4,-0.0026496246,0.15,1.0,-0.02,23405,9947.40,0,0,165,0.84,-2.73,-0.07,0.15,1.00,-0.02
2.9921875,-3.4415442E-4,0.00117708,-0.0016496246,0.15,0.99,-0.02,23421,9950.60,0,0,0,0.70,-2.66,0.00,0.15,0.99,-0.02
-0.5078125,-0.0013441546,1.7708167E-4,-6.496245E-4,0.15,1.0,-0.02,23429,9947.10,0,0,165,0.63,-2.73,0.07,0.15,1.00,-0.02
0.6923828,-3.4415442E-4,-8.229166E-4,-6.496245E-4,0.15,0.99,-0.02,23443,9948.30,0,0,0,0.70,-2.80,0.07,0.15,0.99,-0.02
0.6923828,-0.0013441546,0.00117708,-0.0016496246,0.15,1.0,-0.02,23459,9948.30,0,0,165,0.63,-2.66,0.00,0.15,1.00,-0.02
-0.5078125,-0.0013441546,0.00117708,-6.496245E-4,0.15,1.0,-0.03,23466,9947.10,0,0,0,0.63,-2.66,0.07,0.15,1.00,-0.03
0.6923828,-0.0013441546,-8.229166E-4,-6.496245E-4,0.15,1.0,-0.02,23481,9948.30,0,0,165,0.63,-2.80,0.07,0.15,1.00,-0.02
-0.20703125,0.001655845,0.00117708,-0.0016496246,0.15,1.0,-0.02,23495,9947.40,0,0,0,0.84,-2.66,0.00,0.15,1.00,-0.02
-0.20703125,6.5584574E-4,-8.229166E-4,-0.0016496246,0.15,1.0,-0.03,23503,9947.40,0,0,165,0.77,-2.80,0.00,0.15,1.00,-0.03
-0.20703125,6.5584574E-4,1.7708167E-4,-0.0016496246,0.15,1.0,-0.03,23518,9947.40,0,0,0,0.77,-2.73,0.00,0.15,1.00,-0.03
0.6923828,-3.4415442E-4,-8.229166E-4,-0.0016496246,0.15,1.0,-0.03,23526,9948.30,0,0,165,0.70,-2.80,0.00,0.15,1.00,-0.03
0.6923828,-0.0013441546,0.00117708,3.5037554E-4,0.15,1.0,-0.02,23541,9948.30,0,0,0,0.63,-2.66,0.14,0.15,1.00,-0.02
0.6923828,-0.0013441546,0.00117708,-6.496245E-4,0.15,1.0,-0.02,23555,9948.30,0,0,165,0.63,-2.66,0.07,0.15,1.00,-0.02
0.39257812,-3.4415442E-4,-8.229166E-4,-0.0016496246,0.15,1.0,-0.02,23563,9948.00,0,0,0,0.70,-2.80,0.00,0.15,1.00,-0.02
-0.20703125,0.001655845,-8.229166E-4,-0.004649624,0.15,1.0,-0.02,23578,9947.40,0,0,165,0.84,-2.80,-0.21,0.15,1.00,-0.02
-0.20703125,0.002655846,0.00117708,-0.0016496246,0.15,0.99,-0.02,23593,9947.40,0,0,0,0.91,-2.66,0.00,0.15,0.99,-0.02
0.6923828,0.001655845,-8.229166E-4,-0.004649624,0.15,1.0,-0.03,23600,9948.30,0,0,165,0.84,-2.80,-0.21,0.15,1.00,-0.03
-0.20703125,6.5584574E-4,1.7708167E-4,-6.496245E-4,0.15,1.0,-0.02,23615,9947.40,0,0,0,0.77,-2.73,0.07,0.15,1.00,-0.02
-0.5078125,6.5584574E-4,1.7708167E-4,3.5037554E-4,0.15,1.0,-0.03,23631,9947.10,0,0,165,0.77,-2.73,0.14,0.15,1.00,-0.03
0.09277344,-0.0013441546,0.00117708,0.0023503755,0.15,1.0,-0.02,23638,9947.70,0,0,0,0.63,-2.66,0.28,0.15,1.00,-0.02
0.6923828,-0.0023441538,1.7708167E-4,0.0023503755,0.15,1.0,-0.02,23653,9948.30,0,0,165,0.56,-2.73,0.28,0.15,1.00,-0.02
0.6923828,-0.0013441546,1.7708167E-4,0.0013503752,0.15,1.0,-0.02,23668,9948.30,0,0,0,0.63,-2.73,0.21,0.15,1.00,-0.02
-0.5078125,-0.0023441538,1.7708167E-4,-0.0016496246,0.15,1.0,-0.02,23675,9947.10,0,0,165,0.56,-2.73,0.00,0.15,1.00,-0.02
-0.20703125,6.5584574E-4,1.7708167E-4,-0.0026496246,0.15,1.0,-0.02,23691,9947.40,0,0,0,0.77,-2.73,-0.07,0.15,1.00,-0.02
0.6923828,6.5584574E-4,-8.229166E-4,-0.0036496245,0.15,1.0,-0.02,23705,9948.30,0,0,165,0.77,-2.80,-0.14,0.15,1.00,-0.02
0.6923828,0.002655846,0.00117708,-0.0016496246,0.15,1.0,-0.02,23713,9948.30,0,0,0,0.91,-2.66,0.00,0.15,1.00,-0.02
-0.5078125,-3.4415442E-4,-8.229166E-4,-0.0016496246,0.15,1.0,-0.03,23728,9947.10,0,0,165,0.70,-2.80,0.00,0.15,1.00,-0.03
-0.20703125,-0.0013441546,1.7708167E-4,0.0023503755,0.15,1.0,-0.03,23744,9947.40,0,0,0,0.63,-2.73,0.28,0.15,1.00,-0.03
-0.20703125,-0.0013441546,-8.229166E-4,0.0013503752,0.15,1.0,-0.03,23751,9947.40,0,0,165,0.63,-2.80,0.21,0.15,1.00,-0.03
-0.20703125,6.5584574E-4,1.7708167E-4,-6.496245E-4,0.15,1.0,-0.02,23765,9947.40,0,0,0,0.77,-2.73,0.07,0.15,1.00,-0.02
-0.20703125,6.5584574E-4,1.7708167E-4,-0.0026496246,0.15,1.0,-0.02,23780,9947.40,0,0,165,0.77,-2.73,-0.07,0.15,1.00,-0.02
-0.20703125,0.001655845,1.7708167E-4,-0.0026496246,0.15,1.0,-0.02,23788,9947.40,0,0,0,0.84,-2.73,-0.07,0.15,1.00,-0.02
0.6923828,-0.0013441546,-8.229166E-4,-6.496245E-4,0.15,1.0,-0.02,23803,9948.30,0,0,165,0.63,-2.80,0.07,0.15,1.00,-0.02
0.6923828,-0.0013441546,-8.229166E-4,-6.496245E-4,0.15,1.0,-0.02,23818,9948.30,0,0,0,0.63,-2.80,0.07,0.15,1.00,-0.02
-0.20703125,6.5584574E-4,1.7708167E-4,3.5037554E-4,0.15,1.0,-0.02,23825,9947.40,0,0,165,0.77,-2.73,0.14,0.15,1.00,-0.02
0.6923828,0.001655845,1.7708167E-4,-6.496245E-4,0.15,1.0,-0.02,23840,9948.30,0,0,0,0.84,-2.73,0.07,0.15,1.00,-0.02
0.6923828,-3.4415442E-4,-8.229166E-4,3.5037554E-4,0.15,1.0,-0.03,23855,9948.30,0,0,165,0.70,-2.80,0.14,0.15,1.00,-0.03
-0.20703125,-3.4415442E-4,1.7708167E-4,-0.004649624,0.15,1.0,-0.02,23863,9947.40,0,0,0,0.70,-2.73,-0.21,0.15,1.00,-0.02
-0.20703125,-3.4415442E-4,-8.229166E-4,-0.0016496246,0.15,1.0,-0.02,23879,9947.40,0,0,165,0.70,-2.80,0.00,0.15,1.00,-0.02
0.6923828,0.001655845,0.00117708,-6.496245E-4,0.15,1.0,-0.02,23895,9948.30,0,0,0,0.84,-2.66,0.07,0.15,1.00,-0.02
0.6923828,6.5584574E-4,0.002177082,3.5037554E-4,0.15,1.0,-0.02,23900,9948.30,0,0,165,0.77,-2.59,0.14,0.15,1.00,-0.02
-0.20703125,-0.0023441538,-8.229166E-4,3.5037554E-4,0.15,1.0,-0.02,23915,9947.40,0,0,0,0.56,-2.80,0.14,0.15,1.00,-0.02
1.0927734,-0.0013441546,1.7708167E-4,3.5037554E-4,0.15,1.0,-0.02,23930,9948.70,0,0,165,0.63,-2.73,0.14,0.15,1.00,-0.02
-0.20703125,-0.0013441546,1.7708167E-4,3.5037554E-4,0.15,1.0,-0.02,23938,9947.40,0,0,0,0.63,-2.73,0.14,0.15,1.00,-0.02
0.6923828,6.5584574E-4,-8.229166E-4,-0.0016496246,0.15,1.0,-0.02,23953,9948.30,0,0,165,0.77,-2.80,0.00,0.15,1.00,-0.02
0.6923828,0.002655846,1.7708167E-4,-6.496245E-4,0.15,1.0,-0.02,23968,9948.30,0,0,0,0.91,-2.73,0.07,0.15,1.00,-0.02
-0.20703125,6.5584574E-4,-8.229166E-4,-0.0016496246,0.15,1.0,-0.02,23976,9947.40,0,0,165,0.77,-2.80,0.00,0.15,1.00,-0.02
0.09277344,-3.4415442E-4,0.00117708,-6.496245E-4,0.15,1.0,-0.03,23991,9947.70,0,0,0,0.70,-2.66,0.07,0.15,1.00,-0.03
-0.20703125,6.5584574E-4,0.00117708,3.5037554E-4,0.15,1.0,-0.02,24005,9947.40,0,0,165,0.77,-2.66,0.14,0.15,1.00,-0.02
-0.20703125,-0.0013441546,1.7708167E-4,0.0013503752,0.15,1.0,-0.03,24013,9947.40,0,0,0,0.63,-2.73,0.21,0.15,1.00,-0.03
0.09277344,6.5584574E-4,1.7708167E-4,-6.496245E-4,0.15,1.0,-0.02,24028,9947.70,0,0,165,0.77,-2.73,0.07,0.15,1.00,-0.02
0.6923828,6.5584574E-4,0.00117708,-0.0036496245,0.15,1.0,-0.02,24043,9948.30,0,0,0,0.77,-2.66,-0.14,0.15,1.00,-0.02
1.0927734,6.5584574E-4,1.7708167E-4,-0.0016496246,0.15,1.0,-0.02,24051,9948.70,0,0,165,0.77,-2.73,0.00,0.15,1.00,-0.02
-0.20703125,0.002655846,0.002177082,-0.0016496246,0.15,1.0,-0.02,24065,9947.40,0,0,0,0.91,-2.59,0.00,0.15,1.00,-0.02
-0.20703125,0.001655845,1.7708167E-4,-0.0026496246,0.15,1.0,-0.02,24080,9947.40,0,0,165,0.84,-2.73,-0.07,0.15,1.00,-0.02
-1.5078125,-0.0013441546,0.00117708,3.5037554E-4,0.15,1.0,-0.02,24088,9946.10,0,0,0,0.63,-2.66,0.14,0.15,1.00,-0.02
0.09277344,-0.0013441546,1.7708167E-4,3.5037554E-4,0.15,1.0,-0.02,24103,9947.70,0,0,165,0.63,-2.73,0.14,0.15,1.00,-0.02
1.0927734,-3.4415442E-4,0.00117708,3.5037554E-4,0.15,1.0,-0.02,24118,9948.70,0,0,0,0.70,-2.66,0.14,0.15,1.00,-0.02
-1.2070312,-3.4415442E-4,1.7708167E-4,-0.0016496246,0.15,1.0,-0.03,24126,9946.40,0,0,165,0.70,-2.73,0.00,0.15,1.00,-0.03
0.6923828,6.5584574E-4,0.00117708,-0.0016496246,0.15,1.0,-0.02,24140,9948.30,0,0,0,0.77,-2.66,0.00,0.15,1.00,-0.02
-0.20703125,0.001655845,0.00117708,-0.0036496245,0.15,1.0,-0.02,24155,9947.40,0,0,165,0.84,-2.66,-0.14,0.15,1.00,-0.02
1.0927734,-0.0023441538,0.00117708,3.5037554E-4,0.15,1.0,-0.02,24162,9948.70,0,0,0,0.56,-2.66,0.14,0.15,1.00,-0.02
1.0927734,-0.0013441546,1.7708167E-4,-0.0016496246,0.15,1.0,-0.02,24179,9948.70,0,0,165,0.63,-2.73,0.00,0.15,1.00,-0.02
-0.20703125,-0.0013441546,0.00117708,-6.496245E-4,0.15,1.0,-0.02,24193,9947.40,0,0,0,0.63,-2.66,0.07,0.15,1.00,-0.02
1.0927734,6.5584574E-4,1.7708167E-4,-6.496245E-4,0.15,1.0,-0.02,24201,9948.70,0,0,165,0.77,-2.73,0.07,0.15,1.00,-0.02
0.09277344,6.5584574E-4,1.7708167E-4,-0.0016496246,0.15,1.0,-0.02,24216,9947.70,0,0,0,0.77,-2.73,0.00,0.15,1.00,-0.02
-0.5078125,-0.0013441546,1.7708167E-4,-6.496245E-4,0.16,1.0,-0.02,24238,9947.10,0,0,165,0.63,-2.73,0.07,0.16,1.00,-0.02
1.0927734,6.5584574E-4,-8.229166E-4,-0.0026496246,0.15,0.99,-0.03,24239,9948.70,0,0,0,0.77,-2.80,-0.07,0.15,0.99,-0.03
-0.20703125,-3.4415442E-4,0.00117708,-0.0026496246,0.15,1.0,-0.03,24253,9947.40,0,0,165,0.70,-2.66,-0.07,0.15,1.00,-0.03
0.09277344,-3.4415442E-4,-8.229166E-4,-0.0016496246,0.15,1.0,-0.02,24268,9947.70,0,0,0,0.70,-2.80,0.00,0.15,1.00,-0.02
-0.20703125,-3.4415442E-4,0.00117708,3.5037554E-4,0.15,1.0,-0.02,24275,9947.40,0,0,165,0.70,-2.66,0.14,0.15,1.00,-0.02
0.09277344,-3.4415442E-4,-8.229166E-4,3.5037554E-4,0.15,1.12,-0.03,24290,9947.70,0,0,0,0.70,-2.80,0.14,0.15,1.12,-0.03
-0.20703125,-0.0013441546,0.00117708,0.0013503752,0.15,1.0,-0.02,24299,9947.40,0,0,165,0.63,-2.66,0.21,0.15,1.00,-0.02
0.09277344,-0.0013441546,-8.229166E-4,-0.0016496246,0.15,1.0,-0.02,24313,9947.70,0,0,0,0.63,-2.80,0.00,0.15,1.00,-0.02
0.6923828,6.5584574E-4,1.7708167E-4,-0.0016496246,0.15,1.0,-0.02,24328,9948.30,0,0,165,0.77,-2.73,0.00,0.15,1.00,-0.02
0.6923828,0.001655845,1.7708167E-4,-0.0026496246,0.15,1.0,-0.03,24335,9948.30,0,0,0,0.84,-2.73,-0.07,0.15,1.00,-0.03
0.09277344,6.5584574E-4,1.7708167E-4,-0.0036496245,0.15,1.0,-0.03,24350,9947.70,0,0,165,0.77,-2.73,-0.14,0.15,1.00,-0.03
1.0927734,-0.0013441546,0.00117708,-6.496245E-4,0.15,1.0,-0.02,24366,9948.70,0,0,0,0.63,-2.66,0.07,0.15,1.00,-0.02
1.0927734,-3.4415442E-4,-8.229166E-4,-0.0016496246,0.15,1.0,-0.03,24373,9948.70,0,0,165,0.70,-2.80,0.00,0.15,1.00,-0.03
0.09277344,-3.4415442E-4,0.00117708,0.0013503752,0.15,1.0,-0.02,24388,9947.70,0,0,0,0.70,-2.66,0.21,0.15,1.00,-0.02
0.6923828,-3.4415442E-4,0.00117708,-6.496245E-4,0.15,1.0,-0.02,24403,9948.30,0,0,165,0.70,-2.66,0.07,0.15,1.00,-0.02
-1.2070312,6.5584574E-4,-8.229166E-4,-6.496245E-4,0.15,1.0,-0.02,24410,9946.40,0,0,0,0.77,-2.80,0.07,0.15,1.00,-0.02
0.09277344,6.5584574E-4,-8.229166E-4,-0.0036496245,0.15,1.0,-0.02,24426,9947.70,0,0,165,0.77,-2.80,-0.14,0.15,1.00,-0.02
0.09277344,0.001655845,0.00117708,-0.0016496246,0.15,1.0,-0.03,24441,9947.70,0,0,0,0.84,-2.66,0.00,0.15,1.00,-0.03
0.6923828,-3.4415442E-4,-8.229166E-4,0.0013503752,0.15,1.0,-0.02,24448,9948.30,0,0,165,0.70,-2.80,0.21,0.15,1.00,-0.02
0.6923828,-0.0013441546,1.7708167E-4,0.0023503755,0.15,1.0,-0.02,24463,9948.30,0,0,0,0.63,-2.73,0.28,0.15,1.00,-0.02
0.09277344,-0.0013441546,1.7708167E-4,0.0013503752,0.15,1.0,-0.03,24478,9947.70,0,0,165,0.63,-2.73,0.21,0.15,1.00,-0.03
-0.20703125,-0.0013441546,1.7708167E-4,0.0013503752,0.15,1.0,-0.03,24486,9947.40,0,0,0,0.63,-2.73,0.21,0.15,1.00,-0.03
0.09277344,-3.4415442E-4,1.7708167E-4,-0.0016496246,0.15,1.0,-0.03,24501,9947.70,0,0,165,0.70,-2.73,0.00,0.15,1.00,-0.03
0.09277344,0.001655845,-8.229166E-4,-0.004649624,0.15,1.0,-0.02,24516,9947.70,0,0,0,0.84,-2.80,-0.21,0.15,1.00,-0.02
0.09277344,0.002655846,-8.229166E-4,-0.0036496245,0.15,1.0,-0.02,24523,9947.70,0,0,165,0.91,-2.80,-0.14,0.15,1.00,-0.02
0.09277344,0.001655845,1.7708167E-4,-0.0026496246,0.15,1.0,-0.02,24538,9947.70,0,0,0,0.84,-2.73,-0.07,0.15,1.00,-0.02
1.0927734,6.5584574E-4,1.7708167E-4,-6.496245E-4,0.15,1.0,-0.03,24553,9948.70,0,0,165,0.77,-2.73,0.07,0.15,1.00,-0.03
0.09277344,-0.0023441538,1.7708167E-4,3.5037554E-4,0.15,1.0,-0.03,24561,9947.70,0,0,0,0.56,-2.73,0.14,0.15,1.00,-0.03
0.09277344,-0.0013441546,-8.229166E-4,0.0013503752,0.15,1.0,-0.02,24575,9947.70,0,0,165,0.63,-2.80,0.21,0.15,1.00,-0.02
0.09277344,-0.0013441546,1.7708167E-4,3.5037554E-4,0.16,1.0,-0.02,24590,9947.70,0,0,0,0.63,-2.73,0.14,0.16,1.00,-0.02
0.09277344,0.002655846,1.7708167E-4,-0.0016496246,0.15,1.0,-0.02,24598,9947.70,0,0,165,0.91,-2.73,0.00,0.15,1.00,-0.02
0.09277344,6.5584574E-4,1.7708167E-4,-0.0036496245,0.15,1.0,-0.02,24613,9947.70,0,0,0,0.77,-2.73,-0.14,0.15,1.00,-0.02
1.3925781,-0.0013441546,0.002177082,-0.0016496246,0.15,1.0,-0.02,24628,9949.00,0,0,165,0.63,-2.59,0.00,0.15,1.00,-0.02
0.09277344,-0.0013441546,1.7708167E-4,-0.0016496246,0.15,1.0,-0.02,24635,9947.70,0,0,0,0.63,-2.73,0.00,0.15,1.00,-0.02
1.0927734,-3.4415442E-4,0.00117708,3.5037554E-4,0.15,1.0,-0.02,24658,9948.70,0,0,165,0.70,-2.66,0.14,0.15,1.00,-0.02
0.09277344,-3.4415442E-4,-8.229166E-4,3.5037554E-4,0.15,1.0,-0.02,24665,9947.70,0,0,0,0.70,-2.80,0.14,0.15,1.00,-0.02
-0.8076172,-0.0013441546,0.00117708,-6.496245E-4,0.15,1.0,-0.02,24673,9946.80,0,0,165,0.63,-2.66,0.07,0.15,1.00,-0.02
0.09277344,0.002655846,0.00117708,-0.0016496246,0.15,1.0,-0.02,24688,9947.70,0,0,0,0.91,-2.66,0.00,0.15,1.00,-0.02
0.09277344,0.001655845,1.7708167E-4,-0.0036496245,0.15,1.0,-0.02,24703,9947.70,0,0,165,0.84,-2.73,-0.14,0.15,1.00,-0.02
0.09277344,-3.4415442E-4,1.7708167E-4,-0.0026496246,0.15,1.0,-0.03,24710,9947.70,0,0,0,0.70,-2.73,-0.07,0.15,1.00,-0.03
0.09277344,-0.0013441546,1.7708167E-4,-6.496245E-4,0.15,1.0,-0.03,24726,9947.70,0,0,165,0.63,-2.73,0.07,0.15,1.00,-0.03
0.09277344,-0.0013441546,1.7708167E-4,-6.496245E-4,0.15,1.0,-0.02,24733,9947.70,0,0,0,0.63,-2.73,0.07,0.15,1.00,-0.02
1.3925781,-0.003344154,0.00117708,3.5037554E-4,0.15,1.0,-0.02,24748,9949.00,0,0,165,0.49,-2.66,0.14,0.15,1.00,-0.02
-0.8076172,-0.0023441538,1.7708167E-4,3.5037554E-4,0.15,1.0,-0.03,24763,9946.80,0,0,0,0.56,-2.73,0.14,0.15,1.00,-0.03
1.9921875,-0.0023441538,1.7708167E-4,3.5037554E-4,0.15,1.0,-0.02,24771,9949.60,0,0,165,0.56,-2.73,0.14,0.15,1.00,-0.02
0.09277344,0.001655845,-0.0018229149,-0.0036496245,0.15,1.0,-0.02,24786,9947.70,0,0,0,0.84,-2.87,-0.14,0.15,1.00,-0.02
1.0927734,0.002655846,1.7708167E-4,-0.005649625,0.15,1.0,-0.02,24800,9948.70,0,0,165,0.91,-2.73,-0.28,0.15,1.00,-0.02
1.0927734,0.0036558462,0.00117708,-0.005649625,0.15,0.99,-0.02,24809,9948.70,0,0,0,0.98,-2.66,-0.28,0.15,0.99,-0.02
0.39257812,6.5584574E-4,1.7708167E-4,-0.0016496246,0.15,1.0,-0.03,24824,9948.00,0,0,165,0.77,-2.73,0.00,0.15,1.00,-0.03
1.0927734,-0.0023441538,1.7708167E-4,3.5037554E-4,0.15,1.0,-0.02,24838,9948.70,0,0,0,0.56,-2.73,0.14,0.15,1.00,-0.02
0.09277344,-0.003344154,1.7708167E-4,0.0033503752,0.15,1.0,-0.02,24846,9947.70,0,0,165,0.49,-2.73,0.35,0.15,1.00,-0.02
0.09277344,-0.0023441538,0.002177082,0.004350375,0.15,1.0,-0.02,24861,9947.70,0,0,0,0.56,-2.59,0.42,0.15,1.00,-0.02
0.09277344,-0.0013441546,0.00117708,0.0023503755,0.15,1.0,-0.02,24876,9947.70,0,0,165,0.63,-2.66,0.28,0.15,1.00,-0.02
-0.20703125,0.001655845,1.7708167E-4,-0.0026496246,0.15,1.0,-0.02,24883,9947.40,0,0,0,0.84,-2.73,-0.07,0.15,1.00,-0.02
0.09277344,0.002655846,-8.229166E-4,-0.004649624,0.15,1.0,-0.02,24898,9947.70,0,0,165,0.91,-2.80,-0.21,0.15,1.00,-0.02
0.09277344,0.002655846,1.7708167E-4,-0.0036496245,0.15,1.0,-0.02,24913,9947.70,0,0,0,0.91,-2.73,-0.14,0.15,1.00,-0.02
1.0927734,6.5584574E-4,1.7708167E-4,-0.0026496246,0.15,1.0,-0.02,24920,9948.70,0,0,165,0.77,-2.73,-0.07,0.15,1.00,-0.02
1.0927734,-0.0023441538,1.7708167E-4,0.0013503752,0.15,1.0,-0.03,24935,9948.70,0,0,0,0.56,-2.73,0.21,0.15,1.00,-0.03
0.09277344,-0.0023441538,1.7708167E-4,0.0023503755,0.15,1.0,-0.02,24951,9947.70,0,0,165,0.56,-2.73,0.28,0.15,1.00,-0.02
0.09277344,-0.0023441538,1.7708167E-4,0.0013503752,0.15,1.0,-0.03,24958,9947.70,0,0,0,0.56,-2.73,0.21,0.15,1.00,-0.03
0.09277344,-3.4415442E-4,1.7708167E-4,-0.0016496246,0.15,0.99,-0.02,24973,9947.70,0,0,165,0.70,-2.73,0.00,0.15,0.99,-0.02
0.09277344,0.0036558462,-0.0018229149,-0.004649624,0.15,1.0,-0.02,24988,9947.70,0,0,0,0.98,-2.87,-0.21,0.15,1.00,-0.02
-0.5078125,0.002655846,-8.229166E-4,-0.0066496246,0.15,1.0,-0.02,24996,9947.10,0,0,165,0.91,-2.80,-0.35,0.15,1.00,-0.02
-0.5078125,0.002655846,1.7708167E-4,-0.0016496246,0.15,1.0,-0.02,25011,9947.10,0,0,0,0.91,-2.73,0.00,0.15,1.00,-0.02
1.0927734,-0.0013441546,0.00117708,0.0023503755,0.16,1.0,-0.02,25025,9948.70,0,0,165,0.63,-2.66,0.28,0.16,1.00,-0.02
0.39257812,6.5584574E-4,1.7708167E-4,0.004350375,0.15,1.0,-0.03,25033,9948.00,0,0,0,0.77,-2.73,0.42,0.15,1.00,-0.03
0.09277344,-0.0023441538,0.002177082,0.004350375,0.16,1.0,-0.02,25048,9947.70,0,0,165,0.56,-2.59,0.42,0.16,1.00,-0.02
0.09277344,-3.4415442E-4,-8.229166E-4,-6.496245E-4,0.15,1.0,-0.02,25071,9947.70,0,0,0,0.70,-2.80,0.07,0.15,1.00,-0.02
0.09277344,0.001655845,-8.229166E-4,-0.0036496245,0.15,1.0,-0.02,25071,9947.70,0,0,165,0.84,-2.80,-0.14,0.15,1.00,-0.02
-0.8076172,0.0046558455,-8.229166E-4,-0.0076496243,0.15,1.0,-0.03,25085,9946.80,0,0,0,1.05,-2.80,-0.42,0.15,1.00,-0.03
0.39257812,0.0036558462,-0.0018229149,-0.0076496243,0.15,1.0,-0.02,25100,9948.00,0,0,165,0.98,-2.87,-0.42,0.15,1.00,-0.02
-0.5078125,0.001655845,-8.229166E-4,-0.005649625,0.15,1.0,-0.03,25108,9947.10,0,0,0,0.84,-2.80,-0.28,0.15,1.00,-0.03
1.0927734,-0.003344154,-0.0018229149,0.0033503752,0.15,1.0,-0.02,25123,9948.70,0,0,165,0.49,-2.87,0.35,0.15,1.00,-0.02
-0.8076172,-0.0043441546,0.00117708,0.0063503757,0.15,1.0,-0.02,25138,9946.80,0,0,0,0.42,-2.66,0.56,0.15,1.00,-0.02
0.09277344,-0.0023441538,-8.229166E-4,0.004350375,0.15,1.0,-0.02,25145,9947.70,0,0,165,0.56,-2.80,0.42,0.15,1.00,-0.02
0.09277344,-0.0023441538,0.00117708,0.0013503752,0.15,1.0,-0.02,25162,9947.70,0,0,0,0.56,-2.66,0.21,0.15,1.00,-0.02
-0.5078125,0.002655846,-0.0018229149,-0.0036496245,0.15,1.0,-0.03,25176,9947.10,0,0,165,0.91,-2.87,-0.14,0.15,1.00,-0.03
1.6923828,0.0036558462,-0.0018229149,-0.010649624,0.15,1.0,-0.03,25183,9949.30,0,0,0,0.98,-2.87,-0.63,0.15,1.00,-0.03
0.39257812,0.0036558462,-8.229166E-4,-0.008649625,0.15,1.0,-0.03,25198,9948.00,0,0,165,0.98,-2.80,-0.49,0.15,1.00,-0.03
-0.5078125,6.5584574E-4,-8.229166E-4,-6.496245E-4,0.15,1.0,-0.02,25213,9947.10,0,0,0,0.77,-2.80,0.07,0.15,1.00,-0.02
0.39257812,-0.0023441538,0.00117708,0.0023503755,0.15,1.0,-0.02,25220,9948.00,0,0,165,0.56,-2.66,0.28,0.15,1.00,-0.02
0.39257812,-0.003344154,0.00117708,0.007350375,0.16,1.0,-0.02,25235,9948.00,0,0,0,0.49,-2.66,0.63,0.16,1.00,-0.02
-0.5078125,-0.0023441538,1.7708167E-4,0.0063503757,0.16,1.0,-0.02,25251,9947.10,0,0,165,0.56,-2.73,0.56,0.16,1.00,-0.02
0.39257812,6.5584574E-4,1.7708167E-4,-6.496245E-4,0.16,1.0,-0.02,25258,9948.00,0,0,0,0.77,-2.73,0.07,0.16,1.00,-0.02
0.09277344,0.0036558462,1.7708167E-4,-0.010649624,0.15,1.0,-0.02,25273,9947.70,0,0,165,0.98,-2.73,-0.63,0.15,1.00,-0.02
0.39257812,0.0036558462,-8.229166E-4,-0.009649625,0.15,1.0,-0.02,25288,9948.00,0,0,0,0.98,-2.80,-0.56,0.15,1.00,-0.02
1.3925781,0.002655846,-8.229166E-4,-0.0066496246,0.15,1.0,-0.03,25296,9949.00,0,0,165,0.91,-2.80,-0.35,0.15,1.00,-0.03
0.39257812,-0.0023441538,0.00117708,0.0023503755,0.15,1.0,-0.02,25311,9948.00,0,0,0,0.56,-2.66,0.28,0.15,1.00,-0.02
-0.5078125,-0.0053441543,0.00117708,0.008350375,0.15,1.0,-0.02,25326,9947.10,0,0,165,0.35,-2.66,0.70,0.15,1.00,-0.02
0.39257812,-0.0073441546,0.00117708,0.008350375,0.15,1.0,-0.02,25333,9948.00,0,0,0,0.21,-2.66,0.70,0.15,1.00,-0.02
0.09277344,-0.0023441538,1.7708167E-4,0.0033503752,0.15,1.0,-0.02,25348,9947.70,0,0,165,0.56,-2.73,0.35,0.15,1.00,-0.02
1.0927734,0.001655845,1.7708167E-4,-0.004649624,0.15,1.0,-0.02,25363,9948.70,0,0,0,0.84,-2.73,-0.21,0.15,1.00,-0.02
0.09277344,0.0066558467,-0.002822917,-0.010649624,0.15,1.0,-0.02,25370,9947.70,0,0,165,1.19,-2.94,-0.63,0.15,1.00,-0.02
-0.8076172,0.0066558467,0.00117708,-0.012649625,0.15,1.0,-0.03,25385,9946.80,0,0,0,1.19,-2.66,-0.77,0.15,1.00,-0.03
0.09277344,0.002655846,1.7708167E-4,-0.0066496246,0.15,1.0,-0.02,25401,9947.70,0,0,165,0.91,-2.73,-0.35,0.15,1.00,-0.02
-0.5078125,-0.0023441538,0.00117708,0.0063503757,0.15,1.0,-0.02,25408,9947.10,0,0,0,0.56,-2.66,0.56,0.15,1.00,-0.02
0.39257812,-0.0053441543,0.002177082,0.009350375,0.16,1.0,-0.02,25423,9948.00,0,0,165,0.35,-2.59,0.77,0.16,1.00,-0.02
-0.8076172,-0.0053441543,0.00117708,0.008350375,0.15,1.0,-0.03,25438,9946.80,0,0,0,0.35,-2.66,0.70,0.15,1.00,-0.03
0.39257812,-0.003344154,1.7708167E-4,0.0023503755,0.16,1.0,-0.02,25446,9948.00,0,0,165,0.49,-2.73,0.28,0.16,1.00,-0.02
-0.8076172,6.5584574E-4,0.00117708,-0.0066496246,0.15,1.0,-0.02,25461,9946.80,0,0,0,0.77,-2.66,-0.35,0.15,1.00,-0.02
