Pressure_Rel,GyroX_Rel,GyroY_Rel,GyroZ_Rel,AccX_Rel,AccY_Rel,AccZ_Rel,Timestamp,Pressure_abs,HeartRate,Oxygen,Status,GyroX,GyroY,GyroZ,AccX,AccY,AccZ
0.0,0.0,0.0,0.0,0.0,0.0,0.0,4956,10077.10,0,0,165,0.49,-2.94,0.14,-0.19,0.82,-0.54
0.0,0.0,0.0,0.0,0.0,0.0,0.0,4963,10077.10,0,0,0,0.56,-3.08,0.14,-0.19,0.82,-0.53
0.0,0.0,0.0,0.0,0.0,0.0,0.0,4978,10077.50,0,0,165,0.49,-3.01,0.14,-0.19,0.82,-0.53
0.0,0.0,0.0,0.0,0.0,0.0,0.0,4993,10077.10,0,0,0,0.56,-2.94,0.07,-0.19,0.82,-0.54
0.0,0.0,0.0,0.0,0.0,0.0,0.0,5000,10077.10,0,0,165,0.56,-3.01,0.28,-0.19,0.83,-0.53
0.0,0.0,0.0,0.0,0.0,0.0,0.0,5016,10076.20,0,0,0,0.63,-2.94,0.07,-0.19,0.82,-0.53
0.0,0.0,0.0,0.0,0.0,0.0,0.0,5030,10077.50,0,0,165,0.49,-3.08,0.07,-0.19,0.82,-0.53
0.0,0.0,0.0,0.0,0.0,0.0,0.0,5045,10076.50,0,0,0,0.42,-2.94,0.00,-0.19,0.82,-0.53
0.0,0.0,0.0,0.0,0.0,0.0,0.0,5053,10076.50,0,0,165,0.49,-2.94,0.07,-0.19,0.82,-0.53
0.0,0.0,0.0,0.0,0.0,0.0,0.0,5074,10076.20,0,0,0,0.56,-3.01,-0.07,-0.19,0.82,-0.53
0.0,0.0,0.0,0.0,0.0,0.0,0.0,5076,10076.20,0,0,165,0.63,-3.01,0.07,-0.19,0.82,-0.54
0.0,0.0,0.0,0.0,0.0,0.0,0.0,5089,10077.50,0,0,0,0.70,-2.94,0.14,-0.19,0.82,-0.53
0.0,0.0,0.0,0.0,0.0,0.0,0.0,5105,10076.20,0,0,165,0.56,-2.94,0.14,-0.19,0.82,-0.53
0.0,0.0,0.0,0.0,0.0,0.0,0.0,5112,10076.50,0,0,0,0.63,-2.87,0.28,-0.19,0.82,-0.53
0.0,0.0,0.0,0.0,0.0,0.0,0.0,5127,10076.50,0,0,165,0.56,-2.87,0.14,-0.19,0.82,-0.53
0.0,0.0,0.0,0.0,0.0,0.0,0.0,5142,10077.50,0,0,0,0.56,-2.87,0.07,-0.19,0.82,-0.53
0.0,0.0,0.0,0.0,0.0,0.0,0.0,5151,10076.50,0,0,165,0.49,-2.94,0.07,-0.19,0.82,-0.53
0.0,0.0,0.0,0.0,0.0,0.0,0.0,5165,10075.20,0,0,0,0.56,-3.01,-0.07,-0.19,0.82,-0.54
0.0,0.0,0.0,0.0,0.0,0.0,0.0,5180,10077.50,0,0,165,0.63,-2.94,0.07,-0.19,0.82,-0.53
0.0,0.0,0.0,0.0,0.0,0.0,0.0,5188,10076.50,0,0,0,0.49,-2.94,0.07,-0.19,0.82,-0.54
0.0,0.0,0.0,0.0,0.0,0.0,0.0,5203,10076.80,0,0,165,0.63,-2.80,0.21,-0.19,0.83,-0.54
0.0,0.0,0.0,0.0,0.0,0.0,0.0,5218,10076.50,0,0,0,0.49,-2.94,0.21,-0.19,0.82,-0.54
0.0,0.0,0.0,0.0,0.0,0.0,0.0,5225,10076.50,0,0,165,0.70,-2.87,0.21,-0.19,0.82,-0.53
0.0,0.0,0.0,0.0,0.0,0.0,0.0,5241,10076.50,0,0,0,0.56,-2.80,0.21,-0.19,0.82,-0.54
0.0,0.0,0.0,0.0,0.0,0.0,0.0,5255,10076.50,0,0,165,0.70,-2.87,0.14,-0.19,0.82,-0.53
0.0,0.0,0.0,0.0,0.0,0.0,0.0,5263,10076.20,0,0,0,0.49,-3.01,0.14,-0.19,0.82,-0.53
0.0,0.0,0.0,0.0,0.0,0.0,0.0,5277,10076.50,0,0,165,0.49,-2.94,0.00,-0.19,0.82,-0.53
0.0,0.0,0.0,0.0,0.0,0.0,0.0,5292,10077.50,0,0,0,0.49,-2.87,0.07,-0.19,0.82,-0.53
0.0,0.0,0.0,0.0,0.0,0.0,0.0,5300,10076.50,0,0,165,0.49,-2.94,0.07,-0.19,0.82,-0.54
0.0,0.0,0.0,0.0,0.0,0.0,0.0,5315,10076.50,0,0,0,0.56,-2.94,0.00,-0.19,0.82,-0.53
0.0,0.0,0.0,0.0,0.0,0.0,0.0,5330,10077.50,0,0,165,0.49,-2.94,0.14,-0.19,0.82,-0.53
0.0,0.0,0.0,0.0,0.0,0.0,0.0,5337,10076.50,0,0,0,0.63,-2.80,0.21,-0.19,0.82,-0.53
0.0,0.0,0.0,0.0,0.0,0.0,0.0,5353,10076.50,0,0,165,0.56,-2.94,0.14,-0.19,0.82,-0.53
0.0,0.0,0.0,0.0,0.0,0.0,0.0,5375,10075.50,0,0,0,0.49,-2.94,0.00,-0.19,0.82,-0.53
0.0,0.0,0.0,0.0,0.0,0.0,0.0,5377,10076.50,0,0,165,0.56,-2.87,0.21,-0.19,0.82,-0.53
0.0,0.0,0.0,0.0,0.0,0.0,0.0,5390,10076.50,0,0,0,0.49,-2.94,0.14,-0.19,0.82,-0.53
0.0,0.0,0.0,0.0,0.0,0.0,0.0,5397,10076.50,0,0,165,0.63,-3.01,0.14,-0.19,0.82,-0.53
0.0,0.0,0.0,0.0,0.0,0.0,0.0,5412,10076.50,0,0,0,0.56,-2.94,0.14,-0.19,0.82,-0.54
0.0,0.0,0.0,0.0,0.0,0.0,0.0,5429,10077.50,0,0,165,0.56,-3.01,0.00,-0.19,0.82,-0.54
0.0,0.0,0.0,0.0,0.0,0.0,0.0,5436,10076.50,0,0,0,0.56,-3.01,0.07,-0.19,0.82,-0.53
0.0,0.0,0.0,0.0,0.0,0.0,0.0,5450,10077.50,0,0,165,0.49,-2.94,0.14,-0.19,0.82,-0.54
0.0,0.0,0.0,0.0,0.0,0.0,0.0,5465,10076.50,0,0,0,0.56,-3.01,0.14,-0.19,0.82,-0.53
0.0,0.0,0.0,0.0,0.0,0.0,0.0,5473,10076.50,0,0,165,0.70,-2.87,0.21,-0.19,0.82,-0.54
0.0,0.0,0.0,0.0,0.0,0.0,0.0,5488,10076.20,0,0,0,0.56,-2.94,0.21,-0.19,0.82,-0.53
0.0,0.0,0.0,0.0,0.0,0.0,0.0,5502,10077.50,0,0,165,0.49,-2.87,0.21,-0.19,0.83,-0.54
0.0,0.0,0.0,0.0,0.0,0.0,0.0,5510,10076.20,0,0,0,0.49,-3.01,0.14,-0.19,0.82,-0.53
0.0,0.0,0.0,0.0,0.0,0.0,0.0,5528,10077.50,0,0,165,0.42,-3.01,0.00,-0.19,0.82,-0.53
0.0,0.0,0.0,0.0,0.0,0.0,0.0,5541,10077.80,0,0,0,0.35,-3.01,0.07,-0.19,0.82,-0.54
0.0,0.0,0.0,0.0,0.0,0.0,0.0,5548,10076.50,0,0,165,0.49,-3.01,0.07,-0.19,0.82,-0.53
0.0,0.0,0.0,0.0,0.0,0.0,0.0,5563,10076.50,0,0,0,0.49,-3.01,0.00,-0.19,0.82,-0.53
0.0,0.0,0.0,0.0,0.0,0.0,0.0,5578,10076.20,0,0,165,0.56,-3.01,0.14,-0.19,0.82,-0.53
0.0,0.0,0.0,0.0,0.0,0.0,0.0,5585,10076.50,0,0,0,0.49,-3.01,0.14,-0.19,0.83,-0.53
0.0,0.0,0.0,0.0,0.0,0.0,0.0,5601,10076.20,0,0,165,0.49,-3.01,0.14,-0.19,0.82,-0.53
0.0,0.0,0.0,0.0,0.0,0.0,0.0,5619,10076.50,0,0,0,0.63,-2.94,0.14,-0.19,0.82,-0.54
0.0,0.0,0.0,0.0,0.0,0.0,0.0,5624,10076.50,0,0,165,0.49,-2.87,0.14,-0.19,0.82,-0.54
0.0,0.0,0.0,0.0,0.0,0.0,0.0,5638,10076.50,0,0,0,0.63,-2.94,0.21,-0.19,0.82,-0.54
0.0,0.0,0.0,0.0,0.0,0.0,0.0,5653,10077.50,0,0,165,0.56,-2.94,0.07,-0.19,0.82,-0.54
0.0,0.0,0.0,0.0,0.0,0.0,0.0,5660,10076.50,0,0,0,0.63,-2.87,0.00,-0.19,0.82,-0.53
0.0,0.0,0.0,0.0,0.0,0.0,0.0,5675,10077.50,0,0,165,0.49,-2.94,0.14,-0.19,0.82,-0.53
0.0,0.0,0.0,0.0,0.0,0.0,0.0,5690,10078.40,0,0,0,0.49,-2.94,0.14,-0.19,0.82,-0.53
0.0,0.0,0.0,0.0,0.0,0.0,0.0,5698,10077.50,0,0,165,0.56,-2.87,0.21,-0.19,0.82,-0.54
0.0,0.0,0.0,0.0,0.0,0.0,0.0,5713,10077.50,0,0,0,0.63,-2.87,0.07,-0.19,0.82,-0.54
0.0,0.0,0.0,0.0,0.0,0.0,0.0,5728,10077.50,0,0,165,0.56,-2.87,0.21,-0.19,0.82,-0.54
0.0,0.0,0.0,0.0,0.0,0.0,0.0,5736,10076.50,0,0,0,0.56,-2.87,0.14,-0.19,0.82,-0.54
0.0,0.0,0.0,0.0,0.0,0.0,0.0,5751,10075.50,0,0,165,0.49,-2.87,0.14,-0.19,0.82,-0.54
0.0,0.0,0.0,0.0,0.0,0.0,0.0,5765,10076.50,0,0,0,0.56,-2.87,0.07,-0.19,0.82,-0.54
0.0,0.0,0.0,0.0,0.0,0.0,0.0,5773,10076.50,0,0,165,0.56,-2.87,0.00,-0.19,0.82,-0.53
0.0,0.0,0.0,0.0,0.0,0.0,0.0,5788,10076.50,0,0,0,0.56,-2.87,0.14,-0.19,0.82,-0.54
0.0,0.0,0.0,0.0,0.0,0.0,0.0,5806,10076.50,0,0,165,0.42,-2.87,-0.07,-0.19,0.82,-0.54
0.0,0.0,0.0,0.0,0.0,0.0,0.0,5815,10076.50,0,0,0,0.42,-2.87,0.07,-0.19,0.82,-0.54
0.0,0.0,0.0,0.0,0.0,0.0,0.0,5825,10077.50,0,0,165,0.63,-2.80,0.14,-0.19,0.82,-0.54
0.0,0.0,0.0,0.0,0.0,0.0,0.0,5840,10076.50,0,0,0,0.77,-2.80,0.21,-0.19,0.82,-0.53
0.0,0.0,0.0,0.0,0.0,0.0,0.0,5848,10077.50,0,0,165,0.56,-2.94,0.00,-0.19,0.82,-0.54
0.0,0.0,0.0,0.0,0.0,0.0,0.0,5863,10076.50,0,0,0,0.07,-3.22,-0.28,-0.19,0.82,-0.53
0.0,0.0,0.0,0.0,0.0,0.0,0.0,5886,10076.50,0,0,165,0.07,-3.08,-0.21,-0.19,0.82,-0.53
0.0,0.0,0.0,0.0,0.0,0.0,0.0,5887,10076.50,0,0,0,0.56,-3.01,0.00,-0.19,0.82,-0.53
0.0,0.0,0.0,0.0,0.0,0.0,0.0,5901,10076.50,0,0,165,0.70,-2.87,0.35,-0.19,0.82,-0.53
0.0,0.0,0.0,0.0,0.0,0.0,0.0,5916,10077.50,0,0,0,0.84,-3.01,0.28,-0.19,0.82,-0.54
0.0,0.0,0.0,0.0,0.0,0.0,0.0,5923,10076.50,0,0,165,0.42,-3.01,0.14,-0.19,0.82,-0.54
0.0,0.0,0.0,0.0,0.0,0.0,0.0,5938,10076.50,0,0,0,0.49,-3.08,0.07,-0.19,0.82,-0.53
0.0,0.0,0.0,0.0,0.0,0.0,0.0,5952,10076.50,0,0,165,0.63,-3.08,0.21,-0.19,0.82,-0.53
0.0,0.0,0.0,0.0,0.0,0.0,0.0,5960,10076.20,0,0,0,0.84,-2.73,0.42,-0.19,0.82,-0.53
0.0,0.0,0.0,0.0,0.0,0.0,0.0,5976,10076.20,0,0,165,0.77,-2.87,0.21,-0.19,0.82,-0.54
0.0,0.0,0.0,0.0,0.0,0.0,0.0,5990,10076.50,0,0,0,0.42,-3.15,-0.14,-0.19,0.82,-0.54
0.0,0.0,0.0,0.0,0.0,0.0,0.0,6002,10077.50,0,0,165,0.00,-3.29,-0.28,-0.19,0.82,-0.54
0.0,0.0,0.0,0.0,0.0,0.0,0.0,6013,10077.50,0,0,0,0.42,-3.08,-0.07,-0.19,0.82,-0.53
0.0,0.0,0.0,0.0,0.0,0.0,0.0,6028,10075.50,0,0,165,0.84,-2.94,0.28,-0.19,0.83,-0.54
0.0,0.0,0.0,0.0,0.0,0.0,0.0,6036,10076.50,0,0,0,1.12,-2.73,0.42,-0.19,0.82,-0.54
0.0,0.0,0.0,0.0,0.0,0.0,0.0,6052,10076.50,0,0,165,0.98,-2.73,0.49,-0.19,0.82,-0.53
0.0,0.0,0.0,0.0,0.0,0.0,0.0,6066,10077.50,0,0,0,0.70,-2.94,0.28,-0.19,0.82,-0.54
0.0,0.0,0.0,0.0,0.0,0.0,0.0,6073,10077.50,0,0,165,0.49,-3.01,0.14,-0.19,0.82,-0.54
0.0,0.0,0.0,0.0,0.0,0.0,0.0,6088,10076.50,0,0,0,0.28,-3.08,-0.21,-0.20,0.83,-0.53
0.0,0.0,0.0,0.0,0.0,0.0,0.0,6103,10076.50,0,0,165,0.42,-3.01,0.00,-0.20,0.82,-0.53
0.0,0.0,0.0,0.0,0.0,0.0,0.0,6115,10077.50,0,0,0,0.63,-2.73,0.28,-0.19,0.82,-0.53
0.0,0.0,0.0,0.0,0.0,0.0,0.0,6125,10077.50,0,0,165,0.77,-2.87,0.21,-0.19,0.82,-0.54
0.0,0.0,0.0,0.0,0.0,0.0,0.0,6141,10076.50,0,0,0,0.70,-2.87,0.28,-0.19,0.82,-0.54
0.0,0.0,0.0,0.0,0.0,0.0,0.0,6148,10077.50,0,0,165,0.35,-3.15,-0.07,-0.19,0.82,-0.53
0.0,0.0,0.0,0.0,0.0,0.0,0.0,6163,10077.50,0,0,0,0.49,-3.01,0.07,-0.19,0.82,-0.53
0.0,0.0,0.0,0.0,0.0,0.0,0.0,6178,10077.10,0,0,165,0.63,-2.87,0.21,-0.20,0.82,-0.54
0.0,0.0,0.0,0.0,0.0,0.0,0.0,6187,10076.50,0,0,0,0.70,-2.80,0.35,-0.19,0.82,-0.53
0.0,0.0,0.0,0.0,0.0,0.0,0.0,6215,10076.50,0,0,165,-5.25,-4.83,-3.57,-0.20,0.80,-0.55
0.0,0.0,0.0,0.0,0.0,0.0,0.0,6217,10076.50,0,0,0,0.00,-10.22,-3.50,-0.20,0.87,-0.52
0.0,0.0,0.0,0.0,0.0,0.0,0.0,6222,10076.50,0,0,165,1.40,-3.78,-4.48,-0.29,0.73,-0.60
0.0,0.0,0.0,0.0,0.0,0.0,0.0,6240,10076.20,0,0,0,-10.15,-3.15,2.38,-0.19,0.85,-0.55
0.0,0.0,0.0,0.0,0.0,0.0,0.0,6253,10075.50,0,0,165,-13.16,-3.57,-6.72,-0.11,0.84,-0.48
0.0,0.0,0.0,0.0,0.0,0.0,0.0,6260,10077.50,0,0,0,-2.52,-8.26,-9.17,-0.21,0.87,-0.54
0.0,0.0,0.0,0.0,0.0,0.0,0.0,6275,10076.50,0,0,165,-2.52,-5.18,-4.62,-0.27,0.83,-0.55
0.0,0.0,0.0,0.0,0.0,0.0,0.0,6290,10076.50,0,0,0,0.77,-3.92,4.20,-0.20,0.85,-0.50
0.0,0.0,0.0,0.0,0.0,0.0,0.0,6298,10076.50,0,0,165,4.20,-2.03,2.03,-0.19,0.84,-0.52
0.0,0.0,0.0,0.0,0.0,0.0,0.0,6313,10076.50,0,0,0,11.76,-3.01,6.79,-0.19,0.86,-0.53
0.0,0.0,0.0,0.0,0.0,0.0,0.0,6328,10077.50,0,0,165,8.82,-0.84,2.24,-0.22,0.78,-0.55
0.0,0.0,0.0,0.0,0.0,0.0,0.0,6341,10077.50,0,0,0,5.04,-2.59,3.36,-0.17,0.76,-0.52
0.0,0.0,0.0,0.0,0.0,0.0,0.0,6351,10077.50,0,0,165,0.77,-5.18,-1.26,-0.18,0.83,-0.51
0.0,0.0,0.0,0.0,0.0,0.0,0.0,6365,10076.50,0,0,0,-3.01,-7.07,-5.53,-0.20,0.77,-0.57
0.0,0.0,0.0,0.0,0.0,0.0,0.0,6372,10076.50,0,0,165,-9.52,-9.24,-7.14,-0.18,0.77,-0.53
0.0,0.0,0.0,0.0,0.0,0.0,0.0,6388,10077.10,0,0,0,-15.89,-11.69,-13.16,-0.18,0.81,-0.52
0.0,0.0,0.0,0.0,0.0,0.0,0.0,6404,10076.50,0,0,165,-16.03,-12.18,-14.00,-0.19,0.82,-0.51
0.0,0.0,0.0,0.0,0.0,0.0,0.0,6410,10076.50,0,0,0,-19.67,-14.07,-15.12,-0.24,0.85,-0.53
0.0,0.0,0.0,0.0,0.0,0.0,0.0,6425,10076.50,0,0,165,-15.68,-11.41,-11.62,-0.25,0.84,-0.52
0.0,0.0,0.0,0.0,0.0,0.0,0.0,6440,10077.50,0,0,0,-13.37,-5.74,-8.40,-0.24,0.83,-0.49
0.0,0.0,0.0,0.0,0.0,0.0,0.0,6455,10076.50,0,0,165,-12.04,-4.41,-6.79,-0.23,0.83,-0.50
0.0,0.0,0.0,0.0,0.0,0.0,0.0,6463,10076.50,0,0,0,-11.55,-4.90,-8.47,-0.21,0.83,-0.52
0.0,0.0,0.0,0.0,0.0,0.0,0.0,6477,10077.10,0,0,165,-11.97,-4.34,-5.60,-0.20,0.85,-0.52
0.0,0.0,0.0,0.0,0.0,0.0,0.0,6486,10077.50,0,0,0,-14.14,-5.67,0.70,-0.24,0.81,-0.49
0.0,0.0,0.0,0.0,0.0,0.0,0.0,6502,10077.50,0,0,165,-7.49,1.33,8.82,-0.25,0.87,-0.47
0.0,0.0,0.0,0.0,0.0,0.0,0.0,6515,10076.50,0,0,0,3.15,6.86,17.57,-0.24,0.88,-0.44
0.0,0.0,0.0,0.0,0.0,0.0,0.0,6528,10077.50,0,0,165,8.61,-0.35,13.58,-0.18,0.90,-0.62
0.0,0.0,0.0,0.0,0.0,0.0,0.0,6538,10076.50,0,0,0,-1.82,-7.21,4.90,-0.18,0.83,-0.59
0.0,0.0,0.0,0.0,0.0,0.0,0.0,6553,10076.50,0,0,165,-9.38,-14.77,-3.36,-0.21,0.86,-0.58
0.0,0.0,0.0,0.0,0.0,0.0,0.0,6560,10076.50,0,0,0,-22.05,-22.33,-11.55,-0.22,0.88,-0.51
0.0,0.0,0.0,0.0,0.0,0.0,0.0,6575,10076.50,0,0,165,-24.64,-26.04,-16.59,-0.26,0.95,-0.52
0.0,0.0,0.0,0.0,0.0,0.0,0.0,6595,10077.50,0,0,0,-2.17,-10.64,-1.05,-0.23,0.91,-0.29
0.0,0.0,0.0,0.0,0.0,0.0,0.0,6602,10076.50,0,0,165,36.82,17.43,17.15,-0.27,0.74,-0.30
0.0,0.0,0.0,0.0,0.0,0.0,0.0,6612,10077.50,0,0,0,61.81,11.34,18.34,-0.25,0.76,-0.34
0.0,0.0,0.0,0.0,0.0,0.0,0.0,6627,10077.50,0,0,165,63.42,14.21,17.22,-0.23,0.82,-0.53
0.0,0.0,0.0,0.0,0.0,0.0,0.0,6635,10076.50,0,0,0,37.59,19.88,18.90,-0.24,0.92,-0.79
0.0,0.0,0.0,0.0,0.0,0.0,0.0,6653,10076.50,0,0,165,22.12,5.32,21.28,-0.14,0.85,-0.66
0.0,0.0,0.0,0.0,0.0,0.0,0.0,6669,10077.50,0,0,0,3.64,-3.22,8.89,-0.08,0.73,-0.50
0.0,0.0,0.0,0.0,0.0,0.0,0.0,6673,10077.50,0,0,165,-2.87,-8.54,-6.23,-0.14,0.69,-0.45
0.0,0.0,0.0,0.0,0.0,0.0,0.0,6688,10077.10,0,0,0,-7.70,-8.96,-12.25,-0.24,0.80,-0.52
0.0,0.0,0.0,0.0,0.0,0.0,0.0,6703,10076.80,0,0,165,-7.84,-4.83,-4.62,-0.27,0.90,-0.57
0.0,0.0,0.0,0.0,0.0,0.0,0.0,6710,10076.50,0,0,0,0.56,-1.40,3.22,-0.22,0.89,-0.53
0.0,0.0,0.0,0.0,0.0,0.0,0.0,6725,10076.20,0,0,165,4.83,-1.47,3.22,-0.18,0.81,-0.50
0.0,0.0,0.0,0.0,0.0,0.0,0.0,6740,10077.50,0,0,0,5.81,-2.03,-0.14,-0.18,0.77,-0.52
0.0,0.0,0.0,0.0,0.0,0.0,0.0,6747,10077.50,0,0,165,-0.42,-2.66,-1.26,-0.20,0.81,-0.57
0.0,0.0,0.0,0.0,0.0,0.0,0.0,6762,10076.20,0,0,0,-3.78,-3.99,-1.47,-0.19,0.86,-0.55
0.0,0.0,0.0,0.0,0.0,0.0,0.0,6777,10077.50,0,0,165,-0.35,-4.20,-1.05,-0.20,0.84,-0.51
0.0,0.0,0.0,0.0,0.0,0.0,0.0,6786,10077.50,0,0,0,3.08,-2.45,0.21,-0.22,0.81,-0.52
0.0,0.0,0.0,0.0,0.0,0.0,0.0,6802,10078.40,0,0,165,2.03,-0.70,2.10,-0.21,0.82,-0.54
0.0,0.0,0.0,0.0,0.0,0.0,0.0,6819,10077.50,0,0,0,1.26,-1.19,2.38,-0.18,0.84,-0.54
0.0,0.0,0.0,0.0,0.0,0.0,0.0,6823,10076.50,0,0,165,1.54,-2.87,0.42,-0.18,0.83,-0.53
0.0,0.0,0.0,0.0,0.0,0.0,0.0,6838,10077.50,0,0,0,1.26,-3.64,-0.84,-0.20,0.80,-0.53
0.0,0.0,0.0,0.0,0.0,0.0,0.0,6854,10076.50,0,0,165,-0.77,-3.36,-0.70,-0.20,0.81,-0.53
0.0,0.0,0.0,0.0,0.0,0.0,0.0,6860,10076.50,0,0,0,-1.40,-2.94,-0.70,-0.19,0.83,-0.53
0.0,0.0,0.0,0.0,0.0,0.0,0.0,6875,10077.10,0,0,165,-0.14,-3.15,-0.77,-0.20,0.84,-0.53
0.0,0.0,0.0,0.0,0.0,0.0,0.0,6892,10077.50,0,0,0,0.91,-3.15,-0.07,-0.21,0.82,-0.53
0.0,0.0,0.0,0.0,0.0,0.0,0.0,6898,10076.50,0,0,165,0.98,-2.45,0.63,-0.20,0.81,-0.53
0.0,0.0,0.0,0.0,0.0,0.0,0.0,6912,10076.50,0,0,0,0.14,-2.38,0.42,-0.19,0.83,-0.53
0.0,0.0,0.0,0.0,0.0,0.0,0.0,6927,10076.50,0,0,165,0.42,-2.87,0.14,-0.19,0.83,-0.53
0.0,0.0,0.0,0.0,0.0,0.0,0.0,6940,10076.50,0,0,0,0.84,-3.08,0.28,-0.20,0.83,-0.53
0.0,0.0,0.0,0.0,0.0,0.0,0.0,6957,10077.50,0,0,165,0.91,-2.73,0.56,-0.21,0.82,-0.53
0.0,0.0,0.0,0.0,0.0,0.0,0.0,6968,10077.50,0,0,0,1.12,-2.45,0.77,-0.20,0.82,-0.53
0.0,0.0,0.0,0.0,0.0,0.0,0.0,6973,10077.50,0,0,165,1.12,-2.66,0.49,-0.19,0.83,-0.54
0.0,0.0,0.0,0.0,0.0,0.0,0.0,6987,10077.50,0,0,0,0.56,-3.22,-0.42,-0.19,0.82,-0.54
0.0,0.0,0.0,0.0,0.0,0.0,0.0,7002,10077.50,0,0,165,-0.42,-3.85,-0.91,-0.20,0.82,-0.53
0.0,0.0,0.0,0.0,0.0,0.0,0.0,7010,10076.50,0,0,0,-0.77,-3.78,-0.77,-0.20,0.83,-0.53
0.0,0.0,0.0,0.0,0.0,0.0,0.0,7025,10077.50,0,0,165,0.21,-3.29,0.00,-0.21,0.83,-0.53
0.0,0.0,0.0,0.0,0.0,0.0,0.0,7040,10077.50,0,0,0,1.68,-2.52,0.98,-0.21,0.82,-0.53
0.0,0.0,0.0,0.0,0.0,0.0,0.0,7055,10076.50,0,0,165,1.89,-2.24,1.26,-0.20,0.82,-0.53
0.0,0.0,0.0,0.0,0.0,0.0,0.0,7062,10076.50,0,0,0,1.47,-2.59,0.70,-0.19,0.82,-0.54
0.0,0.0,0.0,0.0,0.0,0.0,0.0,7077,10077.50,0,0,165,0.63,-3.08,0.00,-0.20,0.82,-0.53
0.0,0.0,0.0,0.0,0.0,0.0,0.0,7085,10077.50,0,0,0,0.21,-3.57,-0.49,-0.20,0.82,-0.53
0.0,0.0,0.0,0.0,0.0,0.0,0.0,7100,10077.50,0,0,165,0.42,-3.29,-0.35,-0.20,0.82,-0.53
0.0,0.0,0.0,0.0,0.0,0.0,0.0,7107,10076.50,0,0,0,0.42,-3.08,0.00,-0.20,0.83,-0.53
0.0,0.0,0.0,0.0,0.0,0.0,0.0,7123,10077.50,0,0,165,0.49,-3.01,0.07,-0.20,0.83,-0.53
0.0,0.0,0.0,0.0,0.0,0.0,0.0,7138,10077.50,0,0,0,0.49,-3.22,-0.14,-0.20,0.82,-0.53
0.0,0.0,0.0,0.0,0.0,0.0,0.0,7153,10077.50,0,0,165,0.35,-3.15,0.00,-0.20,0.82,-0.53
0.0,0.0,0.0,0.0,0.0,0.0,0.0,7160,10076.20,0,0,0,0.56,-2.94,0.14,-0.20,0.83,-0.53
0.0,0.0,0.0,0.0,0.0,0.0,0.0,7176,10075.50,0,0,165,0.84,-2.80,0.42,-0.20,0.82,-0.53
0.0,0.0,0.0,0.0,0.0,0.0,0.0,7190,10077.50,0,0,0,1.05,-2.59,0.56,-0.20,0.82,-0.53
0.0,0.0,0.0,0.0,0.0,0.0,0.0,7198,10077.50,0,0,165,0.91,-2.87,0.35,-0.20,0.82,-0.53
0.0,0.0,0.0,0.0,0.0,0.0,0.0,7214,10077.50,0,0,0,0.49,-3.08,-0.07,-0.20,0.82,-0.53
0.0,0.0,0.0,0.0,0.0,0.0,0.0,7228,10076.20,0,0,165,0.07,-3.29,-0.28,-0.20,0.83,-0.53
0.0,0.0,0.0,0.0,0.0,0.0,0.0,7234,10076.50,0,0,0,0.07,-3.08,-0.14,-0.20,0.83,-0.53
0.0,0.0,0.0,0.0,0.0,0.0,0.0,7253,10076.50,0,0,165,0.35,-2.94,0.00,-0.20,0.83,-0.53
0.0,0.0,0.0,0.0,0.0,0.0,0.0,7265,10076.50,0,0,0,0.49,-2.80,0.00,-0.20,0.82,-0.53
0.0,0.0,0.0,0.0,0.0,0.0,0.0,7273,10077.50,0,0,165,0.49,-2.80,0.28,-0.20,0.83,-0.53
0.0,0.0,0.0,0.0,0.0,0.0,0.0,7287,10076.50,0,0,0,0.63,-2.87,0.35,-0.20,0.82,-0.53
0.0,0.0,0.0,0.0,0.0,0.0,0.0,7303,10076.50,0,0,165,0.84,-2.66,0.28,-0.20,0.82,-0.53
0.0,0.0,0.0,0.0,0.0,0.0,0.0,7310,10076.50,0,0,0,0.70,-2.59,0.21,-0.20,0.82,-0.53
0.0,0.0,0.0,0.0,0.0,0.0,0.0,7326,10076.50,0,0,165,0.49,-2.73,0.07,-0.20,0.82,-0.53
0.0,0.0,0.0,0.0,0.0,0.0,0.0,7340,10077.50,0,0,0,0.49,-2.87,0.00,-0.20,0.82,-0.53
0.0,0.0,0.0,0.0,0.0,0.0,0.0,7355,10076.50,0,0,165,0.35,-2.87,-0.07,-0.20,0.83,-0.53
0.0,0.0,0.0,0.0,0.0,0.0,0.0,7363,10077.50,0,0,0,0.42,-2.87,0.07,-0.20,0.82,-0.53
0.0,0.0,0.0,0.0,0.0,0.0,0.0,7370,10078.40,0,0,165,0.42,-2.87,0.00,-0.20,0.82,-0.53
0.0,0.0,0.0,0.0,0.0,0.0,0.0,7385,10077.50,0,0,0,0.56,-2.87,0.07,-0.20,0.82,-0.53
0.0,0.0,0.0,0.0,0.0,0.0,0.0,7402,10077.50,0,0,165,0.70,-2.73,0.21,-0.20,0.82,-0.53
0.0,0.0,0.0,0.0,0.0,0.0,0.0,7409,10076.50,0,0,0,0.49,-2.80,0.14,-0.20,0.82,-0.53
0.0,0.0,0.0,0.0,0.0,0.0,0.0,7423,10077.50,0,0,165,0.70,-2.87,0.14,-0.20,0.82,-0.53
0.0,0.0,0.0,0.0,0.0,0.0,0.0,7438,10077.50,0,0,0,0.63,-2.87,0.00,-0.20,0.82,-0.53
0.0,0.0,0.0,0.0,0.0,0.0,0.0,7446,10077.50,0,0,165,0.56,-2.94,-0.07,-0.20,0.82,-0.53
0.0,0.0,0.0,0.0,0.0,0.0,0.0,7460,10077.50,0,0,0,0.56,-2.87,0.00,-0.20,0.82,-0.53
0.0,0.0,0.0,0.0,0.0,0.0,0.0,7475,10077.50,0,0,165,0.63,-2.94,0.00,-0.20,0.82,-0.53
0.0,0.0,0.0,0.0,0.0,0.0,0.0,7484,10077.50,0,0,0,0.56,-3.01,0.00,-0.20,0.83,-0.53
0.0,0.0,0.0,0.0,0.0,0.0,0.0,7502,10077.50,0,0,165,0.63,-2.87,0.00,-0.20,0.83,-0.53
0.0,0.0,0.0,0.0,0.0,0.0,0.0,7513,10078.40,0,0,0,0.56,-3.01,0.07,-0.20,0.82,-0.53
0.0,0.0,0.0,0.0,0.0,0.0,0.0,7522,10077.50,0,0,165,0.63,-3.01,0.00,-0.20,0.82,-0.53
0.0,0.0,0.0,0.0,0.0,0.0,0.0,7539,10077.50,0,0,0,0.63,-2.94,0.21,-0.20,0.82,-0.53
0.0,0.0,0.0,0.0,0.0,0.0,0.0,7556,10077.50,0,0,165,0.77,-3.01,0.07,-0.20,0.82,-0.53
0.0,0.0,0.0,0.0,0.0,0.0,0.0,7557,10076.50,0,0,0,0.77,-2.94,0.14,-0.20,0.82,-0.53
0.0,0.0,0.0,0.0,0.0,0.0,0.0,7573,10077.50,0,0,165,0.56,-2.94,0.14,-0.20,0.82,-0.53
0.0,0.0,0.0,0.0,0.0,0.0,0.0,7587,10077.50,0,0,0,0.56,-3.08,0.00,-0.20,0.82,-0.53
0.0,0.0,0.0,0.0,0.0,0.0,0.0,7595,10077.50,0,0,165,0.42,-3.01,0.07,-0.20,0.82,-0.53
0.0,0.0,0.0,0.0,0.0,0.0,0.0,7610,10076.50,0,0,0,0.49,-3.15,-0.07,-0.20,0.83,-0.53
0.0,0.0,0.0,0.0,0.0,0.0,0.0,7625,10077.50,0,0,165,0.56,-3.15,0.14,-0.20,0.82,-0.53
0.0,0.0,0.0,0.0,0.0,0.0,0.0,7635,10077.50,0,0,0,0.49,-3.08,0.21,-0.20,0.82,-0.53
0.0,0.0,0.0,0.0,0.0,0.0,0.0,7648,10077.50,0,0,165,0.49,-2.94,0.21,-0.20,0.82,-0.53
0.0,0.0,0.0,0.0,0.0,0.0,0.0,7663,10077.50,0,0,0,0.56,-3.08,0.21,-0.20,0.82,-0.53
0.0,0.0,0.0,0.0,0.0,0.0,0.0,7670,10077.50,0,0,165,0.49,-3.01,0.00,-0.20,0.82,-0.53
0.0,0.0,0.0,0.0,0.0,0.0,0.0,7685,10077.50,0,0,0,0.56,-2.94,0.21,-0.20,0.82,-0.53
0.0,0.0,0.0,0.0,0.0,0.0,0.0,7702,10077.50,0,0,165,0.63,-3.08,0.14,-0.20,0.82,-0.53
0.0,0.0,0.0,0.0,0.0,0.0,0.0,7707,10076.50,0,0,0,0.63,-2.94,0.07,-0.20,0.82,-0.53
0.0,0.0,0.0,0.0,0.0,0.0,0.0,7722,10077.50,0,0,165,0.49,-2.94,0.14,-0.20,0.82,-0.53
0.0,0.0,0.0,0.0,0.0,0.0,0.0,7737,10077.50,0,0,0,0.42,-3.01,0.14,-0.20,0.82,-0.53
0.0,0.0,0.0,0.0,0.0,0.0,0.0,7745,10077.50,0,0,165,0.49,-3.08,0.00,-0.20,0.82,-0.53
0.0,0.0,0.0,0.0,0.0,0.0,0.0,7760,10076.50,0,0,0,0.49,-3.01,0.07,-0.20,0.82,-0.53
0.0,0.0,0.0,0.0,0.0,0.0,0.0,7775,10077.50,0,0,165,0.70,-3.01,0.21,-0.20,0.82,-0.53
0.0,0.0,0.0,0.0,0.0,0.0,0.0,7784,10077.50,0,0,0,0.49,-2.94,0.21,-0.20,0.82,-0.53
0.0,0.0,0.0,0.0,0.0,0.0,0.0,7798,10076.80,0,0,165,0.56,-2.87,0.14,-0.20,0.82,-0.53
0.0,0.0,0.0,0.0,0.0,0.0,0.0,7813,10077.50,0,0,0,0.70,-2.94,0.07,-0.20,0.82,-0.53
0.0,0.0,0.0,0.0,0.0,0.0,0.0,7822,10076.50,0,0,165,0.56,-2.94,0.00,-0.20,0.82,-0.53
0.0,0.0,0.0,0.0,0.0,0.0,0.0,7837,10077.50,0,0,0,0.70,-2.87,0.00,-0.20,0.83,-0.53
0.0,0.0,0.0,0.0,0.0,0.0,0.0,7851,10077.50,0,0,165,0.49,-2.94,0.07,-0.20,0.83,-0.53
0.0,0.0,0.0,0.0,0.0,0.0,0.0,7865,10077.50,0,0,0,0.56,-2.94,0.00,-0.20,0.82,-0.53
0.0,0.0,0.0,0.0,0.0,0.0,0.0,7872,10077.50,0,0,165,0.63,-2.87,0.00,-0.20,0.82,-0.53
0.0,0.0,0.0,0.0,0.0,0.0,0.0,7890,10077.50,0,0,0,0.56,-2.80,0.07,-0.20,0.82,-0.53
0.0,0.0,0.0,0.0,0.0,0.0,0.0,7895,10077.50,0,0,165,0.49,-2.87,0.07,-0.20,0.83,-0.53
0.0,0.0,0.0,0.0,0.0,0.0,0.0,7910,10077.50,0,0,0,0.49,-2.94,-0.07,-0.20,0.82,-0.53
0.0,0.0,0.0,0.0,0.0,0.0,0.0,7925,10077.50,0,0,165,0.63,-2.87,0.00,-0.20,0.82,-0.53
0.0,0.0,0.0,0.0,0.0,0.0,0.0,7934,10076.80,0,0,0,0.49,-2.87,0.00,-0.20,0.82,-0.53
0.0,0.0,0.0,0.0,0.0,0.0,0.0,7947,10077.50,0,0,165,0.63,-2.87,0.21,-0.20,0.82,-0.53
0.0,0.0,0.0,0.0,0.0,0.0,0.0,7962,10077.50,0,0,0,0.56,-2.87,0.07,-0.20,0.82,-0.53
0.0,0.0,0.0,0.0,0.0,0.0,0.0,7970,10076.50,0,0,165,0.56,-2.80,0.21,-0.20,0.82,-0.53
0.0,0.0,0.0,0.0,0.0,0.0,0.0,7985,10077.50,0,0,0,0.35,-2.87,0.00,-0.20,0.82,-0.53
0.0,0.0,0.0,0.0,0.0,0.0,0.0,8001,10077.50,0,0,165,0.42,-2.80,0.07,-0.20,0.82,-0.53
0.0,0.0,0.0,0.0,0.0,0.0,0.0,8007,10076.50,0,0,0,0.49,-2.87,0.14,-0.20,0.82,-0.53
0.0,0.0,0.0,0.0,0.0,0.0,0.0,8022,10077.50,0,0,165,0.49,-2.80,0.00,-0.20,0.82,-0.53
0.0,0.0,0.0,0.0,0.0,0.0,0.0,8038,10076.50,0,0,0,0.42,-2.87,0.07,-0.20,0.82,-0.53
0.0,0.0,0.0,0.0,0.0,0.0,0.0,8045,10077.50,0,0,165,0.42,-2.94,0.14,-0.20,0.82,-0.53
0.0,0.0,0.0,0.0,0.0,0.0,0.0,8096,10077.10,0,0,0,0.63,-2.87,0.07,-0.20,0.82,-0.53
0.0,0.0,0.0,0.0,0.0,0.0,0.0,8099,10077.50,0,0,165,0.56,-2.87,0.21,-0.20,0.83,-0.53
0.0,0.0,0.0,0.0,0.0,0.0,0.0,8100,10077.50,0,0,0,0.56,-2.80,0.00,-0.20,0.82,-0.53
0.0,0.0,0.0,0.0,0.0,0.0,0.0,8101,10077.50,0,0,165,0.56,-2.94,0.21,-0.20,0.83,-0.53
0.0,0.0,0.0,0.0,0.0,0.0,0.0,8113,10077.50,0,0,0,0.56,-2.94,0.14,-0.20,0.83,-0.53
0.0,0.0,0.0,0.0,0.0,0.0,0.0,8120,10077.50,0,0,165,0.70,-2.80,0.07,-0.20,0.82,-0.53
0.0,0.0,0.0,0.0,0.0,0.0,0.0,8135,10077.10,0,0,0,0.56,-3.01,0.00,-0.20,0.82,-0.53
0.0,0.0,0.0,0.0,0.0,0.0,0.0,8150,10077.10,0,0,165,0.56,-2.94,0.07,-0.20,0.82,-0.53
0.0,0.0,0.0,0.0,0.0,0.0,0.0,8157,10077.10,0,0,0,0.70,-2.94,0.21,-0.20,0.82,-0.53
0.0,0.0,0.0,0.0,0.0,0.0,0.0,8173,10078.40,0,0,165,0.63,-2.94,0.14,-0.20,0.82,-0.53
0.0,0.0,0.0,0.0,0.0,0.0,0.0,8188,10076.20,0,0,0,0.56,-3.08,0.14,-0.20,0.82,-0.53
0.0,0.0,0.0,0.0,0.0,0.0,0.0,8195,10077.50,0,0,165,0.63,-3.01,0.07,-0.20,0.82,-0.53
0.0,0.0,0.0,0.0,0.0,0.0,0.0,8210,10077.50,0,0,0,0.63,-3.01,0.07,-0.20,0.82,-0.53
0.0,0.0,0.0,0.0,0.0,0.0,0.0,8225,10078.10,0,0,165,0.56,-3.08,0.00,-0.20,0.82,-0.53
0.0,0.0,0.0,0.0,0.0,0.0,0.0,8233,10077.10,0,0,0,0.49,-3.01,0.14,-0.20,0.82,-0.53
0.0,0.0,0.0,0.0,0.0,0.0,0.0,8248,10078.40,0,0,165,0.56,-3.08,0.14,-0.20,0.82,-0.53
0.0,0.0,0.0,0.0,0.0,0.0,0.0,8262,10077.10,0,0,0,0.56,-3.15,0.07,-0.20,0.82,-0.53
0.0,0.0,0.0,0.0,0.0,0.0,0.0,8270,10076.50,0,0,165,0.63,-3.01,0.14,-0.20,0.82,-0.53
0.0,0.0,0.0,0.0,0.0,0.0,0.0,8286,10077.50,0,0,0,0.56,-3.08,0.07,-0.20,0.82,-0.53
0.0,0.0,0.0,0.0,0.0,0.0,0.0,8300,10076.50,0,0,165,0.49,-3.08,0.07,-0.20,0.82,-0.53
0.0,0.0,0.0,0.0,0.0,0.0,0.0,8308,10077.50,0,0,0,0.49,-3.01,0.07,-0.20,0.82,-0.53
0.0,0.0,0.0,0.0,0.0,0.0,0.0,8323,10078.40,0,0,165,0.49,-2.94,0.07,-0.20,0.82,-0.53
0.0,0.0,0.0,0.0,0.0,0.0,0.0,8338,10077.10,0,0,0,0.56,-3.01,0.14,-0.20,0.82,-0.53
0.0,0.0,0.0,0.0,0.0,0.0,0.0,8346,10077.10,0,0,165,0.42,-3.01,0.07,-0.20,0.82,-0.53
0.0,0.0,0.0,0.0,0.0,0.0,0.0,8361,10078.40,0,0,0,0.56,-2.94,0.14,-0.20,0.82,-0.53
0.0,0.0,0.0,0.0,0.0,0.0,0.0,8376,10076.50,0,0,165,0.56,-2.94,0.07,-0.20,0.82,-0.53
0.0,0.0,0.0,0.0,0.0,0.0,0.0,8383,10077.50,0,0,0,0.56,-3.01,0.07,-0.20,0.82,-0.53
0.0,0.0,0.0,0.0,0.0,0.0,0.0,8397,10077.50,0,0,165,0.56,-3.01,0.14,-0.20,0.82,-0.53
0.0,0.0,0.0,0.0,0.0,0.0,0.0,8412,10075.50,0,0,0,0.63,-2.80,0.00,-0.20,0.82,-0.53
0.0,0.0,0.0,0.0,0.0,0.0,0.0,8420,10078.40,0,0,165,0.49,-2.94,0.14,-0.20,0.82,-0.53
0.0,0.0,0.0,0.0,0.0,0.0,0.0,8435,10077.50,0,0,0,0.63,-2.94,0.07,-0.20,0.82,-0.53
0.0,0.0,0.0,0.0,0.0,0.0,0.0,8450,10077.50,0,0,165,0.56,-2.87,0.14,-0.20,0.82,-0.53
0.0,0.0,0.0,0.0,0.0,0.0,0.0,8458,10077.50,0,0,0,0.56,-2.94,0.21,-0.20,0.82,-0.53
0.0,0.0,0.0,0.0,0.0,0.0,0.0,8473,10077.10,0,0,165,0.63,-2.87,0.07,-0.20,0.82,-0.53
0.0,0.0,0.0,0.0,0.0,0.0,0.0,8488,10076.50,0,0,0,0.56,-2.94,0.14,-0.20,0.82,-0.53
0.0,0.0,0.0,0.0,0.0,0.0,0.0,8496,10077.10,0,0,165,0.56,-2.94,0.00,-0.20,0.82,-0.53
0.0,0.0,0.0,0.0,0.0,0.0,0.0,8511,10077.50,0,0,0,0.56,-2.87,0.21,-0.20,0.82,-0.53
0.0,0.0,0.0,0.0,0.0,0.0,0.0,8526,10078.10,0,0,165,0.42,-2.94,0.07,-0.20,0.82,-0.53
0.0,0.0,0.0,0.0,0.0,0.0,0.0,8533,10077.50,0,0,0,0.63,-2.80,0.14,-0.20,0.82,-0.53
0.0,0.0,0.0,0.0,0.0,0.0,0.0,8547,10077.50,0,0,165,0.49,-2.94,0.00,-0.20,0.82,-0.53
0.0,0.0,0.0,0.0,0.0,0.0,0.0,8563,10077.50,0,0,0,0.56,-2.94,0.21,-0.20,0.82,-0.53
0.0,0.0,0.0,0.0,0.0,0.0,0.0,8570,10077.50,0,0,165,0.42,-3.01,0.00,-0.20,0.82,-0.53
0.0,0.0,0.0,0.0,0.0,0.0,0.0,8585,10077.50,0,0,0,0.28,-2.87,0.00,-0.20,0.82,-0.53
0.0,0.0,0.0,0.0,0.0,0.0,0.0,8600,10077.50,0,0,165,0.63,-2.94,0.00,-0.20,0.82,-0.53
0.0,0.0,0.0,0.0,0.0,0.0,0.0,8607,10077.50,0,0,0,0.42,-2.94,0.07,-0.20,0.82,-0.53
0.0,0.0,0.0,0.0,0.0,0.0,0.0,8623,10078.10,0,0,165,0.56,-2.87,0.00,-0.20,0.82,-0.53
0.0,0.0,0.0,0.0,0.0,0.0,0.0,8638,10078.40,0,0,0,0.56,-2.87,0.00,-0.20,0.82,-0.53
0.0,0.0,0.0,0.0,0.0,0.0,0.0,8646,10078.40,0,0,165,0.56,-2.73,0.00,-0.20,0.82,-0.53
0.0,0.0,0.0,0.0,0.0,0.0,0.0,8660,10077.50,0,0,0,0.56,-2.94,0.14,-0.20,0.83,-0.53
0.0,0.0,0.0,0.0,0.0,0.0,0.0,8676,10077.50,0,0,165,0.49,-2.94,0.07,-0.20,0.82,-0.53
0.0,0.0,0.0,0.0,0.0,0.0,0.0,8683,10077.50,0,0,0,0.56,-2.94,0.21,-0.20,0.82,-0.53
0.0,0.0,0.0,0.0,0.0,0.0,0.0,8698,10078.40,0,0,165,0.49,-3.01,0.07,-0.20,0.82,-0.53
0.0,0.0,0.0,0.0,0.0,0.0,0.0,8712,10077.50,0,0,0,0.56,-2.87,0.07,-0.20,0.82,-0.53
0.0,0.0,0.0,0.0,0.0,0.0,0.0,8720,10077.50,0,0,165,0.56,-2.94,0.07,-0.20,0.82,-0.53
0.0,0.0,0.0,0.0,0.0,0.0,0.0,8735,10077.10,0,0,0,0.56,-2.87,0.14,-0.20,0.82,-0.53
0.0,0.0,0.0,0.0,0.0,0.0,0.0,8750,10077.50,0,0,165,0.49,-2.94,0.21,-0.20,0.82,-0.53
0.0,0.0,0.0,0.0,0.0,0.0,0.0,8758,10077.10,0,0,0,0.63,-3.01,0.14,-0.20,0.82,-0.53
0.0,0.0,0.0,0.0,0.0,0.0,0.0,8773,10077.50,0,0,165,0.70,-3.01,0.21,-0.20,0.82,-0.53
0.0,0.0,0.0,0.0,0.0,0.0,0.0,8788,10075.50,0,0,0,0.56,-2.94,0.14,-0.20,0.82,-0.53
0.0,0.0,0.0,0.0,0.0,0.0,0.0,8796,10077.50,0,0,165,0.63,-3.01,0.14,-0.20,0.82,-0.53
0.0,0.0,0.0,0.0,0.0,0.0,0.0,8811,10076.20,0,0,0,0.63,-2.87,0.07,-0.20,0.82,-0.53
0.0,0.0,0.0,0.0,0.0,0.0,0.0,8825,10078.40,0,0,165,0.56,-2.94,0.07,-0.20,0.82,-0.53
0.0,0.0,0.0,0.0,0.0,0.0,0.0,8833,10077.50,0,0,0,0.56,-2.87,0.07,-0.20,0.82,-0.53
0.0,0.0,0.0,0.0,0.0,0.0,0.0,8847,10077.10,0,0,165,0.49,-3.01,-0.07,-0.20,0.82,-0.53
0.0,0.0,0.0,0.0,0.0,0.0,0.0,8863,10077.50,0,0,0,0.56,-2.94,0.14,-0.20,0.82,-0.53
0.0,0.0,0.0,0.0,0.0,0.0,0.0,8874,10077.50,0,0,165,0.42,-3.08,0.00,-0.20,0.82,-0.53
0.0,0.0,0.0,0.0,0.0,0.0,0.0,8888,10077.10,0,0,0,0.56,-2.94,0.14,-0.20,0.82,-0.53
0.0,0.0,0.0,0.0,0.0,0.0,0.0,8900,10078.10,0,0,165,0.56,-3.01,0.14,-0.20,0.82,-0.53
0.0,0.0,0.0,0.0,0.0,0.0,0.0,8907,10076.20,0,0,0,0.56,-3.01,0.07,-0.20,0.82,-0.53
0.0,0.0,0.0,0.0,0.0,0.0,0.0,8923,10077.50,0,0,165,0.49,-2.94,0.14,-0.20,0.82,-0.53
0.0,0.0,0.0,0.0,0.0,0.0,0.0,8937,10076.80,0,0,0,0.49,-3.01,0.07,-0.20,0.82,-0.53
0.0,0.0,0.0,0.0,0.0,0.0,0.0,8945,10077.10,0,0,165,0.49,-2.87,0.21,-0.20,0.82,-0.53
0.0,0.0,0.0,0.0,0.0,0.0,0.0,8961,10078.40,0,0,0,0.49,-3.01,0.00,-0.20,0.82,-0.53
0.0,0.0,0.0,0.0,0.0,0.0,0.0,8976,10077.50,0,0,165,0.56,-3.01,0.00,-0.20,0.83,-0.53
0.0,0.0,0.0,0.0,0.0,0.0,0.0,8982,10077.50,0,0,0,0.56,-2.94,0.00,-0.20,0.82,-0.53
0.0,0.0,0.0,0.0,0.0,0.0,0.0,8998,10077.50,0,0,165,0.56,-3.01,0.00,-0.20,0.82,-0.53
0.0,0.0,0.0,0.0,0.0,0.0,0.0,9012,10077.50,0,0,0,0.56,-2.87,0.21,-0.20,0.83,-0.53
0.0,0.0,0.0,0.0,0.0,0.0,0.0,9021,10077.50,0,0,165,0.98,-2.59,0.77,-0.18,0.84,-0.53
0.0,0.0,0.0,0.0,0.0,0.0,0.0,9036,10077.50,0,0,0,1.40,-3.36,0.49,-0.18,0.82,-0.53
0.0,0.0,0.0,0.0,0.0,0.0,0.0,9050,10077.10,0,0,165,1.12,-3.64,0.28,-0.18,0.83,-0.53
0.0,0.0,0.0,0.0,0.0,0.0,0.0,9058,10077.50,0,0,0,0.42,-3.50,0.14,-0.19,0.83,-0.53
0.0,0.0,0.0,0.0,0.0,0.0,0.0,9073,10077.50,0,0,165,0.63,-4.90,0.49,-0.18,0.84,-0.53
0.0,0.0,0.0,0.0,0.0,0.0,0.0,9088,10076.20,0,0,0,0.77,-4.13,0.21,-0.20,0.83,-0.53
0.0,0.0,0.0,0.0,0.0,0.0,0.0,9095,10077.10,0,0,165,1.54,-4.76,0.70,-0.20,0.82,-0.53
0.0,0.0,0.0,0.0,0.0,0.0,0.0,9110,10077.50,0,0,0,0.63,-4.34,0.21,-0.21,0.81,-0.53
0.0,0.0,0.0,0.0,0.0,0.0,0.0,9125,10077.50,0,0,165,0.84,-4.69,0.56,-0.21,0.82,-0.54
0.0,0.0,0.0,0.0,0.0,0.0,0.0,9133,10077.80,0,0,0,0.49,-4.20,0.63,-0.21,0.82,-0.53
0.0,0.0,0.0,0.0,0.0,0.0,0.0,9148,10077.50,0,0,165,1.26,-3.99,0.91,-0.21,0.82,-0.54
0.0,0.0,0.0,0.0,0.0,0.0,0.0,9162,10076.50,0,0,0,1.33,-4.20,0.63,-0.21,0.81,-0.54
0.0,0.0,0.0,0.0,0.0,0.0,0.0,9170,10077.10,0,0,165,0.91,-4.13,0.49,-0.21,0.81,-0.54
0.0,0.0,0.0,0.0,0.0,0.0,0.0,9185,10078.10,0,0,0,0.42,-3.99,0.14,-0.21,0.82,-0.54
0.0,0.0,0.0,0.0,0.0,0.0,0.0,9201,10077.10,0,0,165,0.28,-3.92,0.07,-0.21,0.81,-0.54
0.0,0.0,0.0,0.0,0.0,0.0,0.0,9208,10077.50,0,0,0,0.35,-3.78,-0.07,-0.21,0.82,-0.54
0.0,0.0,0.0,0.0,0.0,0.0,0.0,9223,10077.10,0,0,165,0.21,-3.36,0.00,-0.21,0.82,-0.53
0.0,0.0,0.0,0.0,0.0,0.0,0.0,9237,10076.50,0,0,0,0.49,-3.29,0.21,-0.20,0.82,-0.53
0.0,0.0,0.0,0.0,0.0,0.0,0.0,9245,10077.50,0,0,165,0.42,-3.15,-0.07,-0.20,0.82,-0.53
0.0,0.0,0.0,0.0,0.0,0.0,0.0,9260,10078.40,0,0,0,0.00,-3.36,-0.35,-0.21,0.83,-0.52
0.0,0.0,0.0,0.0,0.0,0.0,0.0,9283,10077.10,0,0,165,-0.21,-3.22,-0.35,-0.21,0.83,-0.52
0.0,0.0,0.0,0.0,0.0,0.0,0.0,9285,10077.10,0,0,0,0.00,-2.94,-0.42,-0.21,0.83,-0.52
0.0,0.0,0.0,0.0,0.0,0.0,0.0,9297,10077.50,0,0,165,0.84,-2.24,0.42,-0.22,0.83,-0.52
0.0,0.0,0.0,0.0,0.0,0.0,0.0,9312,10077.50,0,0,0,1.33,-1.82,0.63,-0.21,0.83,-0.53
0.0,0.0,0.0,0.0,0.0,0.0,0.0,9327,10076.50,0,0,165,1.33,-2.10,0.56,-0.20,0.82,-0.53
0.0,0.0,0.0,0.0,0.0,0.0,0.0,9335,10077.10,0,0,0,1.12,-1.75,0.00,-0.20,0.82,-0.54
0.0,0.0,0.0,0.0,0.0,0.0,0.0,9342,10077.10,0,0,165,-0.07,-2.03,-1.05,-0.21,0.82,-0.53
0.0,0.0,0.0,0.0,0.0,0.0,0.0,9358,10077.50,0,0,0,-0.21,-2.45,-0.21,-0.19,0.85,-0.53
0.0,0.0,0.0,0.0,0.0,0.0,0.0,9372,10078.40,0,0,165,0.91,-1.12,0.70,-0.18,0.83,-0.52
0.0,0.0,0.0,0.0,0.0,0.0,0.0,9380,10078.40,0,0,0,1.96,-2.03,1.12,-0.19,0.80,-0.53
0.0,0.0,0.0,0.0,0.0,0.0,0.0,9395,10078.10,0,0,165,-1.19,-2.73,-0.42,-0.22,0.82,-0.54
0.0,0.0,0.0,0.0,0.0,0.0,0.0,9411,10078.40,0,0,0,-1.68,-2.94,-0.98,-0.22,0.85,-0.54
0.29296875,-0.0023322925,-0.002155263,2.1428592E-4,-0.2,0.83,-0.53,13454,10078.10,0,0,165,0.35,-2.94,0.00,-0.20,0.83,-0.53
-0.0068359375,-3.3229217E-4,-0.001155261,0.002214286,-0.2,0.83,-0.53,13455,10077.80,0,0,0,0.49,-2.87,0.14,-0.20,0.83,-0.53
1.2929688,6.67708E-4,-0.002155263,0.001214286,-0.2,0.82,-0.53,13472,10079.10,0,0,165,0.56,-2.94,0.07,-0.20,0.82,-0.53
1.2929688,-0.0013322928,-0.002155263,0.001214286,-0.2,0.82,-0.53,13491,10079.10,0,0,0,0.42,-2.94,0.07,-0.20,0.82,-0.53
-0.0068359375,6.67708E-4,-0.002155263,0.002214286,-0.2,0.82,-0.53,13492,10077.80,0,0,165,0.56,-2.94,0.14,-0.20,0.82,-0.53
-0.0068359375,0.0016677072,-0.003155265,0.001214286,-0.2,0.82,-0.53,13505,10077.80,0,0,0,0.63,-3.01,0.07,-0.20,0.82,-0.53
-0.0068359375,0.0026677074,-0.002155263,0.002214286,-0.2,0.82,-0.53,13519,10077.80,0,0,165,0.70,-2.94,0.14,-0.20,0.82,-0.53
0.29296875,6.67708E-4,-0.001155261,0.002214286,-0.2,0.82,-0.53,13527,10078.10,0,0,0,0.56,-2.87,0.14,-0.20,0.82,-0.53
-0.0068359375,0.0016677072,-0.001155261,2.1428592E-4,-0.2,0.82,-0.53,13542,10077.80,0,0,165,0.63,-2.87,0.00,-0.20,0.82,-0.53
0.29296875,0.0016677072,-0.002155263,2.1428592E-4,-0.2,0.82,-0.53,13557,10078.10,0,0,0,0.63,-2.94,0.00,-0.20,0.82,-0.53
-0.0068359375,0.0026677074,-0.003155265,0.0032142857,-0.2,0.82,-0.53,13565,10077.80,0,0,165,0.70,-3.01,0.21,-0.20,0.82,-0.53
0.99316406,6.67708E-4,-0.002155263,0.001214286,-0.2,0.82,-0.53,13579,10078.80,0,0,0,0.56,-2.94,0.07,-0.20,0.82,-0.53
-0.0068359375,6.67708E-4,-0.001155261,0.001214286,-0.2,0.82,-0.53,13594,10077.80,0,0,165,0.56,-2.87,0.07,-0.20,0.82,-0.53
-0.0068359375,-3.3229217E-4,-0.003155265,0.002214286,-0.2,0.82,-0.53,13602,10077.80,0,0,0,0.49,-3.01,0.14,-0.20,0.82,-0.53
-0.0068359375,6.67708E-4,-0.002155263,0.002214286,-0.2,0.82,-0.53,13621,10077.80,0,0,165,0.56,-2.94,0.14,-0.20,0.82,-0.53
-0.0068359375,-0.0013322928,-0.003155265,0.001214286,-0.2,0.82,-0.53,13637,10077.80,0,0,0,0.42,-3.01,0.07,-0.20,0.82,-0.53
0.29296875,-0.0013322928,-0.003155265,2.1428592E-4,-0.2,0.82,-0.53,13640,10078.10,0,0,165,0.42,-3.01,0.00,-0.20,0.82,-0.53
-0.0068359375,6.67708E-4,-0.0041552633,0.001214286,-0.2,0.82,-0.53,13655,10077.80,0,0,0,0.56,-3.08,0.07,-0.20,0.82,-0.53
-0.0068359375,-0.0013322928,-0.002155263,-7.8571413E-4,-0.2,0.82,-0.53,13670,10077.80,0,0,165,0.42,-2.94,-0.07,-0.20,0.82,-0.53
0.29296875,-3.3229217E-4,-0.003155265,0.001214286,-0.2,0.82,-0.53,13677,10078.10,0,0,0,0.49,-3.01,0.07,-0.20,0.82,-0.53
1.2929688,-3.3229217E-4,-0.003155265,2.1428592E-4,-0.2,0.82,-0.53,13692,10079.10,0,0,165,0.49,-3.01,0.00,-0.20,0.82,-0.53
-0.0068359375,-3.3229217E-4,-0.003155265,2.1428592E-4,-0.2,0.83,-0.53,13707,10077.80,0,0,0,0.49,-3.01,0.00,-0.20,0.83,-0.53
-0.0068359375,0.0016677072,-0.002155263,0.0032142857,-0.2,0.82,-0.53,13715,10077.80,0,0,165,0.63,-2.94,0.21,-0.20,0.82,-0.53
-1.0068359,0.0016677072,-0.001155261,0.002214286,-0.2,0.82,-0.53,13729,10076.80,0,0,0,0.63,-2.87,0.14,-0.20,0.82,-0.53
0.29296875,0.0016677072,-0.001155261,0.001214286,-0.2,0.82,-0.53,13744,10078.10,0,0,165,0.63,-2.87,0.07,-0.20,0.82,-0.53
-1.0068359,6.67708E-4,-0.002155263,0.001214286,-0.2,0.82,-0.53,13752,10076.80,0,0,0,0.56,-2.94,0.07,-0.20,0.82,-0.53
0.99316406,0.0016677072,-0.001155261,0.002214286,-0.2,0.82,-0.53,13768,10078.80,0,0,165,0.63,-2.87,0.14,-0.20,0.82,-0.53
0.29296875,0.0016677072,-0.002155263,0.001214286,-0.2,0.82,-0.53,13782,10078.10,0,0,0,0.63,-2.94,0.07,-0.20,0.82,-0.53
-0.0068359375,-0.0013322928,-0.003155265,0.001214286,-0.2,0.82,-0.53,13790,10077.80,0,0,165,0.42,-3.01,0.07,-0.20,0.82,-0.53
-0.0068359375,0.0016677072,-0.003155265,0.0032142857,-0.2,0.82,-0.53,13805,10077.80,0,0,0,0.63,-3.01,0.21,-0.20,0.82,-0.53
-0.0068359375,-3.3229217E-4,-0.003155265,0.001214286,-0.2,0.82,-0.53,13819,10077.80,0,0,165,0.49,-3.01,0.07,-0.20,0.82,-0.53
0.29296875,6.67708E-4,-0.003155265,0.002214286,-0.2,0.82,-0.53,13827,10078.10,0,0,0,0.56,-3.01,0.14,-0.20,0.82,-0.53
1.2929688,6.67708E-4,-0.002155263,0.0032142857,-0.2,0.83,-0.53,13842,10079.10,0,0,165,0.56,-2.94,0.21,-0.20,0.83,-0.53
1.8935547,0.0016677072,-0.002155263,0.001214286,-0.2,0.82,-0.53,13857,10079.70,0,0,0,0.63,-2.94,0.07,-0.20,0.82,-0.53
0.99316406,0.0016677072,-1.5526265E-4,0.0032142857,-0.2,0.82,-0.53,13865,10078.80,0,0,165,0.63,-2.80,0.21,-0.20,0.82,-0.53
1.2929688,0.0016677072,-0.003155265,0.002214286,-0.2,0.82,-0.53,13880,10079.10,0,0,0,0.63,-3.01,0.14,-0.20,0.82,-0.53
-0.0068359375,0.0026677074,-0.002155263,0.002214286,-0.2,0.82,-0.53,13895,10077.80,0,0,165,0.70,-2.94,0.14,-0.20,0.82,-0.53
0.29296875,-3.3229217E-4,-0.001155261,0.001214286,-0.2,0.82,-0.53,13903,10078.10,0,0,0,0.49,-2.87,0.07,-0.20,0.82,-0.53
0.29296875,-3.3229217E-4,-0.002155263,0.001214286,-0.2,0.82,-0.53,13918,10078.10,0,0,165,0.49,-2.94,0.07,-0.20,0.82,-0.53
0.99316406,-3.3229217E-4,-1.5526265E-4,2.1428592E-4,-0.2,0.82,-0.53,13932,10078.80,0,0,0,0.49,-2.80,0.00,-0.20,0.82,-0.53
0.29296875,6.67708E-4,-0.001155261,0.001214286,-0.2,0.82,-0.53,13947,10078.10,0,0,165,0.56,-2.87,0.07,-0.20,0.82,-0.53
0.29296875,6.67708E-4,-0.001155261,0.001214286,-0.2,0.82,-0.53,13955,10078.10,0,0,0,0.56,-2.87,0.07,-0.20,0.82,-0.53
0.99316406,-3.3229217E-4,-0.001155261,0.001214286,-0.2,0.82,-0.53,13970,10078.80,0,0,165,0.49,-2.87,0.07,-0.20,0.82,-0.53
-0.0068359375,-0.0013322928,-0.002155263,0.001214286,-0.2,0.82,-0.53,13977,10077.80,0,0,0,0.42,-2.94,0.07,-0.20,0.82,-0.53
0.99316406,-0.0013322928,-0.001155261,2.1428592E-4,-0.2,0.82,-0.53,13992,10078.80,0,0,165,0.42,-2.87,0.00,-0.20,0.82,-0.53
0.29296875,6.67708E-4,-1.5526265E-4,0.001214286,-0.2,0.82,-0.53,14007,10078.10,0,0,0,0.56,-2.80,0.07,-0.20,0.82,-0.53
-0.0068359375,-3.3229217E-4,-1.5526265E-4,0.001214286,-0.2,0.82,-0.53,14015,10077.80,0,0,165,0.49,-2.80,0.07,-0.20,0.82,-0.53
-0.0068359375,-3.3229217E-4,-0.001155261,0.001214286,-0.2,0.82,-0.53,14031,10077.80,0,0,0,0.49,-2.87,0.07,-0.20,0.82,-0.53
0.29296875,6.67708E-4,-0.001155261,0.001214286,-0.2,0.83,-0.53,14052,10078.10,0,0,165,0.56,-2.87,0.07,-0.20,0.83,-0.53
0.59375,0.0016677072,-0.001155261,0.002214286,-0.2,0.82,-0.53,14054,10078.40,0,0,0,0.63,-2.87,0.14,-0.20,0.82,-0.53
-0.0068359375,0.0016677072,-0.001155261,0.001214286,-0.2,0.82,-0.53,14067,10077.80,0,0,165,0.63,-2.87,0.07,-0.20,0.82,-0.53
-0.0068359375,0.0016677072,-0.001155261,0.001214286,-0.2,0.82,-0.53,14083,10077.80,0,0,0,0.63,-2.87,0.07,-0.20,0.82,-0.53
-0.0068359375,0.0016677072,-0.001155261,0.0032142857,-0.2,0.82,-0.53,14090,10077.80,0,0,165,0.63,-2.87,0.21,-0.20,0.82,-0.53
-0.0068359375,6.67708E-4,-0.001155261,0.0032142857,-0.2,0.82,-0.53,14104,10077.80,0,0,0,0.56,-2.87,0.21,-0.20,0.82,-0.53
0.99316406,6.67708E-4,-0.001155261,0.001214286,-0.2,0.82,-0.53,14120,10078.80,0,0,165,0.56,-2.87,0.07,-0.20,0.82,-0.53
0.99316406,6.67708E-4,-0.002155263,0.001214286,-0.2,0.82,-0.53,14127,10078.80,0,0,0,0.56,-2.94,0.07,-0.20,0.82,-0.53
-0.0068359375,-3.3229217E-4,-0.002155263,2.1428592E-4,-0.2,0.82,-0.53,14142,10077.80,0,0,165,0.49,-2.94,0.00,-0.20,0.82,-0.53
0.29296875,6.67708E-4,-0.001155261,-7.8571413E-4,-0.2,0.82,-0.53,14157,10078.10,0,0,0,0.56,-2.87,-0.07,-0.20,0.82,-0.53
-0.0068359375,-3.3229217E-4,-0.002155263,0.002214286,-0.2,0.82,-0.53,14165,10077.80,0,0,165,0.49,-2.94,0.14,-0.20,0.82,-0.53
0.29296875,6.67708E-4,-1.5526265E-4,0.002214286,-0.2,0.82,-0.53,14180,10078.10,0,0,0,0.56,-2.80,0.14,-0.20,0.82,-0.53
1.2929688,-3.3229217E-4,-0.001155261,2.1428592E-4,-0.2,0.83,-0.53,14195,10079.10,0,0,165,0.49,-2.87,0.00,-0.20,0.83,-0.53
0.99316406,0.0016677072,-0.001155261,0.0032142857,-0.2,0.82,-0.53,14202,10078.80,0,0,0,0.63,-2.87,0.21,-0.20,0.82,-0.53
0.99316406,-3.3229217E-4,-0.001155261,0.002214286,-0.2,0.82,-0.53,14219,10078.80,0,0,165,0.49,-2.87,0.14,-0.20,0.82,-0.53
0.99316406,6.67708E-4,-0.001155261,0.002214286,-0.2,0.82,-0.53,14233,10078.80,0,0,0,0.56,-2.87,0.14,-0.20,0.82,-0.53
-0.0068359375,6.67708E-4,-0.001155261,0.0032142857,-0.2,0.82,-0.53,14240,10077.80,0,0,165,0.56,-2.87,0.21,-0.20,0.82,-0.53
-0.0068359375,-3.3229217E-4,-0.001155261,0.001214286,-0.2,0.82,-0.53,14255,10077.80,0,0,0,0.49,-2.87,0.07,-0.20,0.82,-0.53
-0.0068359375,6.67708E-4,-0.002155263,-7.8571413E-4,-0.2,0.82,-0.53,14270,10077.80,0,0,165,0.56,-2.94,-0.07,-0.20,0.82,-0.53
-0.0068359375,6.67708E-4,-0.003155265,2.1428592E-4,-0.2,0.82,-0.53,14277,10077.80,0,0,0,0.56,-3.01,0.00,-0.20,0.82,-0.53
0.29296875,6.67708E-4,-0.0041552633,2.1428592E-4,-0.2,0.82,-0.53,14292,10078.10,0,0,165,0.56,-3.08,0.00,-0.20,0.82,-0.53
-1.0068359,-3.3229217E-4,-0.002155263,0.001214286,-0.2,0.82,-0.53,14307,10076.80,0,0,0,0.49,-2.94,0.07,-0.20,0.82,-0.53
0.99316406,6.67708E-4,-0.001155261,2.1428592E-4,-0.2,0.82,-0.53,14315,10078.80,0,0,165,0.56,-2.87,0.00,-0.20,0.82,-0.53
1.2929688,-3.3229217E-4,-0.002155263,0.0032142857,-0.2,0.83,-0.53,14330,10079.10,0,0,0,0.49,-2.94,0.21,-0.20,0.83,-0.53
-0.0068359375,6.67708E-4,-0.002155263,0.0032142857,-0.2,0.82,-0.53,14345,10077.80,0,0,165,0.56,-2.94,0.21,-0.20,0.82,-0.53
0.29296875,-3.3229217E-4,-0.001155261,0.002214286,-0.2,0.82,-0.53,14352,10078.10,0,0,0,0.49,-2.87,0.14,-0.20,0.82,-0.53
-0.0068359375,6.67708E-4,-0.002155263,0.002214286,-0.2,0.82,-0.53,14367,10077.80,0,0,165,0.56,-2.94,0.14,-0.20,0.82,-0.53
0.99316406,0.0016677072,-0.003155265,0.001214286,-0.2,0.82,-0.53,14382,10078.80,0,0,0,0.63,-3.01,0.07,-0.20,0.82,-0.53
0.29296875,0.0026677074,-0.001155261,0.002214286,-0.2,0.82,-0.53,14390,10078.10,0,0,165,0.70,-2.87,0.14,-0.20,0.82,-0.53
1.2929688,0.0016677072,-0.002155263,0.002214286,-0.2,0.82,-0.53,14405,10079.10,0,0,0,0.63,-2.94,0.14,-0.20,0.82,-0.53
-0.0068359375,0.0026677074,-0.002155263,0.0032142857,-0.2,0.82,-0.53,14419,10077.80,0,0,165,0.70,-2.94,0.21,-0.20,0.82,-0.53
0.99316406,0.0016677072,-0.001155261,0.001214286,-0.2,0.82,-0.53,14427,10078.80,0,0,0,0.63,-2.87,0.07,-0.20,0.82,-0.53
-0.0068359375,6.67708E-4,-0.002155263,0.0032142857,-0.2,0.82,-0.53,14442,10077.80,0,0,165,0.56,-2.94,0.21,-0.20,0.82,-0.53
0.59375,-3.3229217E-4,-0.002155263,0.002214286,-0.2,0.82,-0.53,14457,10078.40,0,0,0,0.49,-2.94,0.14,-0.20,0.82,-0.53
0.99316406,-3.3229217E-4,-0.001155261,0.001214286,-0.2,0.82,-0.53,14465,10078.80,0,0,165,0.49,-2.87,0.07,-0.20,0.82,-0.53
-0.0068359375,6.67708E-4,-0.001155261,0.001214286,-0.2,0.82,-0.53,14480,10077.80,0,0,0,0.56,-2.87,0.07,-0.20,0.82,-0.53
0.99316406,-3.3229217E-4,-0.003155265,0.001214286,-0.2,0.82,-0.53,14495,10078.80,0,0,165,0.49,-3.01,0.07,-0.20,0.82,-0.53
-0.0068359375,6.67708E-4,-0.003155265,0.002214286,-0.2,0.82,-0.53,14502,10077.80,0,0,0,0.56,-3.01,0.14,-0.20,0.82,-0.53
1.2929688,6.67708E-4,-0.002155263,0.001214286,-0.2,0.82,-0.53,14518,10079.10,0,0,165,0.56,-2.94,0.07,-0.20,0.82,-0.53
-0.0068359375,6.67708E-4,-0.002155263,0.004214286,-0.2,0.82,-0.53,14532,10077.80,0,0,0,0.56,-2.94,0.28,-0.20,0.82,-0.53
-0.0068359375,6.67708E-4,-0.002155263,0.002214286,-0.2,0.82,-0.53,14540,10077.80,0,0,165,0.56,-2.94,0.14,-0.20,0.82,-0.53
0.99316406,6.67708E-4,-0.003155265,0.001214286,-0.2,0.82,-0.53,14555,10078.80,0,0,0,0.56,-3.01,0.07,-0.20,0.82,-0.53
0.29296875,0.0026677074,-0.001155261,0.002214286,-0.2,0.82,-0.53,14570,10078.10,0,0,165,0.70,-2.87,0.14,-0.20,0.82,-0.53
1.2929688,-0.0023322925,-0.002155263,0.0032142857,-0.2,0.82,-0.53,14578,10079.10,0,0,0,0.35,-2.94,0.21,-0.20,0.82,-0.53
0.99316406,-3.3229217E-4,-0.002155263,0.002214286,-0.2,0.82,-0.53,14592,10078.80,0,0,165,0.49,-2.94,0.14,-0.20,0.82,-0.53
1.2929688,0.0016677072,-0.0041552633,2.1428592E-4,-0.2,0.82,-0.53,14607,10079.10,0,0,0,0.63,-3.08,0.00,-0.20,0.82,-0.53
1.2929688,-3.3229217E-4,-0.003155265,2.1428592E-4,-0.2,0.82,-0.53,14614,10079.10,0,0,165,0.49,-3.01,0.00,-0.20,0.82,-0.53
-0.0068359375,-0.0013322928,-0.002155263,2.1428592E-4,-0.2,0.82,-0.53,14630,10077.80,0,0,0,0.42,-2.94,0.00,-0.20,0.82,-0.53
-0.0068359375,-3.3229217E-4,-0.003155265,2.1428592E-4,-0.2,0.82,-0.53,14637,10077.80,0,0,165,0.49,-3.01,0.00,-0.20,0.82,-0.53
0.99316406,6.67708E-4,-0.001155261,2.1428592E-4,-0.2,0.83,-0.53,14653,10078.80,0,0,0,0.56,-2.87,0.00,-0.20,0.83,-0.53
-0.0068359375,6.67708E-4,-0.003155265,0.002214286,-0.2,0.82,-0.53,14667,10077.80,0,0,165,0.56,-3.01,0.14,-0.20,0.82,-0.53
1.2929688,-0.0013322928,-0.001155261,0.002214286,-0.2,0.82,-0.53,14674,10079.10,0,0,0,0.42,-2.87,0.14,-0.20,0.82,-0.53
0.99316406,6.67708E-4,-0.002155263,0.002214286,-0.2,0.82,-0.53,14690,10078.80,0,0,165,0.56,-2.94,0.14,-0.20,0.82,-0.53
-0.0068359375,-3.3229217E-4,-0.002155263,0.0032142857,-0.2,0.82,-0.53,14705,10077.80,0,0,0,0.49,-2.94,0.21,-0.20,0.82,-0.53
-0.0068359375,6.67708E-4,-0.002155263,0.0032142857,-0.2,0.82,-0.53,14712,10077.80,0,0,165,0.56,-2.94,0.21,-0.20,0.82,-0.53
0.29296875,-3.3229217E-4,-0.002155263,0.001214286,-0.2,0.82,-0.53,14727,10078.10,0,0,0,0.49,-2.94,0.07,-0.20,0.82,-0.53
-0.0068359375,-3.3229217E-4,-0.001155261,0.001214286,-0.2,0.82,-0.53,14742,10077.80,0,0,165,0.49,-2.87,0.07,-0.20,0.82,-0.53
-0.0068359375,6.67708E-4,-0.002155263,0.001214286,-0.2,0.82,-0.53,14749,10077.80,0,0,0,0.56,-2.94,0.07,-0.20,0.82,-0.53
0.99316406,6.67708E-4,-0.002155263,0.002214286,-0.2,0.82,-0.53,14765,10078.80,0,0,165,0.56,-2.94,0.14,-0.20,0.82,-0.53
-0.0068359375,6.67708E-4,-0.001155261,0.001214286,-0.2,0.82,-0.53,14780,10077.80,0,0,0,0.56,-2.87,0.07,-0.20,0.82,-0.53
-0.0068359375,6.67708E-4,-0.003155265,0.001214286,-0.2,0.82,-0.53,14787,10077.80,0,0,165,0.56,-3.01,0.07,-0.20,0.82,-0.53
0.99316406,-3.3229217E-4,-0.001155261,0.002214286,-0.2,0.82,-0.53,14802,10078.80,0,0,0,0.49,-2.87,0.14,-0.20,0.82,-0.53
-0.30664062,6.67708E-4,-0.002155263,0.002214286,-0.2,0.82,-0.53,14817,10077.50,0,0,165,0.56,-2.94,0.14,-0.20,0.82,-0.53
-0.0068359375,-3.3229217E-4,-0.002155263,0.001214286,-0.2,0.82,-0.53,14824,10077.80,0,0,0,0.49,-2.94,0.07,-0.20,0.82,-0.53
0.99316406,-0.0013322928,-0.002155263,2.1428592E-4,-0.2,0.82,-0.53,14840,10078.80,0,0,165,0.42,-2.94,0.00,-0.20,0.82,-0.53
0.29296875,6.67708E-4,-0.002155263,0.001214286,-0.2,0.82,-0.53,14855,10078.10,0,0,0,0.56,-2.94,0.07,-0.20,0.82,-0.53
-0.0068359375,-0.0013322928,-0.002155263,0.001214286,-0.2,0.82,-0.53,14862,10077.80,0,0,165,0.42,-2.94,0.07,-0.20,0.82,-0.53
-0.0068359375,6.67708E-4,-0.002155263,2.1428592E-4,-0.2,0.82,-0.53,14877,10077.80,0,0,0,0.56,-2.94,0.00,-0.20,0.82,-0.53
-0.0068359375,-3.3229217E-4,-0.001155261,0.001214286,-0.2,0.82,-0.53,14892,10077.80,0,0,165,0.49,-2.87,0.07,-0.20,0.82,-0.53
-0.0068359375,-0.0013322928,-0.001155261,0.001214286,-0.2,0.82,-0.53,14900,10077.80,0,0,0,0.42,-2.87,0.07,-0.20,0.82,-0.53
0.29296875,6.67708E-4,-0.003155265,0.002214286,-0.2,0.82,-0.53,14915,10078.10,0,0,165,0.56,-3.01,0.14,-0.20,0.82,-0.53
-1.0068359,-3.3229217E-4,-1.5526265E-4,0.001214286,-0.2,0.82,-0.53,14930,10076.80,0,0,0,0.49,-2.80,0.07,-0.20,0.82,-0.53
0.99316406,6.67708E-4,-0.001155261,0.002214286,-0.2,0.82,-0.53,14937,10078.80,0,0,165,0.56,-2.87,0.14,-0.20,0.82,-0.53
1.2929688,6.67708E-4,-0.002155263,0.001214286,-0.2,0.82,-0.53,14952,10079.10,0,0,0,0.56,-2.94,0.07,-0.20,0.82,-0.53
-0.0068359375,6.67708E-4,-0.002155263,0.001214286,-0.2,0.82,-0.53,14967,10077.80,0,0,165,0.56,-2.94,0.07,-0.20,0.82,-0.53
-0.0068359375,0.0016677072,-0.002155263,0.002214286,-0.2,0.82,-0.53,14975,10077.80,0,0,0,0.63,-2.94,0.14,-0.20,0.82,-0.53
1.2929688,-3.3229217E-4,-0.002155263,2.1428592E-4,-0.2,0.82,-0.53,14990,10079.10,0,0,165,0.49,-2.94,0.00,-0.20,0.82,-0.53
-0.0068359375,0.0016677072,-0.002155263,0.0032142857,-0.2,0.82,-0.53,15005,10077.80,0,0,0,0.63,-2.94,0.21,-0.20,0.82,-0.53
0.99316406,-0.0013322928,-0.002155263,0.001214286,-0.2,0.82,-0.53,15013,10078.80,0,0,165,0.42,-2.94,0.07,-0.20,0.82,-0.53
0.99316406,6.67708E-4,-1.5526265E-4,0.0032142857,-0.2,0.82,-0.53,15027,10078.80,0,0,0,0.56,-2.80,0.21,-0.20,0.82,-0.53
0.99316406,6.67708E-4,-0.002155263,0.002214286,-0.2,0.82,-0.53,15043,10078.80,0,0,165,0.56,-2.94,0.14,-0.20,0.82,-0.53
-0.0068359375,-3.3229217E-4,-0.003155265,2.1428592E-4,-0.2,0.82,-0.53,15058,10077.80,0,0,0,0.49,-3.01,0.00,-0.20,0.82,-0.53
0.99316406,0.0016677072,-0.001155261,0.0032142857,-0.2,0.82,-0.53,15065,10078.80,0,0,165,0.63,-2.87,0.21,-0.20,0.82,-0.53
-0.0068359375,-0.0013322928,-0.002155263,0.002214286,-0.2,0.82,-0.53,15080,10077.80,0,0,0,0.42,-2.94,0.14,-0.20,0.82,-0.53
0.99316406,-3.3229217E-4,-0.002155263,0.004214286,-0.2,0.82,-0.53,15087,10078.80,0,0,165,0.49,-2.94,0.28,-0.20,0.82,-0.53
0.99316406,-3.3229217E-4,-0.001155261,0.002214286,-0.2,0.82,-0.53,15103,10078.80,0,0,0,0.49,-2.87,0.14,-0.20,0.82,-0.53
-0.0068359375,-0.0013322928,-0.003155265,0.001214286,-0.2,0.82,-0.53,15117,10077.80,0,0,165,0.42,-3.01,0.07,-0.20,0.82,-0.53
-0.0068359375,-0.0013322928,-0.002155263,0.001214286,-0.2,0.82,-0.53,15124,10077.80,0,0,0,0.42,-2.94,0.07,-0.20,0.82,-0.53
0.99316406,-0.0013322928,-0.002155263,0.001214286,-0.2,0.82,-0.53,15140,10078.80,0,0,165,0.42,-2.94,0.07,-0.20,0.82,-0.53
-0.0068359375,6.67708E-4,-1.5526265E-4,0.002214286,-0.2,0.82,-0.53,15155,10077.80,0,0,0,0.56,-2.80,0.14,-0.20,0.82,-0.53
-0.0068359375,-3.3229217E-4,-0.002155263,0.001214286,-0.2,0.82,-0.53,15162,10077.80,0,0,165,0.49,-2.94,0.07,-0.20,0.82,-0.53
-0.0068359375,6.67708E-4,-0.002155263,0.001214286,-0.2,0.82,-0.53,15177,10077.80,0,0,0,0.56,-2.94,0.07,-0.20,0.82,-0.53
-0.0068359375,-3.3229217E-4,-0.003155265,0.001214286,-0.2,0.82,-0.53,15192,10077.80,0,0,165,0.49,-3.01,0.07,-0.20,0.82,-0.53
-0.0068359375,-0.0013322928,-0.001155261,0.002214286,-0.2,0.82,-0.53,15200,10077.80,0,0,0,0.42,-2.87,0.14,-0.20,0.82,-0.53
0.99316406,-3.3229217E-4,-0.002155263,0.001214286,-0.2,0.82,-0.53,15215,10078.80,0,0,165,0.49,-2.94,0.07,-0.20,0.82,-0.53
0.99316406,6.67708E-4,-0.002155263,0.002214286,-0.2,0.82,-0.53,15230,10078.80,0,0,0,0.56,-2.94,0.14,-0.20,0.82,-0.53
0.99316406,-3.3229217E-4,-0.001155261,0.002214286,-0.2,0.82,-0.53,15237,10078.80,0,0,165,0.49,-2.87,0.14,-0.20,0.82,-0.53
0.99316406,0.0016677072,-0.002155263,0.002214286,-0.2,0.82,-0.53,15252,10078.80,0,0,0,0.63,-2.94,0.14,-0.20,0.82,-0.53
0.99316406,6.67708E-4,-0.002155263,0.004214286,-0.2,0.82,-0.53,15267,10078.80,0,0,165,0.56,-2.94,0.28,-0.20,0.82,-0.53
-0.0068359375,-3.3229217E-4,-0.002155263,0.001214286,-0.2,0.82,-0.53,15274,10077.80,0,0,0,0.49,-2.94,0.07,-0.20,0.82,-0.53
1.8935547,-3.3229217E-4,-0.002155263,0.0032142857,-0.2,0.82,-0.53,15290,10079.70,0,0,165,0.49,-2.94,0.21,-0.20,0.82,-0.53
-0.0068359375,-3.3229217E-4,-0.002155263,0.001214286,-0.2,0.82,-0.53,15306,10077.80,0,0,0,0.49,-2.94,0.07,-0.20,0.82,-0.53
1.2929688,0.0016677072,-0.002155263,0.001214286,-0.2,0.82,-0.53,15314,10079.10,0,0,165,0.63,-2.94,0.07,-0.20,0.82,-0.53
-0.0068359375,0.0016677072,-0.002155263,2.1428592E-4,-0.2,0.82,-0.53,15327,10077.80,0,0,0,0.63,-2.94,0.00,-0.20,0.82,-0.53
1.8935547,6.67708E-4,-0.003155265,0.001214286,-0.2,0.82,-0.53,15342,10079.70,0,0,165,0.56,-3.01,0.07,-0.20,0.82,-0.53
0.99316406,-3.3229217E-4,-0.003155265,2.1428592E-4,-0.2,0.82,-0.53,15350,10078.80,0,0,0,0.49,-3.01,0.00,-0.20,0.82,-0.53
0.99316406,6.67708E-4,-0.001155261,0.002214286,-0.2,0.82,-0.53,15364,10078.80,0,0,165,0.56,-2.87,0.14,-0.20,0.82,-0.53
0.99316406,6.67708E-4,-0.001155261,0.0032142857,-0.2,0.82,-0.53,15380,10078.80,0,0,0,0.56,-2.87,0.21,-0.20,0.82,-0.53
-0.0068359375,0.0016677072,-0.002155263,0.004214286,-0.2,0.82,-0.53,15395,10077.80,0,0,165,0.63,-2.94,0.28,-0.20,0.82,-0.53
0.99316406,6.67708E-4,-0.001155261,0.004214286,-0.2,0.82,-0.53,15410,10078.80,0,0,0,0.56,-2.87,0.28,-0.20,0.82,-0.53
-0.0068359375,6.67708E-4,-0.003155265,0.001214286,-0.2,0.82,-0.53,15417,10077.80,0,0,165,0.56,-3.01,0.07,-0.20,0.82,-0.53
0.99316406,-3.3229217E-4,-1.5526265E-4,0.001214286,-0.2,0.82,-0.53,15425,10078.80,0,0,0,0.49,-2.80,0.07,-0.20,0.82,-0.53
-0.0068359375,-3.3229217E-4,-0.002155263,0.001214286,-0.2,0.82,-0.53,15439,10077.80,0,0,165,0.49,-2.94,0.07,-0.20,0.82,-0.53
-0.0068359375,-3.3229217E-4,-0.002155263,0.001214286,-0.2,0.82,-0.53,15454,10077.80,0,0,0,0.49,-2.94,0.07,-0.20,0.82,-0.53
-0.0068359375,0.0016677072,-1.5526265E-4,0.002214286,-0.2,0.82,-0.53,15462,10077.80,0,0,165,0.63,-2.80,0.14,-0.20,0.82,-0.53
0.29296875,6.67708E-4,-0.001155261,0.001214286,-0.2,0.82,-0.53,15478,10078.10,0,0,0,0.56,-2.87,0.07,-0.20,0.82,-0.53
0.99316406,6.67708E-4,-0.002155263,0.001214286,-0.2,0.82,-0.53,15492,10078.80,0,0,165,0.56,-2.94,0.07,-0.20,0.82,-0.53
-0.0068359375,6.67708E-4,-0.003155265,0.001214286,-0.2,0.83,-0.53,15500,10077.80,0,0,0,0.56,-3.01,0.07,-0.20,0.83,-0.53
0.99316406,-3.3229217E-4,-0.001155261,0.001214286,-0.2,0.82,-0.53,15519,10078.80,0,0,165,0.49,-2.87,0.07,-0.20,0.82,-0.53
0.99316406,0.0016677072,-0.002155263,0.002214286,-0.2,0.82,-0.53,15529,10078.80,0,0,0,0.63,-2.94,0.14,-0.20,0.82,-0.53
-0.0068359375,0.0016677072,-0.002155263,0.0032142857,-0.2,0.82,-0.53,15545,10077.80,0,0,165,0.63,-2.94,0.21,-0.20,0.82,-0.53
0.99316406,-0.0023322925,-0.002155263,0.001214286,-0.2,0.82,-0.53,15553,10078.80,0,0,0,0.35,-2.94,0.07,-0.20,0.82,-0.53
0.99316406,-3.3229217E-4,-0.0041552633,0.002214286,-0.2,0.82,-0.53,15568,10078.80,0,0,165,0.49,-3.08,0.14,-0.20,0.82,-0.53
-0.0068359375,-3.3229217E-4,-0.001155261,2.1428592E-4,-0.2,0.82,-0.53,15575,10077.80,0,0,0,0.49,-2.87,0.00,-0.20,0.82,-0.53
1.2929688,0.0016677072,-0.002155263,0.002214286,-0.2,0.82,-0.53,15590,10079.10,0,0,165,0.63,-2.94,0.14,-0.20,0.82,-0.53
-0.0068359375,0.0026677074,-0.002155263,0.001214286,-0.2,0.82,-0.53,15605,10077.80,0,0,0,0.70,-2.94,0.07,-0.20,0.82,-0.53
0.59375,0.0016677072,-0.003155265,0.002214286,-0.2,0.82,-0.53,15613,10078.40,0,0,165,0.63,-3.01,0.14,-0.20,0.82,-0.53
-0.0068359375,-3.3229217E-4,-0.001155261,0.001214286,-0.2,0.82,-0.53,15628,10077.80,0,0,0,0.49,-2.87,0.07,-0.20,0.82,-0.53
-0.0068359375,6.67708E-4,-0.001155261,0.0032142857,-0.2,0.82,-0.53,15642,10077.80,0,0,165,0.56,-2.87,0.21,-0.20,0.82,-0.53
-0.0068359375,-3.3229217E-4,-0.002155263,0.002214286,-0.2,0.82,-0.53,15650,10077.80,0,0,0,0.49,-2.94,0.14,-0.20,0.82,-0.53
0.99316406,-3.3229217E-4,-0.003155265,0.001214286,-0.2,0.82,-0.53,15665,10078.80,0,0,165,0.49,-3.01,0.07,-0.20,0.82,-0.53
-1.0068359,6.67708E-4,-0.001155261,0.002214286,-0.2,0.82,-0.53,15680,10076.80,0,0,0,0.56,-2.87,0.14,-0.20,0.82,-0.53
0.99316406,-3.3229217E-4,-0.003155265,0.0032142857,-0.2,0.82,-0.53,15687,10078.80,0,0,165,0.49,-3.01,0.21,-0.20,0.82,-0.53
0.99316406,6.67708E-4,-0.002155263,0.001214286,-0.2,0.82,-0.53,15702,10078.80,0,0,0,0.56,-2.94,0.07,-0.20,0.82,-0.53
0.99316406,6.67708E-4,-0.002155263,2.1428592E-4,-0.2,0.82,-0.53,15718,10078.80,0,0,165,0.56,-2.94,0.00,-0.20,0.82,-0.53
0.99316406,6.67708E-4,-0.002155263,0.002214286,-0.2,0.82,-0.53,15725,10078.80,0,0,0,0.56,-2.94,0.14,-0.20,0.82,-0.53
0.99316406,0.0026677074,-0.001155261,0.002214286,-0.2,0.83,-0.53,15748,10078.80,0,0,165,0.70,-2.87,0.14,-0.20,0.83,-0.53
-1.3066406,6.67708E-4,-0.001155261,0.002214286,-0.2,0.82,-0.53,15755,10076.50,0,0,0,0.56,-2.87,0.14,-0.20,0.82,-0.53
0.99316406,0.0016677072,-1.5526265E-4,0.0032142857,-0.2,0.82,-0.53,15763,10078.80,0,0,165,0.63,-2.80,0.21,-0.20,0.82,-0.53
0.99316406,-3.3229217E-4,-0.002155263,2.1428592E-4,-0.2,0.82,-0.53,15777,10078.80,0,0,0,0.49,-2.94,0.00,-0.20,0.82,-0.53
1.2929688,-3.3229217E-4,-0.001155261,0.002214286,-0.2,0.82,-0.53,15786,10079.10,0,0,165,0.49,-2.87,0.14,-0.20,0.82,-0.53
0.99316406,-3.3229217E-4,-0.003155265,0.001214286,-0.2,0.82,-0.53,15800,10078.80,0,0,0,0.49,-3.01,0.07,-0.20,0.82,-0.53
0.99316406,0.0026677074,-0.001155261,0.001214286,-0.2,0.82,-0.53,15815,10078.80,0,0,165,0.70,-2.87,0.07,-0.20,0.82,-0.53
0.99316406,6.67708E-4,-0.002155263,2.1428592E-4,-0.2,0.82,-0.53,15822,10078.80,0,0,0,0.56,-2.94,0.00,-0.20,0.82,-0.53
-0.0068359375,-3.3229217E-4,-0.002155263,2.1428592E-4,-0.2,0.82,-0.53,15837,10077.80,0,0,165,0.49,-2.94,0.00,-0.20,0.82,-0.53
0.99316406,-3.3229217E-4,-0.002155263,2.1428592E-4,-0.2,0.82,-0.53,15852,10078.80,0,0,0,0.49,-2.94,0.00,-0.20,0.82,-0.53
1.8935547,6.67708E-4,-0.001155261,0.001214286,-0.2,0.82,-0.53,15860,10079.70,0,0,165,0.56,-2.87,0.07,-0.20,0.82,-0.53
0.99316406,0.0016677072,-0.002155263,0.0032142857,-0.2,0.83,-0.53,15876,10078.80,0,0,0,0.63,-2.94,0.21,-0.20,0.83,-0.53
0.99316406,-3.3229217E-4,-1.5526265E-4,0.002214286,-0.2,0.82,-0.53,15886,10078.80,0,0,165,0.49,-2.80,0.14,-0.20,0.82,-0.53
-0.0068359375,-0.0013322928,-0.001155261,0.002214286,-0.2,0.82,-0.53,15897,10077.80,0,0,0,0.42,-2.87,0.14,-0.20,0.82,-0.53
0.99316406,0.0016677072,-0.002155263,0.001214286,-0.2,0.83,-0.53,15912,10078.80,0,0,165,0.63,-2.94,0.07,-0.20,0.83,-0.53
0.99316406,6.67708E-4,-0.001155261,0.002214286,-0.2,0.82,-0.53,15920,10078.80,0,0,0,0.56,-2.87,0.14,-0.20,0.82,-0.53
1.8935547,0.0016677072,-0.002155263,0.002214286,-0.2,0.82,-0.53,15936,10079.70,0,0,165,0.63,-2.94,0.14,-0.20,0.82,-0.53
1.8935547,-3.3229217E-4,-0.002155263,0.001214286,-0.2,0.82,-0.53,15950,10079.70,0,0,0,0.49,-2.94,0.07,-0.20,0.82,-0.53
0.99316406,6.67708E-4,-0.003155265,0.002214286,-0.2,0.82,-0.53,15958,10078.80,0,0,165,0.56,-3.01,0.14,-0.20,0.82,-0.53
0.99316406,-3.3229217E-4,-0.002155263,-7.8571413E-4,-0.2,0.82,-0.53,15972,10078.80,0,0,0,0.49,-2.94,-0.07,-0.20,0.82,-0.53
-0.0068359375,-3.3229217E-4,-0.002155263,0.001214286,-0.2,0.82,-0.53,15987,10077.80,0,0,165,0.49,-2.94,0.07,-0.20,0.82,-0.53
0.99316406,0.0016677072,-0.001155261,0.001214286,-0.2,0.82,-0.53,15996,10078.80,0,0,0,0.63,-2.87,0.07,-0.20,0.82,-0.53
0.99316406,-0.0013322928,-0.002155263,0.002214286,-0.2,0.82,-0.53,16010,10078.80,0,0,165,0.42,-2.94,0.14,-0.20,0.82,-0.53
-0.0068359375,-3.3229217E-4,-0.002155263,2.1428592E-4,-0.2,0.82,-0.53,16025,10077.80,0,0,0,0.49,-2.94,0.00,-0.20,0.82,-0.53
-0.0068359375,-3.3229217E-4,-0.002155263,0.002214286,-0.2,0.82,-0.53,16033,10077.80,0,0,165,0.49,-2.94,0.14,-0.20,0.82,-0.53
-0.0068359375,-3.3229217E-4,-0.002155263,2.1428592E-4,-0.2,0.82,-0.53,16047,10077.80,0,0,0,0.49,-2.94,0.00,-0.20,0.82,-0.53
0.99316406,-3.3229217E-4,-0.002155263,0.001214286,-0.2,0.83,-0.53,16062,10078.80,0,0,165,0.49,-2.94,0.07,-0.20,0.83,-0.53
0.99316406,6.67708E-4,-0.002155263,0.004214286,-0.2,0.82,-0.53,16070,10078.80,0,0,0,0.56,-2.94,0.28,-0.20,0.82,-0.53
0.99316406,6.67708E-4,-0.001155261,0.002214286,-0.2,0.82,-0.53,16085,10078.80,0,0,165,0.56,-2.87,0.14,-0.20,0.82,-0.53
1.2929688,6.67708E-4,-0.001155261,0.001214286,-0.2,0.82,-0.53,16101,10079.10,0,0,0,0.56,-2.87,0.07,-0.20,0.82,-0.53
0.99316406,6.67708E-4,-0.001155261,0.002214286,-0.2,0.82,-0.53,16107,10078.80,0,0,165,0.56,-2.87,0.14,-0.20,0.82,-0.53
0.99316406,6.67708E-4,-1.5526265E-4,0.001214286,-0.2,0.82,-0.53,16122,10078.80,0,0,0,0.56,-2.80,0.07,-0.20,0.82,-0.53
1.8935547,-3.3229217E-4,-0.001155261,2.1428592E-4,-0.2,0.83,-0.53,16137,10079.70,0,0,165,0.49,-2.87,0.00,-0.20,0.83,-0.53
1.8935547,6.67708E-4,-1.5526265E-4,0.001214286,-0.2,0.82,-0.53,16145,10079.70,0,0,0,0.56,-2.80,0.07,-0.20,0.82,-0.53
0.99316406,0.0016677072,0.001844734,0.0032142857,-0.2,0.82,-0.53,16161,10078.80,0,0,165,0.63,-2.66,0.21,-0.20,0.82,-0.53
0.99316406,6.67708E-4,-1.5526265E-4,2.1428592E-4,-0.2,0.82,-0.53,16175,10078.80,0,0,0,0.56,-2.80,0.00,-0.20,0.82,-0.53
-0.0068359375,6.67708E-4,-0.001155261,0.002214286,-0.2,0.82,-0.53,16183,10077.80,0,0,165,0.56,-2.87,0.14,-0.20,0.82,-0.53
-0.0068359375,0.0016677072,-1.5526265E-4,2.1428592E-4,-0.2,0.82,-0.53,16198,10077.80,0,0,0,0.63,-2.80,0.00,-0.20,0.82,-0.53
0.99316406,6.67708E-4,-0.002155263,2.1428592E-4,-0.2,0.82,-0.53,16213,10078.80,0,0,165,0.56,-2.94,0.00,-0.20,0.82,-0.53
0.99316406,-3.3229217E-4,8.4473565E-4,0.002214286,-0.2,0.82,-0.53,16219,10078.80,0,0,0,0.49,-2.73,0.14,-0.20,0.82,-0.53
0.99316406,6.67708E-4,-0.001155261,0.002214286,-0.2,0.82,-0.53,16236,10078.80,0,0,165,0.56,-2.87,0.14,-0.20,0.82,-0.53
0.99316406,6.67708E-4,-0.001155261,0.002214286,-0.2,0.82,-0.53,16251,10078.80,0,0,0,0.56,-2.87,0.14,-0.20,0.82,-0.53
-0.0068359375,6.67708E-4,-0.002155263,2.1428592E-4,-0.2,0.82,-0.53,16258,10077.80,0,0,165,0.56,-2.94,0.00,-0.20,0.82,-0.53
0.99316406,-3.3229217E-4,-0.002155263,0.001214286,-0.2,0.82,-0.53,16273,10078.80,0,0,0,0.49,-2.94,0.07,-0.20,0.82,-0.53
-0.0068359375,-0.0023322925,-0.001155261,0.001214286,-0.2,0.82,-0.53,16288,10077.80,0,0,165,0.35,-2.87,0.07,-0.20,0.82,-0.53
0.99316406,0.0016677072,-0.002155263,0.001214286,-0.2,0.82,-0.53,16295,10078.80,0,0,0,0.63,-2.94,0.07,-0.20,0.82,-0.53
0.99316406,6.67708E-4,-0.001155261,2.1428592E-4,-0.2,0.82,-0.53,16310,10078.80,0,0,165,0.56,-2.87,0.00,-0.20,0.82,-0.53
0.99316406,-0.0013322928,-0.002155263,-7.8571413E-4,-0.2,0.82,-0.53,16325,10078.80,0,0,0,0.42,-2.94,-0.07,-0.20,0.82,-0.53
0.99316406,-3.3229217E-4,-0.003155265,2.1428592E-4,-0.2,0.82,-0.53,16335,10078.80,0,0,165,0.49,-3.01,0.00,-0.20,0.82,-0.53
0.99316406,-3.3229217E-4,-0.002155263,0.001214286,-0.2,0.82,-0.53,16354,10078.80,0,0,0,0.49,-2.94,0.07,-0.20,0.82,-0.53
0.99316406,6.67708E-4,-0.001155261,2.1428592E-4,-0.2,0.82,-0.53,16362,10078.80,0,0,165,0.56,-2.87,0.00,-0.20,0.82,-0.53
0.99316406,0.0016677072,-0.002155263,0.001214286,-0.2,0.82,-0.53,16369,10078.80,0,0,0,0.63,-2.94,0.07,-0.20,0.82,-0.53
1.8935547,-3.3229217E-4,-0.001155261,0.002214286,-0.2,0.82,-0.53,16385,10079.70,0,0,165,0.49,-2.87,0.14,-0.20,0.82,-0.53
0.99316406,6.67708E-4,-0.001155261,0.001214286,-0.2,0.82,-0.53,16400,10078.80,0,0,0,0.56,-2.87,0.07,-0.20,0.82,-0.53
0.99316406,0.0016677072,-0.001155261,2.1428592E-4,-0.2,0.83,-0.53,16407,10078.80,0,0,165,0.63,-2.87,0.00,-0.20,0.83,-0.53
1.59375,6.67708E-4,-0.002155263,2.1428592E-4,-0.2,0.82,-0.53,16422,10079.40,0,0,0,0.56,-2.94,0.00,-0.20,0.82,-0.53
1.8935547,6.67708E-4,-0.001155261,2.1428592E-4,-0.2,0.82,-0.53,16437,10079.70,0,0,165,0.56,-2.87,0.00,-0.20,0.82,-0.53
-0.30664062,-3.3229217E-4,-0.001155261,0.001214286,-0.2,0.82,-0.53,16445,10077.50,0,0,0,0.49,-2.87,0.07,-0.20,0.82,-0.53
-0.30664062,6.67708E-4,-0.002155263,0.004214286,-0.2,0.82,-0.53,16459,10077.50,0,0,165,0.56,-2.94,0.28,-0.20,0.82,-0.53
0.99316406,6.67708E-4,-0.002155263,2.1428592E-4,-0.2,0.83,-0.53,16475,10078.80,0,0,0,0.56,-2.94,0.00,-0.20,0.83,-0.53
0.99316406,-3.3229217E-4,-0.002155263,0.002214286,-0.2,0.83,-0.53,16483,10078.80,0,0,165,0.49,-2.94,0.14,-0.20,0.83,-0.53
0.99316406,0.0016677072,-0.002155263,0.002214286,-0.2,0.82,-0.53,16497,10078.80,0,0,0,0.63,-2.94,0.14,-0.20,0.82,-0.53
1.8935547,0.0026677074,-0.002155263,0.002214286,-0.2,0.82,-0.53,16519,10079.70,0,0,165,0.70,-2.94,0.14,-0.20,0.82,-0.53
-0.0068359375,-3.3229217E-4,-0.003155265,2.1428592E-4,-0.2,0.82,-0.54,16521,10077.80,0,0,0,0.49,-3.01,0.00,-0.20,0.82,-0.54
0.99316406,6.67708E-4,-0.003155265,0.002214286,-0.2,0.83,-0.53,16535,10078.80,0,0,165,0.56,-3.01,0.14,-0.20,0.83,-0.53
0.99316406,0.0026677074,-0.003155265,0.002214286,-0.2,0.82,-0.53,16549,10078.80,0,0,0,0.70,-3.01,0.14,-0.20,0.82,-0.53
0.99316406,6.67708E-4,-0.002155263,2.1428592E-4,-0.2,0.82,-0.53,16557,10078.80,0,0,165,0.56,-2.94,0.00,-0.20,0.82,-0.53
0.99316406,-0.0023322925,-0.002155263,0.002214286,-0.2,0.83,-0.53,16572,10078.80,0,0,0,0.35,-2.94,0.14,-0.20,0.83,-0.53
0.99316406,-3.3229217E-4,-0.002155263,0.001214286,-0.2,0.82,-0.53,16588,10078.80,0,0,165,0.49,-2.94,0.07,-0.20,0.82,-0.53
0.99316406,0.0026677074,-0.002155263,0.0032142857,-0.2,0.82,-0.53,16595,10078.80,0,0,0,0.70,-2.94,0.21,-0.20,0.82,-0.53
1.8935547,6.67708E-4,-0.002155263,0.001214286,-0.2,0.82,-0.54,16610,10079.70,0,0,165,0.56,-2.94,0.07,-0.20,0.82,-0.54
0.99316406,-0.0023322925,-0.001155261,0.0032142857,-0.2,0.82,-0.53,16625,10078.80,0,0,0,0.35,-2.87,0.21,-0.20,0.82,-0.53
-0.0068359375,-3.3229217E-4,-0.002155263,0.001214286,-0.2,0.82,-0.53,16633,10077.80,0,0,165,0.49,-2.94,0.07,-0.20,0.82,-0.53
0.99316406,-3.3229217E-4,-0.001155261,2.1428592E-4,-0.2,0.82,-0.53,16647,10078.80,0,0,0,0.49,-2.87,0.00,-0.20,0.82,-0.53
0.99316406,0.0026677074,-0.002155263,0.002214286,-0.2,0.82,-0.53,16662,10078.80,0,0,165,0.70,-2.94,0.14,-0.20,0.82,-0.53
-0.0068359375,-0.0013322928,-0.002155263,2.1428592E-4,-0.2,0.82,-0.53,16669,10077.80,0,0,0,0.42,-2.94,0.00,-0.20,0.82,-0.53
1.8935547,-0.0023322925,-0.002155263,0.002214286,-0.2,0.82,-0.53,16684,10079.70,0,0,165,0.35,-2.94,0.14,-0.20,0.82,-0.53
0.59375,0.0036677076,-0.003155265,0.002214286,-0.2,0.82,-0.53,16700,10078.40,0,0,0,0.77,-3.01,0.14,-0.20,0.82,-0.53
0.99316406,6.67708E-4,-0.003155265,-7.8571413E-4,-0.2,0.82,-0.53,16707,10078.80,0,0,165,0.56,-3.01,-0.07,-0.20,0.82,-0.53
0.59375,-3.3229217E-4,-0.001155261,0.004214286,-0.2,0.83,-0.53,16722,10078.40,0,0,0,0.49,-2.87,0.28,-0.20,0.83,-0.53
-0.0068359375,-3.3229217E-4,-0.001155261,0.0032142857,-0.2,0.82,-0.53,16737,10077.80,0,0,165,0.49,-2.87,0.21,-0.20,0.82,-0.53
0.59375,6.67708E-4,-0.002155263,0.001214286,-0.2,0.82,-0.53,16746,10078.40,0,0,0,0.56,-2.94,0.07,-0.20,0.82,-0.53
0.99316406,6.67708E-4,-0.002155263,2.1428592E-4,-0.2,0.83,-0.53,16760,10078.80,0,0,165,0.56,-2.94,0.00,-0.20,0.83,-0.53
-0.0068359375,6.67708E-4,-1.5526265E-4,0.001214286,-0.2,0.82,-0.53,16775,10077.80,0,0,0,0.56,-2.80,0.07,-0.20,0.82,-0.53
0.99316406,0.0016677072,-0.002155263,0.001214286,-0.2,0.82,-0.53,16783,10078.80,0,0,165,0.63,-2.94,0.07,-0.20,0.82,-0.53
0.99316406,-0.0013322928,-0.003155265,2.1428592E-4,-0.2,0.83,-0.53,16797,10078.80,0,0,0,0.42,-3.01,0.00,-0.20,0.83,-0.53
-0.0068359375,0.0016677072,-0.001155261,0.002214286,-0.2,0.82,-0.53,16812,10077.80,0,0,165,0.63,-2.87,0.14,-0.20,0.82,-0.53
0.99316406,6.67708E-4,-0.002155263,2.1428592E-4,-0.2,0.82,-0.53,16820,10078.80,0,0,0,0.56,-2.94,0.00,-0.20,0.82,-0.53
0.99316406,0.0016677072,-1.5526265E-4,0.002214286,-0.2,0.83,-0.53,16835,10078.80,0,0,165,0.63,-2.80,0.14,-0.20,0.83,-0.53
1.8935547,0.0016677072,-0.002155263,0.002214286,-0.2,0.82,-0.53,16850,10079.70,0,0,0,0.63,-2.94,0.14,-0.20,0.82,-0.53
0.59375,-3.3229217E-4,-0.001155261,2.1428592E-4,-0.2,0.82,-0.53,16858,10078.40,0,0,165,0.49,-2.87,0.00,-0.20,0.82,-0.53
1.8935547,-0.0023322925,-0.002155263,0.001214286,-0.2,0.82,-0.53,16872,10079.70,0,0,0,0.35,-2.94,0.07,-0.20,0.82,-0.53
0.59375,-3.3229217E-4,-0.001155261,0.0032142857,-0.2,0.83,-0.53,16887,10078.40,0,0,165,0.49,-2.87,0.21,-0.20,0.83,-0.53
0.99316406,0.0026677074,-0.001155261,2.1428592E-4,-0.2,0.82,-0.53,16895,10078.80,0,0,0,0.70,-2.87,0.00,-0.20,0.82,-0.53
0.99316406,6.67708E-4,-0.001155261,2.1428592E-4,-0.2,0.82,-0.53,16910,10078.80,0,0,165,0.56,-2.87,0.00,-0.20,0.82,-0.53
0.99316406,6.67708E-4,-0.001155261,0.002214286,-0.2,0.83,-0.53,16925,10078.80,0,0,0,0.56,-2.87,0.14,-0.20,0.83,-0.53
0.99316406,6.67708E-4,-0.002155263,2.1428592E-4,-0.2,0.82,-0.53,16933,10078.80,0,0,165,0.56,-2.94,0.00,-0.20,0.82,-0.53
0.99316406,0.0016677072,-0.002155263,0.002214286,-0.2,0.82,-0.53,16947,10078.80,0,0,0,0.63,-2.94,0.14,-0.20,0.82,-0.53
0.99316406,0.0026677074,-0.001155261,0.0032142857,-0.2,0.82,-0.53,16962,10078.80,0,0,165,0.70,-2.87,0.21,-0.20,0.82,-0.53
0.99316406,-3.3229217E-4,-0.001155261,0.001214286,-0.2,0.82,-0.53,16970,10078.80,0,0,0,0.49,-2.87,0.07,-0.20,0.82,-0.53
-0.0068359375,6.67708E-4,-0.002155263,0.002214286,-0.2,0.82,-0.53,16985,10077.80,0,0,165,0.56,-2.94,0.14,-0.20,0.82,-0.53
0.99316406,6.67708E-4,-0.001155261,0.0032142857,-0.2,0.82,-0.53,17000,10078.80,0,0,0,0.56,-2.87,0.21,-0.20,0.82,-0.53
0.99316406,0.0016677072,-0.002155263,0.001214286,-0.2,0.82,-0.53,17007,10078.80,0,0,165,0.63,-2.94,0.07,-0.20,0.82,-0.53
0.99316406,-0.0013322928,-0.001155261,0.001214286,-0.2,0.83,-0.53,17022,10078.80,0,0,0,0.42,-2.87,0.07,-0.20,0.83,-0.53
0.59375,6.67708E-4,-0.003155265,2.1428592E-4,-0.2,0.82,-0.53,17038,10078.40,0,0,165,0.56,-3.01,0.00,-0.20,0.82,-0.53
0.99316406,0.0026677074,-0.001155261,0.002214286,-0.2,0.82,-0.53,17045,10078.80,0,0,0,0.70,-2.87,0.14,-0.20,0.82,-0.53
0.59375,6.67708E-4,-0.001155261,0.002214286,-0.2,0.82,-0.53,17060,10078.40,0,0,165,0.56,-2.87,0.14,-0.20,0.82,-0.53
0.99316406,-0.0013322928,-0.001155261,0.002214286,-0.2,0.83,-0.53,17075,10078.80,0,0,0,0.42,-2.87,0.14,-0.20,0.83,-0.53
0.99316406,0.0016677072,-0.001155261,0.002214286,-0.2,0.82,-0.53,17084,10078.80,0,0,165,0.63,-2.87,0.14,-0.20,0.82,-0.53
0.99316406,0.0016677072,-0.002155263,0.002214286,-0.2,0.82,-0.53,17100,10078.80,0,0,0,0.63,-2.94,0.14,-0.20,0.82,-0.53
0.99316406,-3.3229217E-4,-0.002155263,0.001214286,-0.2,0.82,-0.54,17118,10078.80,0,0,165,0.49,-2.94,0.07,-0.20,0.82,-0.54
0.59375,6.67708E-4,-0.002155263,2.1428592E-4,-0.2,0.83,-0.53,17120,10078.40,0,0,0,0.56,-2.94,0.00,-0.20,0.83,-0.53
-0.0068359375,6.67708E-4,-0.003155265,0.001214286,-0.2,0.82,-0.53,17134,10077.80,0,0,165,0.56,-3.01,0.07,-0.20,0.82,-0.53
-0.30664062,-3.3229217E-4,-0.001155261,2.1428592E-4,-0.2,0.83,-0.53,17151,10077.50,0,0,0,0.49,-2.87,0.00,-0.20,0.83,-0.53
0.99316406,-3.3229217E-4,-0.001155261,0.0032142857,-0.2,0.82,-0.53,17157,10078.80,0,0,165,0.49,-2.87,0.21,-0.20,0.82,-0.53
0.59375,6.67708E-4,-0.001155261,0.001214286,-0.2,0.83,-0.53,17172,10078.40,0,0,0,0.56,-2.87,0.07,-0.20,0.83,-0.53
0.99316406,0.0016677072,-0.002155263,0.002214286,-0.2,0.82,-0.53,17187,10078.80,0,0,165,0.63,-2.94,0.14,-0.20,0.82,-0.53
0.99316406,6.67708E-4,-0.001155261,0.002214286,-0.2,0.82,-0.53,17195,10078.80,0,0,0,0.56,-2.87,0.14,-0.20,0.82,-0.53
0.99316406,-0.0013322928,-0.002155263,2.1428592E-4,-0.2,0.82,-0.53,17210,10078.80,0,0,165,0.42,-2.94,0.00,-0.20,0.82,-0.53
1.8935547,6.67708E-4,-0.001155261,0.001214286,-0.2,0.83,-0.53,17225,10079.70,0,0,0,0.56,-2.87,0.07,-0.20,0.83,-0.53
0.99316406,-3.3229217E-4,-0.001155261,0.001214286,-0.2,0.82,-0.53,17233,10078.80,0,0,165,0.49,-2.87,0.07,-0.20,0.82,-0.53
0.59375,-0.0013322928,-0.002155263,0.001214286,-0.2,0.82,-0.53,17254,10078.40,0,0,0,0.42,-2.94,0.07,-0.20,0.82,-0.53
0.59375,-0.0013322928,-0.002155263,2.1428592E-4,-0.2,0.82,-0.53,17262,10078.40,0,0,165,0.42,-2.94,0.00,-0.20,0.82,-0.53
0.99316406,-3.3229217E-4,-0.002155263,-7.8571413E-4,-0.2,0.82,-0.53,17270,10078.80,0,0,0,0.49,-2.94,-0.07,-0.20,0.82,-0.53
0.99316406,-3.3229217E-4,-1.5526265E-4,0.002214286,-0.2,0.83,-0.53,17284,10078.80,0,0,165,0.49,-2.80,0.14,-0.20,0.83,-0.53
0.99316406,0.0026677074,-0.002155263,0.002214286,-0.2,0.82,-0.53,17300,10078.80,0,0,0,0.70,-2.94,0.14,-0.20,0.82,-0.53
0.99316406,0.0016677072,-1.5526265E-4,0.002214286,-0.2,0.82,-0.53,17315,10078.80,0,0,165,0.63,-2.80,0.14,-0.20,0.82,-0.53
0.59375,-0.0013322928,-0.002155263,0.001214286,-0.2,0.83,-0.53,17322,10078.40,0,0,0,0.42,-2.94,0.07,-0.20,0.83,-0.53
-0.30664062,0.0016677072,-1.5526265E-4,0.001214286,-0.2,0.82,-0.53,17329,10077.50,0,0,165,0.63,-2.80,0.07,-0.20,0.82,-0.53
0.59375,-3.3229217E-4,-0.002155263,0.001214286,-0.2,0.82,-0.53,17352,10078.40,0,0,0,0.49,-2.94,0.07,-0.20,0.82,-0.53
1.8935547,6.67708E-4,-0.001155261,0.002214286,-0.2,0.82,-0.53,17367,10079.70,0,0,165,0.56,-2.87,0.14,-0.20,0.82,-0.53
0.59375,6.67708E-4,-0.001155261,2.1428592E-4,-0.2,0.82,-0.53,17367,10078.40,0,0,0,0.56,-2.87,0.00,-0.20,0.82,-0.53
0.99316406,-3.3229217E-4,-0.001155261,-7.8571413E-4,-0.2,0.82,-0.53,17388,10078.80,0,0,165,0.49,-2.87,-0.07,-0.20,0.82,-0.53
1.8935547,6.67708E-4,-0.003155265,2.1428592E-4,-0.2,0.82,-0.53,17398,10079.70,0,0,0,0.56,-3.01,0.00,-0.20,0.82,-0.53
0.59375,6.67708E-4,-0.002155263,0.001214286,-0.2,0.82,-0.53,17405,10078.40,0,0,165,0.56,-2.94,0.07,-0.20,0.82,-0.53
1.59375,6.67708E-4,-1.5526265E-4,0.002214286,-0.2,0.82,-0.53,17420,10079.40,0,0,0,0.56,-2.80,0.14,-0.20,0.82,-0.53
-0.0068359375,-3.3229217E-4,-0.001155261,0.001214286,-0.2,0.82,-0.54,17435,10077.80,0,0,165,0.49,-2.87,0.07,-0.20,0.82,-0.54
0.99316406,0.0016677072,-1.5526265E-4,0.0032142857,-0.2,0.82,-0.53,17442,10078.80,0,0,0,0.63,-2.80,0.21,-0.20,0.82,-0.53
1.8935547,0.0016677072,-0.001155261,2.1428592E-4,-0.2,0.82,-0.53,17457,10079.70,0,0,165,0.63,-2.87,0.00,-0.20,0.82,-0.53
0.99316406,-0.0013322928,-1.5526265E-4,2.1428592E-4,-0.2,0.82,-0.53,17472,10078.80,0,0,0,0.42,-2.80,0.00,-0.20,0.82,-0.53
0.59375,-3.3229217E-4,-0.002155263,0.002214286,-0.2,0.82,-0.53,17479,10078.40,0,0,165,0.49,-2.94,0.14,-0.20,0.82,-0.53
0.99316406,6.67708E-4,-1.5526265E-4,-7.8571413E-4,-0.2,0.82,-0.53,17494,10078.80,0,0,0,0.56,-2.80,-0.07,-0.20,0.82,-0.53
0.59375,6.67708E-4,-0.002155263,0.001214286,-0.2,0.82,-0.53,17510,10078.40,0,0,165,0.56,-2.94,0.07,-0.20,0.82,-0.53
0.59375,6.67708E-4,-0.001155261,0.002214286,-0.2,0.82,-0.53,17517,10078.40,0,0,0,0.56,-2.87,0.14,-0.20,0.82,-0.53
0.59375,-3.3229217E-4,-0.001155261,2.1428592E-4,-0.2,0.82,-0.53,17533,10078.40,0,0,165,0.49,-2.87,0.00,-0.20,0.82,-0.53
-0.0068359375,0.0016677072,-0.002155263,0.0032142857,-0.2,0.82,-0.53,17547,10077.80,0,0,0,0.63,-2.94,0.21,-0.20,0.82,-0.53
0.99316406,6.67708E-4,-0.002155263,2.1428592E-4,-0.2,0.82,-0.53,17555,10078.80,0,0,165,0.56,-2.94,0.00,-0.20,0.82,-0.53
0.59375,-0.0013322928,-0.002155263,0.002214286,-0.2,0.82,-0.53,17570,10078.40,0,0,0,0.42,-2.94,0.14,-0.20,0.82,-0.53
1.8935547,-3.3229217E-4,-0.002155263,0.001214286,-0.2,0.83,-0.53,17585,10079.70,0,0,165,0.49,-2.94,0.07,-0.20,0.83,-0.53
0.99316406,0.0016677072,-0.002155263,0.0032142857,-0.2,0.82,-0.53,17592,10078.80,0,0,0,0.63,-2.94,0.21,-0.20,0.82,-0.53
1.59375,6.67708E-4,-0.002155263,0.001214286,-0.2,0.83,-0.53,17608,10079.40,0,0,165,0.56,-2.94,0.07,-0.20,0.83,-0.53
1.59375,-3.3229217E-4,-0.002155263,0.001214286,-0.2,0.82,-0.53,17623,10079.40,0,0,0,0.49,-2.94,0.07,-0.20,0.82,-0.53
0.99316406,-3.3229217E-4,-0.003155265,0.002214286,-0.2,0.82,-0.53,17630,10078.80,0,0,165,0.49,-3.01,0.14,-0.20,0.82,-0.53
0.59375,6.67708E-4,-0.001155261,-0.0017857142,-0.2,0.82,-0.53,17645,10078.40,0,0,0,0.56,-2.87,-0.14,-0.20,0.82,-0.53
1.8935547,6.67708E-4,-0.001155261,0.001214286,-0.2,0.82,-0.53,17660,10079.70,0,0,165,0.56,-2.87,0.07,-0.20,0.82,-0.53
0.59375,-3.3229217E-4,-0.001155261,2.1428592E-4,-0.2,0.82,-0.53,17667,10078.40,0,0,0,0.49,-2.87,0.00,-0.20,0.82,-0.53
1.59375,-0.0013322928,-0.001155261,0.002214286,-0.2,0.82,-0.53,17683,10079.40,0,0,165,0.42,-2.87,0.14,-0.20,0.82,-0.53
0.59375,6.67708E-4,-0.002155263,0.001214286,-0.2,0.82,-0.53,17698,10078.40,0,0,0,0.56,-2.94,0.07,-0.20,0.82,-0.53
0.99316406,6.67708E-4,-0.001155261,0.0032142857,-0.2,0.82,-0.53,17705,10078.80,0,0,165,0.56,-2.87,0.21,-0.20,0.82,-0.53
1.59375,0.0016677072,-0.002155263,0.001214286,-0.2,0.82,-0.53,17720,10079.40,0,0,0,0.63,-2.94,0.07,-0.20,0.82,-0.53
0.99316406,-0.0013322928,-0.001155261,0.002214286,-0.2,0.82,-0.53,17735,10078.80,0,0,165,0.42,-2.87,0.14,-0.20,0.82,-0.53
0.59375,-3.3229217E-4,-0.003155265,0.001214286,-0.2,0.82,-0.53,17743,10078.40,0,0,0,0.49,-3.01,0.07,-0.20,0.82,-0.53
0.99316406,-0.0013322928,-0.003155265,0.001214286,-0.2,0.82,-0.53,17757,10078.80,0,0,165,0.42,-3.01,0.07,-0.20,0.82,-0.53
1.59375,-3.3229217E-4,-0.001155261,0.001214286,-0.2,0.82,-0.53,17772,10079.40,0,0,0,0.49,-2.87,0.07,-0.20,0.82,-0.53
0.59375,6.67708E-4,-0.001155261,0.002214286,-0.2,0.82,-0.53,17780,10078.40,0,0,165,0.56,-2.87,0.14,-0.20,0.82,-0.53
0.59375,0.0016677072,-0.001155261,0.001214286,-0.2,0.82,-0.53,17795,10078.40,0,0,0,0.63,-2.87,0.07,-0.20,0.82,-0.53
1.59375,-0.0013322928,-0.002155263,0.004214286,-0.19,0.82,-0.53,17810,10079.40,0,0,165,0.42,-2.94,0.28,-0.19,0.82,-0.53
0.99316406,6.67708E-4,-0.001155261,0.002214286,-0.2,0.82,-0.53,17818,10078.80,0,0,0,0.56,-2.87,0.14,-0.20,0.82,-0.53
-0.0068359375,0.0016677072,-0.001155261,0.0032142857,-0.2,0.82,-0.53,17832,10077.80,0,0,165,0.63,-2.87,0.21,-0.20,0.82,-0.53
1.8935547,-0.0033322922,-0.002155263,-7.8571413E-4,-0.2,0.82,-0.53,17847,10079.70,0,0,0,0.28,-2.94,-0.07,-0.20,0.82,-0.53
0.99316406,6.67708E-4,-0.001155261,0.002214286,-0.2,0.83,-0.53,17855,10078.80,0,0,165,0.56,-2.87,0.14,-0.20,0.83,-0.53
0.59375,0.0016677072,-0.003155265,2.1428592E-4,-0.2,0.82,-0.53,17870,10078.40,0,0,0,0.63,-3.01,0.00,-0.20,0.82,-0.53
1.8935547,-3.3229217E-4,-0.002155263,0.001214286,-0.2,0.82,-0.53,17885,10079.70,0,0,165,0.49,-2.94,0.07,-0.20,0.82,-0.53
0.59375,6.67708E-4,-1.5526265E-4,0.0032142857,-0.2,0.83,-0.53,17892,10078.40,0,0,0,0.56,-2.80,0.21,-0.20,0.83,-0.53
0.99316406,6.67708E-4,-0.002155263,0.001214286,-0.2,0.82,-0.53,17908,10078.80,0,0,165,0.56,-2.94,0.07,-0.20,0.82,-0.53
0.59375,6.67708E-4,-0.002155263,0.002214286,-0.2,0.83,-0.53,17922,10078.40,0,0,0,0.56,-2.94,0.14,-0.20,0.83,-0.53
0.59375,0.0016677072,-0.002155263,0.002214286,-0.2,0.82,-0.53,17930,10078.40,0,0,165,0.63,-2.94,0.14,-0.20,0.82,-0.53
0.99316406,6.67708E-4,-0.001155261,0.001214286,-0.2,0.82,-0.53,17945,10078.80,0,0,0,0.56,-2.87,0.07,-0.20,0.82,-0.53
0.59375,-3.3229217E-4,-0.002155263,-7.8571413E-4,-0.2,0.83,-0.53,17960,10078.40,0,0,165,0.49,-2.94,-0.07,-0.20,0.83,-0.53
1.59375,0.0016677072,-0.003155265,0.001214286,-0.2,0.82,-0.53,17967,10079.40,0,0,0,0.63,-3.01,0.07,-0.20,0.82,-0.53
1.8935547,-3.3229217E-4,-0.001155261,0.001214286,-0.2,0.82,-0.53,17982,10079.70,0,0,165,0.49,-2.87,0.07,-0.20,0.82,-0.53
0.99316406,-0.0023322925,-0.003155265,0.001214286,-0.2,0.82,-0.53,17997,10078.80,0,0,0,0.35,-3.01,0.07,-0.20,0.82,-0.53
0.59375,0.0016677072,-0.002155263,0.004214286,-0.19,0.82,-0.53,18004,10078.40,0,0,165,0.63,-2.94,0.28,-0.19,0.82,-0.53
1.8935547,-3.3229217E-4,-0.002155263,2.1428592E-4,-0.2,0.82,-0.53,18020,10079.70,0,0,0,0.49,-2.94,0.00,-0.20,0.82,-0.53
1.59375,-3.3229217E-4,-0.002155263,0.004214286,-0.2,0.82,-0.54,18035,10079.40,0,0,165,0.49,-2.94,0.28,-0.20,0.82,-0.54
0.59375,0.0026677074,-0.003155265,0.002214286,-0.2,0.82,-0.53,18042,10078.40,0,0,0,0.70,-3.01,0.14,-0.20,0.82,-0.53
0.99316406,0.0016677072,-0.002155263,0.001214286,-0.2,0.82,-0.53,18057,10078.80,0,0,165,0.63,-2.94,0.07,-0.20,0.82,-0.53
1.59375,-3.3229217E-4,-0.001155261,0.001214286,-0.2,0.82,-0.54,18072,10079.40,0,0,0,0.49,-2.87,0.07,-0.20,0.82,-0.54
0.99316406,0.0016677072,-0.002155263,0.002214286,-0.2,0.82,-0.53,18079,10078.80,0,0,165,0.63,-2.94,0.14,-0.20,0.82,-0.53
1.8935547,6.67708E-4,-0.002155263,2.1428592E-4,-0.2,0.82,-0.53,18095,10079.70,0,0,0,0.56,-2.94,0.00,-0.20,0.82,-0.53
1.8935547,-0.0023322925,-0.002155263,0.001214286,-0.2,0.83,-0.54,18110,10079.70,0,0,165,0.35,-2.94,0.07,-0.20,0.83,-0.54
1.59375,0.0016677072,-0.001155261,0.0032142857,-0.2,0.82,-0.53,18117,10079.40,0,0,0,0.63,-2.87,0.21,-0.20,0.82,-0.53
0.59375,6.67708E-4,-0.002155263,-7.8571413E-4,-0.2,0.82,-0.53,18133,10078.40,0,0,165,0.56,-2.94,-0.07,-0.20,0.82,-0.53
1.8935547,6.67708E-4,-1.5526265E-4,0.002214286,-0.2,0.82,-0.53,18147,10079.70,0,0,0,0.56,-2.80,0.14,-0.20,0.82,-0.53
-0.30664062,0.0026677074,-0.003155265,0.004214286,-0.2,0.82,-0.53,18154,10077.50,0,0,165,0.70,-3.01,0.28,-0.20,0.82,-0.53
0.59375,-0.004332293,-0.002155263,0.001214286,-0.2,0.83,-0.53,18169,10078.40,0,0,0,0.21,-2.94,0.07,-0.20,0.83,-0.53
1.8935547,6.67708E-4,-0.001155261,0.0032142857,-0.2,0.83,-0.53,18185,10079.70,0,0,165,0.56,-2.87,0.21,-0.20,0.83,-0.53
0.99316406,0.0016677072,-0.002155263,0.001214286,-0.2,0.82,-0.53,18192,10078.80,0,0,0,0.63,-2.94,0.07,-0.20,0.82,-0.53
0.99316406,-0.0013322928,-0.001155261,2.1428592E-4,-0.2,0.82,-0.53,18207,10078.80,0,0,165,0.42,-2.87,0.00,-0.20,0.82,-0.53
1.59375,-3.3229217E-4,-0.003155265,0.002214286,-0.2,0.83,-0.53,18222,10079.40,0,0,0,0.49,-3.01,0.14,-0.20,0.83,-0.53
1.59375,0.0026677074,-0.002155263,0.001214286,-0.2,0.82,-0.53,18230,10079.40,0,0,165,0.70,-2.94,0.07,-0.20,0.82,-0.53
1.8935547,-3.3229217E-4,-1.5526265E-4,0.002214286,-0.2,0.82,-0.53,18245,10079.70,0,0,0,0.49,-2.80,0.14,-0.20,0.82,-0.53
0.59375,-3.3229217E-4,-0.002155263,0.004214286,-0.2,0.83,-0.53,18260,10078.40,0,0,165,0.49,-2.94,0.28,-0.20,0.83,-0.53
1.59375,6.67708E-4,-0.003155265,2.1428592E-4,-0.2,0.82,-0.53,18267,10079.40,0,0,0,0.56,-3.01,0.00,-0.20,0.82,-0.53
1.59375,-3.3229217E-4,-1.5526265E-4,2.1428592E-4,-0.2,0.83,-0.53,18282,10079.40,0,0,165,0.49,-2.80,0.00,-0.20,0.83,-0.53
1.59375,-3.3229217E-4,-0.002155263,0.004214286,-0.2,0.82,-0.54,18297,10079.40,0,0,0,0.49,-2.94,0.28,-0.20,0.82,-0.54
0.59375,-3.3229217E-4,-0.003155265,2.1428592E-4,-0.2,0.82,-0.53,18313,10078.40,0,0,165,0.49,-3.01,0.00,-0.20,0.82,-0.53
1.59375,0.0016677072,-0.002155263,0.002214286,-0.2,0.82,-0.53,18320,10079.40,0,0,0,0.63,-2.94,0.14,-0.20,0.82,-0.53
1.59375,-3.3229217E-4,-0.003155265,0.0032142857,-0.2,0.83,-0.53,18335,10079.40,0,0,165,0.49,-3.01,0.21,-0.20,0.83,-0.53
0.59375,6.67708E-4,-0.002155263,0.001214286,-0.2,0.82,-0.53,18342,10078.40,0,0,0,0.56,-2.94,0.07,-0.20,0.82,-0.53
1.59375,6.67708E-4,-0.002155263,0.001214286,-0.2,0.83,-0.53,18357,10079.40,0,0,165,0.56,-2.94,0.07,-0.20,0.83,-0.53
0.99316406,6.67708E-4,-0.001155261,2.1428592E-4,-0.2,0.82,-0.53,18372,10078.80,0,0,0,0.56,-2.87,0.00,-0.20,0.82,-0.53
1.59375,0.0016677072,-0.001155261,0.002214286,-0.2,0.82,-0.53,18380,10079.40,0,0,165,0.63,-2.87,0.14,-0.20,0.82,-0.53
0.99316406,-0.0033322922,-0.002155263,0.001214286,-0.2,0.82,-0.54,18394,10078.80,0,0,0,0.28,-2.94,0.07,-0.20,0.82,-0.54
1.2929688,6.67708E-4,-0.002155263,0.001214286,-0.2,0.82,-0.53,18417,10079.10,0,0,165,0.56,-2.94,0.07,-0.20,0.82,-0.53
0.59375,6.67708E-4,-0.001155261,-7.8571413E-4,-0.2,0.82,-0.53,18418,10078.40,0,0,0,0.56,-2.87,-0.07,-0.20,0.82,-0.53
0.99316406,-0.0013322928,-0.001155261,-7.8571413E-4,-0.2,0.82,-0.54,18432,10078.80,0,0,165,0.42,-2.87,-0.07,-0.20,0.82,-0.54
0.59375,6.67708E-4,-0.003155265,0.0032142857,-0.2,0.82,-0.53,18448,10078.40,0,0,0,0.56,-3.01,0.21,-0.20,0.82,-0.53
0.59375,0.0016677072,-0.003155265,0.001214286,-0.2,0.82,-0.53,18455,10078.40,0,0,165,0.63,-3.01,0.07,-0.20,0.82,-0.53
1.59375,-0.0013322928,-1.5526265E-4,2.1428592E-4,-0.2,0.82,-0.54,18470,10079.40,0,0,0,0.42,-2.80,0.00,-0.20,0.82,-0.54
1.59375,6.67708E-4,-0.001155261,0.0032142857,-0.2,0.82,-0.53,18485,10079.40,0,0,165,0.56,-2.87,0.21,-0.20,0.82,-0.53
1.59375,0.0026677074,-1.5526265E-4,2.1428592E-4,-0.2,0.82,-0.53,18492,10079.40,0,0,0,0.70,-2.80,0.00,-0.20,0.82,-0.53
1.59375,-0.0013322928,-0.001155261,2.1428592E-4,-0.2,0.83,-0.54,18507,10079.40,0,0,165,0.42,-2.87,0.00,-0.20,0.83,-0.54
1.59375,-0.0023322925,-0.001155261,0.0032142857,-0.2,0.83,-0.53,18522,10079.40,0,0,0,0.35,-2.87,0.21,-0.20,0.83,-0.53
1.59375,0.0016677072,-0.001155261,0.001214286,-0.2,0.82,-0.53,18530,10079.40,0,0,165,0.63,-2.87,0.07,-0.20,0.82,-0.53
0.59375,6.67708E-4,-0.001155261,0.001214286,-0.2,0.82,-0.53,18545,10078.40,0,0,0,0.56,-2.87,0.07,-0.20,0.82,-0.53
0.59375,-3.3229217E-4,-0.002155263,2.1428592E-4,-0.2,0.82,-0.53,18568,10078.40,0,0,165,0.49,-2.94,0.00,-0.20,0.82,-0.53
0.59375,-3.3229217E-4,-0.002155263,0.001214286,-0.2,0.82,-0.53,18569,10078.40,0,0,0,0.49,-2.94,0.07,-0.20,0.82,-0.53
0.59375,-0.0013322928,-0.002155263,0.002214286,-0.2,0.83,-0.54,18583,10078.40,0,0,165,0.42,-2.94,0.14,-0.20,0.83,-0.54
0.99316406,0.0016677072,-0.001155261,0.002214286,-0.2,0.82,-0.53,18598,10078.80,0,0,0,0.63,-2.87,0.14,-0.20,0.82,-0.53
0.59375,0.0026677074,-1.5526265E-4,0.0032142857,-0.2,0.82,-0.53,18605,10078.40,0,0,165,0.70,-2.80,0.21,-0.20,0.82,-0.53
0.59375,-0.0033322922,-0.002155263,0.002214286,-0.2,0.83,-0.54,18619,10078.40,0,0,0,0.28,-2.94,0.14,-0.20,0.83,-0.54
0.59375,0.0016677072,-0.001155261,0.001214286,-0.2,0.83,-0.53,18634,10078.40,0,0,165,0.63,-2.87,0.07,-0.20,0.83,-0.53
0.59375,0.0036677076,-0.002155263,0.0032142857,-0.2,0.82,-0.53,18642,10078.40,0,0,0,0.77,-2.94,0.21,-0.20,0.82,-0.53
1.59375,-0.004332293,-0.002155263,-0.0017857142,-0.2,0.83,-0.53,18657,10079.40,0,0,165,0.21,-2.94,-0.14,-0.20,0.83,-0.53
0.59375,-0.0013322928,-0.002155263,0.002214286,-0.2,0.82,-0.53,18672,10078.40,0,0,0,0.42,-2.94,0.14,-0.20,0.82,-0.53
1.59375,0.0016677072,-0.002155263,0.002214286,-0.19,0.82,-0.53,18680,10079.40,0,0,165,0.63,-2.94,0.14,-0.19,0.82,-0.53
1.59375,6.67708E-4,-1.5526265E-4,0.001214286,-0.2,0.82,-0.53,18695,10079.40,0,0,0,0.56,-2.80,0.07,-0.20,0.82,-0.53
0.59375,6.67708E-4,-0.001155261,0.0032142857,-0.2,0.82,-0.53,18710,10078.40,0,0,165,0.56,-2.87,0.21,-0.20,0.82,-0.53
1.59375,-3.3229217E-4,-0.001155261,0.001214286,-0.2,0.82,-0.53,18717,10079.40,0,0,0,0.49,-2.87,0.07,-0.20,0.82,-0.53
0.59375,-3.3229217E-4,-1.5526265E-4,0.001214286,-0.2,0.83,-0.53,18733,10078.40,0,0,165,0.49,-2.80,0.07,-0.20,0.83,-0.53
1.59375,0.0016677072,-1.5526265E-4,0.0032142857,-0.2,0.82,-0.53,18747,10079.40,0,0,0,0.63,-2.80,0.21,-0.20,0.82,-0.53
1.8935547,6.67708E-4,-0.001155261,0.001214286,-0.2,0.82,-0.53,18754,10079.70,0,0,165,0.56,-2.87,0.07,-0.20,0.82,-0.53
1.59375,-0.0033322922,-0.002155263,0.002214286,-0.2,0.83,-0.53,18770,10079.40,0,0,0,0.28,-2.94,0.14,-0.20,0.83,-0.53
1.59375,6.67708E-4,-0.002155263,0.001214286,-0.2,0.83,-0.53,18785,10079.40,0,0,165,0.56,-2.94,0.07,-0.20,0.83,-0.53
0.59375,0.0016677072,-0.003155265,-0.0017857142,-0.2,0.82,-0.53,18792,10078.40,0,0,0,0.63,-3.01,-0.14,-0.20,0.82,-0.53
1.8935547,-0.0023322925,-0.002155263,2.1428592E-4,-0.2,0.82,-0.53,18807,10079.70,0,0,165,0.35,-2.94,0.00,-0.20,0.82,-0.53
0.59375,-0.0023322925,-1.5526265E-4,0.005214286,-0.2,0.82,-0.53,18822,10078.40,0,0,0,0.35,-2.80,0.35,-0.20,0.82,-0.53
0.59375,6.67708E-4,-0.002155263,0.002214286,-0.2,0.82,-0.53,18830,10078.40,0,0,165,0.56,-2.94,0.14,-0.20,0.82,-0.53
0.59375,0.0016677072,-1.5526265E-4,2.1428592E-4,-0.2,0.82,-0.53,18852,10078.40,0,0,0,0.63,-2.80,0.00,-0.20,0.82,-0.53
0.29296875,-0.0013322928,-1.5526265E-4,2.1428592E-4,-0.2,0.83,-0.53,18860,10078.10,0,0,165,0.42,-2.80,0.00,-0.20,0.83,-0.53
1.59375,-3.3229217E-4,-0.001155261,0.004214286,-0.19,0.82,-0.53,18868,10079.40,0,0,0,0.49,-2.87,0.28,-0.19,0.82,-0.53
1.59375,0.0026677074,-0.002155263,-0.0017857142,-0.2,0.82,-0.53,18888,10079.40,0,0,165,0.70,-2.94,-0.14,-0.20,0.82,-0.53
1.59375,0.0026677074,-1.5526265E-4,0.001214286,-0.2,0.82,-0.53,18903,10079.40,0,0,0,0.70,-2.80,0.07,-0.20,0.82,-0.53
0.59375,-3.3229217E-4,-0.003155265,0.0032142857,-0.2,0.82,-0.53,18905,10078.40,0,0,165,0.49,-3.01,0.21,-0.20,0.82,-0.53
1.59375,-0.004332293,-0.003155265,-0.0017857142,-0.2,0.83,-0.54,18920,10079.40,0,0,0,0.21,-3.01,-0.14,-0.20,0.83,-0.54
1.59375,0.005667708,-0.002155263,0.0032142857,-0.2,0.82,-0.53,18943,10079.40,0,0,165,0.91,-2.94,0.21,-0.20,0.82,-0.53
0.59375,-3.3229217E-4,-0.001155261,0.001214286,-0.2,0.82,-0.53,18950,10078.40,0,0,0,0.49,-2.87,0.07,-0.20,0.82,-0.53
0.99316406,-0.0023322925,-0.001155261,0.001214286,-0.2,0.82,-0.53,18957,10078.80,0,0,165,0.35,-2.87,0.07,-0.20,0.82,-0.53
0.59375,-0.0013322928,-0.001155261,0.0032142857,-0.2,0.83,-0.53,18973,10078.40,0,0,0,0.42,-2.87,0.21,-0.20,0.83,-0.53
0.99316406,0.0026677074,-0.002155263,0.002214286,-0.2,0.82,-0.53,18980,10078.80,0,0,165,0.70,-2.94,0.14,-0.20,0.82,-0.53
0.59375,0.0016677072,-1.5526265E-4,0.001214286,-0.2,0.82,-0.53,18995,10078.40,0,0,0,0.63,-2.80,0.07,-0.20,0.82,-0.53
0.59375,-0.004332293,-0.002155263,2.1428592E-4,-0.2,0.83,-0.53,19009,10078.40,0,0,165,0.21,-2.94,0.00,-0.20,0.83,-0.53
0.59375,-0.0023322925,-0.0041552633,0.001214286,-0.2,0.83,-0.53,19018,10078.40,0,0,0,0.35,-3.08,0.07,-0.20,0.83,-0.53
0.59375,0.0026677074,-0.001155261,0.001214286,-0.2,0.82,-0.53,19033,10078.40,0,0,165,0.70,-2.87,0.07,-0.20,0.82,-0.53
1.8935547,0.0016677072,-1.5526265E-4,-7.8571413E-4,-0.2,0.82,-0.53,19047,10079.70,0,0,0,0.63,-2.80,-0.07,-0.20,0.82,-0.53
0.59375,-0.0013322928,-0.001155261,0.002214286,-0.2,0.82,-0.53,19054,10078.40,0,0,165,0.42,-2.87,0.14,-0.20,0.82,-0.53
0.59375,-0.0013322928,-0.001155261,0.001214286,-0.2,0.82,-0.53,19070,10078.40,0,0,0,0.42,-2.87,0.07,-0.20,0.82,-0.53
0.99316406,0.0016677072,-0.002155263,0.0032142857,-0.2,0.82,-0.53,19084,10078.80,0,0,165,0.63,-2.94,0.21,-0.20,0.82,-0.53
0.59375,0.0026677074,-0.001155261,0.0032142857,-0.2,0.82,-0.53,19092,10078.40,0,0,0,0.70,-2.87,0.21,-0.20,0.82,-0.53
1.2929688,-0.0033322922,-0.003155265,-0.0017857142,-0.2,0.83,-0.53,19107,10079.10,0,0,165,0.28,-3.01,-0.14,-0.20,0.83,-0.53
1.59375,6.67708E-4,-0.001155261,0.002214286,-0.2,0.82,-0.53,19122,10079.40,0,0,0,0.56,-2.87,0.14,-0.20,0.82,-0.53
0.59375,0.0036677076,-0.003155265,0.001214286,-0.2,0.82,-0.53,19130,10078.40,0,0,165,0.77,-3.01,0.07,-0.20,0.82,-0.53
1.59375,-3.3229217E-4,-0.003155265,0.002214286,-0.2,0.82,-0.53,19145,10079.40,0,0,0,0.49,-3.01,0.14,-0.20,0.82,-0.53
1.59375,-0.0013322928,-0.002155263,0.001214286,-0.2,0.83,-0.53,19159,10079.40,0,0,165,0.42,-2.94,0.07,-0.20,0.83,-0.53
1.59375,-0.0013322928,-0.003155265,0.001214286,-0.2,0.83,-0.53,19167,10079.40,0,0,0,0.42,-3.01,0.07,-0.20,0.83,-0.53
1.8935547,0.0016677072,-0.003155265,0.002214286,-0.2,0.82,-0.53,19182,10079.70,0,0,165,0.63,-3.01,0.14,-0.20,0.82,-0.53
1.59375,6.67708E-4,-0.001155261,0.001214286,-0.2,0.82,-0.53,19197,10079.40,0,0,0,0.56,-2.87,0.07,-0.20,0.82,-0.53
1.59375,-0.0013322928,-0.001155261,0.002214286,-0.2,0.82,-0.53,19212,10079.40,0,0,165,0.42,-2.87,0.14,-0.20,0.82,-0.53
1.59375,-0.0013322928,-0.001155261,2.1428592E-4,-0.2,0.82,-0.53,19220,10079.40,0,0,0,0.42,-2.87,0.00,-0.20,0.82,-0.53
0.59375,6.67708E-4,-0.002155263,0.001214286,-0.2,0.82,-0.53,19235,10078.40,0,0,165,0.56,-2.94,0.07,-0.20,0.82,-0.53
1.59375,0.0026677074,-0.002155263,0.001214286,-0.2,0.82,-0.53,19243,10079.40,0,0,0,0.70,-2.94,0.07,-0.20,0.82,-0.53
1.59375,-0.0013322928,-0.002155263,2.1428592E-4,-0.2,0.83,-0.53,19258,10079.40,0,0,165,0.42,-2.94,0.00,-0.20,0.83,-0.53
1.59375,-3.3229217E-4,-0.003155265,0.002214286,-0.2,0.83,-0.53,19272,10079.40,0,0,0,0.49,-3.01,0.14,-0.20,0.83,-0.53
0.59375,0.0026677074,-0.002155263,0.0032142857,-0.2,0.82,-0.53,19279,10078.40,0,0,165,0.70,-2.94,0.21,-0.20,0.82,-0.53
0.59375,-3.3229217E-4,-1.5526265E-4,0.0032142857,-0.2,0.82,-0.53,19295,10078.40,0,0,0,0.49,-2.80,0.21,-0.20,0.82,-0.53
1.59375,6.67708E-4,-0.001155261,0.001214286,-0.2,0.82,-0.54,19310,10079.40,0,0,165,0.56,-2.87,0.07,-0.20,0.82,-0.54
0.59375,0.0016677072,-0.003155265,0.0032142857,-0.2,0.82,-0.53,19317,10078.40,0,0,0,0.63,-3.01,0.21,-0.20,0.82,-0.53
0.59375,-3.3229217E-4,-0.001155261,0.002214286,-0.2,0.83,-0.53,19340,10078.40,0,0,165,0.49,-2.87,0.14,-0.20,0.83,-0.53
1.59375,-0.0013322928,-0.001155261,2.1428592E-4,-0.2,0.82,-0.53,19347,10079.40,0,0,0,0.42,-2.87,0.00,-0.20,0.82,-0.53
0.59375,-0.0023322925,-0.001155261,0.001214286,-0.2,0.82,-0.53,19355,10078.40,0,0,165,0.35,-2.87,0.07,-0.20,0.82,-0.53
0.59375,-0.0013322928,-0.003155265,2.1428592E-4,-0.2,0.83,-0.53,19369,10078.40,0,0,0,0.42,-3.01,0.00,-0.20,0.83,-0.53
1.59375,0.0016677072,-1.5526265E-4,0.0032142857,-0.2,0.82,-0.53,19384,10079.40,0,0,165,0.63,-2.80,0.21,-0.20,0.82,-0.53
0.59375,6.67708E-4,-0.003155265,0.001214286,-0.2,0.82,-0.53,19392,10078.40,0,0,0,0.56,-3.01,0.07,-0.20,0.82,-0.53
2.59375,-0.0013322928,-1.5526265E-4,0.002214286,-0.2,0.83,-0.53,19407,10080.40,0,0,165,0.42,-2.80,0.14,-0.20,0.83,-0.53
1.59375,0.0026677074,-0.001155261,0.0032142857,-0.2,0.82,-0.53,19422,10079.40,0,0,0,0.70,-2.87,0.21,-0.20,0.82,-0.53
1.59375,6.67708E-4,-0.002155263,0.001214286,-0.2,0.82,-0.53,19445,10079.40,0,0,165,0.56,-2.94,0.07,-0.20,0.82,-0.53
1.59375,-0.0013322928,-0.001155261,0.002214286,-0.2,0.82,-0.53,19446,10079.40,0,0,0,0.42,-2.87,0.14,-0.20,0.82,-0.53
1.59375,-3.3229217E-4,-0.001155261,2.1428592E-4,-0.2,0.82,-0.53,19460,10079.40,0,0,165,0.49,-2.87,0.00,-0.20,0.82,-0.53
1.59375,0.0016677072,-0.001155261,0.001214286,-0.2,0.82,-0.53,19468,10079.40,0,0,0,0.63,-2.87,0.07,-0.20,0.82,-0.53
0.59375,6.67708E-4,-0.001155261,-0.0017857142,-0.2,0.82,-0.53,19483,10078.40,0,0,165,0.56,-2.87,-0.14,-0.20,0.82,-0.53
1.2929688,-3.3229217E-4,-0.001155261,2.1428592E-4,-0.2,0.82,-0.53,19505,10079.10,0,0,0,0.49,-2.87,0.00,-0.20,0.82,-0.53
1.59375,-0.0013322928,-0.001155261,0.001214286,-0.2,0.82,-0.53,19506,10079.40,0,0,165,0.42,-2.87,0.07,-0.20,0.82,-0.53
1.59375,6.67708E-4,-0.002155263,0.001214286,-0.2,0.82,-0.53,19520,10079.40,0,0,0,0.56,-2.94,0.07,-0.20,0.82,-0.53
0.59375,0.0016677072,-0.001155261,0.0032142857,-0.2,0.82,-0.53,19535,10078.40,0,0,165,0.63,-2.87,0.21,-0.20,0.82,-0.53
1.59375,6.67708E-4,-0.001155261,0.001214286,-0.2,0.82,-0.53,19542,10079.40,0,0,0,0.56,-2.87,0.07,-0.20,0.82,-0.53
1.59375,-3.3229217E-4,-0.001155261,0.001214286,-0.2,0.82,-0.53,19558,10079.40,0,0,165,0.49,-2.87,0.07,-0.20,0.82,-0.53
1.59375,-0.0013322928,-0.002155263,2.1428592E-4,-0.2,0.83,-0.53,19573,10079.40,0,0,0,0.42,-2.94,0.00,-0.20,0.83,-0.53
1.59375,0.0016677072,-0.002155263,0.001214286,-0.2,0.82,-0.53,19580,10079.40,0,0,165,0.63,-2.94,0.07,-0.20,0.82,-0.53
2.8935547,-0.0013322928,-0.002155263,-7.8571413E-4,-0.2,0.82,-0.54,19595,10080.70,0,0,0,0.42,-2.94,-0.07,-0.20,0.82,-0.54
0.59375,-0.0013322928,-0.001155261,0.001214286,-0.2,0.83,-0.53,19610,10078.40,0,0,165,0.42,-2.87,0.07,-0.20,0.83,-0.53
1.59375,-3.3229217E-4,-0.002155263,0.002214286,-0.2,0.82,-0.53,19618,10079.40,0,0,0,0.49,-2.94,0.14,-0.20,0.82,-0.53
0.59375,-3.3229217E-4,-0.001155261,2.1428592E-4,-0.2,0.82,-0.53,19633,10078.40,0,0,165,0.49,-2.87,0.00,-0.20,0.82,-0.53
0.59375,6.67708E-4,-0.001155261,0.001214286,-0.19,0.82,-0.53,19647,10078.40,0,0,0,0.56,-2.87,0.07,-0.19,0.82,-0.53
0.59375,-3.3229217E-4,-0.002155263,0.002214286,-0.2,0.82,-0.53,19654,10078.40,0,0,165,0.49,-2.94,0.14,-0.20,0.82,-0.53
1.59375,-3.3229217E-4,-0.001155261,0.002214286,-0.2,0.83,-0.53,19669,10079.40,0,0,0,0.49,-2.87,0.14,-0.20,0.83,-0.53
1.59375,-3.3229217E-4,-0.003155265,0.002214286,-0.2,0.82,-0.53,19686,10079.40,0,0,165,0.49,-3.01,0.14,-0.20,0.82,-0.53
1.59375,6.67708E-4,-0.003155265,2.1428592E-4,-0.2,0.82,-0.53,19693,10079.40,0,0,0,0.56,-3.01,0.00,-0.20,0.82,-0.53
1.59375,-0.0013322928,-0.001155261,-7.8571413E-4,-0.2,0.83,-0.54,19707,10079.40,0,0,165,0.42,-2.87,-0.07,-0.20,0.83,-0.54
2.59375,-3.3229217E-4,-0.002155263,0.001214286,-0.2,0.83,-0.53,19722,10080.40,0,0,0,0.49,-2.94,0.07,-0.20,0.83,-0.53
0.59375,6.67708E-4,-0.002155263,2.1428592E-4,-0.2,0.82,-0.53,19730,10078.40,0,0,165,0.56,-2.94,0.00,-0.20,0.82,-0.53
0.59375,0.0016677072,-0.002155263,0.001214286,-0.2,0.82,-0.53,19745,10078.40,0,0,0,0.63,-2.94,0.07,-0.20,0.82,-0.53
1.59375,-0.0013322928,-0.001155261,0.0032142857,-0.2,0.82,-0.53,19760,10079.40,0,0,165,0.42,-2.87,0.21,-0.20,0.82,-0.53
1.59375,0.0016677072,-0.001155261,0.001214286,-0.2,0.83,-0.53,19767,10079.40,0,0,0,0.63,-2.87,0.07,-0.20,0.83,-0.53
1.59375,6.67708E-4,-1.5526265E-4,-7.8571413E-4,-0.2,0.82,-0.53,19783,10079.40,0,0,165,0.56,-2.80,-0.07,-0.20,0.82,-0.53
1.59375,0.0026677074,-0.001155261,0.0032142857,-0.2,0.82,-0.53,19798,10079.40,0,0,0,0.70,-2.87,0.21,-0.20,0.82,-0.53
1.2929688,-3.3229217E-4,-0.002155263,0.002214286,-0.2,0.82,-0.53,19805,10079.10,0,0,165,0.49,-2.94,0.14,-0.20,0.82,-0.53
0.59375,-0.0013322928,-0.002155263,0.002214286,-0.2,0.83,-0.53,19820,10078.40,0,0,0,0.42,-2.94,0.14,-0.20,0.83,-0.53
1.59375,0.0016677072,-0.001155261,0.002214286,-0.2,0.82,-0.53,19835,10079.40,0,0,165,0.63,-2.87,0.14,-0.20,0.82,-0.53
1.59375,0.0026677074,-0.002155263,0.001214286,-0.2,0.82,-0.53,19843,10079.40,0,0,0,0.70,-2.94,0.07,-0.20,0.82,-0.53
1.59375,-0.0013322928,-1.5526265E-4,0.001214286,-0.2,0.82,-0.53,19857,10079.40,0,0,165,0.42,-2.80,0.07,-0.20,0.82,-0.53
0.59375,-0.0013322928,-0.001155261,0.001214286,-0.2,0.83,-0.53,19872,10078.40,0,0,0,0.42,-2.87,0.07,-0.20,0.83,-0.53
0.59375,0.0016677072,-1.5526265E-4,0.0032142857,-0.19,0.82,-0.53,19880,10078.40,0,0,165,0.63,-2.80,0.21,-0.19,0.82,-0.53
1.59375,0.0026677074,-0.003155265,2.1428592E-4,-0.2,0.82,-0.53,19895,10079.40,0,0,0,0.70,-3.01,0.00,-0.20,0.82,-0.53
1.59375,-3.3229217E-4,-1.5526265E-4,0.001214286,-0.2,0.82,-0.53,19910,10079.40,0,0,165,0.49,-2.80,0.07,-0.20,0.82,-0.53
1.59375,-0.004332293,-0.001155261,0.001214286,-0.2,0.83,-0.53,19917,10079.40,0,0,0,0.21,-2.87,0.07,-0.20,0.83,-0.53
1.59375,0.0016677072,-0.003155265,0.001214286,-0.2,0.82,-0.53,19932,10079.40,0,0,165,0.63,-3.01,0.07,-0.20,0.82,-0.53
1.59375,0.0036677076,-0.001155261,0.001214286,-0.2,0.82,-0.53,19948,10079.40,0,0,0,0.77,-2.87,0.07,-0.20,0.82,-0.53
1.59375,-0.0023322925,-0.001155261,-7.8571413E-4,-0.2,0.82,-0.54,19955,10079.40,0,0,165,0.35,-2.87,-0.07,-0.20,0.82,-0.54
2.2929688,-0.0023322925,-0.001155261,0.0032142857,-0.2,0.83,-0.53,19970,10080.10,0,0,0,0.35,-2.87,0.21,-0.20,0.83,-0.53
0.59375,6.67708E-4,-0.002155263,0.002214286,-0.2,0.82,-0.53,19985,10078.40,0,0,165,0.56,-2.94,0.14,-0.20,0.82,-0.53
0.59375,0.0036677076,-0.002155263,0.0032142857,-0.2,0.82,-0.53,19992,10078.40,0,0,0,0.77,-2.94,0.21,-0.20,0.82,-0.53
1.59375,-3.3229217E-4,-0.002155263,0.001214286,-0.2,0.82,-0.53,20007,10079.40,0,0,165,0.49,-2.94,0.07,-0.20,0.82,-0.53
0.59375,-0.0023322925,-0.002155263,0.001214286,-0.2,0.83,-0.53,20022,10078.40,0,0,0,0.35,-2.94,0.07,-0.20,0.83,-0.53
1.59375,0.0026677074,-0.002155263,0.002214286,-0.2,0.82,-0.53,20030,10079.40,0,0,165,0.70,-2.94,0.14,-0.20,0.82,-0.53
1.59375,-3.3229217E-4,-0.002155263,2.1428592E-4,-0.2,0.82,-0.53,20045,10079.40,0,0,0,0.49,-2.94,0.00,-0.20,0.82,-0.53
1.59375,-0.0023322925,-0.001155261,2.1428592E-4,-0.2,0.82,-0.53,20060,10079.40,0,0,165,0.35,-2.87,0.00,-0.20,0.82,-0.53
1.59375,-0.0033322922,-0.002155263,-0.25578573,-0.2,0.83,-0.53,20067,10079.40,0,0,0,0.28,-2.94,-17.92,-0.20,0.83,-0.53
1.59375,0.0026677074,-0.001155261,0.002214286,-0.2,0.82,-0.53,20083,10079.40,0,0,165,0.70,-2.87,0.14,-0.20,0.82,-0.53
1.59375,0.0036677076,-0.002155263,0.001214286,-0.2,0.82,-0.53,20097,10079.40,0,0,0,0.77,-2.94,0.07,-0.20,0.82,-0.53
1.59375,-0.0013322928,-0.001155261,0.002214286,-0.2,0.82,-0.53,20105,10079.40,0,0,165,0.42,-2.87,0.14,-0.20,0.82,-0.53
1.59375,6.67708E-4,-0.002155263,0.002214286,-0.2,0.83,-0.53,20120,10079.40,0,0,0,0.56,-2.94,0.14,-0.20,0.83,-0.53
1.59375,6.67708E-4,-0.002155263,0.001214286,-0.2,0.82,-0.53,20136,10079.40,0,0,165,0.56,-2.94,0.07,-0.20,0.82,-0.53
0.59375,0.0036677076,-0.003155265,0.002214286,-0.2,0.82,-0.53,20142,10078.40,0,0,0,0.77,-3.01,0.14,-0.20,0.82,-0.53
1.2929688,-0.0013322928,-0.001155261,2.1428592E-4,-0.2,0.83,-0.53,20158,10079.10,0,0,165,0.42,-2.87,0.00,-0.20,0.83,-0.53
0.59375,-0.0023322925,-0.001155261,0.002214286,-0.2,0.82,-0.53,20173,10078.40,0,0,0,0.35,-2.87,0.14,-0.20,0.82,-0.53
1.2929688,6.67708E-4,-0.002155263,0.002214286,-0.2,0.83,-0.53,20180,10079.10,0,0,165,0.56,-2.94,0.14,-0.20,0.83,-0.53
1.59375,6.67708E-4,-1.5526265E-4,0.002214286,-0.2,0.82,-0.53,20195,10079.40,0,0,0,0.56,-2.80,0.14,-0.20,0.82,-0.53
1.2929688,6.67708E-4,-0.002155263,0.002214286,-0.2,0.82,-0.53,20210,10079.10,0,0,165,0.56,-2.94,0.14,-0.20,0.82,-0.53
1.59375,-0.0023322925,8.4473565E-4,0.001214286,-0.2,0.83,-0.53,20217,10079.40,0,0,0,0.35,-2.73,0.07,-0.20,0.83,-0.53
1.59375,0.0016677072,-0.001155261,0.0032142857,-0.2,0.82,-0.53,20233,10079.40,0,0,165,0.63,-2.87,0.21,-0.20,0.82,-0.53
0.59375,0.0016677072,-1.5526265E-4,0.001214286,-0.2,0.82,-0.53,20247,10078.40,0,0,0,0.63,-2.80,0.07,-0.20,0.82,-0.53
0.59375,-0.0013322928,-1.5526265E-4,0.001214286,-0.2,0.82,-0.53,20255,10078.40,0,0,165,0.42,-2.80,0.07,-0.20,0.82,-0.53
1.59375,-3.3229217E-4,-0.002155263,0.0032142857,-0.2,0.83,-0.53,20270,10079.40,0,0,0,0.49,-2.94,0.21,-0.20,0.83,-0.53
1.59375,6.67708E-4,-0.002155263,0.001214286,-0.2,0.82,-0.53,20286,10079.40,0,0,165,0.56,-2.94,0.07,-0.20,0.82,-0.53
1.2929688,0.0016677072,-0.002155263,0.002214286,-0.2,0.82,-0.53,20292,10079.10,0,0,0,0.63,-2.94,0.14,-0.20,0.82,-0.53
1.2929688,-0.0013322928,-0.001155261,2.1428592E-4,-0.2,0.82,-0.53,20307,10079.10,0,0,165,0.42,-2.87,0.00,-0.20,0.82,-0.53
-0.30664062,-3.3229217E-4,-0.001155261,0.002214286,-0.2,0.83,-0.53,20322,10077.50,0,0,0,0.49,-2.87,0.14,-0.20,0.83,-0.53
1.59375,0.0026677074,-0.001155261,0.004214286,-0.2,0.83,-0.53,20329,10079.40,0,0,165,0.70,-2.87,0.28,-0.20,0.83,-0.53
1.59375,-3.3229217E-4,-1.5526265E-4,0.001214286,-0.2,0.82,-0.53,20344,10079.40,0,0,0,0.49,-2.80,0.07,-0.20,0.82,-0.53
1.59375,-0.0013322928,-0.001155261,0.002214286,-0.2,0.82,-0.53,20360,10079.40,0,0,165,0.42,-2.87,0.14,-0.20,0.82,-0.53
1.59375,-3.3229217E-4,-0.002155263,0.001214286,-0.2,0.82,-0.53,20368,10079.40,0,0,0,0.49,-2.94,0.07,-0.20,0.82,-0.53
0.59375,0.0016677072,-0.002155263,0.002214286,-0.2,0.82,-0.53,20383,10078.40,0,0,165,0.63,-2.94,0.14,-0.20,0.82,-0.53
1.59375,-3.3229217E-4,-0.002155263,2.1428592E-4,-0.2,0.82,-0.53,20398,10079.40,0,0,0,0.49,-2.94,0.00,-0.20,0.82,-0.53
1.59375,-0.0013322928,-0.002155263,0.001214286,-0.2,0.82,-0.53,20406,10079.40,0,0,165,0.42,-2.94,0.07,-0.20,0.82,-0.53
0.29296875,6.67708E-4,-0.001155261,0.001214286,-0.2,0.82,-0.53,20420,10078.10,0,0,0,0.56,-2.87,0.07,-0.20,0.82,-0.53
2.59375,-3.3229217E-4,-0.001155261,0.001214286,-0.2,0.82,-0.53,20435,10080.40,0,0,165,0.49,-2.87,0.07,-0.20,0.82,-0.53
1.59375,6.67708E-4,-0.002155263,0.002214286,-0.2,0.82,-0.53,20442,10079.40,0,0,0,0.56,-2.94,0.14,-0.20,0.82,-0.53
0.29296875,-3.3229217E-4,-0.001155261,0.002214286,-0.2,0.82,-0.53,20457,10078.10,0,0,165,0.49,-2.87,0.14,-0.20,0.82,-0.53
1.59375,0.0016677072,-1.5526265E-4,0.002214286,-0.2,0.82,-0.53,20473,10079.40,0,0,0,0.63,-2.80,0.14,-0.20,0.82,-0.53
1.59375,0.0016677072,-0.002155263,2.1428592E-4,-0.2,0.82,-0.53,20481,10079.40,0,0,165,0.63,-2.94,0.00,-0.20,0.82,-0.53
1.59375,-3.3229217E-4,-0.002155263,0.002214286,-0.2,0.82,-0.53,20495,10079.40,0,0,0,0.49,-2.94,0.14,-0.20,0.82,-0.53
1.59375,6.67708E-4,-0.001155261,2.1428592E-4,-0.2,0.82,-0.53,20511,10079.40,0,0,165,0.56,-2.87,0.00,-0.20,0.82,-0.53
1.59375,0.0016677072,-0.002155263,0.001214286,-0.2,0.82,-0.53,20517,10079.40,0,0,0,0.63,-2.94,0.07,-0.20,0.82,-0.53
1.59375,6.67708E-4,-0.003155265,2.1428592E-4,-0.2,0.82,-0.53,20532,10079.40,0,0,165,0.56,-3.01,0.00,-0.20,0.82,-0.53
1.59375,-3.3229217E-4,-0.001155261,0.001214286,-0.2,0.82,-0.53,20548,10079.40,0,0,0,0.49,-2.87,0.07,-0.20,0.82,-0.53
2.59375,-3.3229217E-4,-0.002155263,0.002214286,-0.2,0.82,-0.53,20555,10080.40,0,0,165,0.49,-2.94,0.14,-0.20,0.82,-0.53
0.29296875,6.67708E-4,-0.001155261,0.001214286,-0.2,0.82,-0.53,20570,10078.10,0,0,0,0.56,-2.87,0.07,-0.20,0.82,-0.53
0.59375,0.0016677072,-1.5526265E-4,0.002214286,-0.2,0.82,-0.53,20585,10078.40,0,0,165,0.63,-2.80,0.14,-0.20,0.82,-0.53
0.59375,-3.3229217E-4,-0.001155261,0.001214286,-0.2,0.82,-0.53,20592,10078.40,0,0,0,0.49,-2.87,0.07,-0.20,0.82,-0.53
1.59375,-0.0023322925,-0.001155261,2.1428592E-4,-0.2,0.82,-0.53,20608,10079.40,0,0,165,0.35,-2.87,0.00,-0.20,0.82,-0.53
0.59375,6.67708E-4,-1.5526265E-4,0.001214286,-0.2,0.82,-0.53,20622,10078.40,0,0,0,0.56,-2.80,0.07,-0.20,0.82,-0.53
1.59375,-0.0013322928,-0.002155263,-7.8571413E-4,-0.2,0.82,-0.53,20630,10079.40,0,0,165,0.42,-2.94,-0.07,-0.20,0.82,-0.53
1.59375,-3.3229217E-4,-0.002155263,0.001214286,-0.19,0.82,-0.53,20645,10079.40,0,0,0,0.49,-2.94,0.07,-0.19,0.82,-0.53
1.59375,-3.3229217E-4,-0.002155263,2.1428592E-4,-0.2,0.82,-0.53,20659,10079.40,0,0,165,0.49,-2.94,0.00,-0.20,0.82,-0.53
2.59375,0.0016677072,-0.001155261,0.002214286,-0.2,0.82,-0.53,20667,10080.40,0,0,0,0.63,-2.87,0.14,-0.20,0.82,-0.53
0.59375,0.0016677072,-0.001155261,0.0032142857,-0.2,0.82,-0.53,20683,10078.40,0,0,165,0.63,-2.87,0.21,-0.20,0.82,-0.53
1.2929688,6.67708E-4,-1.5526265E-4,0.002214286,-0.2,0.82,-0.53,20697,10079.10,0,0,0,0.56,-2.80,0.14,-0.20,0.82,-0.53
1.59375,6.67708E-4,-0.001155261,0.001214286,-0.2,0.82,-0.53,20705,10079.40,0,0,165,0.56,-2.87,0.07,-0.20,0.82,-0.53
1.59375,6.67708E-4,-0.002155263,0.0032142857,-0.2,0.82,-0.53,20720,10079.40,0,0,0,0.56,-2.94,0.21,-0.20,0.82,-0.53
1.59375,6.67708E-4,-0.002155263,0.002214286,-0.2,0.82,-0.53,20735,10079.40,0,0,165,0.56,-2.94,0.14,-0.20,0.82,-0.53
0.59375,-3.3229217E-4,-1.5526265E-4,-7.8571413E-4,-0.2,0.82,-0.53,20742,10078.40,0,0,0,0.49,-2.80,-0.07,-0.20,0.82,-0.53
1.59375,6.67708E-4,-0.002155263,0.001214286,-0.2,0.82,-0.53,20757,10079.40,0,0,165,0.56,-2.94,0.07,-0.20,0.82,-0.53
1.2929688,6.67708E-4,-0.001155261,0.001214286,-0.2,0.82,-0.53,20772,10079.10,0,0,0,0.56,-2.87,0.07,-0.20,0.82,-0.53
1.59375,-3.3229217E-4,-0.001155261,-7.8571413E-4,-0.2,0.82,-0.53,20780,10079.40,0,0,165,0.49,-2.87,-0.07,-0.20,0.82,-0.53
1.2929688,0.0016677072,-0.001155261,0.002214286,-0.2,0.82,-0.53,20795,10079.10,0,0,0,0.63,-2.87,0.14,-0.20,0.82,-0.53
1.2929688,-3.3229217E-4,-0.002155263,0.0032142857,-0.2,0.82,-0.53,20810,10079.10,0,0,165,0.49,-2.94,0.21,-0.20,0.82,-0.53
1.59375,6.67708E-4,-0.001155261,0.001214286,-0.2,0.82,-0.53,20819,10079.40,0,0,0,0.56,-2.87,0.07,-0.20,0.82,-0.53
0.59375,-3.3229217E-4,-0.002155263,-7.8571413E-4,-0.2,0.82,-0.53,20832,10078.40,0,0,165,0.49,-2.94,-0.07,-0.20,0.82,-0.53
2.59375,6.67708E-4,-1.5526265E-4,0.001214286,-0.2,0.82,-0.53,20847,10080.40,0,0,0,0.56,-2.80,0.07,-0.20,0.82,-0.53
1.59375,-3.3229217E-4,-0.001155261,0.002214286,-0.2,0.82,-0.53,20855,10079.40,0,0,165,0.49,-2.87,0.14,-0.20,0.82,-0.53
0.59375,-3.3229217E-4,-0.002155263,0.0032142857,-0.2,0.82,-0.53,20870,10078.40,0,0,0,0.49,-2.94,0.21,-0.20,0.82,-0.53
2.59375,0.0016677072,-1.5526265E-4,0.002214286,-0.2,0.82,-0.53,20886,10080.40,0,0,165,0.63,-2.80,0.14,-0.20,0.82,-0.53
1.2929688,-3.3229217E-4,-0.001155261,0.004214286,-0.2,0.82,-0.53,20892,10079.10,0,0,0,0.49,-2.87,0.28,-0.20,0.82,-0.53
1.59375,-3.3229217E-4,-0.002155263,0.001214286,-0.2,0.83,-0.53,20907,10079.40,0,0,165,0.49,-2.94,0.07,-0.20,0.83,-0.53
2.59375,6.67708E-4,-0.002155263,0.001214286,-0.2,0.82,-0.53,20922,10080.40,0,0,0,0.56,-2.94,0.07,-0.20,0.82,-0.53
1.59375,6.67708E-4,-1.5526265E-4,0.001214286,-0.2,0.82,-0.53,20930,10079.40,0,0,165,0.56,-2.80,0.07,-0.20,0.82,-0.53
1.59375,-0.0013322928,-1.5526265E-4,0.0032142857,-0.2,0.82,-0.53,20944,10079.40,0,0,0,0.42,-2.80,0.21,-0.20,0.82,-0.53
1.59375,-0.0013322928,-0.001155261,0.002214286,-0.2,0.82,-0.53,20960,10079.40,0,0,165,0.42,-2.87,0.14,-0.20,0.82,-0.53
1.59375,6.67708E-4,-0.001155261,0.002214286,-0.2,0.82,-0.53,20968,10079.40,0,0,0,0.56,-2.87,0.14,-0.20,0.82,-0.53
1.59375,-3.3229217E-4,-0.003155265,2.1428592E-4,-0.2,0.82,-0.53,20982,10079.40,0,0,165,0.49,-3.01,0.00,-0.20,0.82,-0.53
1.2929688,-3.3229217E-4,-0.002155263,0.002214286,-0.2,0.82,-0.53,20998,10079.10,0,0,0,0.49,-2.94,0.14,-0.20,0.82,-0.53
1.59375,-0.0013322928,-0.002155263,2.1428592E-4,-0.2,0.82,-0.53,21005,10079.40,0,0,165,0.42,-2.94,0.00,-0.20,0.82,-0.53
1.2929688,6.67708E-4,-0.001155261,0.001214286,-0.2,0.82,-0.53,21020,10079.10,0,0,0,0.56,-2.87,0.07,-0.20,0.82,-0.53
1.2929688,6.67708E-4,-0.001155261,2.1428592E-4,-0.2,0.82,-0.53,21036,10079.10,0,0,165,0.56,-2.87,0.00,-0.20,0.82,-0.53
1.59375,-0.0013322928,-0.002155263,0.001214286,-0.2,0.82,-0.53,21042,10079.40,0,0,0,0.42,-2.94,0.07,-0.20,0.82,-0.53
0.29296875,-3.3229217E-4,-0.001155261,0.002214286,-0.2,0.82,-0.53,21057,10078.10,0,0,165,0.49,-2.87,0.14,-0.20,0.82,-0.53
0.59375,-3.3229217E-4,-0.001155261,2.1428592E-4,-0.2,0.82,-0.53,21072,10078.40,0,0,0,0.49,-2.87,0.00,-0.20,0.82,-0.53
1.2929688,-3.3229217E-4,-0.001155261,0.002214286,-0.2,0.82,-0.53,21080,10079.10,0,0,165,0.49,-2.87,0.14,-0.20,0.82,-0.53
1.2929688,6.67708E-4,-0.001155261,0.002214286,-0.2,0.83,-0.53,21095,10079.10,0,0,0,0.56,-2.87,0.14,-0.20,0.83,-0.53
2.59375,6.67708E-4,-0.001155261,-7.8571413E-4,-0.2,0.82,-0.53,21109,10080.40,0,0,165,0.56,-2.87,-0.07,-0.20,0.82,-0.53
1.59375,0.0016677072,-0.003155265,2.1428592E-4,-0.2,0.82,-0.53,21118,10079.40,0,0,0,0.63,-3.01,0.00,-0.20,0.82,-0.53
1.59375,-0.0013322928,-0.002155263,2.1428592E-4,-0.2,0.83,-0.53,21134,10079.40,0,0,165,0.42,-2.94,0.00,-0.20,0.83,-0.53
1.2929688,6.67708E-4,-0.002155263,0.001214286,-0.2,0.83,-0.53,21155,10079.10,0,0,0,0.56,-2.94,0.07,-0.20,0.83,-0.53
0.59375,6.67708E-4,-0.001155261,0.001214286,-0.2,0.83,-0.53,21156,10078.40,0,0,165,0.56,-2.87,0.07,-0.20,0.83,-0.53
1.59375,6.67708E-4,-0.001155261,0.001214286,-0.2,0.82,-0.53,21170,10079.40,0,0,0,0.56,-2.87,0.07,-0.20,0.82,-0.53
1.59375,6.67708E-4,-0.003155265,0.002214286,-0.2,0.82,-0.53,21186,10079.40,0,0,165,0.56,-3.01,0.14,-0.20,0.82,-0.53
2.2929688,-0.0013322928,-0.001155261,0.002214286,-0.2,0.83,-0.53,21192,10080.10,0,0,0,0.42,-2.87,0.14,-0.20,0.83,-0.53
2.2929688,-3.3229217E-4,-0.001155261,2.1428592E-4,-0.2,0.82,-0.53,21207,10080.10,0,0,165,0.49,-2.87,0.00,-0.20,0.82,-0.53
2.59375,6.67708E-4,-0.003155265,0.001214286,-0.2,0.82,-0.53,21222,10080.40,0,0,0,0.56,-3.01,0.07,-0.20,0.82,-0.53
1.2929688,-3.3229217E-4,-0.001155261,0.001214286,-0.2,0.82,-0.53,21229,10079.10,0,0,165,0.49,-2.87,0.07,-0.20,0.82,-0.53
1.59375,-0.0013322928,-0.002155263,0.001214286,-0.2,0.82,-0.53,21244,10079.40,0,0,0,0.42,-2.94,0.07,-0.20,0.82,-0.53
1.59375,-3.3229217E-4,-0.002155263,0.001214286,-0.2,0.82,-0.53,21260,10079.40,0,0,165,0.49,-2.94,0.07,-0.20,0.82,-0.53
1.59375,6.67708E-4,-0.001155261,0.002214286,-0.2,0.82,-0.53,21268,10079.40,0,0,0,0.56,-2.87,0.14,-0.20,0.82,-0.53
2.59375,-3.3229217E-4,-1.5526265E-4,0.002214286,-0.2,0.82,-0.53,21283,10080.40,0,0,165,0.49,-2.80,0.14,-0.20,0.82,-0.53
1.2929688,-3.3229217E-4,-0.002155263,0.002214286,-0.2,0.83,-0.53,21298,10079.10,0,0,0,0.49,-2.94,0.14,-0.20,0.83,-0.53
1.2929688,0.0016677072,-0.001155261,0.002214286,-0.2,0.82,-0.53,21305,10079.10,0,0,165,0.63,-2.87,0.14,-0.20,0.82,-0.53
1.59375,6.67708E-4,-0.002155263,0.002214286,-0.2,0.82,-0.53,21320,10079.40,0,0,0,0.56,-2.94,0.14,-0.20,0.82,-0.53
1.2929688,-0.0013322928,-0.002155263,0.001214286,-0.2,0.82,-0.53,21335,10079.10,0,0,165,0.42,-2.94,0.07,-0.20,0.82,-0.53
1.59375,-3.3229217E-4,-0.002155263,0.001214286,-0.2,0.82,-0.53,21343,10079.40,0,0,0,0.49,-2.94,0.07,-0.20,0.82,-0.53
1.2929688,-3.3229217E-4,-0.001155261,0.0032142857,-0.2,0.82,-0.53,21357,10079.10,0,0,165,0.49,-2.87,0.21,-0.20,0.82,-0.53
0.59375,-3.3229217E-4,-0.001155261,0.002214286,-0.2,0.82,-0.53,21372,10078.40,0,0,0,0.49,-2.87,0.14,-0.20,0.82,-0.53
2.59375,-3.3229217E-4,-0.001155261,0.001214286,-0.2,0.82,-0.53,21387,10080.40,0,0,165,0.49,-2.87,0.07,-0.20,0.82,-0.53
1.2929688,-3.3229217E-4,-1.5526265E-4,2.1428592E-4,-0.2,0.82,-0.53,21395,10079.10,0,0,0,0.49,-2.80,0.00,-0.20,0.82,-0.53
2.2929688,6.67708E-4,-0.001155261,0.002214286,-0.2,0.82,-0.53,21409,10080.10,0,0,165,0.56,-2.87,0.14,-0.20,0.82,-0.53
1.59375,6.67708E-4,-0.003155265,2.1428592E-4,-0.2,0.82,-0.53,21418,10079.40,0,0,0,0.56,-3.01,0.00,-0.20,0.82,-0.53
1.2929688,6.67708E-4,-0.001155261,0.0032142857,-0.2,0.82,-0.53,21433,10079.10,0,0,165,0.56,-2.87,0.21,-0.20,0.82,-0.53
1.59375,6.67708E-4,-0.001155261,0.001214286,-0.2,0.83,-0.54,21448,10079.40,0,0,0,0.56,-2.87,0.07,-0.20,0.83,-0.54
2.2929688,-0.0013322928,-1.5526265E-4,2.1428592E-4,-0.2,0.83,-0.53,21455,10080.10,0,0,165,0.42,-2.80,0.00,-0.20,0.83,-0.53
1.2929688,6.67708E-4,-0.002155263,2.1428592E-4,-0.2,0.82,-0.53,21470,10079.10,0,0,0,0.56,-2.94,0.00,-0.20,0.82,-0.53
2.2929688,-0.0013322928,-0.001155261,2.1428592E-4,-0.2,0.82,-0.53,21485,10080.10,0,0,165,0.42,-2.87,0.00,-0.20,0.82,-0.53
1.8935547,-0.0013322928,-0.001155261,0.001214286,-0.2,0.82,-0.53,21492,10079.70,0,0,0,0.42,-2.87,0.07,-0.20,0.82,-0.53
0.59375,0.0016677072,-0.001155261,0.002214286,-0.2,0.82,-0.53,21507,10078.40,0,0,165,0.63,-2.87,0.14,-0.20,0.82,-0.53
1.59375,0.0016677072,-0.001155261,2.1428592E-4,-0.2,0.82,-0.53,21522,10079.40,0,0,0,0.63,-2.87,0.00,-0.20,0.82,-0.53
1.59375,0.0026677074,-0.001155261,0.002214286,-0.2,0.82,-0.53,21530,10079.40,0,0,165,0.70,-2.87,0.14,-0.20,0.82,-0.53
2.59375,-0.0013322928,-1.5526265E-4,0.001214286,-0.2,0.82,-0.53,21545,10080.40,0,0,0,0.42,-2.80,0.07,-0.20,0.82,-0.53
1.59375,6.67708E-4,-0.001155261,0.002214286,-0.2,0.83,-0.53,21560,10079.40,0,0,165,0.56,-2.87,0.14,-0.20,0.83,-0.53
1.59375,0.0016677072,-0.003155265,0.002214286,-0.2,0.82,-0.53,21568,10079.40,0,0,0,0.63,-3.01,0.14,-0.20,0.82,-0.53
1.2929688,-3.3229217E-4,-0.002155263,0.002214286,-0.2,0.82,-0.53,21582,10079.10,0,0,165,0.49,-2.94,0.14,-0.20,0.82,-0.53
1.2929688,-0.0013322928,-0.001155261,-7.8571413E-4,-0.2,0.82,-0.53,21597,10079.10,0,0,0,0.42,-2.87,-0.07,-0.20,0.82,-0.53
0.29296875,-0.0013322928,-1.5526265E-4,0.0032142857,-0.2,0.83,-0.53,21605,10078.10,0,0,165,0.42,-2.80,0.21,-0.20,0.83,-0.53
1.59375,0.0026677074,-0.001155261,0.002214286,-0.2,0.82,-0.53,21620,10079.40,0,0,0,0.70,-2.87,0.14,-0.20,0.82,-0.53
1.2929688,0.0036677076,-0.001155261,0.002214286,-0.2,0.82,-0.53,21635,10079.10,0,0,165,0.77,-2.87,0.14,-0.20,0.82,-0.53
1.59375,-0.0013322928,-0.001155261,0.001214286,-0.2,0.82,-0.53,21642,10079.40,0,0,0,0.42,-2.87,0.07,-0.20,0.82,-0.53
1.59375,-0.0013322928,-0.001155261,2.1428592E-4,-0.2,0.82,-0.53,21658,10079.40,0,0,165,0.42,-2.87,0.00,-0.20,0.82,-0.53
0.59375,0.0016677072,-0.001155261,0.0032142857,-0.2,0.82,-0.53,21679,10078.40,0,0,0,0.63,-2.87,0.21,-0.20,0.82,-0.53
0.59375,0.0026677074,-0.002155263,0.001214286,-0.2,0.82,-0.53,21681,10078.40,0,0,165,0.70,-2.94,0.07,-0.20,0.82,-0.53
1.59375,-3.3229217E-4,-0.001155261,2.1428592E-4,-0.2,0.82,-0.53,21702,10079.40,0,0,0,0.49,-2.87,0.00,-0.20,0.82,-0.53
1.2929688,-0.0023322925,-0.002155263,2.1428592E-4,-0.2,0.82,-0.53,21710,10079.10,0,0,165,0.35,-2.94,0.00,-0.20,0.82,-0.53
1.59375,6.67708E-4,-0.001155261,0.002214286,-0.2,0.82,-0.53,21717,10079.40,0,0,0,0.56,-2.87,0.14,-0.20,0.82,-0.53
2.2929688,0.0016677072,-0.002155263,0.002214286,-0.2,0.82,-0.53,21732,10080.10,0,0,165,0.63,-2.94,0.14,-0.20,0.82,-0.53
1.2929688,-0.0013322928,-1.5526265E-4,0.001214286,-0.2,0.82,-0.53,21740,10079.10,0,0,0,0.42,-2.80,0.07,-0.20,0.82,-0.53
1.59375,-0.0013322928,-0.001155261,0.001214286,-0.2,0.83,-0.53,21755,10079.40,0,0,165,0.42,-2.87,0.07,-0.20,0.83,-0.53
-0.70703125,0.0016677072,-0.001155261,2.1428592E-4,-0.2,0.82,-0.53,21769,10077.10,0,0,0,0.63,-2.87,0.00,-0.20,0.82,-0.53
1.2929688,0.0016677072,-1.5526265E-4,0.002214286,-0.2,0.82,-0.53,21777,10079.10,0,0,165,0.63,-2.80,0.14,-0.20,0.82,-0.53
1.2929688,6.67708E-4,-0.001155261,0.001214286,-0.2,0.82,-0.53,21792,10079.10,0,0,0,0.56,-2.87,0.07,-0.20,0.82,-0.53
2.59375,-0.0013322928,-0.002155263,0.002214286,-0.2,0.83,-0.53,21807,10080.40,0,0,165,0.42,-2.94,0.14,-0.20,0.83,-0.53
1.59375,0.0016677072,-0.002155263,0.002214286,-0.2,0.83,-0.53,21815,10079.40,0,0,0,0.63,-2.94,0.14,-0.20,0.83,-0.53
2.2929688,6.67708E-4,-0.002155263,-0.0027857139,-0.2,0.82,-0.53,21829,10080.10,0,0,165,0.56,-2.94,-0.21,-0.20,0.82,-0.53
2.2929688,-0.0013322928,-1.5526265E-4,0.001214286,-0.2,0.82,-0.53,21845,10080.10,0,0,0,0.42,-2.80,0.07,-0.20,0.82,-0.53
-0.0068359375,-3.3229217E-4,-0.001155261,2.1428592E-4,-0.2,0.83,-0.53,21852,10077.80,0,0,165,0.49,-2.87,0.00,-0.20,0.83,-0.53
1.59375,0.0016677072,-1.5526265E-4,0.0032142857,-0.2,0.82,-0.53,21868,10079.40,0,0,0,0.63,-2.80,0.21,-0.20,0.82,-0.53
1.59375,0.0016677072,-0.001155261,2.1428592E-4,-0.2,0.82,-0.53,21882,10079.40,0,0,165,0.63,-2.87,0.00,-0.20,0.82,-0.53
1.2929688,-0.0013322928,-0.001155261,2.1428592E-4,-0.2,0.82,-0.53,21890,10079.10,0,0,0,0.42,-2.87,0.00,-0.20,0.82,-0.53
1.59375,6.67708E-4,-1.5526265E-4,0.002214286,-0.2,0.82,-0.53,21905,10079.40,0,0,165,0.56,-2.80,0.14,-0.20,0.82,-0.53
1.2929688,6.67708E-4,-0.001155261,0.001214286,-0.2,0.82,-0.53,21920,10079.10,0,0,0,0.56,-2.87,0.07,-0.20,0.82,-0.53
2.59375,0.0026677074,8.4473565E-4,0.001214286,-0.2,0.82,-0.53,21927,10080.40,0,0,165,0.70,-2.73,0.07,-0.20,0.82,-0.53
3.1933594,-3.3229217E-4,-0.002155263,0.002214286,-0.2,0.82,-0.53,21943,10081.00,0,0,0,0.49,-2.94,0.14,-0.20,0.82,-0.53
1.2929688,-0.0023322925,-0.001155261,2.1428592E-4,-0.2,0.82,-0.53,21966,10079.10,0,0,165,0.35,-2.87,0.00,-0.20,0.82,-0.53
1.59375,6.67708E-4,-1.5526265E-4,2.1428592E-4,-0.2,0.82,-0.53,21967,10079.40,0,0,0,0.56,-2.80,0.00,-0.20,0.82,-0.53
1.2929688,0.0016677072,-1.5526265E-4,0.001214286,-0.2,0.82,-0.53,21980,10079.10,0,0,165,0.63,-2.80,0.07,-0.20,0.82,-0.53
1.59375,-3.3229217E-4,-0.001155261,-7.8571413E-4,-0.2,0.83,-0.53,21995,10079.40,0,0,0,0.49,-2.87,-0.07,-0.20,0.83,-0.53
1.59375,6.67708E-4,-0.001155261,-7.8571413E-4,-0.2,0.83,-0.53,22003,10079.40,0,0,165,0.56,-2.87,-0.07,-0.20,0.83,-0.53
2.59375,0.0026677074,-1.5526265E-4,0.001214286,-0.2,0.82,-0.53,22019,10080.40,0,0,0,0.70,-2.80,0.07,-0.20,0.82,-0.53
1.2929688,6.67708E-4,-0.001155261,0.002214286,-0.2,0.82,-0.53,22033,10079.10,0,0,165,0.56,-2.87,0.14,-0.20,0.82,-0.53
0.59375,-3.3229217E-4,-1.5526265E-4,0.001214286,-0.2,0.82,-0.53,22040,10078.40,0,0,0,0.49,-2.80,0.07,-0.20,0.82,-0.53
2.2929688,6.67708E-4,-0.001155261,-7.8571413E-4,-0.2,0.82,-0.53,22055,10080.10,0,0,165,0.56,-2.87,-0.07,-0.20,0.82,-0.53
1.59375,6.67708E-4,-1.5526265E-4,2.1428592E-4,-0.2,0.82,-0.53,22070,10079.40,0,0,0,0.56,-2.80,0.00,-0.20,0.82,-0.53
1.2929688,6.67708E-4,-0.001155261,0.001214286,-0.2,0.82,-0.53,22077,10079.10,0,0,165,0.56,-2.87,0.07,-0.20,0.82,-0.53
0.59375,-3.3229217E-4,-1.5526265E-4,2.1428592E-4,-0.2,0.82,-0.53,22092,10078.40,0,0,0,0.49,-2.80,0.00,-0.20,0.82,-0.53
1.2929688,0.0016677072,-0.001155261,0.001214286,-0.2,0.82,-0.53,22107,10079.10,0,0,165,0.63,-2.87,0.07,-0.20,0.82,-0.53
1.2929688,6.67708E-4,-0.002155263,2.1428592E-4,-0.2,0.82,-0.53,22114,10079.10,0,0,0,0.56,-2.94,0.00,-0.20,0.82,-0.53
2.59375,6.67708E-4,-0.001155261,0.0032142857,-0.2,0.82,-0.53,22129,10080.40,0,0,165,0.56,-2.87,0.21,-0.20,0.82,-0.53
1.2929688,6.67708E-4,-0.001155261,0.001214286,-0.2,0.82,-0.53,22144,10079.10,0,0,0,0.56,-2.87,0.07,-0.20,0.82,-0.53
1.59375,6.67708E-4,-0.001155261,0.0032142857,-0.2,0.82,-0.53,22153,10079.40,0,0,165,0.56,-2.87,0.21,-0.20,0.82,-0.53
2.2929688,6.67708E-4,-0.002155263,0.001214286,-0.2,0.82,-0.53,22175,10080.10,0,0,0,0.56,-2.94,0.07,-0.20,0.82,-0.53
2.59375,-3.3229217E-4,-0.002155263,-7.8571413E-4,-0.2,0.82,-0.53,22183,10080.40,0,0,165,0.49,-2.94,-0.07,-0.20,0.82,-0.53
1.2929688,6.67708E-4,-1.5526265E-4,0.002214286,-0.2,0.82,-0.53,22190,10079.10,0,0,0,0.56,-2.80,0.14,-0.20,0.82,-0.53
1.59375,-0.0013322928,-0.002155263,2.1428592E-4,-0.2,0.82,-0.53,22205,10079.40,0,0,165,0.42,-2.94,0.00,-0.20,0.82,-0.53
0.99316406,-3.3229217E-4,-1.5526265E-4,2.1428592E-4,-0.2,0.82,-0.53,22219,10078.80,0,0,0,0.49,-2.80,0.00,-0.20,0.82,-0.53
2.2929688,0.0016677072,-0.001155261,0.0032142857,-0.2,0.82,-0.53,22227,10080.10,0,0,165,0.63,-2.87,0.21,-0.20,0.82,-0.53
1.2929688,6.67708E-4,-0.001155261,0.002214286,-0.2,0.82,-0.53,22242,10079.10,0,0,0,0.56,-2.87,0.14,-0.20,0.82,-0.53
1.2929688,6.67708E-4,-1.5526265E-4,2.1428592E-4,-0.2,0.82,-0.53,22257,10079.10,0,0,165,0.56,-2.80,0.00,-0.20,0.82,-0.53
1.59375,-3.3229217E-4,-0.001155261,0.002214286,-0.2,0.83,-0.53,22265,10079.40,0,0,0,0.49,-2.87,0.14,-0.20,0.83,-0.53
2.59375,-0.0013322928,-0.001155261,-7.8571413E-4,-0.2,0.82,-0.53,22280,10080.40,0,0,165,0.42,-2.87,-0.07,-0.20,0.82,-0.53
1.2929688,-3.3229217E-4,-0.002155263,-7.8571413E-4,-0.2,0.82,-0.53,22295,10079.10,0,0,0,0.49,-2.94,-0.07,-0.20,0.82,-0.53
1.2929688,0.0016677072,-1.5526265E-4,0.001214286,-0.2,0.82,-0.53,22303,10079.10,0,0,165,0.63,-2.80,0.07,-0.20,0.82,-0.53
1.2929688,-3.3229217E-4,-0.001155261,0.001214286,-0.2,0.82,-0.53,22318,10079.10,0,0,0,0.49,-2.87,0.07,-0.20,0.82,-0.53
1.2929688,-3.3229217E-4,-0.001155261,2.1428592E-4,-0.2,0.82,-0.53,22332,10079.10,0,0,165,0.49,-2.87,0.00,-0.20,0.82,-0.53
1.59375,6.67708E-4,-0.001155261,0.001214286,-0.2,0.82,-0.53,22339,10079.40,0,0,0,0.56,-2.87,0.07,-0.20,0.82,-0.53
1.2929688,0.0016677072,-0.001155261,0.002214286,-0.2,0.82,-0.53,22355,10079.10,0,0,165,0.63,-2.87,0.14,-0.20,0.82,-0.53
2.2929688,-3.3229217E-4,-1.5526265E-4,0.0032142857,-0.2,0.82,-0.53,22370,10080.10,0,0,0,0.49,-2.80,0.21,-0.20,0.82,-0.53
2.2929688,6.67708E-4,-0.001155261,0.001214286,-0.2,0.82,-0.53,22377,10080.10,0,0,165,0.56,-2.87,0.07,-0.20,0.82,-0.53
1.2929688,0.0016677072,-0.001155261,0.001214286,-0.2,0.82,-0.53,22392,10079.10,0,0,0,0.63,-2.87,0.07,-0.20,0.82,-0.53
1.2929688,6.67708E-4,-0.001155261,-7.8571413E-4,-0.2,0.82,-0.53,22408,10079.10,0,0,165,0.56,-2.87,-0.07,-0.20,0.82,-0.53
2.2929688,-3.3229217E-4,-1.5526265E-4,2.1428592E-4,-0.2,0.82,-0.53,22416,10080.10,0,0,0,0.49,-2.80,0.00,-0.20,0.82,-0.53
2.2929688,6.67708E-4,-0.001155261,-7.8571413E-4,-0.19,0.82,-0.53,22430,10080.10,0,0,165,0.56,-2.87,-0.07,-0.19,0.82,-0.53
1.2929688,6.67708E-4,-1.5526265E-4,0.001214286,-0.2,0.82,-0.53,22445,10079.10,0,0,0,0.56,-2.80,0.07,-0.20,0.82,-0.53
1.2929688,0.0026677074,-0.001155261,2.1428592E-4,-0.2,0.82,-0.53,22452,10079.10,0,0,165,0.70,-2.87,0.00,-0.20,0.82,-0.53
2.2929688,-3.3229217E-4,-0.001155261,0.001214286,-0.2,0.82,-0.53,22468,10080.10,0,0,0,0.49,-2.87,0.07,-0.20,0.82,-0.53
2.59375,-3.3229217E-4,-1.5526265E-4,0.002214286,-0.2,0.82,-0.53,22482,10080.40,0,0,165,0.49,-2.80,0.14,-0.20,0.82,-0.53
1.2929688,-3.3229217E-4,-0.001155261,0.002214286,-0.2,0.82,-0.53,22489,10079.10,0,0,0,0.49,-2.87,0.14,-0.20,0.82,-0.53
2.59375,-0.0013322928,-0.002155263,2.1428592E-4,-0.2,0.82,-0.53,22505,10080.40,0,0,165,0.42,-2.94,0.00,-0.20,0.82,-0.53
1.59375,-3.3229217E-4,-0.001155261,0.001214286,-0.2,0.82,-0.53,22520,10079.40,0,0,0,0.49,-2.87,0.07,-0.20,0.82,-0.53
1.2929688,-0.0013322928,-0.001155261,2.1428592E-4,-0.2,0.83,-0.53,22528,10079.10,0,0,165,0.42,-2.87,0.00,-0.20,0.83,-0.53
1.2929688,-3.3229217E-4,8.4473565E-4,-0.0017857142,-0.2,0.82,-0.53,22543,10079.10,0,0,0,0.49,-2.73,-0.14,-0.20,0.82,-0.53
1.2929688,-3.3229217E-4,-0.001155261,-0.25578573,-0.2,0.83,-0.53,22557,10079.10,0,0,165,0.49,-2.87,-17.92,-0.20,0.83,-0.53
2.2929688,-0.0013322928,-0.001155261,-0.0017857142,-0.2,0.82,-0.53,22565,10080.10,0,0,0,0.42,-2.87,-0.14,-0.20,0.82,-0.53
2.2929688,0.0016677072,-1.5526265E-4,0.002214286,-0.2,0.82,-0.53,22580,10080.10,0,0,165,0.63,-2.80,0.14,-0.20,0.82,-0.53
1.2929688,6.67708E-4,-1.5526265E-4,2.1428592E-4,-0.2,0.82,-0.53,22594,10079.10,0,0,0,0.56,-2.80,0.00,-0.20,0.82,-0.53
1.2929688,-3.3229217E-4,-0.002155263,0.002214286,-0.2,0.82,-0.53,22603,10079.10,0,0,165,0.49,-2.94,0.14,-0.20,0.82,-0.53
2.2929688,6.67708E-4,-0.003155265,-7.8571413E-4,-0.2,0.82,-0.53,22618,10080.10,0,0,0,0.56,-3.01,-0.07,-0.20,0.82,-0.53
2.2929688,-3.3229217E-4,-0.002155263,0.001214286,-0.2,0.82,-0.53,22633,10080.10,0,0,165,0.49,-2.94,0.07,-0.20,0.82,-0.53
1.2929688,6.67708E-4,-0.002155263,0.001214286,-0.2,0.82,-0.53,22640,10079.10,0,0,0,0.56,-2.94,0.07,-0.20,0.82,-0.53
1.2929688,-0.0023322925,-0.001155261,0.001214286,-0.2,0.82,-0.53,22655,10079.10,0,0,165,0.35,-2.87,0.07,-0.20,0.82,-0.53
2.59375,-3.3229217E-4,8.4473565E-4,0.001214286,-0.2,0.83,-0.53,22669,10080.40,0,0,0,0.49,-2.73,0.07,-0.20,0.83,-0.53
2.2929688,-0.0013322928,-0.001155261,-7.8571413E-4,-0.2,0.83,-0.53,22677,10080.10,0,0,165,0.42,-2.87,-0.07,-0.20,0.83,-0.53
2.2929688,6.67708E-4,-0.001155261,0.001214286,-0.2,0.82,-0.53,22692,10080.10,0,0,0,0.56,-2.87,0.07,-0.20,0.82,-0.53
1.2929688,0.0036677076,8.4473565E-4,0.001214286,-0.2,0.82,-0.53,22707,10079.10,0,0,165,0.77,-2.73,0.07,-0.20,0.82,-0.53
2.2929688,-3.3229217E-4,-0.001155261,0.002214286,-0.2,0.83,-0.53,22722,10080.10,0,0,0,0.49,-2.87,0.14,-0.20,0.83,-0.53
1.2929688,-3.3229217E-4,-1.5526265E-4,0.002214286,-0.2,0.83,-0.53,22730,10079.10,0,0,165,0.49,-2.80,0.14,-0.20,0.83,-0.53
1.2929688,6.67708E-4,-1.5526265E-4,-7.8571413E-4,-0.2,0.82,-0.53,22745,10079.10,0,0,0,0.56,-2.80,-0.07,-0.20,0.82,-0.53
0.29296875,6.67708E-4,-0.001155261,2.1428592E-4,-0.2,0.82,-0.53,22753,10078.10,0,0,165,0.56,-2.87,0.00,-0.20,0.82,-0.53
2.2929688,-0.0013322928,-0.002155263,0.001214286,-0.2,0.82,-0.53,22768,10080.10,0,0,0,0.42,-2.94,0.07,-0.20,0.82,-0.53
2.2929688,-0.0013322928,-0.002155263,2.1428592E-4,-0.2,0.82,-0.53,22783,10080.10,0,0,165,0.42,-2.94,0.00,-0.20,0.82,-0.53
1.2929688,-3.3229217E-4,-0.001155261,0.001214286,-0.2,0.82,-0.53,22797,10079.10,0,0,0,0.49,-2.87,0.07,-0.20,0.82,-0.53
2.59375,0.0016677072,-1.5526265E-4,0.0032142857,-0.2,0.82,-0.53,22812,10080.40,0,0,165,0.63,-2.80,0.21,-0.20,0.82,-0.53
2.2929688,-3.3229217E-4,-0.001155261,2.1428592E-4,-0.2,0.82,-0.53,22820,10080.10,0,0,0,0.49,-2.87,0.00,-0.20,0.82,-0.53
1.2929688,-3.3229217E-4,-0.001155261,0.002214286,-0.2,0.82,-0.53,22827,10079.10,0,0,165,0.49,-2.87,0.14,-0.20,0.82,-0.53
2.2929688,0.0026677074,-0.001155261,0.0032142857,-0.2,0.82,-0.53,22842,10080.10,0,0,0,0.70,-2.87,0.21,-0.20,0.82,-0.53
1.8935547,-3.3229217E-4,-0.001155261,0.001214286,-0.2,0.82,-0.53,22857,10079.70,0,0,165,0.49,-2.87,0.07,-0.20,0.82,-0.53
2.2929688,-0.0013322928,-1.5526265E-4,0.001214286,-0.2,0.82,-0.53,22865,10080.10,0,0,0,0.42,-2.80,0.07,-0.20,0.82,-0.53
