Pressure_Rel,GyroX_Rel,GyroY_Rel,GyroZ_Rel,AccX_Rel,AccY_Rel,AccZ_Rel,Timestamp,Pressure_abs,HeartRate,Oxygen,Status,GyroX,GyroY,GyroZ,AccX,AccY,AccZ
0.0,0.0,0.0,0.0,0.0,0.0,0.0,3604,10069.20,0,0,165,0.77,-2.87,0.14,-0.16,1.00,0.09
0.0,0.0,0.0,0.0,0.0,0.0,0.0,3607,10067.50,0,0,0,0.70,-2.87,0.07,-0.16,0.99,0.09
0.0,0.0,0.0,0.0,0.0,0.0,0.0,3622,10068.50,0,0,165,0.63,-2.94,0.00,-0.16,1.00,0.09
0.0,0.0,0.0,0.0,0.0,0.0,0.0,3629,10068.50,0,0,0,0.70,-2.80,0.14,-0.16,1.00,0.09
0.0,0.0,0.0,0.0,0.0,0.0,0.0,3645,10068.20,0,0,165,0.63,-2.94,-0.07,-0.16,1.00,0.09
0.0,0.0,0.0,0.0,0.0,0.0,0.0,3659,10069.20,0,0,0,0.49,-2.94,-0.07,-0.16,1.00,0.09
0.0,0.0,0.0,0.0,0.0,0.0,0.0,3667,10067.20,0,0,165,0.77,-2.94,0.21,-0.16,1.00,0.09
0.0,0.0,0.0,0.0,0.0,0.0,0.0,3682,10067.20,0,0,0,0.56,-2.87,-0.07,-0.16,1.00,0.09
0.0,0.0,0.0,0.0,0.0,0.0,0.0,3698,10068.50,0,0,165,0.63,-3.01,0.21,-0.16,1.00,0.09
0.0,0.0,0.0,0.0,0.0,0.0,0.0,3706,10068.50,0,0,0,0.63,-2.87,0.00,-0.16,1.00,0.09
0.0,0.0,0.0,0.0,0.0,0.0,0.0,3721,10068.50,0,0,165,0.56,-2.87,0.07,-0.16,1.00,0.09
0.0,0.0,0.0,0.0,0.0,0.0,0.0,3735,10068.50,0,0,0,0.49,-2.94,0.00,-0.16,1.00,0.09
0.0,0.0,0.0,0.0,0.0,0.0,0.0,3742,10068.50,0,0,165,0.56,-3.01,0.00,-0.16,1.00,0.09
0.0,0.0,0.0,0.0,0.0,0.0,0.0,3757,10069.50,0,0,0,0.56,-2.87,-0.07,-0.16,1.00,0.09
0.0,0.0,0.0,0.0,0.0,0.0,0.0,3772,10068.50,0,0,165,0.49,-3.01,-0.21,-0.16,1.00,0.09
0.0,0.0,0.0,0.0,0.0,0.0,0.0,3780,10068.50,0,0,0,0.56,-2.94,0.00,-0.16,1.00,0.09
0.0,0.0,0.0,0.0,0.0,0.0,0.0,3795,10067.20,0,0,165,0.49,-2.87,0.00,-0.16,1.00,0.09
0.0,0.0,0.0,0.0,0.0,0.0,0.0,3810,10068.20,0,0,0,0.42,-3.01,0.07,-0.16,1.00,0.09
0.0,0.0,0.0,0.0,0.0,0.0,0.0,3817,10068.50,0,0,165,0.49,-2.94,0.00,-0.16,1.00,0.09
0.0,0.0,0.0,0.0,0.0,0.0,0.0,3832,10068.50,0,0,0,0.56,-2.94,0.00,-0.16,1.00,0.09
0.0,0.0,0.0,0.0,0.0,0.0,0.0,3847,10067.50,0,0,165,0.63,-2.94,0.14,-0.16,1.00,0.09
0.0,0.0,0.0,0.0,0.0,0.0,0.0,3854,10067.20,0,0,0,0.56,-2.80,0.14,-0.16,1.00,0.09
0.0,0.0,0.0,0.0,0.0,0.0,0.0,3871,10067.50,0,0,165,0.70,-2.94,0.00,-0.16,1.00,0.09
0.0,0.0,0.0,0.0,0.0,0.0,0.0,3885,10068.50,0,0,0,0.56,-2.80,0.00,-0.16,1.00,0.09
0.0,0.0,0.0,0.0,0.0,0.0,0.0,3893,10067.50,0,0,165,0.70,-3.01,-0.07,-0.16,1.00,0.09
0.0,0.0,0.0,0.0,0.0,0.0,0.0,3907,10068.50,0,0,0,0.63,-2.94,0.14,-0.16,1.00,0.09
0.0,0.0,0.0,0.0,0.0,0.0,0.0,3923,10068.50,0,0,165,0.84,-2.87,0.07,-0.16,1.00,0.09
0.0,0.0,0.0,0.0,0.0,0.0,0.0,3930,10068.20,0,0,0,0.77,-2.87,0.07,-0.16,1.00,0.09
0.0,0.0,0.0,0.0,0.0,0.0,0.0,3944,10068.50,0,0,165,0.77,-2.94,0.21,-0.16,1.00,0.09
0.0,0.0,0.0,0.0,0.0,0.0,0.0,3960,10067.50,0,0,0,0.77,-2.87,0.14,-0.16,1.00,0.09
0.0,0.0,0.0,0.0,0.0,0.0,0.0,3968,10068.50,0,0,165,0.63,-2.94,0.14,-0.16,1.00,0.09
0.0,0.0,0.0,0.0,0.0,0.0,0.0,3982,10068.50,0,0,0,0.63,-3.01,-0.07,-0.16,0.99,0.09
0.0,0.0,0.0,0.0,0.0,0.0,0.0,3996,10068.50,0,0,165,0.56,-2.87,0.07,-0.16,1.00,0.09
0.0,0.0,0.0,0.0,0.0,0.0,0.0,4004,10068.50,0,0,0,0.49,-2.94,0.00,-0.16,1.00,0.09
0.0,0.0,0.0,0.0,0.0,0.0,0.0,4019,10067.50,0,0,165,0.63,-2.94,0.07,-0.16,1.00,0.09
0.0,0.0,0.0,0.0,0.0,0.0,0.0,4034,10069.50,0,0,0,0.49,-2.94,0.07,-0.16,1.00,0.09
0.0,0.0,0.0,0.0,0.0,0.0,0.0,4042,10068.50,0,0,165,0.49,-2.94,0.07,-0.16,0.99,0.09
0.0,0.0,0.0,0.0,0.0,0.0,0.0,4058,10068.50,0,0,0,0.56,-2.94,-0.07,-0.16,1.00,0.09
0.0,0.0,0.0,0.0,0.0,0.0,0.0,4074,10068.50,0,0,165,0.56,-2.80,0.14,-0.16,1.00,0.09
0.0,0.0,0.0,0.0,0.0,0.0,0.0,4080,10068.50,0,0,0,0.56,-2.87,0.07,-0.16,1.00,0.09
0.0,0.0,0.0,0.0,0.0,0.0,0.0,4095,10066.60,0,0,165,0.56,-2.94,0.07,-0.16,1.00,0.09
0.0,0.0,0.0,0.0,0.0,0.0,0.0,4110,10069.50,0,0,0,0.56,-2.94,0.07,-0.16,1.00,0.09
0.0,0.0,0.0,0.0,0.0,0.0,0.0,4118,10067.50,0,0,165,0.70,-3.01,0.07,-0.16,1.00,0.09
0.0,0.0,0.0,0.0,0.0,0.0,0.0,4133,10068.50,0,0,0,0.56,-2.94,0.00,-0.16,1.00,0.09
0.0,0.0,0.0,0.0,0.0,0.0,0.0,4149,10068.50,0,0,165,0.56,-2.94,0.00,-0.16,1.00,0.09
0.0,0.0,0.0,0.0,0.0,0.0,0.0,4156,10068.50,0,0,0,0.56,-2.94,0.00,-0.16,1.00,0.09
0.0,0.0,0.0,0.0,0.0,0.0,0.0,4170,10067.50,0,0,165,0.56,-2.94,0.00,-0.16,1.00,0.09
0.0,0.0,0.0,0.0,0.0,0.0,0.0,4185,10069.50,0,0,0,0.70,-2.87,0.07,-0.16,1.00,0.09
0.0,0.0,0.0,0.0,0.0,0.0,0.0,4193,10068.50,0,0,165,0.63,-2.94,0.21,-0.16,1.00,0.09
0.0,0.0,0.0,0.0,0.0,0.0,0.0,4208,10068.50,0,0,0,0.63,-2.94,0.14,-0.16,1.00,0.09
0.0,0.0,0.0,0.0,0.0,0.0,0.0,4223,10067.50,0,0,165,0.77,-2.94,0.21,-0.16,1.00,0.09
0.0,0.0,0.0,0.0,0.0,0.0,0.0,4230,10067.50,0,0,0,0.70,-2.87,0.21,-0.16,1.00,0.09
0.0,0.0,0.0,0.0,0.0,0.0,0.0,4245,10068.50,0,0,165,0.77,-2.87,0.14,-0.16,1.00,0.09
0.0,0.0,0.0,0.0,0.0,0.0,0.0,4260,10068.50,0,0,0,0.63,-2.94,0.07,-0.16,1.00,0.09
0.0,0.0,0.0,0.0,0.0,0.0,0.0,4268,10067.50,0,0,165,0.70,-2.94,-0.07,-0.16,1.00,0.09
0.0,0.0,0.0,0.0,0.0,0.0,0.0,4282,10068.50,0,0,0,0.63,-2.87,0.21,-0.16,1.00,0.09
0.0,0.0,0.0,0.0,0.0,0.0,0.0,4297,10068.50,0,0,165,0.63,-2.94,0.00,-0.16,1.00,0.09
0.0,0.0,0.0,0.0,0.0,0.0,0.0,4306,10068.50,0,0,0,0.49,-2.94,0.07,-0.16,0.99,0.09
0.0,0.0,0.0,0.0,0.0,0.0,0.0,4320,10067.50,0,0,165,0.63,-2.87,0.07,-0.16,1.00,0.09
0.0,0.0,0.0,0.0,0.0,0.0,0.0,4335,10068.50,0,0,0,0.63,-2.94,0.07,-0.16,1.00,0.09
0.0,0.0,0.0,0.0,0.0,0.0,0.0,4342,10068.50,0,0,165,0.63,-2.87,0.14,-0.16,1.00,0.09
0.0,0.0,0.0,0.0,0.0,0.0,0.0,4358,10068.50,0,0,0,0.56,-2.94,0.00,-0.16,1.00,0.09
0.0,0.0,0.0,0.0,0.0,0.0,0.0,4373,10068.50,0,0,165,0.49,-2.94,0.07,-0.16,1.00,0.09
0.0,0.0,0.0,0.0,0.0,0.0,0.0,4380,10067.50,0,0,0,0.42,-2.94,-0.07,-0.16,1.00,0.09
0.0,0.0,0.0,0.0,0.0,0.0,0.0,4395,10068.50,0,0,165,0.56,-3.01,0.00,-0.16,1.00,0.09
0.0,0.0,0.0,0.0,0.0,0.0,0.0,4410,10069.50,0,0,0,0.49,-2.87,0.00,-0.16,1.12,0.09
0.0,0.0,0.0,0.0,0.0,0.0,0.0,4417,10068.50,0,0,165,0.49,-2.94,-0.14,-0.16,1.00,0.09
0.0,0.0,0.0,0.0,0.0,0.0,0.0,4432,10068.50,0,0,0,0.70,-3.01,0.14,-0.16,1.00,0.09
0.0,0.0,0.0,0.0,0.0,0.0,0.0,4447,10068.50,0,0,165,0.56,-2.87,-0.07,-0.16,1.00,0.09
0.0,0.0,0.0,0.0,0.0,0.0,0.0,4462,10068.50,0,0,0,0.70,-2.80,0.14,-0.16,1.00,0.09
0.0,0.0,0.0,0.0,0.0,0.0,0.0,4472,10068.50,0,0,165,0.70,-2.94,0.07,-0.16,1.00,0.09
0.0,0.0,0.0,0.0,0.0,0.0,0.0,4485,10068.50,0,0,0,0.63,-2.94,0.14,-0.16,0.99,0.09
0.0,0.0,0.0,0.0,0.0,0.0,0.0,4493,10068.50,0,0,165,0.63,-2.87,0.07,-0.16,1.00,0.09
0.0,0.0,0.0,0.0,0.0,0.0,0.0,4508,10068.50,0,0,0,0.70,-2.87,-0.07,-0.16,1.00,0.09
0.0,0.0,0.0,0.0,0.0,0.0,0.0,4522,10068.50,0,0,165,0.70,-2.87,0.07,-0.16,1.00,0.09
0.0,0.0,0.0,0.0,0.0,0.0,0.0,4529,10068.50,0,0,0,0.63,-2.87,0.00,-0.16,1.00,0.09
0.0,0.0,0.0,0.0,0.0,0.0,0.0,4544,10068.50,0,0,165,0.77,-2.94,0.07,-0.16,1.00,0.09
0.0,0.0,0.0,0.0,0.0,0.0,0.0,4559,10068.50,0,0,0,0.63,-2.87,0.00,-0.16,1.00,0.09
0.0,0.0,0.0,0.0,0.0,0.0,0.0,4567,10068.50,0,0,165,0.77,-2.80,0.14,-0.16,1.00,0.09
0.0,0.0,0.0,0.0,0.0,0.0,0.0,4582,10068.50,0,0,0,0.63,-2.87,-0.07,-0.16,1.00,0.09
0.0,0.0,0.0,0.0,0.0,0.0,0.0,4590,10068.50,0,0,165,0.63,-2.87,0.00,-0.16,1.00,0.09
0.0,0.0,0.0,0.0,0.0,0.0,0.0,4605,10068.50,0,0,0,0.63,-2.87,0.14,-0.16,1.00,0.09
0.0,0.0,0.0,0.0,0.0,0.0,0.0,4621,10068.50,0,0,165,0.56,-2.87,0.00,-0.16,1.00,0.09
0.0,0.0,0.0,0.0,0.0,0.0,0.0,4627,10068.50,0,0,0,0.70,-2.87,0.14,-0.16,1.00,0.09
0.0,0.0,0.0,0.0,0.0,0.0,0.0,4642,10068.50,0,0,165,0.56,-2.87,0.00,-0.15,1.00,0.09
0.0,0.0,0.0,0.0,0.0,0.0,0.0,4659,10068.50,0,0,0,0.63,-3.01,0.07,-0.16,1.00,0.09
0.0,0.0,0.0,0.0,0.0,0.0,0.0,4665,10069.50,0,0,165,0.49,-2.94,-0.07,-0.16,1.00,0.09
0.0,0.0,0.0,0.0,0.0,0.0,0.0,4679,10068.50,0,0,0,0.56,-2.94,-0.07,-0.16,1.00,0.09
0.0,0.0,0.0,0.0,0.0,0.0,0.0,4694,10067.50,0,0,165,0.49,-2.87,0.00,-0.16,1.00,0.09
0.0,0.0,0.0,0.0,0.0,0.0,0.0,4701,10068.50,0,0,0,0.42,-2.94,-0.07,-0.16,1.00,0.09
0.0,0.0,0.0,0.0,0.0,0.0,0.0,4717,10067.50,0,0,165,0.49,-2.94,0.14,-0.16,1.00,0.09
0.0,0.0,0.0,0.0,0.0,0.0,0.0,4732,10069.50,0,0,0,0.63,-2.80,0.14,-0.16,1.00,0.09
0.0,0.0,0.0,0.0,0.0,0.0,0.0,4739,10068.50,0,0,165,0.70,-2.94,0.07,-0.16,1.00,0.09
0.0,0.0,0.0,0.0,0.0,0.0,0.0,4755,10068.50,0,0,0,0.56,-2.87,0.07,-0.16,1.00,0.09
0.0,0.0,0.0,0.0,0.0,0.0,0.0,4771,10068.50,0,0,165,0.63,-2.94,0.14,-0.16,1.00,0.09
0.0,0.0,0.0,0.0,0.0,0.0,0.0,4777,10069.50,0,0,0,0.77,-2.94,0.14,-0.16,1.00,0.09
0.0,0.0,0.0,0.0,0.0,0.0,0.0,4792,10068.80,0,0,165,0.63,-3.01,0.00,-0.16,1.00,0.09
0.0,0.0,0.0,0.0,0.0,0.0,0.0,4808,10068.50,0,0,0,0.63,-2.94,0.00,-0.16,1.00,0.09
0.0,0.0,0.0,0.0,0.0,0.0,0.0,4815,10068.50,0,0,165,0.56,-2.94,0.07,-0.16,1.00,0.09
0.0,0.0,0.0,0.0,0.0,0.0,0.0,4830,10068.50,0,0,0,0.70,-2.87,0.14,-0.16,1.00,0.09
0.0,0.0,0.0,0.0,0.0,0.0,0.0,4844,10068.50,0,0,165,0.56,-3.01,0.00,-0.16,1.00,0.09
0.0,0.0,0.0,0.0,0.0,0.0,0.0,4852,10068.50,0,0,0,0.63,-2.80,0.00,-0.16,1.00,0.09
0.0,0.0,0.0,0.0,0.0,0.0,0.0,4867,10068.50,0,0,165,0.63,-2.94,0.14,-0.16,1.00,0.09
0.0,0.0,0.0,0.0,0.0,0.0,0.0,4882,10067.50,0,0,0,0.70,-2.87,0.14,-0.16,1.00,0.09
0.0,0.0,0.0,0.0,0.0,0.0,0.0,4889,10067.50,0,0,165,0.56,-2.80,0.21,-0.16,1.00,0.09
0.0,0.0,0.0,0.0,0.0,0.0,0.0,4906,10069.50,0,0,0,0.63,-2.80,0.00,-0.16,1.00,0.09
0.0,0.0,0.0,0.0,0.0,0.0,0.0,4920,10068.50,0,0,165,0.63,-3.01,0.00,-0.16,1.00,0.09
0.0,0.0,0.0,0.0,0.0,0.0,0.0,4927,10068.50,0,0,0,0.49,-2.87,0.07,-0.16,1.00,0.09
0.0,0.0,0.0,0.0,0.0,0.0,0.0,4942,10068.50,0,0,165,0.63,-2.94,0.00,-0.16,0.99,0.09
0.0,0.0,0.0,0.0,0.0,0.0,0.0,4957,10068.50,0,0,0,0.56,-2.94,-0.07,-0.16,1.00,0.09
0.0,0.0,0.0,0.0,0.0,0.0,0.0,4964,10068.50,0,0,165,0.63,-2.94,0.07,-0.16,1.00,0.09
0.0,0.0,0.0,0.0,0.0,0.0,0.0,4980,10068.50,0,0,0,0.63,-2.94,0.14,-0.16,1.00,0.09
0.0,0.0,0.0,0.0,0.0,0.0,0.0,4995,10068.50,0,0,165,0.56,-2.87,0.14,-0.16,1.00,0.09
0.0,0.0,0.0,0.0,0.0,0.0,0.0,5002,10068.50,0,0,0,0.63,-2.87,0.07,-0.16,1.00,0.09
0.0,0.0,0.0,0.0,0.0,0.0,0.0,5017,10069.50,0,0,165,0.56,-2.94,0.21,-0.16,1.00,0.09
0.0,0.0,0.0,0.0,0.0,0.0,0.0,5032,10069.50,0,0,0,0.49,-3.01,0.00,-0.16,1.00,0.09
0.0,0.0,0.0,0.0,0.0,0.0,0.0,5040,10067.50,0,0,165,0.56,-2.87,0.07,-0.16,1.00,0.09
0.0,0.0,0.0,0.0,0.0,0.0,0.0,5057,10068.20,0,0,0,0.56,-3.01,0.14,-0.16,1.00,0.09
0.0,0.0,0.0,0.0,0.0,0.0,0.0,5069,10068.50,0,0,165,0.56,-3.01,0.00,-0.16,1.00,0.09
0.0,0.0,0.0,0.0,0.0,0.0,0.0,5077,10068.20,0,0,0,0.63,-3.01,0.00,-0.16,1.00,0.09
0.0,0.0,0.0,0.0,0.0,0.0,0.0,5092,10068.20,0,0,165,0.56,-2.87,0.07,-0.16,0.99,0.09
0.0,0.0,0.0,0.0,0.0,0.0,0.0,5108,10069.50,0,0,0,0.77,-2.87,0.21,-0.16,1.00,0.09
0.0,0.0,0.0,0.0,0.0,0.0,0.0,5114,10068.50,0,0,165,0.63,-2.87,0.14,-0.16,0.99,0.09
0.0,0.0,0.0,0.0,0.0,0.0,0.0,5130,10069.50,0,0,0,0.70,-2.94,0.21,-0.16,1.00,0.09
0.0,0.0,0.0,0.0,0.0,0.0,0.0,5144,10068.50,0,0,165,0.70,-2.87,0.07,-0.16,1.00,0.09
0.0,0.0,0.0,0.0,0.0,0.0,0.0,5153,10069.50,0,0,0,0.77,-2.94,0.21,-0.16,0.99,0.09
0.0,0.0,0.0,0.0,0.0,0.0,0.0,5167,10068.50,0,0,165,0.56,-2.94,0.00,-0.16,1.00,0.09
0.0,0.0,0.0,0.0,0.0,0.0,0.0,5182,10069.50,0,0,0,0.70,-2.94,0.07,-0.16,1.00,0.09
0.0,0.0,0.0,0.0,0.0,0.0,0.0,5190,10068.50,0,0,165,0.49,-2.87,0.00,-0.16,1.00,0.09
0.0,0.0,0.0,0.0,0.0,0.0,0.0,5205,10068.50,0,0,0,0.63,-3.01,17.85,-0.16,0.99,0.09
0.0,0.0,0.0,0.0,0.0,0.0,0.0,5220,10068.50,0,0,165,0.63,-2.87,0.14,-0.16,1.00,0.09
0.0,0.0,0.0,0.0,0.0,0.0,0.0,5227,10068.50,0,0,0,0.63,-3.01,-0.07,-0.16,1.00,0.09
0.0,0.0,0.0,0.0,0.0,0.0,0.0,5243,10068.50,0,0,165,0.63,-2.94,0.07,-0.16,0.87,0.09
0.0,0.0,0.0,0.0,0.0,0.0,0.0,5257,10068.50,0,0,0,0.56,-2.94,-0.14,-0.16,1.00,0.09
0.0,0.0,0.0,0.0,0.0,0.0,0.0,5264,10068.50,0,0,165,0.70,-2.87,0.14,-0.16,0.99,0.09
0.0,0.0,0.0,0.0,0.0,0.0,0.0,5280,10068.20,0,0,0,0.49,-3.01,0.07,-0.16,1.00,0.09
0.0,0.0,0.0,0.0,0.0,0.0,0.0,5295,10067.50,0,0,165,0.42,-2.87,0.00,-0.16,1.00,0.09
0.0,0.0,0.0,0.0,0.0,0.0,0.0,5303,10068.50,0,0,0,0.56,-2.94,0.07,-0.16,1.00,0.09
0.0,0.0,0.0,0.0,0.0,0.0,0.0,5317,10067.50,0,0,165,0.63,-2.94,-0.07,-0.16,1.00,0.09
0.0,0.0,0.0,0.0,0.0,0.0,0.0,5333,10069.50,0,0,0,0.70,-2.94,0.00,-0.16,1.00,0.09
0.0,0.0,0.0,0.0,0.0,0.0,0.0,5340,10068.50,0,0,165,0.49,-2.94,-0.07,-0.16,1.00,0.09
0.0,0.0,0.0,0.0,0.0,0.0,0.0,5355,10069.20,0,0,0,0.70,-2.94,0.00,-0.16,1.00,0.09
0.0,0.0,0.0,0.0,0.0,0.0,0.0,5370,10068.50,0,0,165,0.56,-2.87,0.00,-0.16,1.00,0.09
0.0,0.0,0.0,0.0,0.0,0.0,0.0,5377,10067.50,0,0,0,0.56,-2.87,0.14,-0.16,1.00,0.09
0.0,0.0,0.0,0.0,0.0,0.0,0.0,5392,10067.50,0,0,165,0.70,-2.80,0.14,-0.16,1.00,0.09
0.0,0.0,0.0,0.0,0.0,0.0,0.0,5407,10068.50,0,0,0,0.63,-2.87,0.00,-0.16,1.00,0.09
0.0,0.0,0.0,0.0,0.0,0.0,0.0,5415,10068.20,0,0,165,0.63,-2.94,0.00,-0.16,1.00,0.09
0.0,0.0,0.0,0.0,0.0,0.0,0.0,5429,10068.20,0,0,0,0.63,-2.94,0.00,-0.16,1.00,0.09
0.0,0.0,0.0,0.0,0.0,0.0,0.0,5445,10068.50,0,0,165,0.63,-2.87,0.00,-0.16,1.00,0.09
0.0,0.0,0.0,0.0,0.0,0.0,0.0,5452,10069.50,0,0,0,0.63,-2.87,0.07,-0.16,1.00,0.09
0.0,0.0,0.0,0.0,0.0,0.0,0.0,5467,10067.50,0,0,165,0.63,-2.94,0.07,-0.16,1.00,0.09
0.0,0.0,0.0,0.0,0.0,0.0,0.0,5482,10068.50,0,0,0,0.63,-2.94,0.14,-0.16,1.00,0.09
0.0,0.0,0.0,0.0,0.0,0.0,0.0,5489,10068.20,0,0,165,0.70,-2.94,0.07,-0.16,1.00,0.09
0.0,0.0,0.0,0.0,0.0,0.0,0.0,5510,10068.50,0,0,0,0.63,-2.87,0.00,-0.16,1.00,0.09
0.0,0.0,0.0,0.0,0.0,0.0,0.0,5522,10068.50,0,0,165,0.63,-2.87,0.21,-0.16,1.00,0.09
0.0,0.0,0.0,0.0,0.0,0.0,0.0,5527,10067.50,0,0,0,0.70,-2.80,0.00,-0.16,0.99,0.09
0.0,0.0,0.0,0.0,0.0,0.0,0.0,5542,10068.50,0,0,165,0.49,-2.94,0.07,-0.16,1.00,0.09
0.0,0.0,0.0,0.0,0.0,0.0,0.0,5557,10069.50,0,0,0,0.63,-2.87,-0.07,-0.16,0.99,0.09
0.0,0.0,0.0,0.0,0.0,0.0,0.0,5565,10068.50,0,0,165,0.56,-2.87,-0.14,-0.16,1.00,0.09
0.0,0.0,0.0,0.0,0.0,0.0,0.0,5579,10068.50,0,0,0,0.49,-2.87,-0.14,-0.16,1.00,0.09
0.0,0.0,0.0,0.0,0.0,0.0,0.0,5594,10069.20,0,0,165,0.56,-2.94,0.00,-0.15,1.00,0.09
0.0,0.0,0.0,0.0,0.0,0.0,0.0,5603,10068.50,0,0,0,0.63,-2.94,0.07,-0.15,1.00,0.09
0.0,0.0,0.0,0.0,0.0,0.0,0.0,5617,10068.50,0,0,165,0.84,-3.01,0.07,-0.16,0.99,0.09
0.0,0.0,0.0,0.0,0.0,0.0,0.0,5639,10068.20,0,0,0,0.49,-3.15,-0.21,-0.16,1.00,0.09
0.0,0.0,0.0,0.0,0.0,0.0,0.0,5639,10068.50,0,0,165,0.70,-3.08,-0.07,-0.16,1.00,0.09
0.0,0.0,0.0,0.0,0.0,0.0,0.0,5655,10068.50,0,0,0,0.77,-2.94,0.07,-0.17,0.99,0.09
0.0,0.0,0.0,0.0,0.0,0.0,0.0,5670,10067.50,0,0,165,0.56,-2.80,-0.07,-0.17,1.00,0.09
0.0,0.0,0.0,0.0,0.0,0.0,0.0,5677,10068.50,0,0,0,0.70,-2.66,0.14,-0.17,0.99,0.09
0.0,0.0,0.0,0.0,0.0,0.0,0.0,5691,10068.20,0,0,165,0.49,-2.59,0.00,-0.17,1.00,0.08
0.0,0.0,0.0,0.0,0.0,0.0,0.0,5707,10069.50,0,0,0,0.42,-2.66,0.14,-0.16,1.00,0.08
0.0,0.0,0.0,0.0,0.0,0.0,0.0,5715,10069.50,0,0,165,0.63,-2.87,0.28,-0.16,1.00,0.08
0.0,0.0,0.0,0.0,0.0,0.0,0.0,5729,10068.20,0,0,0,0.70,-2.94,0.42,-0.16,1.00,0.09
0.0,0.0,0.0,0.0,0.0,0.0,0.0,5744,10068.50,0,0,165,0.63,-3.15,0.28,-0.16,1.00,0.09
0.0,0.0,0.0,0.0,0.0,0.0,0.0,5752,10068.50,0,0,0,0.49,-3.15,0.14,-0.16,1.00,0.09
0.0,0.0,0.0,0.0,0.0,0.0,0.0,5767,10068.50,0,0,165,0.63,-3.08,0.14,-0.16,0.99,0.09
0.0,0.0,0.0,0.0,0.0,0.0,0.0,5782,10068.50,0,0,0,0.56,-2.73,0.14,-0.16,1.00,0.09
0.0,0.0,0.0,0.0,0.0,0.0,0.0,5789,10068.50,0,0,165,0.77,-2.66,0.28,-0.15,0.99,0.09
0.0,0.0,0.0,0.0,0.0,0.0,0.0,5805,10068.20,0,0,0,0.42,-2.52,0.00,-0.15,1.00,0.09
0.0,0.0,0.0,0.0,0.0,0.0,0.0,5821,10069.20,0,0,165,0.49,-2.59,-0.07,-0.14,1.00,0.09
0.0,0.0,0.0,0.0,0.0,0.0,0.0,5827,10068.50,0,0,0,0.63,-2.87,-0.07,-0.14,1.00,0.09
0.0,0.0,0.0,0.0,0.0,0.0,0.0,5842,10068.50,0,0,165,0.70,-3.01,0.00,-0.14,1.00,0.09
0.0,0.0,0.0,0.0,0.0,0.0,0.0,5857,10069.20,0,0,0,0.91,-3.36,0.07,-0.15,1.00,0.09
0.0,0.0,0.0,0.0,0.0,0.0,0.0,5865,10068.50,0,0,165,0.63,-3.43,-0.21,-0.16,0.99,0.09
0.0,0.0,0.0,0.0,0.0,0.0,0.0,5879,10069.50,0,0,0,0.42,-3.08,-0.28,-0.17,1.00,0.09
0.0,0.0,0.0,0.0,0.0,0.0,0.0,5894,10069.50,0,0,165,0.63,-2.80,-0.07,-0.17,1.00,0.09
0.0,0.0,0.0,0.0,0.0,0.0,0.0,5903,10068.50,0,0,0,0.42,-2.66,-0.14,-0.17,1.00,0.09
0.0,0.0,0.0,0.0,0.0,0.0,0.0,5917,10068.20,0,0,165,0.63,-2.66,0.14,-0.16,1.00,0.09
0.0,0.0,0.0,0.0,0.0,0.0,0.0,5932,10069.20,0,0,0,0.35,-2.66,-0.07,-0.15,1.00,0.09
0.0,0.0,0.0,0.0,0.0,0.0,0.0,5939,10068.20,0,0,165,0.49,-3.01,-0.14,-0.15,1.00,0.09
0.0,0.0,0.0,0.0,0.0,0.0,0.0,5954,10068.50,0,0,0,0.35,-3.29,-0.14,-0.16,1.00,0.09
0.0,0.0,0.0,0.0,0.0,0.0,0.0,5970,10069.50,0,0,165,0.70,-3.36,0.00,-0.17,1.00,0.09
0.0,0.0,0.0,0.0,0.0,0.0,0.0,5980,10068.20,0,0,0,0.70,-3.22,0.28,-0.17,1.00,0.09
0.0,0.0,0.0,0.0,0.0,0.0,0.0,5992,10068.50,0,0,165,0.56,-2.87,0.28,-0.18,0.99,0.09
0.0,0.0,0.0,0.0,0.0,0.0,0.0,6007,10069.50,0,0,0,0.49,-2.59,0.14,-0.17,1.00,0.09
0.0,0.0,0.0,0.0,0.0,0.0,0.0,6014,10069.50,0,0,165,0.56,-2.45,0.35,-0.16,1.00,0.09
0.0,0.0,0.0,0.0,0.0,0.0,0.0,6029,10069.20,0,0,0,0.49,-2.59,0.07,-0.15,1.00,0.09
0.0,0.0,0.0,0.0,0.0,0.0,0.0,6048,10068.50,0,0,165,0.42,-2.94,0.35,-0.15,1.00,0.09
0.0,0.0,0.0,0.0,0.0,0.0,0.0,6053,10068.20,0,0,0,0.98,-3.15,0.42,-0.15,0.99,0.09
0.0,0.0,0.0,0.0,0.0,0.0,0.0,6067,10068.20,0,0,165,0.49,-3.22,0.21,-0.16,1.00,0.09
0.0,0.0,0.0,0.0,0.0,0.0,0.0,6082,10068.50,0,0,0,0.91,-3.01,0.21,-0.16,0.99,0.09
0.0,0.0,0.0,0.0,0.0,0.0,0.0,6089,10068.50,0,0,165,0.63,-2.73,0.14,-0.16,1.00,0.09
0.0,0.0,0.0,0.0,0.0,0.0,0.0,6105,10068.50,0,0,0,0.42,-2.59,0.00,-0.16,1.00,0.09
0.0,0.0,0.0,0.0,0.0,0.0,0.0,6121,10068.50,0,0,165,0.70,-2.59,0.21,-0.15,1.00,0.09
0.0,0.0,0.0,0.0,0.0,0.0,0.0,6127,10068.50,0,0,0,0.21,-2.66,-0.21,-0.15,1.00,0.09
0.0,0.0,0.0,0.0,0.0,0.0,0.0,6142,10068.50,0,0,165,0.35,-2.94,-0.14,-0.15,1.00,0.09
0.0,0.0,0.0,0.0,0.0,0.0,0.0,6157,10069.50,0,0,0,0.77,-3.08,0.07,-0.15,1.00,0.09
0.0,0.0,0.0,0.0,0.0,0.0,0.0,6165,10068.50,0,0,165,0.98,-3.15,-0.14,-0.15,1.00,0.09
0.0,0.0,0.0,0.0,0.0,0.0,0.0,6179,10069.20,0,0,0,0.91,-3.22,0.07,-0.16,1.00,0.10
0.0,0.0,0.0,0.0,0.0,0.0,0.0,6194,10068.20,0,0,165,0.91,-3.08,-0.21,-0.16,0.99,0.09
0.0,0.0,0.0,0.0,0.0,0.0,0.0,6202,10068.20,0,0,0,0.56,-2.87,-0.28,-0.16,0.99,0.09
0.0,0.0,0.0,0.0,0.0,0.0,0.0,6217,10068.20,0,0,165,0.21,-2.73,-0.14,-0.17,1.00,0.09
0.0,0.0,0.0,0.0,0.0,0.0,0.0,6232,10068.50,0,0,0,0.63,-2.66,0.07,-0.17,1.00,0.08
0.0,0.0,0.0,0.0,0.0,0.0,0.0,6240,10069.50,0,0,165,0.56,-2.66,0.07,-0.16,0.99,0.08
0.0,0.0,0.0,0.0,0.0,0.0,0.0,6254,10069.50,0,0,0,0.35,-2.94,-0.21,-0.16,1.00,0.08
0.0,0.0,0.0,0.0,0.0,0.0,0.0,6269,10068.20,0,0,165,0.56,-3.08,0.14,-0.16,1.00,0.08
0.0,0.0,0.0,0.0,0.0,0.0,0.0,6276,10069.50,0,0,0,0.56,-3.29,0.00,-0.16,1.00,0.08
0.0,0.0,0.0,0.0,0.0,0.0,0.0,6292,10069.20,0,0,165,0.56,-3.22,0.21,-0.17,0.99,0.08
0.0,0.0,0.0,0.0,0.0,0.0,0.0,6308,10069.20,0,0,0,0.49,-3.01,0.21,-0.17,0.99,0.09
0.0,0.0,0.0,0.0,0.0,0.0,0.0,6315,10069.20,0,0,165,0.35,-2.80,0.14,-0.16,0.99,0.09
0.0,0.0,0.0,0.0,0.0,0.0,0.0,6330,10068.50,0,0,0,0.35,-2.73,0.00,-0.16,1.00,0.10
0.0,0.0,0.0,0.0,0.0,0.0,0.0,6345,10069.20,0,0,165,0.14,-2.80,-0.07,-0.15,1.00,0.10
0.0,0.0,0.0,0.0,0.0,0.0,0.0,6352,10069.50,0,0,0,0.63,-2.80,0.28,-0.15,1.00,0.10
0.0,0.0,0.0,0.0,0.0,0.0,0.0,6367,10069.50,0,0,165,0.63,-2.80,0.00,-0.15,1.12,0.10
0.0,0.0,0.0,0.0,0.0,0.0,0.0,6383,10069.20,0,0,0,0.84,-2.87,0.14,-0.15,0.99,0.10
0.0,0.0,0.0,0.0,0.0,0.0,0.0,6390,10067.50,0,0,165,0.84,-2.87,-0.07,-0.15,1.00,0.09
0.0,0.0,0.0,0.0,0.0,0.0,0.0,6405,10069.50,0,0,0,0.98,-2.94,0.07,-0.15,1.00,0.10
0.0,0.0,0.0,0.0,0.0,0.0,0.0,6420,10067.20,0,0,165,1.19,-2.87,0.07,-0.16,1.00,0.09
0.0,0.0,0.0,0.0,0.0,0.0,0.0,6427,10068.50,0,0,0,0.77,-2.80,-0.14,-0.16,1.00,0.09
0.0,0.0,0.0,0.0,0.0,0.0,0.0,6450,10068.20,0,0,165,0.70,-2.80,-0.21,-0.16,0.99,0.09
0.0,0.0,0.0,0.0,0.0,0.0,0.0,6457,10069.50,0,0,0,0.56,-2.87,-0.28,-0.16,1.00,0.09
0.0,0.0,0.0,0.0,0.0,0.0,0.0,6465,10069.50,0,0,165,0.91,-2.94,0.07,-0.16,1.00,0.08
0.0,0.0,0.0,0.0,0.0,0.0,0.0,6480,10068.20,0,0,0,0.63,-2.94,-0.14,-0.16,1.00,0.08
0.0,0.0,0.0,0.0,0.0,0.0,0.0,6488,10068.50,0,0,165,0.49,-3.01,-0.21,-0.16,1.00,0.08
0.0,0.0,0.0,0.0,0.0,0.0,0.0,6507,10068.20,0,0,0,0.56,-2.94,0.07,-0.17,1.00,0.08
0.0,0.0,0.0,0.0,0.0,0.0,0.0,6518,10069.50,0,0,165,0.42,-2.80,-0.07,-0.17,1.00,0.08
0.0,0.0,0.0,0.0,0.0,0.0,0.0,6525,10069.20,0,0,0,0.49,-2.94,0.21,-0.17,0.99,0.08
0.0,0.0,0.0,0.0,0.0,0.0,0.0,6540,10068.20,0,0,165,0.49,-2.87,0.00,-0.16,0.99,0.08
0.0,0.0,0.0,0.0,0.0,0.0,0.0,6555,10068.50,0,0,0,0.35,-3.01,0.07,-0.16,1.00,0.09
0.0,0.0,0.0,0.0,0.0,0.0,0.0,6562,10069.50,0,0,165,0.14,-2.94,0.14,-0.16,1.00,0.09
0.0,0.0,0.0,0.0,0.0,0.0,0.0,6577,10068.20,0,0,0,0.35,-2.87,0.07,-0.16,1.00,0.09
0.0,0.0,0.0,0.0,0.0,0.0,0.0,6592,10068.20,0,0,165,0.63,-2.80,0.35,-0.16,1.00,0.10
0.0,0.0,0.0,0.0,0.0,0.0,0.0,6600,10068.50,0,0,0,0.77,-2.80,0.14,-0.15,1.00,0.09
0.0,0.0,0.0,0.0,0.0,0.0,0.0,6615,10069.50,0,0,165,0.63,-2.87,0.28,-0.15,1.00,0.10
0.0,0.0,0.0,0.0,0.0,0.0,0.0,6629,10069.50,0,0,0,0.56,-2.87,0.07,-0.15,1.00,0.10
0.0,0.0,0.0,0.0,0.0,0.0,0.0,6637,10068.50,0,0,165,0.49,-2.87,0.14,-0.15,1.00,0.09
0.0,0.0,0.0,0.0,0.0,0.0,0.0,6652,10068.50,0,0,0,0.70,-2.94,0.07,-0.15,1.00,0.09
0.0,0.0,0.0,0.0,0.0,0.0,0.0,6667,10069.50,0,0,165,0.84,-2.87,0.07,-0.16,1.00,0.09
0.0,0.0,0.0,0.0,0.0,0.0,0.0,6674,10069.20,0,0,0,0.77,-2.80,0.21,-0.16,1.00,0.09
0.0,0.0,0.0,0.0,0.0,0.0,0.0,6690,10069.50,0,0,165,0.77,-2.80,-0.07,-0.16,1.00,0.09
0.0,0.0,0.0,0.0,0.0,0.0,0.0,6705,10068.50,0,0,0,0.84,-2.73,0.00,-0.16,1.00,0.08
0.0,0.0,0.0,0.0,0.0,0.0,0.0,6720,10069.50,0,0,165,0.49,-2.94,-0.14,-0.15,1.00,0.09
0.0,0.0,0.0,0.0,0.0,0.0,0.0,6727,10068.20,0,0,0,0.63,-3.01,-0.07,-0.16,1.00,0.09
0.0,0.0,0.0,0.0,0.0,0.0,0.0,6742,10068.20,0,0,165,0.56,-3.01,-0.07,-0.16,1.00,0.09
0.0,0.0,0.0,0.0,0.0,0.0,0.0,6757,10069.20,0,0,0,0.56,-3.08,-0.21,-0.16,0.99,0.09
0.0,0.0,0.0,0.0,0.0,0.0,0.0,6765,10068.50,0,0,165,0.56,-3.08,-0.14,-0.16,1.00,0.09
0.0,0.0,0.0,0.0,0.0,0.0,0.0,6780,10068.20,0,0,0,0.56,-2.87,0.00,-0.16,0.99,0.09
0.0,0.0,0.0,0.0,0.0,0.0,0.0,6788,10068.50,0,0,165,0.42,-2.73,0.28,-0.16,0.99,0.09
0.0,0.0,0.0,0.0,0.0,0.0,0.0,6803,10069.20,0,0,0,0.35,-2.66,0.14,-0.16,1.00,0.09
0.0,0.0,0.0,0.0,0.0,0.0,0.0,6817,10069.20,0,0,165,0.49,-2.80,0.14,-0.16,0.99,0.09
0.0,0.0,0.0,0.0,0.0,0.0,0.0,6824,10068.20,0,0,0,0.42,-2.87,0.00,-0.16,1.00,0.09
0.0,0.0,0.0,0.0,0.0,0.0,0.0,6840,10068.20,0,0,165,0.49,-2.94,0.07,-0.16,1.00,0.09
0.0,0.0,0.0,0.0,0.0,0.0,0.0,6855,10068.20,0,0,0,0.63,-3.08,0.21,-0.16,1.00,0.09
0.0,0.0,0.0,0.0,0.0,0.0,0.0,6862,10068.50,0,0,165,0.70,-3.08,0.21,-0.16,1.00,0.09
0.0,0.0,0.0,0.0,0.0,0.0,0.0,6877,10070.10,0,0,0,0.63,-3.22,0.35,-0.16,0.99,0.09
0.0,0.0,0.0,0.0,0.0,0.0,0.0,6892,10069.50,0,0,165,0.42,-2.94,-0.07,-0.17,1.00,0.09
0.0,0.0,0.0,0.0,0.0,0.0,0.0,6900,10068.50,0,0,0,0.49,-2.52,-0.21,-0.16,0.99,0.09
0.0,0.0,0.0,0.0,0.0,0.0,0.0,6915,10068.20,0,0,165,0.56,-2.52,0.35,-0.16,1.00,0.09
0.0,0.0,0.0,0.0,0.0,0.0,0.0,6930,10069.20,0,0,0,0.63,-2.59,0.28,-0.15,1.00,0.09
0.0,0.0,0.0,0.0,0.0,0.0,0.0,6938,10069.20,0,0,165,1.68,-2.73,0.63,-0.14,0.99,0.09
0.0,0.0,0.0,0.0,0.0,0.0,0.0,6952,10068.50,0,0,0,-0.35,-3.22,-0.42,-0.15,1.00,0.09
0.0,0.0,0.0,0.0,0.0,0.0,0.0,6967,10069.50,0,0,165,0.70,-3.57,0.21,-0.16,1.00,0.09
0.0,0.0,0.0,0.0,0.0,0.0,0.0,6975,10068.50,0,0,0,0.56,-3.29,-0.14,-0.17,1.01,0.09
0.0,0.0,0.0,0.0,0.0,0.0,0.0,6989,10069.20,0,0,165,1.40,-2.87,0.49,-0.16,0.98,0.09
0.6904297,0.0013053091,0.0016666725,4.610602E-4,-0.16,1.0,0.09,11020,10069.80,0,0,165,0.70,-2.80,0.14,-0.16,1.00,0.09
0.6904297,3.0530896E-4,0.0026666708,4.610602E-4,-0.16,1.0,0.09,11024,10069.80,0,0,0,0.63,-2.73,0.14,-0.16,1.00,0.09
0.6904297,0.0013053091,6.666742E-4,-5.3893984E-4,-0.16,0.99,0.09,11040,10069.80,0,0,165,0.70,-2.87,0.07,-0.16,0.99,0.09
0.6904297,-6.946903E-4,6.666742E-4,-5.3893984E-4,-0.16,1.0,0.09,11055,10069.80,0,0,0,0.56,-2.87,0.07,-0.16,1.00,0.09
-0.3095703,-6.946903E-4,6.666742E-4,-0.00253894,-0.16,1.0,0.09,11062,10068.80,0,0,165,0.56,-2.87,-0.07,-0.16,1.00,0.09
0.6904297,-0.0016946904,-3.333278E-4,-5.3893984E-4,-0.16,1.0,0.09,11077,10069.80,0,0,0,0.49,-2.94,0.07,-0.16,1.00,0.09
0.6904297,-0.0016946904,-3.333278E-4,-0.0015389399,-0.16,1.0,0.09,11092,10069.80,0,0,165,0.49,-2.94,0.00,-0.16,1.00,0.09
0.390625,0.0013053091,6.666742E-4,4.610602E-4,-0.16,1.0,0.09,11105,10069.50,0,0,0,0.70,-2.87,0.14,-0.16,1.00,0.09
0.390625,-6.946903E-4,0.0016666725,-5.3893984E-4,-0.16,1.0,0.09,11116,10069.50,0,0,165,0.56,-2.80,0.07,-0.16,1.00,0.09
0.390625,-0.0016946904,0.0016666725,-5.3893984E-4,-0.16,1.0,0.09,11133,10069.50,0,0,0,0.49,-2.80,0.07,-0.16,1.00,0.09
0.6904297,-0.0016946904,-3.333278E-4,-0.0015389399,-0.16,1.0,0.09,11148,10069.80,0,0,165,0.49,-2.94,0.00,-0.16,1.00,0.09
