Pressure_Rel,GyroX_Rel,GyroY_Rel,GyroZ_Rel,AccX_Rel,AccY_Rel,AccZ_Rel,Timestamp,Pressure_abs,HeartRate,Oxygen,Status,GyroX,GyroY,GyroZ,AccX,AccY,AccZ
0.0,0.0,0.0,0.0,0.0,0.0,0.0,3438,9946.70,0,0,165,-15.05,0.07,23.17,0.11,1.00,-0.04
0.0,0.0,0.0,0.0,0.0,0.0,0.0,3454,9946.70,0,0,0,-15.33,0.21,23.10,0.11,1.00,-0.03
0.0,0.0,0.0,0.0,0.0,0.0,0.0,3462,9947.70,0,0,165,-13.86,-0.28,21.00,0.11,1.00,-0.02
0.0,0.0,0.0,0.0,0.0,0.0,0.0,3477,9949.60,0,0,0,-11.62,-0.42,17.99,0.12,1.00,-0.02
0.0,0.0,0.0,0.0,0.0,0.0,0.0,3492,9946.70,0,0,165,-7.98,-1.33,12.95,0.13,1.00,-0.03
0.0,0.0,0.0,0.0,0.0,0.0,0.0,3500,9947.40,0,0,0,-4.55,-1.47,7.49,0.13,1.00,-0.04
0.0,0.0,0.0,0.0,0.0,0.0,0.0,3514,9948.60,0,0,165,-3.08,-2.17,5.95,0.13,1.00,-0.05
0.0,0.0,0.0,0.0,0.0,0.0,0.0,3529,9946.70,0,0,0,-3.08,-2.24,5.74,0.13,1.00,-0.04
0.0,0.0,0.0,0.0,0.0,0.0,0.0,3537,9947.70,0,0,165,-3.36,-2.10,6.37,0.14,1.00,-0.05
0.0,0.0,0.0,0.0,0.0,0.0,0.0,3551,9947.70,0,0,0,-3.64,-2.17,6.86,0.14,1.00,-0.04
0.0,0.0,0.0,0.0,0.0,0.0,0.0,3566,9947.70,0,0,165,-3.64,-2.31,7.00,0.14,0.99,-0.04
0.0,0.0,0.0,0.0,0.0,0.0,0.0,3575,9947.70,0,0,0,-2.45,-2.45,5.11,0.14,1.00,-0.03
0.0,0.0,0.0,0.0,0.0,0.0,0.0,3589,9947.70,0,0,165,-0.70,-3.01,2.10,0.14,1.00,-0.02
0.0,0.0,0.0,0.0,0.0,0.0,0.0,3604,9947.10,0,0,0,1.19,-3.22,-1.75,0.13,1.00,-0.02
0.0,0.0,0.0,0.0,0.0,0.0,0.0,3611,9947.70,0,0,165,3.36,-3.64,-5.18,0.13,1.00,-0.02
0.0,0.0,0.0,0.0,0.0,0.0,0.0,3627,9946.70,0,0,0,5.39,-4.06,-7.77,0.13,1.00,-0.02
0.0,0.0,0.0,0.0,0.0,0.0,0.0,3642,9946.70,0,0,165,6.09,-4.13,-8.40,0.13,1.00,-0.03
0.0,0.0,0.0,0.0,0.0,0.0,0.0,3649,9946.70,0,0,0,5.74,-4.13,-7.56,0.13,1.00,-0.05
0.0,0.0,0.0,0.0,0.0,0.0,0.0,3664,9947.70,0,0,165,4.83,-3.99,-6.30,0.13,1.00,-0.05
0.0,0.0,0.0,0.0,0.0,0.0,0.0,3680,9947.10,0,0,0,3.92,-3.78,-4.41,0.13,1.00,-0.05
0.0,0.0,0.0,0.0,0.0,0.0,0.0,3687,9948.00,0,0,165,2.73,-3.64,-2.66,0.13,1.00,-0.04
0.0,0.0,0.0,0.0,0.0,0.0,0.0,3702,9947.70,0,0,0,1.68,-3.29,-0.91,0.12,1.00,-0.04
0.0,0.0,0.0,0.0,0.0,0.0,0.0,3717,9946.70,0,0,165,1.12,-3.36,-0.70,0.12,1.00,-0.03
0.0,0.0,0.0,0.0,0.0,0.0,0.0,3726,9947.10,0,0,0,1.61,-3.15,-1.19,0.12,1.00,-0.03
0.0,0.0,0.0,0.0,0.0,0.0,0.0,3739,9946.10,0,0,165,2.17,-3.22,-2.10,0.12,1.00,-0.03
0.0,0.0,0.0,0.0,0.0,0.0,0.0,3754,9947.70,0,0,0,2.66,-3.43,-2.73,0.12,1.00,-0.04
0.0,0.0,0.0,0.0,0.0,0.0,0.0,3762,9947.10,0,0,165,2.31,-3.29,-2.03,0.12,1.00,-0.04
0.0,0.0,0.0,0.0,0.0,0.0,0.0,3776,9947.10,0,0,0,1.54,-3.22,-0.91,0.13,1.00,-0.05
0.0,0.0,0.0,0.0,0.0,0.0,0.0,3791,9948.00,0,0,165,0.63,-2.87,0.35,0.13,1.00,-0.05
0.0,0.0,0.0,0.0,0.0,0.0,0.0,3799,9948.00,0,0,0,-0.77,-2.52,2.31,0.13,1.00,-0.05
0.0,0.0,0.0,0.0,0.0,0.0,0.0,3814,9948.00,0,0,165,-2.03,-2.52,4.48,0.13,1.00,-0.04
0.0,0.0,0.0,0.0,0.0,0.0,0.0,3829,9948.00,0,0,0,-3.29,-2.10,5.88,0.13,1.00,-0.04
0.0,0.0,0.0,0.0,0.0,0.0,0.0,3836,9948.00,0,0,165,-3.71,-1.96,6.72,0.12,1.00,-0.04
0.0,0.0,0.0,0.0,0.0,0.0,0.0,3852,9947.10,0,0,0,-4.06,-1.89,7.49,0.12,1.00,-0.03
0.0,0.0,0.0,0.0,0.0,0.0,0.0,3866,9948.00,0,0,165,-4.13,-1.75,7.84,0.12,1.00,-0.03
0.0,0.0,0.0,0.0,0.0,0.0,0.0,3874,9947.10,0,0,0,-4.13,-1.82,7.98,0.13,1.00,-0.03
0.0,0.0,0.0,0.0,0.0,0.0,0.0,3889,9946.70,0,0,165,-4.34,-1.96,8.40,0.13,1.00,-0.03
0.0,0.0,0.0,0.0,0.0,0.0,0.0,3904,9947.10,0,0,0,-4.90,-1.75,8.89,0.14,1.00,-0.04
0.0,0.0,0.0,0.0,0.0,0.0,0.0,3911,9947.10,0,0,165,-5.11,-1.61,9.66,0.14,1.00,-0.04
0.0,0.0,0.0,0.0,0.0,0.0,0.0,3927,9949.00,0,0,0,-5.46,-1.54,9.94,0.14,1.00,-0.04
0.0,0.0,0.0,0.0,0.0,0.0,0.0,3942,9947.10,0,0,165,-5.32,-1.75,10.01,0.14,1.00,-0.03
0.0,0.0,0.0,0.0,0.0,0.0,0.0,3949,9947.10,0,0,0,-5.46,-1.54,9.87,0.15,1.00,-0.03
0.0,0.0,0.0,0.0,0.0,0.0,0.0,3966,9947.10,0,0,165,-5.46,-1.61,10.08,0.14,1.00,-0.02
0.0,0.0,0.0,0.0,0.0,0.0,0.0,3979,9947.10,0,0,0,-4.90,-1.96,8.54,0.15,1.00,-0.02
0.0,0.0,0.0,0.0,0.0,0.0,0.0,3986,9948.00,0,0,165,-2.87,-2.10,5.95,0.15,1.00,-0.02
0.0,0.0,0.0,0.0,0.0,0.0,0.0,4001,9947.10,0,0,0,-1.26,-2.38,3.36,0.15,1.00,-0.02
0.0,0.0,0.0,0.0,0.0,0.0,0.0,4016,9947.10,0,0,165,-0.35,-2.73,1.82,0.15,0.99,-0.02
0.0,0.0,0.0,0.0,0.0,0.0,0.0,4025,9948.00,0,0,0,0.35,-2.94,0.35,0.16,1.00,-0.02
0.0,0.0,0.0,0.0,0.0,0.0,0.0,4038,9948.00,0,0,165,1.19,-3.08,-1.12,0.16,1.00,-0.03
0.0,0.0,0.0,0.0,0.0,0.0,0.0,4054,9945.20,0,0,0,1.47,-3.08,-1.47,0.15,1.00,-0.03
0.0,0.0,0.0,0.0,0.0,0.0,0.0,4061,9947.10,0,0,165,1.19,-3.08,-0.84,0.15,1.00,-0.03
0.0,0.0,0.0,0.0,0.0,0.0,0.0,4084,9947.10,0,0,0,1.19,-3.08,-0.91,0.15,0.99,-0.02
0.0,0.0,0.0,0.0,0.0,0.0,0.0,4092,9947.10,0,0,165,1.96,-3.08,-1.96,0.15,1.00,-0.02
0.0,0.0,0.0,0.0,0.0,0.0,0.0,4099,9946.10,0,0,0,2.59,-3.36,-3.50,0.15,1.00,-0.02
0.0,0.0,0.0,0.0,0.0,0.0,0.0,4114,9947.10,0,0,165,3.15,-3.50,-4.13,0.15,1.00,-0.02
0.0,0.0,0.0,0.0,0.0,0.0,0.0,4129,9948.00,0,0,0,3.36,-3.50,-4.41,0.15,1.00,-0.02
0.0,0.0,0.0,0.0,0.0,0.0,0.0,4136,9947.10,0,0,165,3.71,-3.50,-4.76,0.15,1.00,-0.02
0.0,0.0,0.0,0.0,0.0,0.0,0.0,4152,9947.10,0,0,0,3.71,-3.43,-4.76,0.15,1.00,-0.03
0.0,0.0,0.0,0.0,0.0,0.0,0.0,4167,9947.40,0,0,165,3.08,-3.43,-3.92,0.15,1.00,-0.03
0.0,0.0,0.0,0.0,0.0,0.0,0.0,4174,9947.10,0,0,0,2.38,-3.29,-2.80,0.15,1.00,-0.04
0.0,0.0,0.0,0.0,0.0,0.0,0.0,4189,9947.10,0,0,165,1.82,-3.15,-1.82,0.14,1.00,-0.03
0.0,0.0,0.0,0.0,0.0,0.0,0.0,4204,9947.10,0,0,0,1.26,-3.01,-0.98,0.14,1.00,-0.03
0.0,0.0,0.0,0.0,0.0,0.0,0.0,4217,9947.10,0,0,165,1.05,-3.08,-0.70,0.14,1.00,-0.02
0.0,0.0,0.0,0.0,0.0,0.0,0.0,4227,9947.10,0,0,0,1.12,-3.15,-0.77,0.14,1.00,-0.02
0.0,0.0,0.0,0.0,0.0,0.0,0.0,4242,9947.40,0,0,165,1.05,-3.08,-0.77,0.14,1.00,-0.02
0.0,0.0,0.0,0.0,0.0,0.0,0.0,4249,9947.10,0,0,0,0.91,-2.94,-0.28,0.14,1.00,-0.03
0.0,0.0,0.0,0.0,0.0,0.0,0.0,4264,9949.00,0,0,165,0.63,-2.94,0.35,0.14,1.00,-0.03
0.0,0.0,0.0,0.0,0.0,0.0,0.0,4279,9947.10,0,0,0,0.14,-2.87,0.91,0.14,1.00,-0.03
0.0,0.0,0.0,0.0,0.0,0.0,0.0,4287,9947.10,0,0,165,-0.14,-2.80,1.47,0.14,1.00,-0.03
0.0,0.0,0.0,0.0,0.0,0.0,0.0,4302,9947.10,0,0,0,-0.63,-2.66,2.17,0.14,1.00,-0.03
0.0,0.0,0.0,0.0,0.0,0.0,0.0,4316,9948.40,0,0,165,-1.05,-2.59,2.80,0.15,1.00,-0.03
0.0,0.0,0.0,0.0,0.0,0.0,0.0,4325,9948.00,0,0,0,-1.33,-2.59,3.22,0.14,1.00,-0.03
0.0,0.0,0.0,0.0,0.0,0.0,0.0,4339,9947.10,0,0,165,-1.40,-2.52,3.50,0.14,1.00,-0.02
0.0,0.0,0.0,0.0,0.0,0.0,0.0,4354,9948.00,0,0,0,-1.47,-2.52,3.43,0.14,1.00,-0.02
0.0,0.0,0.0,0.0,0.0,0.0,0.0,4362,9947.10,0,0,165,-1.19,-2.59,2.87,0.15,1.00,-0.02
0.0,0.0,0.0,0.0,0.0,0.0,0.0,4377,9947.10,0,0,0,-0.84,-2.73,2.52,0.15,1.00,-0.02
0.0,0.0,0.0,0.0,0.0,0.0,0.0,4391,9947.10,0,0,165,-0.70,-2.73,2.24,0.15,1.00,-0.02
0.0,0.0,0.0,0.0,0.0,0.0,0.0,4399,9946.40,0,0,0,-0.35,-2.59,2.03,0.15,1.00,-0.03
0.0,0.0,0.0,0.0,0.0,0.0,0.0,4414,9947.10,0,0,165,-0.21,-2.73,1.61,0.15,1.00,-0.03
0.0,0.0,0.0,0.0,0.0,0.0,0.0,4429,9948.00,0,0,0,-0.35,-2.80,1.89,0.15,1.00,-0.03
0.0,0.0,0.0,0.0,0.0,0.0,0.0,4437,9947.40,0,0,165,-0.35,-2.73,1.89,0.15,1.12,-0.03
0.0,0.0,0.0,0.0,0.0,0.0,0.0,4451,9946.10,0,0,0,-0.56,-2.66,2.03,0.15,1.00,-0.03
0.0,0.0,0.0,0.0,0.0,0.0,0.0,4466,9947.40,0,0,165,-0.70,-2.80,2.17,0.15,1.00,-0.02
0.0,0.0,0.0,0.0,0.0,0.0,0.0,4475,9946.10,0,0,0,-0.21,-2.73,1.61,0.15,1.00,-0.02
0.0,0.0,0.0,0.0,0.0,0.0,0.0,4489,9946.40,0,0,165,0.35,-2.80,0.56,0.15,1.00,-0.02
0.0,0.0,0.0,0.0,0.0,0.0,0.0,4504,9947.40,0,0,0,0.70,-2.80,0.21,0.15,1.00,-0.02
0.0,0.0,0.0,0.0,0.0,0.0,0.0,4511,9946.40,0,0,165,0.49,-2.94,0.42,0.15,1.00,-0.02
0.0,0.0,0.0,0.0,0.0,0.0,0.0,4526,9947.40,0,0,0,0.21,-2.80,1.05,0.15,1.00,-0.03
0.0,0.0,0.0,0.0,0.0,0.0,0.0,4542,9947.40,0,0,165,0.14,-2.87,0.98,0.15,1.00,-0.03
0.0,0.0,0.0,0.0,0.0,0.0,0.0,4549,9947.40,0,0,0,0.21,-2.80,1.19,0.15,1.00,-0.03
0.0,0.0,0.0,0.0,0.0,0.0,0.0,4564,9947.40,0,0,165,0.00,-2.73,1.33,0.15,1.00,-0.03
0.0,0.0,0.0,0.0,0.0,0.0,0.0,4579,9947.40,0,0,0,-0.21,-2.80,1.47,0.15,1.00,-0.02
0.0,0.0,0.0,0.0,0.0,0.0,0.0,4586,9947.40,0,0,165,-0.14,-2.80,1.40,0.15,1.00,-0.02
0.0,0.0,0.0,0.0,0.0,0.0,0.0,4602,9947.40,0,0,0,-0.14,-2.73,1.19,0.15,1.00,-0.02
0.0,0.0,0.0,0.0,0.0,0.0,0.0,4617,9947.10,0,0,165,-0.07,-2.73,1.47,0.15,1.00,-0.02
0.0,0.0,0.0,0.0,0.0,0.0,0.0,4624,9947.10,0,0,0,-0.42,-2.73,1.75,0.15,1.00,-0.02
0.0,0.0,0.0,0.0,0.0,0.0,0.0,4639,9947.40,0,0,165,-0.56,-2.66,2.24,0.15,1.00,-0.02
0.0,0.0,0.0,0.0,0.0,0.0,0.0,4654,9947.40,0,0,0,-0.63,-2.66,2.03,0.15,1.00,-0.03
0.0,0.0,0.0,0.0,0.0,0.0,0.0,4662,9948.40,0,0,165,-0.14,-2.87,1.40,0.16,1.00,-0.02
0.0,0.0,0.0,0.0,0.0,0.0,0.0,4677,9947.40,0,0,0,0.28,-2.73,0.77,0.16,1.00,-0.02
0.0,0.0,0.0,0.0,0.0,0.0,0.0,4691,9947.40,0,0,165,0.21,-2.80,0.77,0.16,1.00,-0.02
0.0,0.0,0.0,0.0,0.0,0.0,0.0,4699,9948.40,0,0,0,0.07,-2.80,0.91,0.16,0.99,-0.02
0.0,0.0,0.0,0.0,0.0,0.0,0.0,4713,9947.40,0,0,165,0.63,-2.94,0.07,0.16,1.00,-0.02
0.0,0.0,0.0,0.0,0.0,0.0,0.0,4729,9947.40,0,0,0,1.19,-2.87,-0.98,0.15,1.00,-0.02
0.0,0.0,0.0,0.0,0.0,0.0,0.0,4737,9947.40,0,0,165,1.54,-3.15,-1.82,0.15,1.00,-0.02
0.0,0.0,0.0,0.0,0.0,0.0,0.0,4752,9947.40,0,0,0,2.31,-3.22,-2.52,0.15,1.00,-0.02
0.0,0.0,0.0,0.0,0.0,0.0,0.0,4767,9948.40,0,0,165,2.38,-3.29,-3.08,0.15,1.00,-0.02
0.0,0.0,0.0,0.0,0.0,0.0,0.0,4774,9947.40,0,0,0,2.24,-3.22,-2.59,0.15,1.00,-0.03
0.0,0.0,0.0,0.0,0.0,0.0,0.0,4789,9947.40,0,0,165,1.68,-3.22,-1.96,0.15,1.00,-0.03
0.0,0.0,0.0,0.0,0.0,0.0,0.0,4804,9948.40,0,0,0,1.54,-3.08,-1.40,0.15,1.00,-0.03
0.0,0.0,0.0,0.0,0.0,0.0,0.0,4812,9946.40,0,0,165,1.33,-3.01,-1.19,0.15,1.00,-0.02
0.0,0.0,0.0,0.0,0.0,0.0,0.0,4827,9947.40,0,0,0,1.33,-3.08,-0.98,0.15,1.00,-0.02
0.0,0.0,0.0,0.0,0.0,0.0,0.0,4841,9947.40,0,0,165,1.26,-3.15,-1.19,0.15,1.00,-0.02
0.0,0.0,0.0,0.0,0.0,0.0,0.0,4849,9947.40,0,0,0,1.12,-3.01,-0.70,0.15,1.00,-0.02
0.0,0.0,0.0,0.0,0.0,0.0,0.0,4864,9946.10,0,0,165,1.12,-3.08,-0.56,0.15,1.00,-0.02
0.0,0.0,0.0,0.0,0.0,0.0,0.0,4879,9947.40,0,0,0,1.05,-3.01,-0.49,0.15,1.00,-0.02
0.0,0.0,0.0,0.0,0.0,0.0,0.0,4886,9947.40,0,0,165,0.84,-2.80,0.00,0.15,1.00,-0.03
0.0,0.0,0.0,0.0,0.0,0.0,0.0,4902,9947.40,0,0,0,0.28,-2.87,0.84,0.15,1.00,-0.02
0.0,0.0,0.0,0.0,0.0,0.0,0.0,4917,9947.40,0,0,165,-0.35,-2.73,1.68,0.15,1.00,-0.03
0.0,0.0,0.0,0.0,0.0,0.0,0.0,4924,9947.40,0,0,0,-0.63,-2.73,2.31,0.15,1.00,-0.03
0.0,0.0,0.0,0.0,0.0,0.0,0.0,4939,9946.40,0,0,165,-0.35,-2.87,1.40,0.15,1.00,-0.02
0.0,0.0,0.0,0.0,0.0,0.0,0.0,4954,9947.40,0,0,0,0.35,-2.87,0.63,0.15,1.00,-0.02
0.0,0.0,0.0,0.0,0.0,0.0,0.0,4961,9947.40,0,0,165,0.77,-3.01,-0.14,0.15,1.00,-0.02
0.0,0.0,0.0,0.0,0.0,0.0,0.0,4985,9947.40,0,0,0,1.26,-3.08,-1.26,0.15,1.00,-0.02
0.0,0.0,0.0,0.0,0.0,0.0,0.0,4995,9947.40,0,0,165,1.82,-3.08,-1.89,0.15,1.00,-0.02
0.0,0.0,0.0,0.0,0.0,0.0,0.0,5014,9947.40,0,0,0,1.89,-3.08,-2.03,0.15,1.00,-0.03
0.0,0.0,0.0,0.0,0.0,0.0,0.0,5014,9947.40,0,0,165,2.03,-3.29,-2.17,0.15,1.00,-0.03
0.0,0.0,0.0,0.0,0.0,0.0,0.0,5034,9947.40,0,0,0,2.10,-3.15,-2.66,0.15,1.00,-0.03
0.0,0.0,0.0,0.0,0.0,0.0,0.0,5039,9947.40,0,0,165,1.75,-3.01,-1.68,0.15,1.00,-0.03
0.0,0.0,0.0,0.0,0.0,0.0,0.0,5052,9947.40,0,0,0,0.70,-3.01,0.07,0.15,1.00,-0.03
0.0,0.0,0.0,0.0,0.0,0.0,0.0,5068,9947.40,0,0,165,0.14,-2.87,0.77,0.15,1.00,-0.02
0.0,0.0,0.0,0.0,0.0,0.0,0.0,5074,9946.40,0,0,0,0.21,-2.87,0.84,0.15,1.00,-0.02
0.0,0.0,0.0,0.0,0.0,0.0,0.0,5089,9946.80,0,0,165,0.42,-2.87,0.70,0.15,1.00,-0.02
0.0,0.0,0.0,0.0,0.0,0.0,0.0,5105,9947.40,0,0,0,0.49,-2.87,0.21,0.15,1.00,-0.02
0.0,0.0,0.0,0.0,0.0,0.0,0.0,5112,9947.40,0,0,165,0.91,-2.87,-0.28,0.15,1.00,-0.02
0.0,0.0,0.0,0.0,0.0,0.0,0.0,5127,9948.40,0,0,0,1.40,-3.15,-1.40,0.15,1.00,-0.03
0.0,0.0,0.0,0.0,0.0,0.0,0.0,5142,9947.70,0,0,165,1.96,-3.22,-2.24,0.15,1.00,-0.03
0.0,0.0,0.0,0.0,0.0,0.0,0.0,5149,9947.40,0,0,0,2.10,-3.22,-2.52,0.15,1.00,-0.03
0.0,0.0,0.0,0.0,0.0,0.0,0.0,5164,9946.40,0,0,165,1.61,-3.08,-1.61,0.15,1.00,-0.03
0.0,0.0,0.0,0.0,0.0,0.0,0.0,5179,9947.40,0,0,0,0.70,-2.87,-0.42,0.15,1.00,-0.03
0.0,0.0,0.0,0.0,0.0,0.0,0.0,5187,9947.70,0,0,165,0.21,-2.87,0.63,0.15,1.00,-0.02
0.0,0.0,0.0,0.0,0.0,0.0,0.0,5202,9947.40,0,0,0,-0.07,-2.80,1.12,0.15,1.00,-0.03
0.0,0.0,0.0,0.0,0.0,0.0,0.0,5217,9948.40,0,0,165,0.00,-2.87,0.84,0.15,1.00,-0.02
0.0,0.0,0.0,0.0,0.0,0.0,0.0,5224,9947.40,0,0,0,0.42,-2.80,0.49,0.15,1.00,-0.02
0.0,0.0,0.0,0.0,0.0,0.0,0.0,5239,9946.80,0,0,165,0.70,-2.87,0.00,0.15,1.00,-0.03
0.0,0.0,0.0,0.0,0.0,0.0,0.0,5254,9947.40,0,0,0,0.77,-2.87,0.35,0.15,1.00,-0.03
0.0,0.0,0.0,0.0,0.0,0.0,0.0,5262,9947.40,0,0,165,0.21,-2.94,0.91,0.15,1.00,-0.03
0.0,0.0,0.0,0.0,0.0,0.0,0.0,5276,9947.40,0,0,0,-0.28,-2.73,1.89,0.15,1.00,-0.03
0.0,0.0,0.0,0.0,0.0,0.0,0.0,5292,9947.70,0,0,165,-0.70,-2.66,2.38,0.15,1.00,-0.03
0.0,0.0,0.0,0.0,0.0,0.0,0.0,5299,9947.40,0,0,0,-0.63,-2.66,2.31,0.15,1.00,-0.02
0.0,0.0,0.0,0.0,0.0,0.0,0.0,5314,9946.80,0,0,165,-0.14,-2.73,1.54,0.15,1.00,-0.03
0.0,0.0,0.0,0.0,0.0,0.0,0.0,5329,9948.70,0,0,0,0.14,-2.87,0.56,0.15,1.00,-0.02
0.0,0.0,0.0,0.0,0.0,0.0,0.0,5336,9947.40,0,0,165,0.35,-3.08,0.21,0.15,1.00,-0.03
0.0,0.0,0.0,0.0,0.0,0.0,0.0,5352,9947.70,0,0,0,0.98,-3.01,-0.56,0.15,1.00,-0.02
0.0,0.0,0.0,0.0,0.0,0.0,0.0,5367,9947.40,0,0,165,1.54,-3.01,-1.40,0.15,1.00,-0.02
0.0,0.0,0.0,0.0,0.0,0.0,0.0,5377,9947.70,0,0,0,1.75,-3.01,-1.61,0.15,1.00,-0.02
0.0,0.0,0.0,0.0,0.0,0.0,0.0,5389,9946.80,0,0,165,1.54,-3.15,-1.12,0.15,1.00,-0.03
0.0,0.0,0.0,0.0,0.0,0.0,0.0,5404,9948.70,0,0,0,0.91,-2.94,-0.56,0.15,1.00,-0.03
0.0,0.0,0.0,0.0,0.0,0.0,0.0,5412,9947.40,0,0,165,0.91,-2.87,-0.21,0.15,1.00,-0.03
0.0,0.0,0.0,0.0,0.0,0.0,0.0,5427,9946.40,0,0,0,0.63,-2.94,0.14,0.15,1.00,-0.02
0.0,0.0,0.0,0.0,0.0,0.0,0.0,5441,9947.70,0,0,165,0.63,-3.01,0.07,0.15,1.00,-0.02
0.0,0.0,0.0,0.0,0.0,0.0,0.0,5449,9947.70,0,0,0,1.12,-3.08,-0.77,0.15,1.00,-0.02
0.0,0.0,0.0,0.0,0.0,0.0,0.0,5464,9947.70,0,0,165,1.75,-3.01,-1.96,0.15,1.00,-0.03
0.0,0.0,0.0,0.0,0.0,0.0,0.0,5479,9947.40,0,0,0,1.68,-3.08,-1.89,0.15,1.00,-0.03
0.0,0.0,0.0,0.0,0.0,0.0,0.0,5487,9947.40,0,0,165,1.19,-3.01,-0.91,0.14,1.00,-0.03
0.0,0.0,0.0,0.0,0.0,0.0,0.0,5501,9947.70,0,0,0,1.05,-3.01,-0.63,0.15,1.00,-0.03
0.0,0.0,0.0,0.0,0.0,0.0,0.0,5516,9946.40,0,0,165,1.05,-3.08,-0.63,0.15,1.00,-0.02
0.0,0.0,0.0,0.0,0.0,0.0,0.0,5524,9946.40,0,0,0,1.05,-2.94,-0.49,0.15,1.00,-0.02
0.0,0.0,0.0,0.0,0.0,0.0,0.0,5538,9947.70,0,0,165,1.05,-3.01,-0.56,0.15,1.00,-0.03
0.0,0.0,0.0,0.0,0.0,0.0,0.0,5553,9947.40,0,0,0,1.33,-2.94,-0.91,0.15,1.00,-0.03
0.0,0.0,0.0,0.0,0.0,0.0,0.0,5561,9947.70,0,0,165,1.26,-2.94,-0.84,0.15,1.00,-0.03
0.0,0.0,0.0,0.0,0.0,0.0,0.0,5576,9947.40,0,0,0,1.12,-3.08,-0.84,0.14,1.00,-0.03
0.0,0.0,0.0,0.0,0.0,0.0,0.0,5592,9947.70,0,0,165,1.05,-2.94,-0.63,0.14,1.00,-0.03
0.0,0.0,0.0,0.0,0.0,0.0,0.0,5600,9946.80,0,0,0,0.84,-2.94,-0.35,0.15,1.00,-0.02
0.0,0.0,0.0,0.0,0.0,0.0,0.0,5615,9945.80,0,0,165,0.35,-2.94,0.63,0.14,1.00,-0.02
0.0,0.0,0.0,0.0,0.0,0.0,0.0,5629,9946.40,0,0,0,-0.21,-2.87,1.33,0.15,1.00,-0.03
0.0,0.0,0.0,0.0,0.0,0.0,0.0,5637,9947.70,0,0,165,-0.28,-2.73,1.82,0.15,1.00,-0.03
0.0,0.0,0.0,0.0,0.0,0.0,0.0,5651,9947.40,0,0,0,-0.14,-2.80,1.61,0.15,1.00,-0.02
0.0,0.0,0.0,0.0,0.0,0.0,0.0,5666,9947.40,0,0,165,0.00,-2.80,1.40,0.15,1.00,-0.03
0.0,0.0,0.0,0.0,0.0,0.0,0.0,5674,9947.70,0,0,0,-0.07,-2.80,1.40,0.15,1.00,-0.03
0.0,0.0,0.0,0.0,0.0,0.0,0.0,5689,9946.40,0,0,165,-0.35,-2.66,1.61,0.14,1.00,-0.03
0.0,0.0,0.0,0.0,0.0,0.0,0.0,5703,9948.70,0,0,0,-0.42,-2.73,2.03,0.15,1.00,-0.03
0.0,0.0,0.0,0.0,0.0,0.0,0.0,5711,9947.40,0,0,165,-0.35,-2.66,2.24,0.15,1.00,-0.02
0.0,0.0,0.0,0.0,0.0,0.0,0.0,5727,9947.40,0,0,0,-0.56,-2.73,2.17,0.15,1.00,-0.02
0.0,0.0,0.0,0.0,0.0,0.0,0.0,5743,9947.70,0,0,165,-0.49,-2.80,2.03,0.15,1.00,-0.02
0.0,0.0,0.0,0.0,0.0,0.0,0.0,5750,9947.70,0,0,0,-0.21,-2.87,1.54,0.15,1.00,-0.02
0.0,0.0,0.0,0.0,0.0,0.0,0.0,5765,9947.40,0,0,165,0.21,-2.80,0.63,0.15,1.00,-0.02
0.0,0.0,0.0,0.0,0.0,0.0,0.0,5780,9947.70,0,0,0,0.63,-2.87,0.21,0.15,1.00,-0.02
0.0,0.0,0.0,0.0,0.0,0.0,0.0,5787,9946.80,0,0,165,0.84,-3.01,-0.21,0.15,1.00,-0.02
0.0,0.0,0.0,0.0,0.0,0.0,0.0,5802,9947.40,0,0,0,1.40,-3.01,-1.12,0.15,1.00,-0.02
0.0,0.0,0.0,0.0,0.0,0.0,0.0,5817,9947.70,0,0,165,1.54,-3.08,-1.47,0.15,1.00,-0.03
0.0,0.0,0.0,0.0,0.0,0.0,0.0,5826,9946.80,0,0,0,1.05,-3.01,-0.63,0.15,1.00,-0.03
0.0,0.0,0.0,0.0,0.0,0.0,0.0,5840,9947.70,0,0,165,0.77,-3.15,0.00,0.15,1.00,-0.02
0.0,0.0,0.0,0.0,0.0,0.0,0.0,5855,9947.70,0,0,0,1.19,-2.87,-0.42,0.15,1.00,-0.02
0.0,0.0,0.0,0.0,0.0,0.0,0.0,5862,9946.80,0,0,165,1.47,-3.08,-1.40,0.15,1.00,-0.02
0.0,0.0,0.0,0.0,0.0,0.0,0.0,5877,9947.70,0,0,0,1.89,-3.08,-1.82,0.15,1.00,-0.02
0.0,0.0,0.0,0.0,0.0,0.0,0.0,5892,9947.70,0,0,165,1.96,-3.22,-2.31,0.15,1.00,-0.03
0.0,0.0,0.0,0.0,0.0,0.0,0.0,5899,9947.40,0,0,0,2.24,-3.22,-2.73,0.15,1.00,-0.03
0.0,0.0,0.0,0.0,0.0,0.0,0.0,5915,9947.70,0,0,165,2.31,-3.15,-2.80,0.15,1.00,-0.03
0.0,0.0,0.0,0.0,0.0,0.0,0.0,5929,9947.70,0,0,0,1.82,-3.08,-1.68,0.14,1.00,-0.03
0.0,0.0,0.0,0.0,0.0,0.0,0.0,5937,9947.70,0,0,165,0.98,-3.01,-0.42,0.14,1.00,-0.03
0.0,0.0,0.0,0.0,0.0,0.0,0.0,5952,9947.70,0,0,0,0.63,-2.94,0.07,0.14,1.00,-0.02
0.0,0.0,0.0,0.0,0.0,0.0,0.0,5967,9946.80,0,0,165,0.70,-2.87,0.07,0.15,1.00,-0.03
0.0,0.0,0.0,0.0,0.0,0.0,0.0,5975,9947.70,0,0,0,0.70,-2.87,0.14,0.14,1.00,-0.03
0.0,0.0,0.0,0.0,0.0,0.0,0.0,5991,9947.70,0,0,165,0.63,-2.94,0.35,0.15,1.00,-0.03
0.0,0.0,0.0,0.0,0.0,0.0,0.0,6008,9947.70,0,0,0,0.42,-3.01,0.35,0.15,1.00,-0.03
0.0,0.0,0.0,0.0,0.0,0.0,0.0,6012,9946.80,0,0,165,0.56,-2.73,0.14,0.15,1.00,-0.03
0.0,0.0,0.0,0.0,0.0,0.0,0.0,6028,9947.40,0,0,0,0.56,-2.87,0.42,0.14,1.00,-0.03
0.0,0.0,0.0,0.0,0.0,0.0,0.0,6042,9947.40,0,0,165,0.07,-2.94,1.19,0.14,1.00,-0.03
0.0,0.0,0.0,0.0,0.0,0.0,0.0,6048,9947.70,0,0,0,-0.14,-2.66,1.26,0.14,1.00,-0.03
0.0,0.0,0.0,0.0,0.0,0.0,0.0,6065,9946.80,0,0,165,0.00,-2.80,1.05,0.15,1.00,-0.03
0.0,0.0,0.0,0.0,0.0,0.0,0.0,6079,9947.70,0,0,0,0.14,-2.59,1.19,0.15,1.00,-0.02
0.0,0.0,0.0,0.0,0.0,0.0,0.0,6087,9947.70,0,0,165,-0.21,-2.87,1.68,0.15,1.00,-0.02
0.0,0.0,0.0,0.0,0.0,0.0,0.0,6102,9947.70,0,0,0,-0.56,-2.80,2.10,0.15,1.00,-0.02
0.0,0.0,0.0,0.0,0.0,0.0,0.0,6116,9946.80,0,0,165,-0.35,-2.73,1.75,0.15,1.00,-0.02
0.0,0.0,0.0,0.0,0.0,0.0,0.0,6124,9949.60,0,0,0,-0.21,-2.73,1.47,0.15,1.00,-0.03
0.0,0.0,0.0,0.0,0.0,0.0,0.0,6139,9947.70,0,0,165,-0.07,-2.73,1.47,0.15,1.00,-0.03
0.0,0.0,0.0,0.0,0.0,0.0,0.0,6155,9947.40,0,0,0,-0.21,-2.80,1.47,0.15,1.00,-0.03
0.0,0.0,0.0,0.0,0.0,0.0,0.0,6162,9947.70,0,0,165,0.21,-2.80,0.77,0.15,1.00,-0.02
0.0,0.0,0.0,0.0,0.0,0.0,0.0,6177,9946.80,0,0,0,0.77,-3.01,-0.35,0.15,1.00,-0.02
0.0,0.0,0.0,0.0,0.0,0.0,0.0,6192,9947.70,0,0,165,1.12,-3.08,-0.98,0.15,1.00,-0.02
0.0,0.0,0.0,0.0,0.0,0.0,0.0,6199,9946.80,0,0,0,1.54,-3.08,-1.40,0.15,1.00,-0.02
0.0,0.0,0.0,0.0,0.0,0.0,0.0,6214,9946.80,0,0,165,1.68,-3.15,-1.82,0.15,1.00,-0.02
0.0,0.0,0.0,0.0,0.0,0.0,0.0,6229,9947.70,0,0,0,1.89,-3.22,-2.31,0.15,1.00,-0.02
0.0,0.0,0.0,0.0,0.0,0.0,0.0,6238,9947.70,0,0,165,2.10,-3.22,-2.52,0.14,1.00,-0.03
0.0,0.0,0.0,0.0,0.0,0.0,0.0,6251,9947.70,0,0,0,2.10,-3.15,-2.24,0.15,1.00,-0.03
0.0,0.0,0.0,0.0,0.0,0.0,0.0,6266,9947.70,0,0,165,1.75,-3.15,-1.61,0.14,1.00,-0.03
0.0,0.0,0.0,0.0,0.0,0.0,0.0,6274,9947.70,0,0,0,1.47,-3.15,-1.19,0.15,1.00,-0.03
0.0,0.0,0.0,0.0,0.0,0.0,0.0,6289,9946.80,0,0,165,0.91,-2.80,-0.14,0.14,1.00,-0.03
0.0,0.0,0.0,0.0,0.0,0.0,0.0,6304,9947.40,0,0,0,-0.07,-2.73,1.33,0.14,1.00,-0.03
0.0,0.0,0.0,0.0,0.0,0.0,0.0,6312,9946.80,0,0,165,-0.84,-2.73,2.59,0.14,1.00,-0.03
0.0,0.0,0.0,0.0,0.0,0.0,0.0,6327,9945.80,0,0,0,-1.05,-2.66,3.08,0.14,1.00,-0.02
0.0,0.0,0.0,0.0,0.0,0.0,0.0,6342,9946.80,0,0,165,-1.05,-2.59,3.15,0.15,1.00,-0.03
0.0,0.0,0.0,0.0,0.0,0.0,0.0,6349,9946.80,0,0,0,-1.19,-2.66,3.01,0.15,1.00,-0.02
0.0,0.0,0.0,0.0,0.0,0.0,0.0,6364,9947.70,0,0,165,-0.84,-2.66,2.59,0.15,1.00,-0.02
0.0,0.0,0.0,0.0,0.0,0.0,0.0,6380,9947.70,0,0,0,-0.42,-2.73,1.96,0.15,1.00,-0.03
0.0,0.0,0.0,0.0,0.0,0.0,0.0,6387,9947.70,0,0,165,-0.21,-2.66,1.68,0.15,1.00,-0.02
0.0,0.0,0.0,0.0,0.0,0.0,0.0,6401,9946.80,0,0,0,-0.14,-2.73,1.54,0.15,1.00,-0.02
0.0,0.0,0.0,0.0,0.0,0.0,0.0,6416,9946.80,0,0,165,-0.14,-2.73,1.19,0.15,1.00,-0.02
0.0,0.0,0.0,0.0,0.0,0.0,0.0,6424,9947.70,0,0,0,-17.85,-2.80,0.98,0.15,1.00,-0.02
0.0,0.0,0.0,0.0,0.0,0.0,0.0,6440,9946.80,0,0,165,0.35,-2.87,0.70,0.15,1.00,-0.02
0.0,0.0,0.0,0.0,0.0,0.0,0.0,6454,9946.80,0,0,0,0.70,-2.94,0.00,0.15,1.00,-0.02
0.0,0.0,0.0,0.0,0.0,0.0,0.0,6462,9947.70,0,0,165,0.98,-2.94,-0.42,0.15,1.00,-0.02
0.0,0.0,0.0,0.0,0.0,0.0,0.0,6477,9946.80,0,0,0,1.19,-2.94,-0.84,0.15,1.00,-0.02
0.0,0.0,0.0,0.0,0.0,0.0,0.0,6491,9946.80,0,0,165,1.33,-3.08,-0.84,0.15,1.00,-0.03
0.0,0.0,0.0,0.0,0.0,0.0,0.0,6499,9947.70,0,0,0,1.12,-3.08,-0.91,0.15,1.00,-0.03
0.0,0.0,0.0,0.0,0.0,0.0,0.0,6514,9946.80,0,0,165,0.91,-2.80,-0.56,0.15,1.00,-0.03
0.0,0.0,0.0,0.0,0.0,0.0,0.0,6530,9948.70,0,0,0,0.91,-2.87,-0.42,0.15,1.00,-0.03
0.0,0.0,0.0,0.0,0.0,0.0,0.0,6538,9947.70,0,0,165,0.63,-3.08,0.00,0.15,1.00,-0.02
0.0,0.0,0.0,0.0,0.0,0.0,0.0,6551,9946.80,0,0,0,0.49,-3.01,0.49,0.15,1.00,-0.02
0.0,0.0,0.0,0.0,0.0,0.0,0.0,6566,9947.70,0,0,165,0.56,-2.80,0.35,0.15,1.00,-0.02
0.0,0.0,0.0,0.0,0.0,0.0,0.0,6574,9948.70,0,0,0,0.42,-2.94,0.91,0.15,1.00,-0.02
0.0,0.0,0.0,0.0,0.0,0.0,0.0,6589,9946.80,0,0,165,-0.07,-2.87,1.26,0.15,1.00,-0.02
0.0,0.0,0.0,0.0,0.0,0.0,0.0,6604,9946.80,0,0,0,-0.14,-2.87,1.54,0.15,1.00,-0.02
0.0,0.0,0.0,0.0,0.0,0.0,0.0,6612,9947.70,0,0,165,0.00,-2.80,1.12,0.15,1.00,-0.02
0.0,0.0,0.0,0.0,0.0,0.0,0.0,6627,9947.70,0,0,0,0.28,-2.80,0.84,0.15,1.00,-0.02
0.0,0.0,0.0,0.0,0.0,0.0,0.0,6642,9948.70,0,0,165,0.42,-2.94,0.56,0.15,1.00,-0.02
0.0,0.0,0.0,0.0,0.0,0.0,0.0,6649,9947.10,0,0,0,0.56,-2.94,0.14,0.15,1.00,-0.02
0.0,0.0,0.0,0.0,0.0,0.0,0.0,6664,9947.70,0,0,165,0.70,-2.80,0.21,0.15,1.00,-0.02
0.0,0.0,0.0,0.0,0.0,0.0,0.0,6679,9946.80,0,0,0,0.77,-3.01,-0.28,0.15,1.00,-0.02
0.0,0.0,0.0,0.0,0.0,0.0,0.0,6687,9948.10,0,0,165,0.98,-2.94,-0.42,0.15,1.00,-0.02
0.0,0.0,0.0,0.0,0.0,0.0,0.0,6701,9946.80,0,0,0,1.05,-3.01,-0.42,0.15,1.00,-0.02
0.0,0.0,0.0,0.0,0.0,0.0,0.0,6716,9948.10,0,0,165,0.98,-3.01,-0.07,0.15,1.00,-0.02
0.0,0.0,0.0,0.0,0.0,0.0,0.0,6724,9946.80,0,0,0,0.49,-3.01,0.21,0.15,1.00,-0.02
0.0,0.0,0.0,0.0,0.0,0.0,0.0,6740,9946.80,0,0,165,0.56,-2.94,0.14,0.15,1.00,-0.02
0.0,0.0,0.0,0.0,0.0,0.0,0.0,6755,9948.10,0,0,0,0.84,-2.94,-0.21,0.15,1.00,-0.02
0.0,0.0,0.0,0.0,0.0,0.0,0.0,6762,9947.10,0,0,165,0.84,-2.87,0.00,0.15,1.00,-0.03
0.0,0.0,0.0,0.0,0.0,0.0,0.0,6777,9946.80,0,0,0,0.63,-2.80,0.28,0.15,1.00,-0.02
0.0,0.0,0.0,0.0,0.0,0.0,0.0,6791,9947.70,0,0,165,0.49,-2.87,0.35,0.15,1.00,-0.02
0.0,0.0,0.0,0.0,0.0,0.0,0.0,6799,9946.80,0,0,0,0.49,-2.94,0.35,0.15,1.00,-0.02
0.0,0.0,0.0,0.0,0.0,0.0,0.0,6815,9947.70,0,0,165,0.56,-2.87,0.28,0.15,1.00,-0.02
0.0,0.0,0.0,0.0,0.0,0.0,0.0,6829,9947.70,0,0,0,0.35,-2.94,0.63,0.15,1.00,-0.02
0.0,0.0,0.0,0.0,0.0,0.0,0.0,6837,9947.10,0,0,165,0.42,-2.87,0.21,0.15,1.00,-0.02
0.0,0.0,0.0,0.0,0.0,0.0,0.0,6851,9947.10,0,0,0,0.49,-2.87,0.21,0.15,1.00,-0.02
0.0,0.0,0.0,0.0,0.0,0.0,0.0,6866,9947.10,0,0,165,0.42,-3.01,0.35,0.15,1.00,-0.02
0.0,0.0,0.0,0.0,0.0,0.0,0.0,6875,9946.80,0,0,0,0.49,-2.94,0.28,0.15,1.00,-0.02
0.0,0.0,0.0,0.0,0.0,0.0,0.0,6889,9946.80,0,0,165,1.61,-3.85,-0.35,0.16,1.04,-0.03
0.0,0.0,0.0,0.0,0.0,0.0,0.0,6904,9947.10,0,0,0,0.14,-2.17,1.26,0.15,1.02,-0.02
0.14746094,-0.005439453,4.2822957E-4,0.0103670405,0.16,1.0,-0.01,16924,9947.50,0,0,0,0.21,-2.87,0.91,0.16,1.00,-0.01
-0.45214844,-0.005439453,0.0014282279,0.00836704,0.16,1.0,-0.01,16939,9946.90,0,0,165,0.21,-2.80,0.77,0.16,1.00,-0.01
0.44726562,-0.0014394522,-0.0015717745,-0.0026329597,0.17,0.99,-0.01,16956,9947.80,0,0,0,0.49,-3.01,0.00,0.17,0.99,-0.01
0.44726562,0.005560548,0.0044282265,-0.0056329593,0.16,1.0,-0.01,16961,9947.80,0,0,165,0.98,-2.59,-0.21,0.16,1.00,-0.01
-0.45214844,0.0025605476,-0.0055717714,-0.0016329597,0.16,1.0,-0.02,16977,9946.90,0,0,0,0.77,-3.29,0.07,0.16,1.00,-0.02
-0.45214844,0.004560548,0.0034282245,-0.01063296,0.16,0.99,-0.01,16992,9946.90,0,0,165,0.91,-2.66,-0.56,0.16,0.99,-0.01
-0.7529297,0.004560548,-0.0035717748,-0.0076329596,0.16,1.0,-0.01,16999,9946.60,0,0,0,0.91,-3.15,-0.35,0.16,1.00,-0.01
0.44726562,0.0065605473,-0.0015717745,-0.0126329595,0.16,1.0,-0.01,17014,9947.80,0,0,165,1.05,-3.01,-0.70,0.16,1.00,-0.01
-0.7529297,0.0075605484,0.0014282279,-0.01363296,0.16,0.99,-0.01,17029,9946.60,0,0,0,1.12,-2.80,-0.77,0.16,0.99,-0.01
0.44726562,0.0075605484,-0.004571773,-0.014632959,0.17,1.0,-0.02,17035,9947.80,0,0,165,1.12,-3.22,-0.84,0.17,1.00,-0.02
-0.45214844,0.004560548,4.2822957E-4,-0.00863296,0.16,0.99,-0.01,17051,9946.90,0,0,0,0.91,-2.87,-0.42,0.16,0.99,-0.01
0.44726562,0.0065605473,-0.0035717748,-0.0126329595,0.16,1.0,-0.02,17067,9947.80,0,0,165,1.05,-3.15,-0.70,0.16,1.00,-0.02
0.44726562,0.0065605473,-0.0015717745,-0.00863296,0.16,0.99,-0.01,17078,9947.80,0,0,0,1.05,-3.01,-0.42,0.16,0.99,-0.01
0.44726562,0.005560548,-5.7177246E-4,-0.0076329596,0.16,1.0,-0.02,17089,9947.80,0,0,165,0.98,-2.94,-0.35,0.16,1.00,-0.02
0.44726562,0.005560548,0.0014282279,-0.00663296,0.16,1.0,-0.01,17107,9947.80,0,0,0,0.98,-2.80,-0.28,0.16,1.00,-0.01
0.44726562,-4.39452E-4,-0.0035717748,-0.00363296,0.16,1.0,-0.02,17112,9947.80,0,0,165,0.56,-3.15,-0.07,0.16,1.00,-0.02
-0.45214844,0.004560548,0.0024282262,-0.00363296,0.16,1.0,-0.02,17128,9946.90,0,0,0,0.91,-2.73,-0.07,0.16,1.00,-0.02
-0.45214844,-0.0024394528,-0.0055717714,3.6704005E-4,0.16,0.99,-0.02,17144,9946.90,0,0,165,0.42,-3.29,0.21,0.16,0.99,-0.02
0.44726562,-0.0014394522,0.008428227,3.6704005E-4,0.16,0.99,-0.02,17149,9947.80,0,0,0,0.49,-2.31,0.21,0.16,0.99,-0.02
-0.45214844,-0.0024394528,-0.009571772,0.00636704,0.16,0.99,-0.02,17164,9946.90,0,0,165,0.42,-3.57,0.63,0.16,0.99,-0.02
0.44726562,0.004560548,0.010428226,-0.00663296,0.16,1.0,-0.01,17178,9947.80,0,0,0,0.91,-2.17,-0.28,0.16,1.00,-0.01
0.44726562,-0.007439452,-0.0015717745,0.01836704,0.16,0.99,-0.01,17186,9947.80,0,0,165,0.07,-3.01,1.47,0.16,0.99,-0.01
0.44726562,0.0015605474,4.2822957E-4,3.6704005E-4,0.17,1.0,-0.02,17202,9947.80,0,0,0,0.70,-2.87,0.21,0.17,1.00,-0.02
0.44726562,-0.0034394525,0.007428225,0.0033670398,0.16,1.0,-0.01,17217,9947.80,0,0,165,0.35,-2.38,0.42,0.16,1.00,-0.01
-0.45214844,-0.017439451,-0.008571774,0.020367041,0.16,0.99,-0.01,17227,9946.90,0,0,0,-0.63,-3.50,1.61,0.16,0.99,-0.01
0.44726562,0.004560548,0.010428226,-0.00863296,0.17,1.01,-0.02,17239,9947.80,0,0,165,0.91,-2.17,-0.42,0.17,1.01,-0.02
-0.45214844,-0.014439452,-0.0075717755,0.01836704,0.16,0.99,-0.01,17254,9946.90,0,0,0,-0.42,-3.43,1.47,0.16,0.99,-0.01
0.44726562,-0.0014394522,0.0034282245,0.0023670401,0.16,1.0,-0.02,17261,9947.80,0,0,165,0.49,-2.66,0.35,0.16,1.00,-0.02
0.44726562,-0.006439452,-0.0015717745,0.01236704,0.16,0.99,-0.01,17279,9947.80,0,0,0,0.14,-3.01,1.05,0.16,0.99,-0.01
0.44726562,-0.0034394525,-0.0055717714,0.0103670405,0.17,1.0,-0.02,17294,9947.80,0,0,165,0.35,-3.29,0.91,0.17,1.00,-0.02
-0.45214844,0.0035605468,0.016428227,-6.3295965E-4,0.16,1.0,-0.01,17304,9946.90,0,0,0,0.84,-1.75,0.14,0.16,1.00,-0.01
-0.45214844,-0.011439452,-0.016571771,0.022367042,0.17,1.0,-0.02,17315,9946.90,0,0,165,-0.21,-4.06,1.75,0.17,1.00,-0.02
-0.45214844,0.0075605484,0.017428229,-0.011632959,0.17,1.0,-0.01,17329,9946.90,0,0,0,1.12,-1.68,-0.63,0.17,1.00,-0.01
-0.45214844,-0.009439453,-0.011571772,0.01836704,0.16,0.99,-0.02,17337,9946.90,0,0,165,-0.07,-3.71,1.47,0.16,0.99,-0.02
-0.45214844,0.008560549,0.010428226,-0.011632959,0.17,1.0,-0.02,17351,9946.90,0,0,0,1.19,-2.17,-0.63,0.17,1.00,-0.02
-0.45214844,-0.0014394522,-0.0035717748,0.0023670401,0.16,0.99,-0.01,17366,9946.90,0,0,165,0.49,-3.15,0.35,0.16,0.99,-0.01
0.44726562,-0.0024394528,-5.7177246E-4,0.0013670404,0.17,1.0,-0.02,17374,9947.80,0,0,0,0.42,-2.94,0.28,0.17,1.00,-0.02
-0.45214844,0.0035605468,0.0044282265,-0.0016329597,0.16,0.99,-0.01,17388,9946.90,0,0,165,0.84,-2.59,0.07,0.16,0.99,-0.01
-0.45214844,-0.004439452,-5.7177246E-4,0.00636704,0.17,1.0,-0.02,17403,9946.90,0,0,0,0.28,-2.94,0.63,0.17,1.00,-0.02
-0.15234375,5.605472E-4,0.0054282285,3.6704005E-4,0.16,1.0,-0.02,17411,9947.20,0,0,165,0.63,-2.52,0.21,0.16,1.00,-0.02
-0.45214844,-0.0014394522,-0.0075717755,0.0043670405,0.17,1.0,-0.01,17426,9946.90,0,0,0,0.49,-3.43,0.49,0.17,1.00,-0.01
-1.4521484,0.0065605473,0.009428225,-0.0126329595,0.16,1.0,-0.01,17442,9945.90,0,0,165,1.05,-2.24,-0.70,0.16,1.00,-0.01
-0.45214844,-0.007439452,-0.0055717714,0.0103670405,0.16,0.99,-0.01,17449,9946.90,0,0,0,0.07,-3.29,0.91,0.16,0.99,-0.01
-0.45214844,0.0065605473,0.0054282285,-0.015632961,0.17,1.0,-0.02,17464,9946.90,0,0,165,1.05,-2.52,-0.91,0.17,1.00,-0.02
0.44726562,0.0025605476,0.0014282279,-0.00463296,0.16,1.0,-0.01,17478,9947.80,0,0,0,0.77,-2.80,-0.14,0.16,1.00,-0.01
-0.45214844,-0.008439452,-0.009571772,0.00636704,0.17,0.99,-0.02,17486,9946.90,0,0,165,0.00,-3.57,0.63,0.17,0.99,-0.02
0.44726562,0.0075605484,0.012428228,-0.00463296,0.16,1.0,-0.02,17501,9947.80,0,0,0,1.12,-2.03,-0.14,0.16,1.00,-0.02
-0.45214844,-0.014439452,-0.014571775,0.02136704,0.17,0.99,-0.02,17516,9946.90,0,0,165,-0.42,-3.92,1.68,0.17,0.99,-0.02
0.44726562,0.0075605484,0.011428228,-0.01763296,0.17,1.01,-0.01,17524,9947.80,0,0,0,1.12,-2.10,-1.05,0.17,1.01,-0.01
0.44726562,-0.005439453,-0.0075717755,0.00736704,0.16,0.98,-0.01,17538,9947.80,0,0,165,0.21,-3.43,0.70,0.16,0.98,-0.01
0.84765625,0.0065605473,0.007428225,-0.01663296,0.17,1.01,-0.02,17553,9948.20,0,0,0,1.05,-2.38,-0.98,0.17,1.01,-0.02
-0.45214844,0.005560548,4.2822957E-4,3.6704005E-4,0.16,1.0,-0.01,17561,9946.90,0,0,165,0.98,-2.87,0.21,0.16,1.00,-0.01
0.44726562,-0.0014394522,-5.7177246E-4,-0.00463296,0.17,1.0,-0.01,17577,9947.80,0,0,0,0.49,-2.94,-0.14,0.17,1.00,-0.01
-0.45214844,0.014560548,0.008428227,-0.02263296,0.16,1.0,-0.01,17591,9946.90,0,0,165,1.61,-2.31,-1.40,0.16,1.00,-0.01
-0.45214844,-0.008439452,-0.016571771,0.009367039,0.16,0.99,-0.02,17598,9946.90,0,0,0,0.00,-4.06,0.84,0.16,0.99,-0.02
0.44726562,0.012560547,0.012428228,-0.01763296,0.17,1.0,-0.01,17614,9947.80,0,0,165,1.47,-2.03,-1.05,0.17,1.00,-0.01
-0.45214844,-0.009439453,-0.017571773,0.01636704,0.16,0.99,-0.02,17628,9946.90,0,0,0,-0.07,-4.13,1.33,0.16,0.99,-0.02
0.84765625,0.0025605476,0.009428225,-0.00663296,0.16,1.0,-0.02,17636,9948.20,0,0,165,0.77,-2.24,-0.28,0.16,1.00,-0.02
-0.45214844,0.009560547,-0.008571774,-0.00663296,0.16,0.99,-0.01,17651,9946.90,0,0,0,1.26,-3.50,-0.28,0.16,0.99,-0.01
1.7470703,0.005560548,0.0014282279,-0.015632961,0.17,1.0,-0.02,17666,9949.10,0,0,165,0.98,-2.80,-0.91,0.17,1.00,-0.02
-0.45214844,5.605472E-4,0.0024282262,-0.0056329593,0.16,0.99,-0.01,17674,9946.90,0,0,0,0.63,-2.73,-0.21,0.16,0.99,-0.01
0.44726562,0.0015605474,-0.004571773,-0.0076329596,0.17,1.0,-0.02,17688,9947.80,0,0,165,0.70,-3.22,-0.35,0.17,1.00,-0.02
-0.45214844,0.0135605475,0.006428227,-0.021632962,0.16,1.0,-0.01,17703,9946.90,0,0,0,1.54,-2.45,-1.33,0.16,1.00,-0.01
-0.15234375,-4.39452E-4,-0.009571772,-0.00463296,0.16,0.99,-0.02,17711,9947.20,0,0,165,0.56,-3.57,-0.14,0.16,0.99,-0.02
-0.45214844,0.0135605475,0.0034282245,-0.02763296,0.16,1.0,-0.01,17727,9946.90,0,0,0,1.54,-2.66,-1.75,0.16,1.00,-0.01
-0.15234375,0.008560549,-0.009571772,-0.01363296,0.16,0.99,-0.02,17741,9947.20,0,0,165,1.19,-3.57,-0.77,0.16,0.99,-0.02
-0.15234375,0.0135605475,0.0044282265,-0.02463296,0.17,1.0,-0.02,17749,9947.20,0,0,0,1.54,-2.59,-1.54,0.17,1.00,-0.02
0.84765625,0.0075605484,-0.0055717714,-0.01763296,0.16,0.99,-0.02,17764,9948.20,0,0,165,1.12,-3.29,-1.05,0.16,0.99,-0.02
-0.15234375,0.009560547,-0.0015717745,-0.01363296,0.16,1.0,-0.02,17779,9947.20,0,0,0,1.26,-3.01,-0.77,0.16,1.00,-0.02
0.14746094,0.0025605476,-0.0015717745,-0.0056329593,0.16,0.99,-0.02,17786,9947.50,0,0,165,0.77,-3.01,-0.21,0.16,0.99,-0.02
-1.0527344,-4.39452E-4,0.0024282262,-6.3295965E-4,0.16,1.0,-0.02,17801,9946.30,0,0,0,0.56,-2.73,0.14,0.16,1.00,-0.02
-1.4521484,-0.0014394522,0.0024282262,0.0023670401,0.16,0.99,-0.01,17816,9945.90,0,0,165,0.49,-2.73,0.35,0.16,0.99,-0.01
1.7470703,0.0025605476,-0.0025717728,-0.0026329597,0.16,1.0,-0.02,17824,9949.10,0,0,0,0.77,-3.08,0.00,0.16,1.00,-0.02
0.44726562,-0.0014394522,0.0014282279,-0.0026329597,0.16,0.99,-0.01,17840,9947.80,0,0,165,0.49,-2.80,0.00,0.16,0.99,-0.01
0.44726562,-0.0024394528,-5.7177246E-4,-0.0016329597,0.16,1.0,-0.02,17854,9947.80,0,0,0,0.42,-2.94,0.07,0.16,1.00,-0.02
-0.15234375,0.0065605473,4.2822957E-4,-0.0056329593,0.16,1.0,-0.02,17861,9947.20,0,0,165,1.05,-2.87,-0.21,0.16,1.00,-0.02
-0.15234375,-0.005439453,0.0024282262,0.009367039,0.16,0.99,-0.01,17877,9947.20,0,0,0,0.21,-2.73,0.84,0.16,0.99,-0.01
-0.15234375,-0.0034394525,4.2822957E-4,0.00836704,0.16,1.0,-0.02,17891,9947.20,0,0,165,0.35,-2.87,0.77,0.16,1.00,-0.02
0.44726562,-0.0014394522,0.0034282245,0.00636704,0.16,1.0,-0.02,17899,9947.80,0,0,0,0.49,-2.66,0.63,0.16,1.00,-0.02
-0.15234375,-0.007439452,-0.0025717728,0.017367039,0.16,1.0,-0.02,17914,9947.20,0,0,165,0.07,-3.08,1.40,0.16,1.00,-0.02
-0.15234375,-0.006439452,0.0034282245,0.0053670406,0.16,0.99,-0.02,17929,9947.20,0,0,0,0.14,-2.66,0.56,0.16,0.99,-0.02
0.84765625,0.0015605474,-0.0025717728,-6.3295965E-4,0.16,1.0,-0.02,17936,9948.20,0,0,165,0.70,-3.08,0.14,0.16,1.00,-0.02
0.84765625,-0.0014394522,-5.7177246E-4,0.0053670406,0.16,1.0,-0.02,17951,9948.20,0,0,0,0.49,-2.94,0.56,0.16,1.00,-0.02
0.84765625,-0.0024394528,0.0024282262,0.0033670398,0.16,1.0,-0.02,17966,9948.20,0,0,165,0.42,-2.73,0.42,0.16,1.00,-0.02
-0.15234375,-0.0014394522,-0.0055717714,0.0023670401,0.16,1.0,-0.02,17974,9947.20,0,0,0,0.49,-3.29,0.35,0.16,1.00,-0.02
-0.15234375,0.0025605476,0.006428227,-0.0076329596,0.16,1.0,-0.02,17988,9947.20,0,0,165,0.77,-2.45,-0.35,0.16,1.00,-0.02
1.7470703,-0.0014394522,-0.008571774,-6.3295965E-4,0.16,0.99,-0.02,18004,9949.10,0,0,0,0.49,-3.50,0.14,0.16,0.99,-0.02
-0.15234375,0.009560547,0.006428227,-0.015632961,0.16,1.0,-0.02,18011,9947.20,0,0,165,1.26,-2.45,-0.91,0.16,1.00,-0.02
-1.4521484,0.0025605476,-0.0065717697,-0.0026329597,0.16,0.99,-0.02,18027,9945.90,0,0,0,0.77,-3.36,0.00,0.16,0.99,-0.02
-0.15234375,0.0075605484,0.0024282262,-0.015632961,0.16,1.0,-0.02,18041,9947.20,0,0,165,1.12,-2.73,-0.91,0.16,1.00,-0.02
-2.352539,0.0065605473,-0.0035717748,-0.0076329596,0.16,0.99,-0.02,18048,9945.00,0,0,0,1.05,-3.15,-0.35,0.16,0.99,-0.02
0.44726562,0.0035605468,-5.7177246E-4,-0.00663296,0.16,1.0,-0.02,18064,9947.80,0,0,165,0.84,-2.94,-0.28,0.16,1.00,-0.02
-0.15234375,0.008560549,-0.0015717745,-0.01063296,0.16,1.0,-0.01,18079,9947.20,0,0,0,1.19,-3.01,-0.56,0.16,1.00,-0.01
-0.15234375,0.0035605468,-0.0015717745,-0.0076329596,0.16,1.0,-0.02,18086,9947.20,0,0,165,0.84,-3.01,-0.35,0.16,1.00,-0.02
-0.15234375,0.0075605484,-5.7177246E-4,-0.015632961,0.16,1.0,-0.02,18101,9947.20,0,0,0,1.12,-2.94,-0.91,0.16,1.00,-0.02
-0.15234375,0.005560548,-5.7177246E-4,-0.00963296,0.16,1.0,-0.01,18116,9947.20,0,0,165,0.98,-2.94,-0.49,0.16,1.00,-0.01
-0.15234375,0.004560548,-0.0015717745,-0.00963296,0.16,1.0,-0.02,18124,9947.20,0,0,0,0.91,-3.01,-0.49,0.16,1.00,-0.02
-0.15234375,0.0065605473,0.0014282279,-0.00863296,0.16,1.0,-0.02,18139,9947.20,0,0,165,1.05,-2.80,-0.42,0.16,1.00,-0.02
-0.15234375,0.004560548,-0.0065717697,-0.0056329593,0.16,1.0,-0.01,18154,9947.20,0,0,0,0.91,-3.36,-0.21,0.16,1.00,-0.01
-0.15234375,0.008560549,0.0054282285,-0.01063296,0.16,1.0,-0.02,18162,9947.20,0,0,165,1.19,-2.52,-0.56,0.16,1.00,-0.02
-0.15234375,5.605472E-4,-0.004571773,3.6704005E-4,0.16,1.0,-0.02,18177,9947.20,0,0,0,0.63,-3.22,0.21,0.16,1.00,-0.02
-0.15234375,0.004560548,0.0024282262,-0.01063296,0.16,1.0,-0.02,18191,9947.20,0,0,165,0.91,-2.73,-0.56,0.16,1.00,-0.02
-0.15234375,-4.39452E-4,4.2822957E-4,3.6704005E-4,0.16,0.99,-0.02,18199,9947.20,0,0,0,0.56,-2.87,0.21,0.16,0.99,-0.02
-0.15234375,0.0025605476,-5.7177246E-4,-6.3295965E-4,0.16,1.0,-0.02,18214,9947.20,0,0,165,0.77,-2.94,0.14,0.16,1.00,-0.02
0.84765625,0.0025605476,-5.7177246E-4,-0.0076329596,0.16,1.0,-0.01,18229,9948.20,0,0,0,0.77,-2.94,-0.35,0.16,1.00,-0.01
0.84765625,0.0015605474,-5.7177246E-4,-0.00363296,0.16,0.99,-0.02,18236,9948.20,0,0,165,0.70,-2.94,-0.07,0.16,0.99,-0.02
-0.15234375,0.0065605473,-5.7177246E-4,-0.01063296,0.16,1.0,-0.02,18251,9947.20,0,0,0,1.05,-2.94,-0.56,0.16,1.00,-0.02
0.84765625,0.0075605484,-0.0035717748,-0.0126329595,0.16,0.99,-0.01,18267,9948.20,0,0,165,1.12,-3.15,-0.70,0.16,0.99,-0.01
-0.15234375,0.010560549,4.2822957E-4,-0.015632961,0.16,1.0,-0.02,18275,9947.20,0,0,0,1.33,-2.87,-0.91,0.16,1.00,-0.02
-0.15234375,0.0065605473,-0.0035717748,-0.01363296,0.16,1.0,-0.02,18289,9947.20,0,0,165,1.05,-3.15,-0.77,0.16,1.00,-0.02
-0.15234375,0.010560549,-5.7177246E-4,-0.01663296,0.16,1.0,-0.02,18304,9947.20,0,0,0,1.33,-2.94,-0.98,0.16,1.00,-0.02
0.14746094,0.0075605484,0.0014282279,-0.01363296,0.16,1.0,-0.02,18311,9947.50,0,0,165,1.12,-2.80,-0.77,0.16,1.00,-0.02
-0.15234375,-0.0034394525,-0.0035717748,0.0033670398,0.16,1.0,-0.02,18327,9947.20,0,0,0,0.35,-3.15,0.42,0.16,1.00,-0.02
-0.15234375,0.0025605476,4.2822957E-4,-0.0016329597,0.16,1.0,-0.02,18342,9947.20,0,0,165,0.77,-2.87,0.07,0.16,1.00,-0.02
1.7470703,-0.005439453,-5.7177246E-4,0.0103670405,0.16,0.99,-0.02,18349,9949.10,0,0,0,0.21,-2.94,0.91,0.16,0.99,-0.02
-0.15234375,-0.0014394522,-5.7177246E-4,0.0013670404,0.16,1.0,-0.02,18364,9947.20,0,0,165,0.49,-2.94,0.28,0.16,1.00,-0.02
0.14746094,0.0025605476,0.0024282262,-0.00463296,0.16,0.99,-0.02,18378,9947.50,0,0,0,0.77,-2.73,-0.14,0.16,0.99,-0.02
0.84765625,0.005560548,-0.0015717745,-0.01063296,0.16,1.0,-0.02,18386,9948.20,0,0,165,0.98,-3.01,-0.56,0.16,1.00,-0.02
-0.15234375,0.0065605473,4.2822957E-4,-0.01063296,0.16,1.0,-0.02,18401,9947.20,0,0,0,1.05,-2.87,-0.56,0.16,1.00,-0.02
-0.15234375,-0.0014394522,-0.0025717728,-6.3295965E-4,0.16,0.99,-0.02,18417,9947.20,0,0,165,0.49,-3.08,0.14,0.16,0.99,-0.02
-0.15234375,-0.0034394525,0.0044282265,0.009367039,0.16,1.0,-0.02,18427,9947.20,0,0,0,0.35,-2.59,0.84,0.16,1.00,-0.02
0.84765625,-0.019439451,-0.0015717745,0.03136704,0.16,1.0,-0.02,18439,9948.20,0,0,165,-0.77,-3.01,2.38,0.16,1.00,-0.02
0.84765625,-0.017439451,0.0044282265,0.02536704,0.16,1.0,-0.02,18454,9948.20,0,0,0,-0.63,-2.59,1.96,0.16,1.00,-0.02
0.14746094,-0.014439452,0.0014282279,0.02336704,0.16,1.0,-0.02,18461,9947.50,0,0,165,-0.42,-2.80,1.82,0.16,1.00,-0.02
-0.45214844,-0.008439452,0.0034282245,0.01636704,0.16,1.0,-0.02,18478,9946.90,0,0,0,0.00,-2.66,1.33,0.16,1.00,-0.02
-0.15234375,-0.004439452,4.2822957E-4,0.009367039,0.16,1.0,-0.02,18493,9947.20,0,0,165,0.28,-2.87,0.84,0.16,1.00,-0.02
-0.15234375,-0.004439452,4.2822957E-4,0.00636704,0.16,1.0,-0.02,18499,9947.20,0,0,0,0.28,-2.87,0.63,0.16,1.00,-0.02
0.14746094,-4.39452E-4,0.0014282279,0.0023670401,0.16,1.0,-0.02,18514,9947.50,0,0,165,0.56,-2.80,0.35,0.16,1.00,-0.02
-0.7529297,-0.0014394522,0.0024282262,3.6704005E-4,0.16,1.0,-0.02,18530,9946.60,0,0,0,0.49,-2.73,0.21,0.16,1.00,-0.02
-0.15234375,-0.0034394525,-0.0015717745,0.00736704,0.16,1.0,-0.02,18536,9947.20,0,0,165,0.35,-3.01,0.70,0.16,1.00,-0.02
-0.7529297,-0.008439452,0.0024282262,0.01236704,0.16,1.0,-0.02,18551,9946.60,0,0,0,0.00,-2.73,1.05,0.16,1.00,-0.02
0.14746094,-0.007439452,0.0014282279,0.011367041,0.16,1.0,-0.02,18566,9947.50,0,0,165,0.07,-2.80,0.98,0.16,1.00,-0.02
-0.15234375,-0.0014394522,0.0024282262,0.0013670404,0.16,1.0,-0.01,18573,9947.20,0,0,0,0.49,-2.73,0.28,0.16,1.00,-0.01
0.14746094,0.0035605468,-0.0025717728,-0.011632959,0.16,0.99,-0.01,18588,9947.50,0,0,165,0.84,-3.08,-0.63,0.16,0.99,-0.01
0.14746094,0.012560547,-5.7177246E-4,-0.02063296,0.16,1.0,-0.01,18604,9947.50,0,0,0,1.47,-2.94,-1.26,0.16,1.00,-0.01
-0.15234375,0.014560548,-0.0035717748,-0.025632959,0.16,1.0,-0.02,18611,9947.20,0,0,165,1.61,-3.15,-1.61,0.16,1.00,-0.02
0.14746094,0.018560547,-0.0025717728,-0.03263296,0.16,1.0,-0.01,18627,9947.50,0,0,0,1.89,-3.08,-2.10,0.16,1.00,-0.01
-1.0527344,0.02356055,-0.0055717714,-0.04263296,0.16,1.0,-0.02,18641,9946.30,0,0,165,2.24,-3.29,-2.80,0.16,1.00,-0.02
-0.15234375,0.027560547,-0.0025717728,-0.047632962,0.16,1.0,-0.02,18649,9947.20,0,0,0,2.52,-3.08,-3.15,0.16,1.00,-0.02
-1.0527344,0.02356055,-0.0075717755,-0.040632963,0.16,1.0,-0.02,18664,9946.30,0,0,165,2.24,-3.43,-2.66,0.16,1.00,-0.02
-0.15234375,0.018560547,-0.0035717748,-0.03263296,0.16,1.0,-0.02,18678,9947.20,0,0,0,1.89,-3.15,-2.10,0.16,1.00,-0.02
-0.7529297,0.020560548,-0.0035717748,-0.03263296,0.16,1.0,-0.02,18686,9946.60,0,0,165,2.03,-3.15,-2.10,0.16,1.00,-0.02
-0.15234375,0.021560546,-0.0055717714,-0.03863296,0.16,1.0,-0.02,18701,9947.20,0,0,0,2.10,-3.29,-2.52,0.16,1.00,-0.02
-1.0527344,0.02556055,-0.004571773,-0.04163296,0.16,1.0,-0.02,18716,9946.30,0,0,165,2.38,-3.22,-2.73,0.16,1.00,-0.02
-0.7529297,0.02356055,-0.0055717714,-0.036632963,0.16,1.0,-0.02,18724,9946.60,0,0,0,2.24,-3.29,-2.38,0.16,1.00,-0.02
-0.7529297,0.01756055,-0.0025717728,-0.02763296,0.16,1.0,-0.02,18738,9946.60,0,0,165,1.82,-3.08,-1.75,0.16,1.00,-0.02
-0.15234375,0.005560548,-0.0025717728,-0.011632959,0.16,1.0,-0.02,18754,9947.20,0,0,0,0.98,-3.08,-0.63,0.16,1.00,-0.02
0.14746094,-0.004439452,0.0014282279,0.009367039,0.15,1.0,-0.02,18761,9947.50,0,0,165,0.28,-2.80,0.84,0.15,1.00,-0.02
-0.15234375,-0.015439453,4.2822957E-4,0.028367043,0.16,1.0,-0.02,18777,9947.20,0,0,0,-0.49,-2.87,2.17,0.16,1.00,-0.02
-0.7529297,-0.020439452,0.006428227,0.03636704,0.16,1.0,-0.02,18791,9946.60,0,0,165,-0.84,-2.45,2.73,0.16,1.00,-0.02
-0.15234375,-0.029439453,0.0044282265,0.05136704,0.16,1.0,-0.02,18798,9947.20,0,0,0,-1.47,-2.59,3.78,0.16,1.00,-0.02
-0.15234375,-0.03243945,0.006428227,0.057367038,0.16,1.0,-0.02,18814,9947.20,0,0,165,-1.68,-2.45,4.20,0.16,1.00,-0.02
1.1474609,-0.033439454,0.0054282285,0.057367038,0.16,1.0,-0.02,18828,9948.50,0,0,0,-1.75,-2.52,4.20,0.16,1.00,-0.02
0.14746094,-0.029439453,0.006428227,0.05236704,0.16,1.0,-0.01,18836,9947.50,0,0,165,-1.47,-2.45,3.85,0.16,1.00,-0.01
-0.7529297,-0.024439454,0.0034282245,0.038367037,0.16,1.0,-0.02,18850,9946.60,0,0,0,-1.12,-2.66,2.87,0.16,1.00,-0.02
0.14746094,-0.022439454,0.0054282285,0.03636704,0.16,1.0,-0.01,18866,9947.50,0,0,165,-0.98,-2.52,2.73,0.16,1.00,-0.01
-1.0527344,-0.025439452,0.0054282285,0.044367038,0.16,1.0,-0.01,18874,9946.30,0,0,0,-1.19,-2.52,3.29,0.16,1.00,-0.01
-0.7529297,-0.029439453,0.006428227,0.05036704,0.16,1.0,-0.01,18888,9946.60,0,0,165,-1.47,-2.45,3.71,0.16,1.00,-0.01
2.0478516,-0.02643945,0.0044282265,0.038367037,0.16,1.0,-0.01,18904,9949.40,0,0,0,-1.26,-2.59,2.87,0.16,1.00,-0.01
0.14746094,-0.012439452,0.0034282245,0.024367042,0.16,0.99,-0.01,18911,9947.50,0,0,165,-0.28,-2.66,1.89,0.16,0.99,-0.01
-1.7529297,-0.0024394528,4.2822957E-4,0.0053670406,0.17,1.0,-0.02,18927,9945.60,0,0,0,0.42,-2.87,0.56,0.17,1.00,-0.02
0.14746094,0.004560548,-5.7177246E-4,-0.00863296,0.16,1.0,-0.01,18941,9947.50,0,0,165,0.91,-2.94,-0.42,0.16,1.00,-0.01
0.14746094,0.010560549,-0.0015717745,-0.02263296,0.16,0.99,-0.01,18948,9947.50,0,0,0,1.33,-3.01,-1.40,0.16,0.99,-0.01
1.1474609,0.020560548,-0.0025717728,-0.036632963,0.16,1.0,-0.01,18963,9948.50,0,0,165,2.03,-3.08,-2.38,0.16,1.00,-0.01
0.14746094,0.024560548,-0.004571773,-0.040632963,0.16,1.0,-0.02,18979,9947.50,0,0,0,2.31,-3.22,-2.66,0.16,1.00,-0.02
0.14746094,0.02356055,-0.0055717714,-0.04463296,0.16,1.0,-0.02,18986,9947.50,0,0,165,2.24,-3.29,-2.94,0.16,1.00,-0.02
-0.7529297,0.026560549,-0.004571773,-0.045632962,0.16,1.0,-0.02,19001,9946.60,0,0,0,2.45,-3.22,-3.01,0.16,1.00,-0.02
0.14746094,0.033560548,-0.0055717714,-0.05563296,0.16,1.0,-0.02,19016,9947.50,0,0,165,2.94,-3.29,-3.71,0.16,1.00,-0.02
-0.7529297,0.033560548,-0.0055717714,-0.056632962,0.16,1.0,-0.02,19024,9946.60,0,0,0,2.94,-3.29,-3.78,0.16,1.00,-0.02
0.14746094,0.03056055,-0.0065717697,-0.050632957,0.16,1.0,-0.02,19038,9947.50,0,0,165,2.73,-3.36,-3.36,0.16,1.00,-0.02
0.14746094,0.027560547,-0.0055717714,-0.03763296,0.16,1.0,-0.02,19054,9947.50,0,0,0,2.52,-3.29,-2.45,0.16,1.00,-0.02
0.14746094,0.02356055,-0.0035717748,-0.03763296,0.16,1.0,-0.02,19061,9947.50,0,0,165,2.24,-3.15,-2.45,0.16,1.00,-0.02
-0.7529297,0.02556055,-0.0055717714,-0.04663296,0.16,1.0,-0.02,19077,9946.60,0,0,0,2.38,-3.29,-3.08,0.16,1.00,-0.02
0.14746094,0.029560551,-0.004571773,-0.045632962,0.15,1.0,-0.02,19092,9947.50,0,0,165,2.66,-3.22,-3.01,0.15,1.00,-0.02
-0.7529297,0.016560547,-0.004571773,-0.030632962,0.15,1.0,-0.02,19098,9946.60,0,0,0,1.75,-3.22,-1.96,0.15,1.00,-0.02
0.14746094,0.004560548,-5.7177246E-4,-0.00463296,0.15,1.0,-0.02,19113,9947.50,0,0,165,0.91,-2.94,-0.14,0.15,1.00,-0.02
-0.7529297,-0.004439452,0.0014282279,0.011367041,0.15,1.0,-0.02,19128,9946.60,0,0,0,0.28,-2.80,0.98,0.15,1.00,-0.02
-0.7529297,-0.010439453,0.0014282279,0.022367042,0.15,1.0,-0.02,19136,9946.60,0,0,165,-0.14,-2.80,1.75,0.15,1.00,-0.02
1.1474609,-0.017439451,0.0024282262,0.03136704,0.16,1.0,-0.02,19151,9948.50,0,0,0,-0.63,-2.73,2.38,0.16,1.00,-0.02
0.14746094,-0.02643945,0.006428227,0.05036704,0.16,1.0,-0.02,19166,9947.50,0,0,165,-1.26,-2.45,3.71,0.16,1.00,-0.02
0.14746094,-0.029439453,0.0034282245,0.05036704,0.16,1.0,-0.02,19174,9947.50,0,0,0,-1.47,-2.66,3.71,0.16,1.00,-0.02
0.14746094,-0.02643945,0.007428225,0.04736704,0.16,1.0,-0.02,19188,9947.50,0,0,165,-1.26,-2.38,3.50,0.16,1.00,-0.02
1.1474609,-0.029439453,0.0034282245,0.04736704,0.16,1.0,-0.02,19204,9948.50,0,0,0,-1.47,-2.66,3.50,0.16,1.00,-0.02
0.14746094,-0.028439451,0.009428225,0.04836704,0.16,1.0,-0.02,19211,9947.50,0,0,165,-1.40,-2.24,3.57,0.16,1.00,-0.02
0.14746094,-0.033439454,0.0024282262,0.05436704,0.16,0.99,-0.02,19227,9947.50,0,0,0,-1.75,-2.73,3.99,0.16,0.99,-0.02
0.54785156,-0.024439454,0.007428225,0.044367038,0.16,1.0,-0.02,19241,9947.90,0,0,165,-1.12,-2.38,3.29,0.16,1.00,-0.02
0.14746094,-0.018439453,0.0044282265,0.03136704,0.16,0.99,-0.02,19249,9947.50,0,0,0,-0.70,-2.59,2.38,0.16,0.99,-0.02
0.14746094,-0.015439453,0.0014282279,0.024367042,0.17,1.0,-0.02,19264,9947.50,0,0,165,-0.49,-2.80,1.89,0.17,1.00,-0.02
-0.7529297,-0.006439452,0.0024282262,0.0103670405,0.16,1.0,-0.01,19279,9946.60,0,0,0,0.14,-2.73,0.91,0.16,1.00,-0.01
0.14746094,-0.0034394525,-0.0035717748,0.0053670406,0.16,0.99,-0.01,19287,9947.50,0,0,165,0.35,-3.15,0.56,0.16,0.99,-0.01
0.14746094,0.0065605473,4.2822957E-4,-0.01363296,0.16,1.0,-0.02,19301,9947.50,0,0,0,1.05,-2.87,-0.77,0.16,1.00,-0.02
0.14746094,0.011560547,-0.0025717728,-0.01863296,0.16,0.99,-0.01,19316,9947.50,0,0,165,1.40,-3.08,-1.12,0.16,0.99,-0.01
0.14746094,0.015560546,-0.0025717728,-0.02463296,0.16,1.0,-0.01,19324,9947.50,0,0,0,1.68,-3.08,-1.54,0.16,1.00,-0.01
0.14746094,0.020560548,-0.0035717748,-0.02963296,0.16,1.0,-0.02,19338,9947.50,0,0,165,2.03,-3.15,-1.89,0.16,1.00,-0.02
-0.7529297,0.020560548,-0.004571773,-0.034632962,0.16,1.0,-0.02,19354,9946.60,0,0,0,2.03,-3.22,-2.24,0.16,1.00,-0.02
0.14746094,0.022560548,-0.0025717728,-0.040632963,0.16,1.0,-0.02,19361,9947.50,0,0,165,2.17,-3.08,-2.66,0.16,1.00,-0.02
0.14746094,0.01756055,-0.0035717748,-0.028632961,0.16,1.0,-0.02,19377,9947.50,0,0,0,1.82,-3.15,-1.82,0.16,1.00,-0.02
0.54785156,0.014560548,-0.0015717745,-0.023632959,0.16,1.0,-0.02,19391,9947.90,0,0,165,1.61,-3.01,-1.47,0.16,1.00,-0.02
-0.7529297,0.010560549,4.2822957E-4,-0.01663296,0.16,1.0,-0.02,19399,9946.60,0,0,0,1.33,-2.87,-0.98,0.16,1.00,-0.02
0.14746094,0.0035605468,-5.7177246E-4,-0.00463296,0.16,1.0,-0.02,19413,9947.50,0,0,165,0.84,-2.94,-0.14,0.16,1.00,-0.02
0.14746094,5.605472E-4,0.0014282279,-6.3295965E-4,0.16,1.0,-0.02,19428,9947.50,0,0,0,0.63,-2.80,0.14,0.16,1.00,-0.02
-0.45214844,5.605472E-4,4.2822957E-4,3.6704005E-4,0.16,1.0,-0.02,19436,9946.90,0,0,165,0.63,-2.87,0.21,0.16,1.00,-0.02
0.14746094,5.605472E-4,-5.7177246E-4,-6.3295965E-4,0.16,1.0,-0.02,19451,9947.50,0,0,0,0.63,-2.94,0.14,0.16,1.00,-0.02
-0.7529297,-0.007439452,0.0024282262,0.0153670395,0.16,1.0,-0.02,19466,9946.60,0,0,165,0.07,-2.73,1.26,0.16,1.00,-0.02
-1.7529297,-0.021439452,-5.7177246E-4,0.03236704,0.16,1.0,-0.02,19473,9945.60,0,0,0,-0.91,-2.94,2.45,0.16,1.00,-0.02
-0.7529297,-0.020439452,0.0034282245,0.03436704,0.16,1.0,-0.02,19488,9946.60,0,0,165,-0.84,-2.66,2.59,0.16,1.00,-0.02
-0.7529297,-0.021439452,0.0044282265,0.03936704,0.16,1.0,-0.02,19504,9946.60,0,0,0,-0.91,-2.59,2.94,0.16,1.00,-0.02
0.14746094,-0.025439452,0.0044282265,0.044367038,0.16,0.99,-0.02,19511,9947.50,0,0,165,-1.19,-2.59,3.29,0.16,0.99,-0.02
-0.45214844,-0.027439453,0.0054282285,0.04736704,0.16,1.0,-0.02,19526,9946.90,0,0,0,-1.33,-2.52,3.50,0.16,1.00,-0.02
0.14746094,-0.027439453,0.0054282285,0.044367038,0.16,1.0,-0.01,19541,9947.50,0,0,165,-1.33,-2.52,3.29,0.16,1.00,-0.01
-0.7529297,-0.024439454,0.0054282285,0.03736704,0.16,1.0,-0.01,19549,9946.60,0,0,0,-1.12,-2.52,2.80,0.16,1.00,-0.01
0.54785156,-0.019439451,0.0014282279,0.033367038,0.16,0.99,-0.01,19564,9947.90,0,0,165,-0.77,-2.80,2.52,0.16,0.99,-0.01
0.14746094,-0.013439452,0.0024282262,0.017367039,0.16,1.0,-0.02,19579,9947.50,0,0,0,-0.35,-2.73,1.40,0.16,1.00,-0.02
0.54785156,-0.005439453,0.0014282279,0.00636704,0.16,0.99,-0.01,19586,9947.90,0,0,165,0.21,-2.80,0.63,0.16,0.99,-0.01
0.14746094,5.605472E-4,4.2822957E-4,-0.0026329597,0.17,0.99,-0.01,19601,9947.50,0,0,0,0.63,-2.87,0.00,0.17,0.99,-0.01
-0.45214844,0.0025605476,4.2822957E-4,-0.0076329596,0.17,0.99,-0.01,19616,9946.90,0,0,165,0.77,-2.87,-0.35,0.17,0.99,-0.01
0.54785156,0.0075605484,-0.0015717745,-0.01763296,0.17,1.0,-0.01,19624,9947.90,0,0,0,1.12,-3.01,-1.05,0.17,1.00,-0.01
0.14746094,0.012560547,4.2822957E-4,-0.021632962,0.16,1.0,-0.01,19639,9947.50,0,0,165,1.47,-2.87,-1.33,0.16,1.00,-0.01
0.54785156,0.014560548,-0.0055717714,-0.023632959,0.16,0.99,-0.01,19654,9947.90,0,0,0,1.61,-3.29,-1.47,0.16,0.99,-0.01
0.54785156,0.020560548,-0.0035717748,-0.03263296,0.16,0.99,-0.02,19661,9947.90,0,0,165,2.03,-3.15,-2.10,0.16,0.99,-0.02
-1.7529297,0.029560551,-0.0025717728,-0.047632962,0.17,1.02,-0.02,19677,9945.60,0,0,0,2.66,-3.08,-3.15,0.17,1.02,-0.02
-0.7529297,0.008560549,0.007428225,-0.014632959,0.16,0.99,-0.01,19691,9946.60,0,0,165,1.19,-2.38,-0.84,0.16,0.99,-0.01
-0.45214844,0.005560548,-0.008571774,-0.011632959,0.16,1.0,-0.02,19699,9946.90,0,0,0,0.98,-3.50,-0.63,0.16,1.00,-0.02
-0.45214844,0.016560547,0.008428227,-0.02763296,0.16,1.0,-0.02,19714,9946.90,0,0,165,1.75,-2.31,-1.75,0.16,1.00,-0.02
-0.45214844,-0.010439453,-0.0065717697,0.011367041,0.16,0.98,-0.02,19728,9946.90,0,0,0,-0.14,-3.36,0.98,0.16,0.98,-0.02
-0.45214844,0.0065605473,0.0024282262,-0.0126329595,0.16,1.0,-0.02,19736,9946.90,0,0,165,1.05,-2.73,-0.70,0.16,1.00,-0.02
-0.45214844,-0.0014394522,0.0014282279,0.0103670405,0.16,0.99,-0.02,19751,9946.90,0,0,0,0.49,-2.80,0.91,0.16,0.99,-0.02
0.14746094,-0.014439452,-0.0015717745,0.017367039,0.16,1.0,-0.02,19766,9947.50,0,0,165,-0.42,-3.01,1.40,0.16,1.00,-0.02
0.54785156,-0.0024394528,0.0034282245,0.00636704,0.16,1.0,-0.01,19773,9947.90,0,0,0,0.42,-2.66,0.63,0.16,1.00,-0.01
-0.7529297,-0.011439452,-0.0015717745,0.022367042,0.16,1.0,-0.02,19788,9946.60,0,0,165,-0.21,-3.01,1.75,0.16,1.00,-0.02
0.54785156,-0.012439452,0.0034282245,0.01836704,0.16,1.0,-0.01,19804,9947.90,0,0,0,-0.28,-2.66,1.47,0.16,1.00,-0.01
1.4472656,-0.008439452,-0.0015717745,0.009367039,0.16,0.99,-0.02,19811,9948.80,0,0,165,0.00,-3.01,0.84,0.16,0.99,-0.02
-0.45214844,0.0035605468,0.0054282285,-0.0056329593,0.17,1.0,-0.01,19827,9946.90,0,0,0,0.84,-2.52,-0.21,0.17,1.00,-0.01
0.54785156,-0.008439452,-0.0025717728,0.014367041,0.16,1.0,-0.01,19842,9947.90,0,0,165,0.00,-3.08,1.19,0.16,1.00,-0.01
-0.45214844,-0.0034394525,4.2822957E-4,0.0023670401,0.17,1.0,-0.01,19848,9946.90,0,0,0,0.35,-2.87,0.35,0.17,1.00,-0.01
0.54785156,0.0035605468,0.0024282262,-0.0026329597,0.16,1.0,-0.02,19863,9947.90,0,0,165,0.84,-2.73,0.00,0.16,1.00,-0.02
-0.45214844,-0.006439452,-0.0015717745,0.00836704,0.16,1.0,-0.02,19879,9946.90,0,0,0,0.14,-3.01,0.77,0.16,1.00,-0.02
-0.45214844,-4.39452E-4,0.0024282262,3.6704005E-4,0.16,1.0,-0.02,19886,9946.90,0,0,165,0.56,-2.73,0.21,0.16,1.00,-0.02
-0.45214844,-4.39452E-4,-0.0015717745,0.0023670401,0.16,1.0,-0.01,19901,9946.90,0,0,0,0.56,-3.01,0.35,0.16,1.00,-0.01
0.54785156,0.0015605474,-0.0015717745,-0.00463296,0.16,1.0,-0.01,19916,9947.90,0,0,165,0.70,-3.01,-0.14,0.16,1.00,-0.01
-0.45214844,0.010560549,-5.7177246E-4,-0.01763296,0.16,1.0,-0.01,19924,9946.90,0,0,0,1.33,-2.94,-1.05,0.16,1.00,-0.01
0.54785156,0.0135605475,-0.0015717745,-0.02063296,0.16,1.0,-0.01,19938,9947.90,0,0,165,1.54,-3.01,-1.26,0.16,1.00,-0.01
-0.45214844,0.0075605484,-0.0025717728,-0.014632959,0.16,1.0,-0.01,19954,9946.90,0,0,0,1.12,-3.08,-0.84,0.16,1.00,-0.01
0.54785156,0.009560547,-0.0025717728,-0.015632961,0.16,1.0,-0.02,19961,9947.90,0,0,165,1.26,-3.08,-0.91,0.16,1.00,-0.02
0.54785156,0.012560547,-5.7177246E-4,-0.01663296,0.16,1.0,-0.01,19976,9947.90,0,0,0,1.47,-2.94,-0.98,0.16,1.00,-0.01
0.54785156,0.008560549,-0.004571773,-0.011632959,0.16,1.0,-0.02,19992,9947.90,0,0,165,1.19,-3.22,-0.63,0.16,1.00,-0.02
-0.45214844,0.009560547,4.2822957E-4,-0.01363296,0.16,1.0,-0.02,19998,9946.90,0,0,0,1.26,-2.87,-0.77,0.16,1.00,-0.02
0.54785156,0.005560548,4.2822957E-4,-0.01063296,0.16,1.0,-0.02,20014,9947.90,0,0,165,0.98,-2.87,-0.56,0.16,1.00,-0.02
-0.45214844,5.605472E-4,-0.0015717745,-0.0016329597,0.16,1.0,-0.02,20029,9946.90,0,0,0,0.63,-3.01,0.07,0.16,1.00,-0.02
-0.45214844,5.605472E-4,4.2822957E-4,-0.00363296,0.16,1.0,-0.02,20036,9946.90,0,0,165,0.63,-2.87,-0.07,0.16,1.00,-0.02
-1.3525391,-0.0024394528,0.0014282279,0.0053670406,0.16,1.0,-0.01,20051,9946.00,0,0,0,0.42,-2.80,0.56,0.16,1.00,-0.01
0.54785156,-0.004439452,-5.7177246E-4,0.0103670405,0.16,0.99,-0.01,20059,9947.90,0,0,165,0.28,-2.94,0.91,0.16,0.99,-0.01
1.4472656,-0.004439452,0.0034282245,0.009367039,0.16,1.0,-0.02,20074,9948.80,0,0,0,0.28,-2.66,0.84,0.16,1.00,-0.02
-0.45214844,-0.004439452,4.2822957E-4,0.009367039,0.16,1.0,-0.01,20088,9946.90,0,0,165,0.28,-2.87,0.84,0.16,1.00,-0.01
-0.45214844,-0.006439452,0.0014282279,0.0103670405,0.16,1.0,-0.02,20096,9946.90,0,0,0,0.14,-2.80,0.91,0.16,1.00,-0.02
0.14746094,-0.004439452,0.0014282279,0.013367041,0.16,1.0,-0.02,20111,9947.50,0,0,165,0.28,-2.80,1.12,0.16,1.00,-0.02
0.54785156,-0.005439453,0.0024282262,0.01236704,0.16,1.0,-0.02,20126,9947.90,0,0,0,0.21,-2.73,1.05,0.16,1.00,-0.02
0.54785156,-0.006439452,0.0014282279,0.01236704,0.16,1.0,-0.02,20133,9947.90,0,0,165,0.14,-2.80,1.05,0.16,1.00,-0.02
-0.45214844,-0.007439452,0.0024282262,0.013367041,0.16,1.0,-0.02,20148,9946.90,0,0,0,0.07,-2.73,1.12,0.16,1.00,-0.02
-0.45214844,-0.006439452,0.0014282279,0.013367041,0.16,1.0,-0.01,20164,9946.90,0,0,165,0.14,-2.80,1.12,0.16,1.00,-0.01
-0.45214844,-0.005439453,0.0014282279,0.009367039,0.16,1.0,-0.01,20171,9946.90,0,0,0,0.21,-2.80,0.84,0.16,1.00,-0.01
-1.3525391,-0.0034394525,4.2822957E-4,0.0043670405,0.16,1.0,-0.01,20186,9946.00,0,0,165,0.35,-2.87,0.49,0.16,1.00,-0.01
-0.45214844,-0.0024394528,4.2822957E-4,0.0023670401,0.16,1.0,-0.01,20200,9946.90,0,0,0,0.42,-2.87,0.35,0.16,1.00,-0.01
-0.45214844,-4.39452E-4,4.2822957E-4,-6.3295965E-4,0.16,1.0,-0.02,20209,9946.90,0,0,165,0.56,-2.87,0.14,0.16,1.00,-0.02
0.54785156,0.0015605474,-0.0015717745,-0.0016329597,0.16,1.0,-0.02,20224,9947.90,0,0,0,0.70,-3.01,0.07,0.16,1.00,-0.02
-0.45214844,0.004560548,-5.7177246E-4,-0.01063296,0.16,1.0,-0.02,20239,9946.90,0,0,165,0.91,-2.94,-0.56,0.16,1.00,-0.02
-0.45214844,0.004560548,-0.0015717745,-0.00663296,0.16,1.0,-0.01,20246,9946.90,0,0,0,0.91,-3.01,-0.28,0.16,1.00,-0.01
-0.45214844,0.0035605468,-0.0015717745,-0.00863296,0.16,1.0,-0.02,20260,9946.90,0,0,165,0.84,-3.01,-0.42,0.16,1.00,-0.02
0.84765625,0.0035605468,-5.7177246E-4,-0.0016329597,0.16,1.0,-0.02,20276,9948.20,0,0,0,0.84,-2.94,0.07,0.16,1.00,-0.02
-0.45214844,5.605472E-4,4.2822957E-4,-6.3295965E-4,0.16,0.99,-0.01,20283,9946.90,0,0,165,0.63,-2.87,0.14,0.16,0.99,-0.01
-0.45214844,0.0025605476,-5.7177246E-4,-0.00463296,0.16,1.0,-0.02,20299,9946.90,0,0,0,0.77,-2.94,-0.14,0.16,1.00,-0.02
0.54785156,0.0025605476,-0.0015717745,-0.0056329593,0.16,1.0,-0.01,20315,9947.90,0,0,165,0.77,-3.01,-0.21,0.16,1.00,-0.01
-0.45214844,0.0035605468,4.2822957E-4,-0.00363296,0.16,1.0,-0.01,20321,9946.90,0,0,0,0.84,-2.87,-0.07,0.16,1.00,-0.01
-0.45214844,0.0015605474,-5.7177246E-4,-0.0056329593,0.16,1.0,-0.01,20336,9946.90,0,0,165,0.70,-2.94,-0.21,0.16,1.00,-0.01
-0.45214844,0.0015605474,-5.7177246E-4,-0.00463296,0.16,1.0,-0.02,20350,9946.90,0,0,0,0.70,-2.94,-0.14,0.16,1.00,-0.02
0.54785156,0.0015605474,4.2822957E-4,-0.00363296,0.16,1.0,-0.02,20358,9947.90,0,0,165,0.70,-2.87,-0.07,0.16,1.00,-0.02
-1.3525391,-0.0014394522,-5.7177246E-4,0.0023670401,0.16,1.0,-0.02,20373,9946.00,0,0,0,0.49,-2.94,0.35,0.16,1.00,-0.02
0.84765625,-0.0024394528,4.2822957E-4,0.00636704,0.16,1.0,-0.02,20389,9948.20,0,0,165,0.42,-2.87,0.63,0.16,1.00,-0.02
1.7470703,-0.005439453,0.0014282279,0.0053670406,0.16,1.0,-0.02,20396,9949.10,0,0,0,0.21,-2.80,0.56,0.16,1.00,-0.02
0.54785156,-0.007439452,4.2822957E-4,0.0103670405,0.16,1.0,-0.02,20410,9947.90,0,0,165,0.07,-2.87,0.91,0.16,1.00,-0.02
-1.3525391,-0.008439452,4.2822957E-4,0.011367041,0.16,1.0,-0.01,20427,9946.00,0,0,0,0.00,-2.87,0.98,0.16,1.00,-0.01
-0.15234375,-0.004439452,0.0024282262,0.011367041,0.16,1.0,-0.02,20434,9947.20,0,0,165,0.28,-2.73,0.98,0.16,1.00,-0.02
-0.15234375,-0.006439452,4.2822957E-4,0.011367041,0.16,1.0,-0.01,20448,9947.20,0,0,0,0.14,-2.87,0.98,0.16,1.00,-0.01
0.54785156,-0.005439453,4.2822957E-4,0.00736704,0.16,1.0,-0.01,20456,9947.90,0,0,165,0.21,-2.87,0.70,0.16,1.00,-0.01
0.54785156,-0.004439452,4.2822957E-4,0.00636704,0.16,1.0,-0.01,20471,9947.90,0,0,0,0.28,-2.87,0.63,0.16,1.00,-0.01
-0.45214844,-0.004439452,4.2822957E-4,0.0103670405,0.16,1.0,-0.01,20486,9946.90,0,0,165,0.28,-2.87,0.91,0.16,1.00,-0.01
-0.45214844,-0.006439452,0.0024282262,0.00836704,0.16,1.0,-0.02,20494,9946.90,0,0,0,0.14,-2.73,0.77,0.16,1.00,-0.02
-0.45214844,-0.005439453,0.0014282279,0.0103670405,0.17,1.0,-0.01,20508,9946.90,0,0,165,0.21,-2.80,0.91,0.17,1.00,-0.01
0.54785156,-0.005439453,0.0014282279,0.009367039,0.17,1.0,-0.01,20524,9947.90,0,0,0,0.21,-2.80,0.84,0.17,1.00,-0.01
-0.15234375,-0.0034394525,0.0014282279,0.00736704,0.16,1.0,-0.02,20531,9947.20,0,0,165,0.35,-2.80,0.70,0.16,1.00,-0.02
-0.45214844,-0.004439452,4.2822957E-4,0.00636704,0.16,1.0,-0.01,20546,9946.90,0,0,0,0.28,-2.87,0.63,0.16,1.00,-0.01
-0.45214844,-0.0024394528,-5.7177246E-4,0.0033670398,0.16,1.0,-0.01,20561,9946.90,0,0,165,0.42,-2.94,0.42,0.16,1.00,-0.01
0.54785156,5.605472E-4,-5.7177246E-4,-0.0026329597,0.16,1.0,-0.01,20568,9947.90,0,0,0,0.63,-2.94,0.00,0.16,1.00,-0.01
-0.45214844,0.0015605474,4.2822957E-4,-0.00463296,0.16,1.0,-0.02,20584,9946.90,0,0,165,0.70,-2.87,-0.14,0.16,1.00,-0.02
0.84765625,0.0015605474,4.2822957E-4,-0.00363296,0.16,1.0,-0.01,20598,9948.20,0,0,0,0.70,-2.87,-0.07,0.16,1.00,-0.01
-0.15234375,0.0025605476,0.0014282279,-0.0016329597,0.16,1.0,-0.02,20606,9947.20,0,0,165,0.77,-2.80,0.07,0.16,1.00,-0.02
-0.45214844,-4.39452E-4,-5.7177246E-4,-6.3295965E-4,0.17,1.0,-0.01,20621,9946.90,0,0,0,0.56,-2.94,0.14,0.17,1.00,-0.01
-0.15234375,0.004560548,-5.7177246E-4,-0.00463296,0.16,1.0,-0.01,20636,9947.20,0,0,165,0.91,-2.94,-0.14,0.16,1.00,-0.01
-2.0527344,0.005560548,-5.7177246E-4,-0.00663296,0.16,1.0,-0.01,20644,9945.30,0,0,0,0.98,-2.94,-0.28,0.16,1.00,-0.01
-0.15234375,0.0035605468,-0.0015717745,-0.00463296,0.16,1.0,-0.01,20659,9947.20,0,0,165,0.84,-3.01,-0.14,0.16,1.00,-0.01
0.54785156,0.0035605468,-5.7177246E-4,-0.0026329597,0.16,1.0,-0.01,20674,9947.90,0,0,0,0.84,-2.94,0.00,0.16,1.00,-0.01
-0.15234375,5.605472E-4,4.2822957E-4,-0.0056329593,0.16,1.0,-0.01,20681,9947.20,0,0,165,0.63,-2.87,-0.21,0.16,1.00,-0.01
-0.15234375,0.005560548,-0.0025717728,-0.00663296,0.16,0.99,-0.01,20696,9947.20,0,0,0,0.98,-3.08,-0.28,0.16,0.99,-0.01
-1.0527344,0.008560549,4.2822957E-4,-0.014632959,0.16,1.0,-0.01,20711,9946.30,0,0,165,1.19,-2.87,-0.84,0.16,1.00,-0.01
-0.45214844,0.0025605476,-5.7177246E-4,-0.00463296,0.16,1.0,-0.02,20718,9946.90,0,0,0,0.77,-2.94,-0.14,0.16,1.00,-0.02
-0.15234375,-4.39452E-4,-5.7177246E-4,0.0023670401,0.16,1.0,-0.02,20734,9947.20,0,0,165,0.56,-2.94,0.35,0.16,1.00,-0.02
-0.15234375,0.004560548,-5.7177246E-4,-0.01063296,0.16,0.99,-0.01,20748,9947.20,0,0,0,0.91,-2.94,-0.56,0.16,0.99,-0.01
-0.15234375,0.010560549,4.2822957E-4,-0.01763296,0.16,1.0,-0.02,20756,9947.20,0,0,165,1.33,-2.87,-1.05,0.16,1.00,-0.02
-0.15234375,0.004560548,-0.0015717745,-0.011632959,0.16,1.0,-0.02,20770,9947.20,0,0,0,0.91,-3.01,-0.63,0.16,1.00,-0.02
-0.15234375,0.0075605484,-0.0015717745,-0.011632959,0.16,1.0,-0.01,20785,9947.20,0,0,165,1.12,-3.01,-0.63,0.16,1.00,-0.01
-2.0527344,0.009560547,-5.7177246E-4,-0.01863296,0.16,1.0,-0.02,20794,9945.30,0,0,0,1.26,-2.94,-1.12,0.16,1.00,-0.02
-0.15234375,0.010560549,-0.0015717745,-0.01663296,0.16,0.99,-0.02,20816,9947.20,0,0,165,1.33,-3.01,-0.98,0.16,0.99,-0.02
-0.15234375,0.0075605484,-0.0015717745,-0.01363296,0.16,1.0,-0.02,20823,9947.20,0,0,0,1.12,-3.01,-0.77,0.16,1.00,-0.02
-0.15234375,-4.39452E-4,-0.0015717745,-0.0016329597,0.16,1.0,-0.02,20831,9947.20,0,0,165,0.56,-3.01,0.07,0.16,1.00,-0.02
-0.15234375,-0.004439452,-5.7177246E-4,0.00636704,0.16,1.0,-0.02,20846,9947.20,0,0,0,0.28,-2.94,0.63,0.16,1.00,-0.02
-0.15234375,-0.0034394525,0.0014282279,0.0033670398,0.16,1.0,-0.02,20854,9947.20,0,0,165,0.35,-2.80,0.42,0.16,1.00,-0.02
-0.15234375,-0.0024394528,4.2822957E-4,0.00736704,0.16,1.0,-0.02,20868,9947.20,0,0,0,0.42,-2.87,0.70,0.16,1.00,-0.02
-0.15234375,-0.004439452,0.0014282279,0.00836704,0.16,1.0,-0.02,20884,9947.20,0,0,165,0.28,-2.80,0.77,0.16,1.00,-0.02
-0.15234375,-0.005439453,4.2822957E-4,0.00836704,0.16,1.0,-0.02,20891,9947.20,0,0,0,0.21,-2.87,0.77,0.16,1.00,-0.02
-0.15234375,-0.006439452,4.2822957E-4,0.01236704,0.16,1.0,-0.02,20906,9947.20,0,0,165,0.14,-2.87,1.05,0.16,1.00,-0.02
-0.15234375,-0.006439452,0.0024282262,0.01636704,0.16,1.0,-0.02,20921,9947.20,0,0,0,0.14,-2.73,1.33,0.16,1.00,-0.02
-0.15234375,-0.012439452,0.0034282245,0.01936704,0.16,1.0,-0.02,20928,9947.20,0,0,165,-0.28,-2.66,1.54,0.16,1.00,-0.02
-0.15234375,-0.011439452,4.2822957E-4,0.020367041,0.16,1.0,-0.02,20943,9947.20,0,0,0,-0.21,-2.87,1.61,0.16,1.00,-0.02
-0.15234375,-0.008439452,4.2822957E-4,0.01236704,0.17,1.0,-0.01,20958,9947.20,0,0,165,0.00,-2.87,1.05,0.17,1.00,-0.01
-0.15234375,-0.005439453,0.0024282262,0.00836704,0.16,0.99,-0.02,20966,9947.20,0,0,0,0.21,-2.73,0.77,0.16,0.99,-0.02
0.84765625,-0.005439453,0.0014282279,0.009367039,0.16,1.0,-0.01,20981,9948.20,0,0,165,0.21,-2.80,0.84,0.16,1.00,-0.01
-0.15234375,-0.006439452,4.2822957E-4,0.00636704,0.16,0.99,-0.01,20996,9947.20,0,0,0,0.14,-2.87,0.63,0.16,0.99,-0.01
0.24707031,-0.0034394525,4.2822957E-4,0.0053670406,0.16,1.0,-0.01,21004,9947.60,0,0,165,0.35,-2.87,0.56,0.16,1.00,-0.01
-0.15234375,-0.0024394528,4.2822957E-4,0.00636704,0.17,1.0,-0.01,21018,9947.20,0,0,0,0.42,-2.87,0.63,0.17,1.00,-0.01
-0.15234375,-4.39452E-4,0.0014282279,0.0013670404,0.17,1.0,-0.02,21033,9947.20,0,0,165,0.56,-2.80,0.28,0.17,1.00,-0.02
-0.15234375,5.605472E-4,4.2822957E-4,3.6704005E-4,0.17,1.0,-0.01,21041,9947.20,0,0,0,0.63,-2.87,0.21,0.17,1.00,-0.01
-0.15234375,0.0015605474,4.2822957E-4,-0.0026329597,0.16,1.0,-0.02,21056,9947.20,0,0,165,0.70,-2.87,0.00,0.16,1.00,-0.02
-0.15234375,0.004560548,-5.7177246E-4,-0.0076329596,0.17,1.0,-0.01,21071,9947.20,0,0,0,0.91,-2.94,-0.35,0.17,1.00,-0.01
-0.15234375,0.0015605474,-0.0015717745,-0.0056329593,0.16,1.0,-0.01,21079,9947.20,0,0,165,0.70,-3.01,-0.21,0.16,1.00,-0.01
-0.15234375,0.0025605476,4.2822957E-4,-0.0056329593,0.16,1.0,-0.02,21094,9947.20,0,0,0,0.77,-2.87,-0.21,0.16,1.00,-0.02
0.84765625,0.0035605468,-5.7177246E-4,-0.0076329596,0.17,1.0,-0.01,21109,9948.20,0,0,165,0.84,-2.94,-0.35,0.17,1.00,-0.01
-0.15234375,0.0035605468,-0.0025717728,-0.0076329596,0.17,1.0,-0.01,21116,9947.20,0,0,0,0.84,-3.08,-0.35,0.17,1.00,-0.01
0.84765625,0.0025605476,-0.0015717745,-0.0056329593,0.16,1.0,-0.01,21131,9948.20,0,0,165,0.77,-3.01,-0.21,0.16,1.00,-0.01
0.84765625,0.0035605468,-0.0015717745,-0.00863296,0.16,0.99,-0.01,21147,9948.20,0,0,0,0.84,-3.01,-0.42,0.16,0.99,-0.01
0.84765625,0.0035605468,-5.7177246E-4,-0.00663296,0.16,0.99,-0.01,21154,9948.20,0,0,165,0.84,-2.94,-0.28,0.16,0.99,-0.01
-0.15234375,0.0035605468,-5.7177246E-4,-0.00363296,0.16,1.0,-0.02,21168,9947.20,0,0,0,0.84,-2.94,-0.07,0.16,1.00,-0.02
-0.15234375,0.0025605476,4.2822957E-4,-0.0016329597,0.17,1.0,-0.02,21184,9947.20,0,0,165,0.77,-2.87,0.07,0.17,1.00,-0.02
-1.0527344,-4.39452E-4,-5.7177246E-4,-0.0016329597,0.16,0.99,-0.01,21191,9946.30,0,0,0,0.56,-2.94,0.07,0.16,0.99,-0.01
0.24707031,0.0025605476,4.2822957E-4,-0.0016329597,0.16,1.0,-0.02,21206,9947.60,0,0,165,0.77,-2.87,0.07,0.16,1.00,-0.02
-0.15234375,-4.39452E-4,0.0024282262,0.0053670406,0.16,1.0,-0.02,21221,9947.20,0,0,0,0.56,-2.73,0.56,0.16,1.00,-0.02
-0.15234375,-0.0024394528,-0.004571773,0.0033670398,0.16,0.99,-0.01,21229,9947.20,0,0,165,0.42,-3.22,0.42,0.16,0.99,-0.01
0.84765625,0.0025605476,0.0054282285,-0.00363296,0.16,1.0,-0.02,21243,9948.20,0,0,0,0.77,-2.52,-0.07,0.16,1.00,-0.02
0.84765625,-0.008439452,-0.0025717728,0.013367041,0.17,0.99,-0.01,21258,9948.20,0,0,165,0.00,-3.08,1.12,0.17,0.99,-0.01
-0.15234375,-0.004439452,-0.0015717745,0.0013670404,0.17,0.99,-0.02,21266,9947.20,0,0,0,0.28,-3.01,0.28,0.17,0.99,-0.02
-0.15234375,0.004560548,4.2822957E-4,-0.01063296,0.16,0.99,-0.02,21281,9947.20,0,0,165,0.91,-2.87,-0.56,0.16,0.99,-0.02
-0.15234375,-4.39452E-4,4.2822957E-4,0.0043670405,0.16,1.0,-0.02,21296,9947.20,0,0,0,0.56,-2.87,0.49,0.16,1.00,-0.02
-0.15234375,-0.005439453,-0.0015717745,0.00736704,0.16,1.0,-0.02,21303,9947.20,0,0,165,0.21,-3.01,0.70,0.16,1.00,-0.02
-0.45214844,-0.0014394522,4.2822957E-4,0.0043670405,0.16,0.99,-0.02,21319,9946.90,0,0,0,0.49,-2.87,0.49,0.16,0.99,-0.02
-0.15234375,5.605472E-4,4.2822957E-4,-0.0016329597,0.16,1.0,-0.02,21333,9947.20,0,0,165,0.63,-2.87,0.07,0.16,1.00,-0.02
-0.15234375,5.605472E-4,-5.7177246E-4,-0.0026329597,0.16,1.0,-0.01,21340,9947.20,0,0,0,0.63,-2.94,0.00,0.16,1.00,-0.01
-0.15234375,5.605472E-4,4.2822957E-4,3.6704005E-4,0.16,1.0,-0.01,21358,9947.20,0,0,165,0.63,-2.87,0.21,0.16,1.00,-0.01
-0.15234375,-0.0014394522,-0.0025717728,3.6704005E-4,0.16,1.0,-0.01,21371,9947.20,0,0,0,0.49,-3.08,0.21,0.16,1.00,-0.01
-1.0527344,0.0035605468,-5.7177246E-4,-0.011632959,0.17,1.0,-0.02,21378,9946.30,0,0,165,0.84,-2.94,-0.63,0.17,1.00,-0.02
1.1474609,0.0065605473,-5.7177246E-4,-0.0126329595,0.16,1.0,-0.01,21394,9948.50,0,0,0,1.05,-2.94,-0.70,0.16,1.00,-0.01
-1.0527344,0.0015605474,-0.0035717748,-0.00363296,0.16,1.0,-0.01,21409,9946.30,0,0,165,0.70,-3.15,-0.07,0.16,1.00,-0.01
-0.15234375,-4.39452E-4,-5.7177246E-4,-0.0026329597,0.16,1.0,-0.02,21416,9947.20,0,0,0,0.56,-2.94,0.00,0.16,1.00,-0.02
0.24707031,0.0035605468,4.2822957E-4,-0.00463296,0.16,1.0,-0.01,21431,9947.60,0,0,165,0.84,-2.87,-0.14,0.16,1.00,-0.01
-0.15234375,0.004560548,4.2822957E-4,-0.0076329596,0.16,0.99,-0.02,21446,9947.20,0,0,0,0.91,-2.87,-0.35,0.16,0.99,-0.02
0.24707031,0.005560548,-0.0015717745,-0.00863296,0.16,1.0,-0.02,21454,9947.60,0,0,165,0.98,-3.01,-0.42,0.16,1.00,-0.02
-0.7529297,0.0015605474,-5.7177246E-4,-0.0016329597,0.17,1.0,-0.01,21468,9946.60,0,0,0,0.70,-2.94,0.07,0.17,1.00,-0.01
0.24707031,0.0035605468,-0.0015717745,-0.00363296,0.17,1.0,-0.01,21484,9947.60,0,0,165,0.84,-3.01,-0.07,0.17,1.00,-0.01
0.24707031,0.0065605473,-5.7177246E-4,-0.0126329595,0.16,1.0,-0.02,21491,9947.60,0,0,0,1.05,-2.94,-0.70,0.16,1.00,-0.02
-0.15234375,0.0075605484,-0.0015717745,-0.01663296,0.16,0.99,-0.02,21507,9947.20,0,0,165,1.12,-3.01,-0.98,0.16,0.99,-0.02
-0.15234375,0.008560549,-0.0025717728,-0.011632959,0.16,1.0,-0.02,21521,9947.20,0,0,0,1.19,-3.08,-0.63,0.16,1.00,-0.02
-0.15234375,0.0065605473,-0.0015717745,-0.00863296,0.16,1.0,-0.01,21528,9947.20,0,0,165,1.05,-3.01,-0.42,0.16,1.00,-0.01
0.24707031,-4.39452E-4,-0.0015717745,-0.00363296,0.16,1.0,-0.02,21543,9947.60,0,0,0,0.56,-3.01,-0.07,0.16,1.00,-0.02
-1.0527344,0.0015605474,-5.7177246E-4,-0.0076329596,0.16,1.0,-0.01,21559,9946.30,0,0,165,0.70,-2.94,-0.35,0.16,1.00,-0.01
-0.15234375,0.0025605476,4.2822957E-4,-0.00663296,0.16,1.0,-0.02,21566,9947.20,0,0,0,0.77,-2.87,-0.28,0.16,1.00,-0.02
0.24707031,-0.0024394528,4.2822957E-4,0.00636704,0.16,1.0,-0.02,21581,9947.60,0,0,165,0.42,-2.87,0.63,0.16,1.00,-0.02
-0.15234375,-0.0024394528,-5.7177246E-4,0.0053670406,0.16,1.0,-0.02,21596,9947.20,0,0,0,0.42,-2.94,0.56,0.16,1.00,-0.02
0.24707031,0.0025605476,0.0014282279,-0.0056329593,0.16,0.99,-0.01,21604,9947.60,0,0,165,0.77,-2.80,-0.21,0.16,0.99,-0.01
-0.15234375,0.0035605468,4.2822957E-4,-0.0076329596,0.16,0.99,-0.02,21618,9947.20,0,0,0,0.84,-2.87,-0.35,0.16,0.99,-0.02
0.24707031,0.0015605474,4.2822957E-4,-0.0026329597,0.16,1.0,-0.02,21633,9947.60,0,0,165,0.70,-2.87,0.00,0.16,1.00,-0.02
-1.0527344,-0.0014394522,4.2822957E-4,0.0023670401,0.16,1.0,-0.02,21641,9946.30,0,0,0,0.49,-2.87,0.35,0.16,1.00,-0.02
-0.7529297,-0.0034394525,-5.7177246E-4,0.0043670405,0.16,0.99,-0.02,21655,9946.60,0,0,165,0.35,-2.94,0.49,0.16,0.99,-0.02
-0.15234375,0.0025605476,-5.7177246E-4,-0.0016329597,0.17,1.0,-0.01,21671,9947.20,0,0,0,0.77,-2.94,0.07,0.17,1.00,-0.01
0.24707031,0.004560548,-0.0015717745,-0.011632959,0.16,1.0,-0.02,21679,9947.60,0,0,165,0.91,-3.01,-0.63,0.16,1.00,-0.02
0.24707031,0.0065605473,-5.7177246E-4,-0.01363296,0.16,1.0,-0.02,21694,9947.60,0,0,0,1.05,-2.94,-0.77,0.16,1.00,-0.02
0.84765625,0.008560549,-0.0025717728,-0.01763296,0.16,0.99,-0.01,21709,9948.20,0,0,165,1.19,-3.08,-1.05,0.16,0.99,-0.01
0.24707031,0.016560547,-0.004571773,-0.028632961,0.16,0.99,-0.02,21716,9947.60,0,0,0,1.75,-3.22,-1.82,0.16,0.99,-0.02
0.24707031,0.020560548,4.2822957E-4,-0.03363296,0.16,1.0,-0.02,21731,9947.60,0,0,165,2.03,-2.87,-2.17,0.16,1.00,-0.02
0.24707031,0.008560549,-0.0035717748,-0.01863296,0.16,1.0,-0.01,21746,9947.60,0,0,0,1.19,-3.15,-1.12,0.16,1.00,-0.01
-0.7529297,5.605472E-4,-0.0025717728,-0.00663296,0.16,1.0,-0.02,21754,9946.60,0,0,165,0.63,-3.08,-0.28,0.16,1.00,-0.02
-1.0527344,0.0025605476,-5.7177246E-4,-0.00363296,0.16,1.0,-0.02,21768,9946.30,0,0,0,0.77,-2.94,-0.07,0.16,1.00,-0.02
0.24707031,5.605472E-4,-5.7177246E-4,-0.0026329597,0.16,0.99,-0.02,21783,9947.60,0,0,165,0.63,-2.94,0.00,0.16,0.99,-0.02
-0.15234375,5.605472E-4,4.2822957E-4,0.0013670404,0.16,1.0,-0.02,21791,9947.20,0,0,0,0.63,-2.87,0.28,0.16,1.00,-0.02
-0.7529297,-0.0034394525,4.2822957E-4,0.0053670406,0.16,1.0,-0.02,21807,9946.60,0,0,165,0.35,-2.87,0.56,0.16,1.00,-0.02
1.1474609,-0.004439452,0.0014282279,0.00836704,0.16,1.0,-0.02,21821,9948.50,0,0,0,0.28,-2.80,0.77,0.16,1.00,-0.02
-0.7529297,-0.0034394525,4.2822957E-4,0.0023670401,0.16,1.0,-0.02,21829,9946.60,0,0,165,0.35,-2.87,0.35,0.16,1.00,-0.02
0.24707031,-0.005439453,0.0034282245,0.00836704,0.16,1.0,-0.02,21844,9947.60,0,0,0,0.21,-2.66,0.77,0.16,1.00,-0.02
-0.7529297,-0.011439452,-5.7177246E-4,0.02336704,0.16,1.0,-0.02,21859,9946.60,0,0,165,-0.21,-2.94,1.82,0.16,1.00,-0.02
0.24707031,-0.011439452,4.2822957E-4,0.014367041,0.16,0.99,-0.02,21866,9947.60,0,0,0,-0.21,-2.87,1.19,0.16,0.99,-0.02
-0.15234375,-0.0034394525,0.0014282279,0.0043670405,0.16,1.0,-0.02,21881,9947.20,0,0,165,0.35,-2.80,0.49,0.16,1.00,-0.02
0.84765625,-0.006439452,0.0014282279,0.00836704,0.16,1.0,-0.01,21898,9948.20,0,0,0,0.14,-2.80,0.77,0.16,1.00,-0.01
0.24707031,-0.008439452,4.2822957E-4,0.014367041,0.16,1.0,-0.02,21903,9947.60,0,0,165,0.00,-2.87,1.19,0.16,1.00,-0.02
1.1474609,-0.008439452,4.2822957E-4,0.01236704,0.16,1.0,-0.02,21919,9948.50,0,0,0,0.00,-2.87,1.05,0.16,1.00,-0.02
-0.7529297,-0.004439452,4.2822957E-4,0.00836704,0.16,1.0,-0.02,21941,9946.60,0,0,165,0.28,-2.87,0.77,0.16,1.00,-0.02
0.24707031,-0.0034394525,-5.7177246E-4,0.00636704,0.16,1.0,-0.02,21942,9947.60,0,0,0,0.35,-2.94,0.63,0.16,1.00,-0.02
0.24707031,-0.004439452,4.2822957E-4,0.0043670405,0.16,1.0,-0.02,21957,9947.60,0,0,165,0.28,-2.87,0.49,0.16,1.00,-0.02
-0.7529297,-0.004439452,-5.7177246E-4,0.00636704,0.16,1.0,-0.02,21971,9946.60,0,0,0,0.28,-2.94,0.63,0.16,1.00,-0.02
-0.7529297,-0.0014394522,-5.7177246E-4,0.0023670401,0.16,1.0,-0.02,21979,9946.60,0,0,165,0.49,-2.94,0.35,0.16,1.00,-0.02
-0.7529297,0.0035605468,4.2822957E-4,-0.00363296,0.16,0.99,-0.01,21994,9946.60,0,0,0,0.84,-2.87,-0.07,0.16,0.99,-0.01
0.24707031,0.0015605474,-0.0015717745,-0.00363296,0.16,1.0,-0.02,22009,9947.60,0,0,165,0.70,-3.01,-0.07,0.16,1.00,-0.02
-0.7529297,5.605472E-4,4.2822957E-4,-0.0016329597,0.16,1.0,-0.02,22015,9946.60,0,0,0,0.63,-2.87,0.07,0.16,1.00,-0.02
0.24707031,-4.39452E-4,-5.7177246E-4,0.0033670398,0.16,1.0,-0.02,22030,9947.60,0,0,165,0.56,-2.94,0.42,0.16,1.00,-0.02
-0.7529297,0.0015605474,4.2822957E-4,0.0013670404,0.16,1.0,-0.02,22046,9946.60,0,0,0,0.70,-2.87,0.28,0.16,1.00,-0.02
0.24707031,5.605472E-4,-5.7177246E-4,-6.3295965E-4,0.16,1.0,-0.02,22053,9947.60,0,0,165,0.63,-2.94,0.14,0.16,1.00,-0.02
0.24707031,-4.39452E-4,0.0014282279,0.0023670401,0.16,1.0,-0.02,22068,9947.60,0,0,0,0.56,-2.80,0.35,0.16,1.00,-0.02
-0.7529297,-0.0014394522,0.0014282279,0.0053670406,0.16,1.0,-0.02,22084,9946.60,0,0,165,0.49,-2.80,0.56,0.16,1.00,-0.02
0.24707031,-4.39452E-4,4.2822957E-4,0.0033670398,0.16,1.0,-0.01,22091,9947.60,0,0,0,0.56,-2.87,0.42,0.16,1.00,-0.01
-0.7529297,-0.0014394522,-5.7177246E-4,3.6704005E-4,0.16,1.0,-0.02,22106,9946.60,0,0,165,0.49,-2.94,0.21,0.16,1.00,-0.02
-0.7529297,5.605472E-4,4.2822957E-4,-0.0026329597,0.16,1.0,-0.01,22121,9946.60,0,0,0,0.63,-2.87,0.00,0.16,1.00,-0.01
0.54785156,0.0015605474,-0.0015717745,-0.0016329597,0.17,1.0,-0.02,22128,9947.90,0,0,165,0.70,-3.01,0.07,0.17,1.00,-0.02
0.24707031,0.0015605474,-5.7177246E-4,-6.3295965E-4,0.16,1.0,-0.02,22144,9947.60,0,0,0,0.70,-2.94,0.14,0.16,1.00,-0.02
0.24707031,-0.0014394522,4.2822957E-4,-6.3295965E-4,0.16,1.0,-0.02,22159,9947.60,0,0,165,0.49,-2.87,0.14,0.16,1.00,-0.02
0.24707031,5.605472E-4,4.2822957E-4,-0.0016329597,0.16,1.0,-0.02,22166,9947.60,0,0,0,0.63,-2.87,0.07,0.16,1.00,-0.02
0.84765625,5.605472E-4,4.2822957E-4,3.6704005E-4,0.16,0.99,-0.02,22181,9948.20,0,0,165,0.63,-2.87,0.21,0.16,0.99,-0.02
0.24707031,-4.39452E-4,0.0014282279,3.6704005E-4,0.16,1.0,-0.02,22197,9947.60,0,0,0,0.56,-2.80,0.21,0.16,1.00,-0.02
0.54785156,-0.0034394525,-5.7177246E-4,0.0053670406,0.16,1.0,-0.01,22204,9947.90,0,0,165,0.35,-2.94,0.56,0.16,1.00,-0.01
0.24707031,-4.39452E-4,-0.0015717745,-6.3295965E-4,0.16,1.0,-0.01,22219,9947.60,0,0,0,0.56,-3.01,0.14,0.16,1.00,-0.01
0.24707031,0.0035605468,0.0014282279,-0.00863296,0.16,1.0,-0.02,22233,9947.60,0,0,165,0.84,-2.80,-0.42,0.16,1.00,-0.02
0.24707031,0.0025605476,-0.0035717748,-0.0056329593,0.16,1.0,-0.02,22241,9947.60,0,0,0,0.77,-3.15,-0.21,0.16,1.00,-0.02
0.24707031,0.0075605484,-5.7177246E-4,-0.019632962,0.16,1.0,-0.02,22257,9947.60,0,0,165,1.12,-2.94,-1.19,0.16,1.00,-0.02
0.24707031,0.011560547,-0.0015717745,-0.019632962,0.16,1.0,-0.02,22271,9947.60,0,0,0,1.40,-3.01,-1.19,0.16,1.00,-0.02
0.24707031,0.0075605484,-0.0035717748,-0.01363296,0.16,1.0,-0.02,22279,9947.60,0,0,165,1.12,-3.15,-0.77,0.16,1.00,-0.02
0.24707031,0.009560547,0.0014282279,-0.019632962,0.16,1.0,-0.02,22294,9947.60,0,0,0,1.26,-2.80,-1.19,0.16,1.00,-0.02
0.24707031,0.004560548,-0.0025717728,-0.00963296,0.16,1.0,-0.02,22308,9947.60,0,0,165,0.91,-3.08,-0.49,0.16,1.00,-0.02
0.84765625,0.0035605468,-0.0015717745,-0.0056329593,0.16,1.0,-0.02,22316,9948.20,0,0,0,0.84,-3.01,-0.21,0.16,1.00,-0.02
-0.7529297,-4.39452E-4,0.0014282279,0.0023670401,0.16,1.0,-0.02,22331,9946.60,0,0,165,0.56,-2.80,0.35,0.16,1.00,-0.02
-0.7529297,-0.006439452,-5.7177246E-4,0.011367041,0.16,1.0,-0.02,22346,9946.60,0,0,0,0.14,-2.94,0.98,0.16,1.00,-0.02
-0.7529297,-0.009439453,0.0014282279,0.01636704,0.16,1.0,-0.02,22353,9946.60,0,0,165,-0.07,-2.80,1.33,0.16,1.00,-0.02
-0.7529297,-0.014439452,4.2822957E-4,0.01936704,0.16,1.0,-0.01,22368,9946.60,0,0,0,-0.42,-2.87,1.54,0.16,1.00,-0.01
-0.7529297,-0.009439453,0.0014282279,0.017367039,0.16,1.0,-0.02,22384,9946.60,0,0,165,-0.07,-2.80,1.40,0.16,1.00,-0.02
-0.35253906,-0.010439453,4.2822957E-4,0.020367041,0.16,1.0,-0.02,22392,9947.00,0,0,0,-0.14,-2.87,1.61,0.16,1.00,-0.02
-0.7529297,-0.012439452,0.0024282262,0.02536704,0.16,1.0,-0.02,22408,9946.60,0,0,165,-0.28,-2.73,1.96,0.16,1.00,-0.02
0.24707031,-0.013439452,4.2822957E-4,0.02136704,0.16,1.0,-0.02,22421,9947.60,0,0,0,-0.35,-2.87,1.68,0.16,1.00,-0.02
0.24707031,-0.004439452,4.2822957E-4,0.00736704,0.17,0.99,-0.02,22429,9947.60,0,0,165,0.28,-2.87,0.70,0.17,0.99,-0.02
0.54785156,0.0075605484,-5.7177246E-4,-0.00963296,0.17,1.0,-0.01,22442,9947.90,0,0,0,1.12,-2.94,-0.49,0.17,1.00,-0.01
0.24707031,0.01956055,-0.0035717748,-0.028632961,0.17,0.99,-0.01,22458,9947.60,0,0,165,1.96,-3.15,-1.82,0.17,0.99,-0.01
-0.7529297,0.03556055,-0.0065717697,-0.06663296,0.17,0.99,-0.01,22466,9946.60,0,0,0,3.08,-3.36,-4.48,0.17,0.99,-0.01
-0.35253906,0.05856055,-0.010571774,-0.09763296,0.16,0.99,-0.02,22480,9947.00,0,0,165,4.69,-3.64,-6.65,0.16,0.99,-0.02
0.54785156,0.07156055,-0.015571773,-0.12463296,0.16,0.99,-0.02,22496,9947.90,0,0,0,5.60,-3.99,-8.54,0.16,0.99,-0.02
0.24707031,0.08456055,-0.018571772,-0.14663295,0.16,1.0,-0.02,22503,9947.60,0,0,165,6.51,-4.20,-10.08,0.16,1.00,-0.02
0.24707031,0.10156055,-0.020571776,-0.16763297,0.16,0.99,-0.02,22519,9947.60,0,0,0,7.70,-4.34,-11.55,0.16,0.99,-0.02
-0.35253906,0.10956055,-0.020571776,-0.18563297,0.15,1.0,-0.02,22534,9947.00,0,0,165,8.26,-4.34,-12.81,0.15,1.00,-0.02
0.54785156,0.115560554,-0.022571776,-0.19163296,0.15,1.0,-0.03,22541,9947.90,0,0,0,8.68,-4.48,-13.23,0.15,1.00,-0.03
0.24707031,0.09756055,-0.016571771,-0.16363297,0.15,1.0,-0.03,22556,9947.60,0,0,165,7.42,-4.06,-11.27,0.15,1.00,-0.03
-0.7529297,0.07256055,-0.014571775,-0.10763296,0.14,1.0,-0.03,22571,9946.60,0,0,0,5.67,-3.92,-7.35,0.14,1.00,-0.03
-0.7529297,0.042560548,-0.0075717755,-0.06163296,0.14,1.0,-0.03,22578,9946.60,0,0,165,3.57,-3.43,-4.13,0.14,1.00,-0.03
-1.0527344,0.0135605475,4.2822957E-4,-0.011632959,0.14,1.0,-0.03,22594,9946.30,0,0,0,1.54,-2.87,-0.63,0.14,1.00,-0.03
0.54785156,-0.0034394525,-0.0015717745,0.0153670395,0.14,1.0,-0.03,22608,9947.90,0,0,165,0.35,-3.01,1.26,0.14,1.00,-0.03
-0.7529297,-0.023439452,0.006428227,0.038367037,0.14,1.0,-0.03,22616,9946.60,0,0,0,-1.05,-2.45,2.87,0.14,1.00,-0.03
0.24707031,-0.038439453,0.008428227,0.07536704,0.14,1.0,-0.03,22630,9947.60,0,0,165,-2.10,-2.31,5.46,0.14,1.00,-0.03
-0.7529297,-0.06143945,0.012428228,0.10436703,0.15,1.0,-0.03,22646,9946.60,0,0,0,-3.71,-2.03,7.49,0.15,1.00,-0.03
0.54785156,-0.07843945,0.017428229,0.13336705,0.15,1.0,-0.03,22653,9947.90,0,0,165,-4.90,-1.68,9.52,0.15,1.00,-0.03
-0.35253906,-0.09943945,0.020428227,0.17236704,0.15,1.0,-0.02,22668,9947.00,0,0,0,-6.37,-1.47,12.25,0.15,1.00,-0.02
-0.7529297,-0.11943945,0.027428227,0.20736703,0.15,1.0,-0.02,22684,9946.60,0,0,165,-7.77,-0.98,14.70,0.15,1.00,-0.02
0.24707031,-0.14243945,0.031428225,0.23536703,0.15,1.0,-0.02,22691,9947.60,0,0,0,-9.38,-0.70,16.66,0.15,1.00,-0.02
0.24707031,-0.15443945,0.031428225,0.25736707,0.16,1.0,-0.02,22707,9947.60,0,0,165,-10.22,-0.70,18.20,0.16,1.00,-0.02
-0.7529297,-0.15443945,0.037428226,0.25736707,0.16,1.0,-0.02,22721,9946.60,0,0,0,-10.22,-0.28,18.20,0.16,1.00,-0.02
0.54785156,-0.15743946,0.033428226,0.26536706,0.17,1.0,-0.01,22737,9947.90,0,0,165,-10.43,-0.56,18.76,0.17,1.00,-0.01
0.54785156,-0.16343945,0.033428226,0.26636705,0.17,0.99,-0.01,22743,9947.90,0,0,0,-10.85,-0.56,18.83,0.17,0.99,-0.01
0.54785156,-0.14043945,0.028428227,0.23536703,0.18,0.99,-0.01,22759,9947.90,0,0,165,-9.24,-0.91,16.66,0.18,0.99,-0.01
-0.35253906,-0.11343945,0.026428226,0.17936704,0.18,0.99,-0.0,22766,9947.00,0,0,0,-7.35,-1.05,12.74,0.18,0.99,-0.00
-0.35253906,-0.083439454,0.017428229,0.13436705,0.18,0.99,-0.0,22781,9947.00,0,0,165,-5.25,-1.68,9.59,0.18,0.99,-0.00
-0.7529297,-0.062439453,0.013428226,0.10336704,0.19,0.99,-0.0,22797,9946.60,0,0,0,-3.78,-1.96,7.42,0.19,0.99,-0.00
1.5478516,-0.042439453,0.010428226,0.07136704,0.19,0.99,-0.0,22804,9948.90,0,0,165,-2.38,-2.17,5.18,0.19,0.99,-0.00
-1.3525391,0.005560548,-0.0015717745,-0.030632962,0.19,0.98,-0.0,22818,9946.00,0,0,0,0.98,-3.01,-1.96,0.19,0.98,-0.00
-0.35253906,0.029560551,-0.0035717748,-0.06163296,0.19,0.99,0.0,22834,9947.00,0,0,165,2.66,-3.15,-4.13,0.19,0.99,0.00
0.54785156,0.03456055,-0.0025717728,-0.058632962,0.18,1.0,-0.0,22840,9947.90,0,0,0,3.01,-3.08,-3.92,0.18,1.00,-0.00
-0.15234375,0.04056055,-0.017571773,-0.06963296,0.18,0.99,-0.0,22855,9947.20,0,0,165,3.43,-4.13,-4.69,0.18,0.99,-0.00
-0.35253906,0.06656055,-0.010571774,-0.11263296,0.18,0.99,-0.0,22871,9947.00,0,0,0,5.25,-3.64,-7.70,0.18,0.99,-0.00
-0.35253906,0.09356055,-0.016571771,-0.15463297,0.18,0.99,-0.0,22878,9947.00,0,0,165,7.14,-4.06,-10.64,0.18,0.99,-0.00
-0.35253906,0.112560555,-0.023571778,-0.18763296,0.18,0.99,-0.01,22894,9947.00,0,0,0,8.47,-4.55,-12.95,0.18,0.99,-0.01
0.54785156,0.13056055,-0.028571773,-0.21463296,0.18,0.99,-0.01,22908,9947.90,0,0,165,9.73,-4.90,-14.84,0.18,0.99,-0.01
1.1474609,0.14256054,-0.028571773,-0.24163295,0.17,0.99,-0.01,22917,9948.50,0,0,0,10.57,-4.90,-16.73,0.17,0.99,-0.01
0.54785156,0.15556054,-0.031571772,-0.25963295,0.17,0.99,-0.02,22931,9947.90,0,0,165,11.48,-5.11,-17.99,0.17,0.99,-0.02
0.54785156,0.16256055,-0.035571773,-0.27063295,0.16,1.0,-0.02,22946,9947.90,0,0,0,11.97,-5.39,-18.76,0.16,1.00,-0.02
0.54785156,0.16756055,-0.034571778,-0.27663296,0.16,1.0,-0.02,22954,9947.90,0,0,165,12.32,-5.32,-19.18,0.16,1.00,-0.02
0.54785156,0.16656055,-0.036571775,-0.27863294,0.15,1.0,-0.02,22968,9947.90,0,0,0,12.25,-5.46,-19.32,0.15,1.00,-0.02
0.54785156,0.16456054,-0.034571778,-0.27363294,0.15,1.0,-0.02,22983,9947.90,0,0,165,12.11,-5.32,-18.97,0.15,1.00,-0.02
-0.7529297,0.15556054,-0.032571774,-0.25363293,0.14,1.0,-0.03,22991,9946.60,0,0,0,11.48,-5.18,-17.57,0.14,1.00,-0.03
-0.35253906,0.12656054,-0.025571775,-0.20963296,0.14,1.0,-0.03,23006,9947.00,0,0,165,9.45,-4.69,-14.49,0.14,1.00,-0.03
-0.35253906,0.09956055,-0.021571774,-0.15163296,0.14,1.0,-0.03,23020,9947.00,0,0,0,7.56,-4.41,-10.43,0.14,1.00,-0.03
-0.35253906,0.074560545,-0.016571771,-0.11363296,0.13,1.0,-0.03,23028,9947.00,0,0,165,5.81,-4.06,-7.77,0.13,1.00,-0.03
-0.35253906,0.05456055,-0.013571773,-0.084632955,0.13,1.0,-0.03,23044,9947.00,0,0,0,4.41,-3.85,-5.74,0.13,1.00,-0.03
-0.35253906,0.04356055,-0.009571772,-0.06663296,0.13,1.0,-0.03,23058,9947.00,0,0,165,3.64,-3.57,-4.48,0.13,1.00,-0.03
-0.35253906,0.03056055,-0.0065717697,-0.051632963,0.13,1.0,-0.04,23067,9947.00,0,0,0,2.73,-3.36,-3.43,0.13,1.00,-0.04
0.54785156,0.021560546,-0.0065717697,-0.02963296,0.13,1.0,-0.04,23081,9947.90,0,0,165,2.10,-3.36,-1.89,0.13,1.00,-0.04
-0.35253906,0.012560547,-0.0075717755,-0.01663296,0.13,1.0,-0.03,23096,9947.00,0,0,0,1.47,-3.43,-0.98,0.13,1.00,-0.03
0.54785156,0.012560547,-0.0065717697,-0.019632962,0.13,1.0,-0.04,23103,9947.90,0,0,165,1.47,-3.36,-1.19,0.13,1.00,-0.04
-0.35253906,0.01756055,-5.7177246E-4,-0.021632962,0.13,1.0,-0.04,23118,9947.00,0,0,0,1.82,-2.94,-1.33,0.13,1.00,-0.04
0.54785156,0.011560547,-0.0075717755,-0.01863296,0.13,1.0,-0.04,23134,9947.90,0,0,165,1.40,-3.43,-1.12,0.13,1.00,-0.04
0.54785156,0.009560547,-0.0015717745,-0.015632961,0.13,1.0,-0.03,23141,9947.90,0,0,0,1.26,-3.01,-0.91,0.13,1.00,-0.03
-0.35253906,0.016560547,0.0044282265,-0.00663296,0.13,1.0,-0.04,23156,9947.00,0,0,165,1.75,-2.59,-0.28,0.13,1.00,-0.04
-0.052734375,-0.023439452,-0.0015717745,0.04036704,0.13,1.0,-0.03,23171,9947.30,0,0,0,-1.05,-3.01,3.01,0.13,1.00,-0.03
0.54785156,-0.03743945,0.007428225,0.06736704,0.13,1.0,-0.04,23178,9947.90,0,0,165,-2.03,-2.38,4.90,0.13,1.00,-0.04
-2.352539,-0.029439453,4.2822957E-4,0.04636704,0.13,1.0,-0.03,23193,9945.00,0,0,0,-1.47,-2.87,3.43,0.13,1.00,-0.03
-0.35253906,-0.023439452,0.011428228,0.03436704,0.13,1.0,-0.03,23209,9947.00,0,0,165,-1.05,-2.10,2.59,0.13,1.00,-0.03
0.84765625,0.0025605476,-0.011571772,0.0053670406,0.14,1.0,-0.03,23216,9948.20,0,0,0,0.77,-3.71,0.56,0.14,1.00,-0.03
0.54785156,0.016560547,-0.0055717714,-0.028632961,0.13,1.0,-0.03,23231,9947.90,0,0,165,1.75,-3.29,-1.82,0.13,1.00,-0.03
-0.052734375,0.039560545,-0.0065717697,-0.06063296,0.14,1.0,-0.03,23245,9947.30,0,0,0,3.36,-3.36,-4.06,0.14,1.00,-0.03
-1.3525391,0.04056055,-0.0065717697,-0.06363296,0.13,1.0,-0.04,23254,9946.00,0,0,165,3.43,-3.36,-4.27,0.13,1.00,-0.04
-0.052734375,0.016560547,-0.009571772,-0.011632959,0.13,1.01,-0.04,23269,9947.30,0,0,0,1.75,-3.57,-0.63,0.13,1.01,-0.04
-0.052734375,-0.020439452,0.0014282279,0.04036704,0.13,1.0,-0.04,23283,9947.30,0,0,165,-0.84,-2.80,3.01,0.13,1.00,-0.04
-1.3525391,-0.029439453,-0.004571773,0.05236704,0.14,0.99,-0.03,23291,9946.00,0,0,0,-1.47,-3.22,3.85,0.14,0.99,-0.03
-0.35253906,0.008560549,-0.0075717755,-0.01663296,0.14,0.99,-0.04,23306,9947.00,0,0,165,1.19,-3.43,-0.98,0.14,0.99,-0.04
-0.35253906,0.020560548,0.0054282285,-0.03963296,0.13,1.0,-0.03,23321,9947.00,0,0,0,2.03,-2.52,-2.59,0.13,1.00,-0.03
-0.35253906,0.049560547,-0.022571776,-0.067632966,0.13,1.0,-0.05,23328,9947.00,0,0,165,4.06,-4.48,-4.55,0.13,1.00,-0.05
0.54785156,0.022560548,-0.0055717714,-0.023632959,0.13,1.01,-0.04,23343,9947.90,0,0,0,2.17,-3.29,-1.47,0.13,1.01,-0.04
0.54785156,-0.022439454,-0.0035717748,0.03736704,0.13,1.01,-0.04,23358,9947.90,0,0,165,-0.98,-3.15,2.80,0.13,1.01,-0.04
-0.35253906,-0.030439451,-0.0055717714,0.05336704,0.13,1.0,-0.04,23367,9947.00,0,0,0,-1.54,-3.29,3.92,0.13,1.00,-0.04
-0.052734375,-0.051439453,0.010428226,0.08136704,0.13,1.01,-0.03,23381,9947.30,0,0,165,-3.01,-2.17,5.88,0.13,1.01,-0.03
-0.35253906,-0.031439453,-0.013571773,0.06436704,0.13,1.0,-0.03,23396,9947.00,0,0,0,-1.61,-3.85,4.69,0.13,1.00,-0.03
-0.35253906,-0.021439452,0.020428227,0.03036704,0.14,1.0,-0.03,23404,9947.00,0,0,165,-0.91,-1.47,2.31,0.14,1.00,-0.03
-0.35253906,0.010560549,-0.015571773,-0.00463296,0.14,1.0,-0.04,23417,9947.00,0,0,0,1.33,-3.99,-0.14,0.14,1.00,-0.04
-0.35253906,-0.0014394522,0.006428227,-0.00863296,0.13,1.0,-0.03,23434,9947.00,0,0,165,0.49,-2.45,-0.42,0.13,1.00,-0.03
-0.35253906,0.03556055,-0.036571775,-0.051632963,0.13,1.01,-0.05,23441,9947.00,0,0,0,3.08,-5.46,-3.43,0.13,1.01,-0.05
0.84765625,0.016560547,-0.004571773,-0.051632963,0.14,1.01,-0.03,23457,9948.20,0,0,165,1.75,-3.22,-3.43,0.14,1.01,-0.03
-1.0527344,0.031560548,-0.020571776,-0.030632962,0.13,1.01,-0.05,23471,9946.30,0,0,0,2.80,-4.34,-1.96,0.13,1.01,-0.05
-0.35253906,0.01756055,4.2822957E-4,-0.01663296,0.13,1.0,-0.03,23478,9947.00,0,0,165,1.82,-2.87,-0.98,0.13,1.00,-0.03
-0.35253906,0.024560548,-0.021571774,-0.026632957,0.14,1.0,-0.03,23493,9947.00,0,0,0,2.31,-4.41,-1.68,0.14,1.00,-0.03
-0.052734375,-0.013439452,0.014428226,0.00836704,0.13,1.0,-0.03,23509,9947.30,0,0,165,-0.35,-1.89,0.77,0.13,1.00,-0.03
-0.052734375,-0.021439452,-0.0075717755,0.038367037,0.13,1.0,-0.03,23516,9947.30,0,0,0,-0.91,-3.43,2.87,0.13,1.00,-0.03
-0.35253906,-0.0024394528,-0.009571772,0.00836704,0.13,1.0,-0.04,23530,9947.00,0,0,165,0.42,-3.57,0.77,0.13,1.00,-0.04
-1.3525391,-0.005439453,0.0014282279,0.00836704,0.13,1.0,-0.03,23547,9946.00,0,0,0,0.21,-2.80,0.77,0.13,1.00,-0.03
-1.0527344,-0.0034394525,-0.0035717748,0.017367039,0.13,1.0,-0.03,23554,9946.30,0,0,165,0.35,-3.15,1.40,0.13,1.00,-0.03
-0.35253906,-4.39452E-4,-0.0055717714,3.6704005E-4,0.14,1.0,-0.04,23568,9947.00,0,0,0,0.56,-3.29,0.21,0.14,1.00,-0.04
0.54785156,-0.010439453,0.007428225,0.01236704,0.13,1.0,-0.03,23584,9947.90,0,0,165,-0.14,-2.38,1.05,0.13,1.00,-0.03
-0.052734375,-0.022439454,-0.0015717745,0.044367038,0.13,1.0,-0.03,23591,9947.30,0,0,0,-0.98,-3.01,3.29,0.13,1.00,-0.03
-0.35253906,-0.036439452,0.0014282279,0.059367042,0.13,1.0,-0.04,23606,9947.00,0,0,165,-1.96,-2.80,4.34,0.13,1.00,-0.04
-0.052734375,-0.04143945,0.0044282265,0.07536704,0.14,1.0,-0.04,23621,9947.30,0,0,0,-2.31,-2.59,5.46,0.14,1.00,-0.04
0.54785156,-0.05043945,0.006428227,0.084367044,0.14,1.0,-0.03,23629,9947.90,0,0,165,-2.94,-2.45,6.09,0.14,1.00,-0.03
-1.0527344,-0.057439454,0.007428225,0.09636704,0.14,1.0,-0.03,23643,9946.30,0,0,0,-3.43,-2.38,6.93,0.14,1.00,-0.03
1.2470703,-0.06343945,0.009428225,0.10836704,0.14,1.0,-0.03,23658,9948.60,0,0,165,-3.85,-2.24,7.77,0.14,1.00,-0.03
-0.35253906,-0.06743945,0.0054282285,0.10436703,0.14,1.0,-0.03,23666,9947.00,0,0,0,-4.13,-2.52,7.49,0.14,1.00,-0.03
0.84765625,-0.04943945,0.0044282265,0.08636704,0.15,1.0,-0.03,23680,9948.20,0,0,165,-2.87,-2.59,6.23,0.15,1.00,-0.03
-0.052734375,-0.042439453,0.0024282262,0.06736704,0.15,1.0,-0.03,23696,9947.30,0,0,0,-2.38,-2.73,4.90,0.15,1.00,-0.03
-1.3525391,-0.033439454,0.006428227,0.05236704,0.15,1.0,-0.03,23704,9946.00,0,0,165,-1.75,-2.45,3.85,0.15,1.00,-0.03
-0.35253906,-0.025439452,-0.0065717697,0.04636704,0.15,1.0,-0.03,23719,9947.00,0,0,0,-1.19,-3.36,3.43,0.15,1.00,-0.03
-0.052734375,-0.02643945,-0.0035717748,0.04636704,0.15,1.0,-0.02,23733,9947.30,0,0,165,-1.26,-3.15,3.43,0.15,1.00,-0.02
-0.052734375,-0.029439453,-0.010571774,0.04836704,0.15,1.0,-0.02,23741,9947.30,0,0,0,-1.47,-3.64,3.57,0.15,1.00,-0.02
0.84765625,-0.030439451,-0.018571772,0.05036704,0.15,1.0,-0.02,23757,9948.20,0,0,165,-1.54,-4.20,3.71,0.15,1.00,-0.02
-0.052734375,-0.036439452,-0.025571775,0.05636704,0.15,1.0,-0.03,23771,9947.30,0,0,0,-1.96,-4.69,4.13,0.15,1.00,-0.03
0.84765625,-0.040439453,-0.035571773,0.06036704,0.15,1.0,-0.02,23780,9948.20,0,0,165,-2.24,-5.39,4.41,0.15,1.00,-0.02
-0.35253906,-0.040439453,-0.050571773,0.05436704,0.15,1.0,-0.02,23794,9947.00,0,0,0,-2.24,-6.44,3.99,0.15,1.00,-0.02
-1.0527344,-0.038439453,-0.059571777,0.045367036,0.15,1.0,-0.02,23810,9946.30,0,0,165,-2.10,-7.07,3.36,0.15,1.00,-0.02
0.84765625,-0.03743945,-0.067571774,0.044367038,0.16,1.0,-0.02,23816,9948.20,0,0,0,-2.03,-7.63,3.29,0.16,1.00,-0.02
-0.052734375,-0.046439454,-0.09157178,0.05636704,0.16,1.0,-0.01,23830,9947.30,0,0,165,-2.66,-9.31,4.13,0.16,1.00,-0.01
-1.0527344,-0.06143945,-0.12357178,0.062367044,0.16,1.0,-0.01,23846,9946.30,0,0,0,-3.71,-11.55,4.55,0.16,1.00,-0.01
-1.0527344,-0.06443945,-0.15557177,0.062367044,0.16,1.0,-0.01,23854,9946.30,0,0,165,-3.92,-13.79,4.55,0.16,1.00,-0.01
-0.052734375,-0.06143945,-0.20057179,0.04736704,0.16,0.99,-0.02,23868,9947.30,0,0,0,-3.71,-16.94,3.50,0.16,0.99,-0.02
-0.052734375,-0.045439452,-0.19257176,0.017367039,0.15,0.99,-0.02,23882,9947.30,0,0,165,-2.59,-16.38,1.40,0.15,0.99,-0.02
-0.052734375,-0.020439452,-0.15357177,-0.015632961,0.15,1.0,-0.03,23891,9947.30,0,0,0,-0.84,-13.65,-0.91,0.15,1.00,-0.03
-0.65234375,5.605472E-4,-0.12457177,-0.03963296,0.14,1.0,-0.03,23906,9946.70,0,0,165,0.63,-11.62,-2.59,0.14,1.00,-0.03
-1.0527344,0.012560547,-0.07057178,-0.05363296,0.14,1.0,-0.04,23920,9946.30,0,0,0,1.47,-7.84,-3.57,0.14,1.00,-0.04
-0.052734375,0.012560547,0.0024282262,-0.028632961,0.15,1.0,-0.03,23928,9947.30,0,0,165,1.47,-2.73,-1.82,0.15,1.00,-0.03
-0.052734375,0.0075605484,-5.7177246E-4,-0.0126329595,0.16,1.0,-0.02,23943,9947.30,0,0,0,1.12,-2.94,-0.70,0.16,1.00,-0.02
-0.052734375,0.0075605484,-5.7177246E-4,-0.02963296,0.16,1.0,-0.02,23958,9947.30,0,0,165,1.12,-2.94,-1.89,0.16,1.00,-0.02
-0.052734375,0.0075605484,0.008428227,-0.015632961,0.15,1.0,-0.02,23966,9947.30,0,0,0,1.12,-2.31,-0.91,0.15,1.00,-0.02
-0.052734375,0.02356055,-0.008571774,-0.03863296,0.15,1.0,-0.02,23981,9947.30,0,0,165,2.24,-3.50,-2.52,0.15,1.00,-0.02
-0.052734375,0.03656055,0.0024282262,-0.070632964,0.15,0.99,-0.02,23995,9947.30,0,0,0,3.15,-2.73,-4.76,0.15,0.99,-0.02
-0.35253906,0.031560548,-0.0025717728,-0.06563296,0.15,0.99,-0.02,24004,9947.00,0,0,165,2.80,-3.08,-4.41,0.15,0.99,-0.02
-0.052734375,0.04756055,-0.013571773,-0.078632966,0.15,1.0,-0.03,24018,9947.30,0,0,0,3.92,-3.85,-5.32,0.15,1.00,-0.03
-0.052734375,0.01756055,0.006428227,-0.043632958,0.15,1.0,-0.02,24034,9947.30,0,0,165,1.82,-2.45,-2.87,0.15,1.00,-0.02
-0.052734375,0.033560548,-0.015571773,-0.05963296,0.15,0.99,-0.03,24041,9947.30,0,0,0,2.94,-3.99,-3.99,0.15,0.99,-0.03
-0.052734375,0.033560548,0.013428226,-0.05563296,0.15,1.0,-0.02,24056,9947.30,0,0,165,2.94,-1.96,-3.71,0.15,1.00,-0.02
-1.0527344,0.032560546,-5.7177246E-4,-0.04863296,0.15,0.99,-0.02,24071,9946.30,0,0,0,2.87,-2.94,-3.22,0.15,0.99,-0.02
0.84765625,0.056560554,-0.014571775,-0.09963296,0.15,0.99,-0.03,24077,9948.20,0,0,165,4.55,-3.92,-6.79,0.15,0.99,-0.03
-1.9521484,0.06456055,0.0034282245,-0.10263296,0.14,1.0,-0.02,24094,9945.40,0,0,0,5.11,-2.66,-7.00,0.14,1.00,-0.02
-0.052734375,0.06756055,-0.024571773,-0.103632964,0.14,1.0,-0.03,24109,9947.30,0,0,165,5.32,-4.62,-7.07,0.14,1.00,-0.03
0.24707031,0.05056055,-5.7177246E-4,-0.08063296,0.14,1.0,-0.03,24116,9947.60,0,0,0,4.13,-2.94,-5.46,0.14,1.00,-0.03
-0.052734375,0.021560546,-0.008571774,-0.03863296,0.14,1.0,-0.03,24131,9947.30,0,0,165,2.10,-3.50,-2.52,0.14,1.00,-0.03
-0.052734375,-4.39452E-4,0.018428227,0.011367041,0.14,1.0,-0.02,24145,9947.30,0,0,0,0.56,-1.61,0.98,0.14,1.00,-0.02
-0.052734375,-0.031439453,0.009428225,0.05136704,0.14,0.99,-0.03,24153,9947.30,0,0,165,-1.61,-2.24,3.78,0.14,0.99,-0.03
-0.052734375,-0.017439451,0.0054282285,0.03136704,0.14,1.0,-0.03,24168,9947.30,0,0,0,-0.63,-2.52,2.38,0.14,1.00,-0.03
0.84765625,-0.007439452,0.0014282279,-0.00463296,0.14,1.0,-0.02,24182,9948.20,0,0,165,0.07,-2.80,-0.14,0.14,1.00,-0.02
-0.052734375,-0.009439453,0.008428227,0.0043670405,0.14,1.0,-0.02,24191,9947.30,0,0,0,-0.07,-2.31,0.49,0.14,1.00,-0.02
-0.052734375,0.0135605475,-0.010571774,-0.02463296,0.14,1.0,-0.03,24207,9947.30,0,0,165,1.54,-3.64,-1.54,0.14,1.00,-0.03
-0.052734375,0.01756055,0.007428225,-0.036632963,0.14,1.0,-0.02,24221,9947.30,0,0,0,1.82,-2.38,-2.38,0.14,1.00,-0.02
-0.052734375,0.024560548,-0.008571774,-0.043632958,0.14,1.0,-0.03,24228,9947.30,0,0,165,2.31,-3.50,-2.87,0.14,1.00,-0.03
-0.052734375,-0.006439452,0.008428227,0.0033670398,0.14,1.0,-0.03,24243,9947.30,0,0,0,0.14,-2.31,0.42,0.14,1.00,-0.03
0.84765625,-0.020439452,-0.0065717697,0.03636704,0.14,1.0,-0.03,24259,9948.20,0,0,165,-0.84,-3.36,2.73,0.14,1.00,-0.03
-0.052734375,-0.025439452,0.013428226,0.03736704,0.14,1.0,-0.03,24265,9947.30,0,0,0,-1.19,-1.96,2.80,0.14,1.00,-0.03
-0.052734375,-0.025439452,0.0044282265,0.057367038,0.14,1.0,-0.03,24281,9947.30,0,0,165,-1.19,-2.59,4.20,0.14,1.00,-0.03
0.24707031,-0.04943945,0.010428226,0.07836704,0.14,1.0,-0.03,24297,9947.60,0,0,0,-2.87,-2.17,5.67,0.14,1.00,-0.03
0.84765625,-0.046439454,0.010428226,0.07636704,0.14,1.0,-0.03,24303,9948.20,0,0,165,-2.66,-2.17,5.53,0.14,1.00,-0.03
-1.0527344,-0.020439452,-5.7177246E-4,0.03436704,0.15,1.0,-0.03,24318,9946.30,0,0,0,-0.84,-2.94,2.59,0.15,1.00,-0.03
-1.0527344,-0.012439452,0.0024282262,0.0103670405,0.15,0.99,-0.03,24334,9946.30,0,0,165,-0.28,-2.73,0.91,0.15,0.99,-0.03
-0.052734375,0.0075605484,-5.7177246E-4,-0.01063296,0.15,1.0,-0.02,24343,9947.30,0,0,0,1.12,-2.94,-0.56,0.15,1.00,-0.02
-1.0527344,0.008560549,0.0034282245,-0.0126329595,0.14,1.0,-0.03,24356,9946.30,0,0,165,1.19,-2.66,-0.70,0.14,1.00,-0.03
1.2470703,0.005560548,-0.0055717714,-0.00863296,0.14,1.0,-0.03,24371,9948.60,0,0,0,0.98,-3.29,-0.42,0.14,1.00,-0.03
0.24707031,-4.39452E-4,0.0014282279,-0.0026329597,0.14,1.0,-0.03,24378,9947.60,0,0,165,0.56,-2.80,0.00,0.14,1.00,-0.03
0.24707031,-0.0014394522,0.0044282265,0.00736704,0.14,1.0,-0.03,24394,9947.60,0,0,0,0.49,-2.59,0.70,0.14,1.00,-0.03
0.24707031,-0.014439452,-0.0015717745,0.02336704,0.14,1.0,-0.03,24410,9947.60,0,0,165,-0.42,-3.01,1.82,0.14,1.00,-0.03
-0.052734375,-0.035439454,0.011428228,0.05036704,0.14,1.0,-0.02,24416,9947.30,0,0,0,-1.89,-2.10,3.71,0.14,1.00,-0.02
0.84765625,-0.028439451,0.0054282285,0.05036704,0.15,1.0,-0.02,24431,9948.20,0,0,165,-1.40,-2.52,3.71,0.15,1.00,-0.02
1.2470703,-0.013439452,4.2822957E-4,0.026367038,0.15,1.0,-0.02,24447,9948.60,0,0,0,-0.35,-2.87,2.03,0.15,1.00,-0.02
-1.0527344,0.005560548,0.0024282262,-0.00963296,0.15,0.99,-0.02,24452,9946.30,0,0,165,0.98,-2.73,-0.49,0.15,0.99,-0.02
-1.0527344,0.031560548,-0.0055717714,-0.056632962,0.15,0.99,-0.02,24468,9946.30,0,0,0,2.80,-3.29,-3.78,0.15,0.99,-0.02
-0.052734375,0.03656055,-0.0025717728,-0.06963296,0.14,0.99,-0.02,24482,9947.30,0,0,165,3.15,-3.08,-4.69,0.14,0.99,-0.02
0.24707031,0.04156055,-0.008571774,-0.07463296,0.14,0.99,-0.02,24494,9947.60,0,0,0,3.50,-3.50,-5.04,0.14,0.99,-0.02
-1.0527344,0.038560547,-0.0075717755,-0.06863296,0.15,1.0,-0.03,24506,9946.30,0,0,165,3.29,-3.43,-4.62,0.15,1.00,-0.03
-1.0527344,0.04556055,-0.015571773,-0.07963296,0.15,1.0,-0.03,24521,9946.30,0,0,0,3.78,-3.99,-5.39,0.15,1.00,-0.03
-0.052734375,0.07156055,-0.013571773,-0.12363297,0.14,0.99,-0.03,24528,9947.30,0,0,165,5.60,-3.85,-8.47,0.14,0.99,-0.03
-1.0527344,0.09256055,-0.013571773,-0.15663296,0.14,1.0,-0.03,24543,9946.30,0,0,0,7.07,-3.85,-10.78,0.14,1.00,-0.03
0.24707031,0.074560545,-0.009571772,-0.121632956,0.13,1.0,-0.04,24560,9947.60,0,0,165,5.81,-3.57,-8.33,0.13,1.00,-0.04
-0.052734375,0.049560547,0.28242823,-0.14563297,0.19,0.87,0.08,24566,9947.30,0,0,0,4.06,16.87,-10.01,0.19,0.87,0.08
-4.852539,1.3545606,-0.21457179,-2.1376328,0.1,0.98,-0.03,24581,9942.50,0,0,165,95.41,-17.92,-149.45,0.10,0.98,-0.03
-5.1523438,1.7705605,-0.32957175,-2.675633,0.09,0.97,-0.07,24595,9942.20,0,0,0,124.53,-25.97,-187.11,0.09,0.97,-0.07
-9.352539,1.7535605,-0.5065718,-2.781633,-0.03,1.08,-0.0,24603,9938.00,0,0,165,123.34,-38.36,-194.53,-0.03,1.08,-0.00
-3.852539,0.49656054,0.031428225,-0.17963296,-0.07,1.1,-0.26,24618,9943.50,0,0,0,35.35,-0.70,-12.39,-0.07,1.10,-0.26
-13.852539,-0.0024394528,0.082428224,0.16336703,0.04,0.97,-0.14,24633,9933.50,0,0,165,0.42,2.87,11.62,0.04,0.97,-0.14
-12.852539,0.08956055,-0.015571773,-0.12363297,-0.01,1.0,-0.14,24641,9934.50,0,0,0,6.86,-3.99,-8.47,-0.01,1.00,-0.14
-11.552734,0.10356055,0.06742823,-0.08663296,-0.0,1.01,-0.13,24656,9935.80,0,0,165,7.84,1.82,-5.88,-0.00,1.01,-0.13
-10.652344,0.051560547,0.028428227,-0.034632962,0.0,1.0,-0.13,24670,9936.70,0,0,0,4.20,-0.91,-2.24,0.00,1.00,-0.13
-12.552734,0.05456055,0.020428227,-0.05563296,0.01,1.0,-0.12,24679,9934.80,0,0,165,4.41,-1.47,-3.71,0.01,1.00,-0.12
-13.452148,0.10456055,0.06342822,-0.06663296,0.01,1.0,-0.12,24692,9933.90,0,0,0,7.91,1.54,-4.48,0.01,1.00,-0.12
-12.552734,0.122560546,0.09242822,-0.056632962,0.01,1.0,-0.13,24708,9934.80,0,0,165,9.17,3.57,-3.78,0.01,1.00,-0.13
-12.552734,0.107560545,0.08042823,-0.07963296,0.01,1.0,-0.13,24716,9934.80,0,0,0,8.12,2.73,-5.39,0.01,1.00,-0.13
-9.952148,0.09456055,0.06742823,-0.067632966,0.0,1.0,-0.13,24731,9937.40,0,0,165,7.21,1.82,-4.55,0.00,1.00,-0.13
-8.75293,0.07356054,0.041428227,-0.09963296,0.01,0.99,-0.14,24746,9938.60,0,0,0,5.74,0.00,-6.79,0.01,0.99,-0.14
-8.75293,0.01756055,-0.012571774,-0.18263297,0.0,1.0,-0.14,24754,9938.60,0,0,165,1.82,-3.78,-12.60,0.00,1.00,-0.14
-9.652344,-0.0034394525,-0.009571772,-0.15663296,-0.01,1.0,-0.13,24768,9937.70,0,0,0,0.35,-3.57,-10.78,-0.01,1.00,-0.13
-9.952148,-4.39452E-4,4.2822957E-4,-0.100632966,-0.01,1.0,-0.14,24784,9937.40,0,0,165,0.56,-2.87,-6.86,-0.01,1.00,-0.14
-11.552734,0.005560548,0.0014282279,-0.05363296,-0.01,1.0,-0.13,24791,9935.80,0,0,0,0.98,-2.80,-3.57,-0.01,1.00,-0.13
-10.652344,0.008560549,0.0054282285,-0.023632959,-0.01,1.0,-0.13,24806,9936.70,0,0,165,1.19,-2.52,-1.47,-0.01,1.00,-0.13
-12.852539,0.0075605484,0.013428226,0.020367041,-0.01,1.0,-0.13,24821,9934.50,0,0,0,1.12,-1.96,1.61,-0.01,1.00,-0.13
-12.852539,0.014560548,0.024428226,0.020367041,-0.0,1.0,-0.13,24828,9934.50,0,0,165,1.61,-1.19,1.61,-0.00,1.00,-0.13
-12.552734,0.03456055,0.026428226,-0.0126329595,-0.0,1.0,-0.13,24844,9934.80,0,0,0,3.01,-1.05,-0.70,-0.00,1.00,-0.13
-12.552734,-0.0014394522,-0.0075717755,-0.073632956,-0.01,1.0,-0.13,24858,9934.80,0,0,165,0.49,-3.43,-4.97,-0.01,1.00,-0.13
-12.552734,-0.007439452,-0.0065717697,-0.062632956,-0.01,1.0,-0.13,24866,9934.80,0,0,0,0.07,-3.36,-4.20,-0.01,1.00,-0.13
-12.552734,-0.009439453,4.2822957E-4,-0.04463296,-0.01,1.0,-0.14,24881,9934.80,0,0,165,-0.07,-2.87,-2.94,-0.01,1.00,-0.14
-12.852539,-0.010439453,0.0024282262,-0.03863296,-0.01,1.0,-0.14,24896,9934.50,0,0,0,-0.14,-2.73,-2.52,-0.01,1.00,-0.14
-12.552734,0.04856055,0.018428227,-0.01363296,-0.01,1.0,-0.12,24902,9934.80,0,0,165,3.99,-1.61,-0.77,-0.01,1.00,-0.12
-13.452148,0.021560546,4.2822957E-4,-0.0016329597,-0.01,1.0,-0.13,24918,9933.90,0,0,0,2.10,-2.87,0.07,-0.01,1.00,-0.13
-13.452148,0.0025605476,0.0054282285,0.00836704,-0.01,1.0,-0.13,24933,9933.90,0,0,165,0.77,-2.52,0.77,-0.01,1.00,-0.13
-12.852539,-0.011439452,0.007428225,-0.02063296,-0.01,1.0,-0.14,24941,9934.50,0,0,0,-0.21,-2.38,-1.26,-0.01,1.00,-0.14
-12.552734,-0.010439453,0.006428227,-0.04463296,-0.01,1.0,-0.13,24956,9934.80,0,0,165,-0.14,-2.45,-2.94,-0.01,1.00,-0.13
-13.452148,-0.007439452,0.0024282262,-0.034632962,-0.01,1.0,-0.13,24970,9933.90,0,0,0,0.07,-2.73,-2.24,-0.01,1.00,-0.13
-12.25293,-0.0034394525,4.2822957E-4,-0.02463296,-0.01,1.0,-0.14,24978,9935.10,0,0,165,0.35,-2.87,-1.54,-0.01,1.00,-0.14
-12.552734,-0.006439452,0.0024282262,-0.02063296,-0.01,1.0,-0.14,24994,9934.80,0,0,0,0.14,-2.73,-1.26,-0.01,1.00,-0.14
-13.452148,-0.009439453,0.0014282279,-0.023632959,-0.01,1.0,-0.14,25009,9933.90,0,0,165,-0.07,-2.80,-1.47,-0.01,1.00,-0.14
-12.552734,-0.007439452,0.0014282279,-0.01863296,-0.01,1.0,-0.14,25015,9934.80,0,0,0,0.07,-2.80,-1.12,-0.01,1.00,-0.14
-14.152344,0.012560547,0.0054282285,-0.014632959,-0.01,1.0,-0.13,25031,9933.20,0,0,165,1.47,-2.52,-0.84,-0.01,1.00,-0.13
-12.852539,0.06156055,0.023428228,-0.0056329593,-0.01,1.0,-0.14,25046,9934.50,0,0,0,4.90,-1.26,-0.21,-0.01,1.00,-0.14
-13.452148,0.0075605484,0.006428227,0.0043670405,-0.02,1.0,-0.14,25054,9933.90,0,0,165,1.12,-2.45,0.49,-0.02,1.00,-0.14
-12.552734,0.0075605484,0.0034282245,0.00736704,-0.01,1.0,-0.14,25068,9934.80,0,0,0,1.12,-2.66,0.70,-0.01,1.00,-0.14
-12.852539,0.0075605484,-0.0015717745,0.0103670405,-0.01,0.88,-0.14,25084,9934.50,0,0,165,1.12,-3.01,0.91,-0.01,0.88,-0.14
-12.552734,0.008560549,-0.0035717748,0.00836704,-0.01,1.0,-0.13,25091,9934.80,0,0,0,1.19,-3.15,0.77,-0.01,1.00,-0.13
-12.552734,0.010560549,-0.0035717748,0.02336704,-0.01,1.0,-0.13,25106,9934.80,0,0,165,1.33,-3.15,1.82,-0.01,1.00,-0.13
-13.852539,0.016560547,-0.004571773,0.038367037,-0.01,1.0,-0.13,25121,9933.50,0,0,0,1.75,-3.22,2.87,-0.01,1.00,-0.13
-12.552734,0.01956055,-0.008571774,0.05136704,-0.01,1.0,-0.14,25129,9934.80,0,0,165,1.96,-3.50,3.78,-0.01,1.00,-0.14
-13.852539,0.020560548,-0.009571772,0.05836704,-0.01,1.0,-0.14,25144,9933.50,0,0,0,2.03,-3.57,4.27,-0.01,1.00,-0.14
-12.552734,0.01956055,-0.0065717697,0.057367038,-0.01,1.0,-0.14,25159,9934.80,0,0,165,1.96,-3.36,4.20,-0.01,1.00,-0.14
-13.852539,0.011560547,-0.0035717748,0.03636704,-0.01,0.99,-0.14,25166,9933.50,0,0,0,1.40,-3.15,2.73,-0.01,0.99,-0.14
-13.852539,0.008560549,4.2822957E-4,0.01936704,-0.01,1.0,-0.13,25181,9933.50,0,0,165,1.19,-2.87,1.54,-0.01,1.00,-0.13
-14.75293,0.008560549,4.2822957E-4,0.02736704,-0.01,1.0,-0.13,25196,9932.60,0,0,0,1.19,-2.87,2.10,-0.01,1.00,-0.13
-13.852539,0.012560547,-5.7177246E-4,0.03236704,-0.01,1.0,-0.14,25203,9933.50,0,0,165,1.47,-2.94,2.45,-0.01,1.00,-0.14
-13.852539,0.008560549,-5.7177246E-4,0.04836704,-0.01,1.0,-0.14,25218,9933.50,0,0,0,1.19,-2.94,3.57,-0.01,1.00,-0.14
-13.852539,0.009560547,4.2822957E-4,0.04736704,-0.0,1.0,-0.14,25233,9933.50,0,0,165,1.26,-2.87,3.50,-0.00,1.00,-0.14
-12.852539,0.008560549,0.0044282265,0.03536704,-0.01,1.0,-0.14,25240,9934.50,0,0,0,1.19,-2.59,2.66,-0.01,1.00,-0.14
-13.452148,0.004560548,0.0044282265,0.022367042,-0.0,1.0,-0.14,25256,9933.90,0,0,165,0.91,-2.59,1.75,-0.00,1.00,-0.14
-14.75293,0.0035605468,0.0044282265,0.02136704,-0.01,1.0,-0.14,25271,9932.60,0,0,0,0.84,-2.59,1.68,-0.01,1.00,-0.14
-13.852539,0.004560548,0.0054282285,0.017367039,-0.0,1.0,-0.14,25279,9933.50,0,0,165,0.91,-2.52,1.40,-0.00,1.00,-0.14
-13.452148,0.004560548,0.0054282285,0.022367042,-0.0,1.0,-0.14,25294,9933.90,0,0,0,0.91,-2.52,1.75,-0.00,1.00,-0.14
-13.852539,0.0025605476,0.0044282265,0.024367042,-0.0,1.0,-0.13,25309,9933.50,0,0,165,0.77,-2.59,1.89,-0.00,1.00,-0.13
-12.852539,0.0015605474,0.006428227,0.017367039,-0.0,1.0,-0.13,25316,9934.50,0,0,0,0.70,-2.45,1.40,-0.00,1.00,-0.13
-14.75293,-0.0034394525,0.006428227,0.0033670398,-0.0,1.0,-0.14,25331,9932.60,0,0,165,0.35,-2.45,0.42,-0.00,1.00,-0.14
-14.75293,-0.007439452,0.009428225,-0.00863296,-0.0,0.87,-0.14,25346,9932.60,0,0,0,0.07,-2.24,-0.42,-0.00,0.87,-0.14
-13.852539,-0.011439452,0.006428227,-0.014632959,-0.0,1.0,-0.14,25353,9933.50,0,0,165,-0.21,-2.45,-0.84,-0.00,1.00,-0.14
-12.852539,-0.010439453,0.007428225,-0.014632959,-0.0,1.0,-0.14,25369,9934.50,0,0,0,-0.14,-2.38,-0.84,-0.00,1.00,-0.14
-12.852539,-0.006439452,0.0054282285,-0.00663296,-0.0,1.0,-0.14,25382,9934.50,0,0,165,0.14,-2.52,-0.28,-0.00,1.00,-0.14
-13.852539,5.605472E-4,0.0054282285,0.0053670406,-0.0,1.0,-0.14,25391,9933.50,0,0,0,0.63,-2.52,0.56,-0.00,1.00,-0.14
-13.852539,-4.39452E-4,4.2822957E-4,0.014367041,-0.0,1.0,-0.14,25407,9933.50,0,0,165,0.56,-2.87,1.19,-0.00,1.00,-0.14
-13.852539,0.0025605476,-5.7177246E-4,0.014367041,-0.0,1.0,-0.14,25420,9933.50,0,0,0,0.77,-2.94,1.19,-0.00,1.00,-0.14
-13.852539,0.0015605474,-5.7177246E-4,-6.3295965E-4,-0.0,1.0,-0.14,25429,9933.50,0,0,165,0.70,-2.94,0.14,-0.00,1.00,-0.14
-14.75293,5.605472E-4,-0.0015717745,-0.0056329593,-0.0,1.0,-0.14,25444,9932.60,0,0,0,0.63,-3.01,-0.21,-0.00,1.00,-0.14
-13.852539,-4.39452E-4,-0.004571773,-0.0056329593,-0.0,1.0,-0.14,25459,9933.50,0,0,165,0.56,-3.22,-0.21,-0.00,1.00,-0.14
-13.852539,0.0035605468,-0.010571774,0.0033670398,-0.0,1.0,-0.14,25466,9933.50,0,0,0,0.84,-3.64,0.42,-0.00,1.00,-0.14
-13.452148,0.0075605484,-0.010571774,0.01636704,-0.0,1.0,-0.14,25481,9933.90,0,0,165,1.12,-3.64,1.33,-0.00,1.00,-0.14
-13.852539,0.008560549,-0.0075717755,0.02136704,-0.0,1.0,-0.14,25497,9933.50,0,0,0,1.19,-3.43,1.68,-0.00,1.00,-0.14
-13.852539,-0.0024394528,4.2822957E-4,0.009367039,-0.0,1.0,-0.14,25504,9933.50,0,0,165,0.42,-2.87,0.84,-0.00,1.00,-0.14
-14.452148,-0.008439452,0.0034282245,0.013367041,0.0,1.0,-0.14,25518,9932.90,0,0,0,0.00,-2.66,1.12,0.00,1.00,-0.14
-14.75293,-0.007439452,0.007428225,0.01636704,-0.0,1.0,-0.14,25534,9932.60,0,0,165,0.07,-2.38,1.33,-0.00,1.00,-0.14
-14.75293,-0.005439453,0.008428227,0.01636704,-0.0,1.0,-0.14,25541,9932.60,0,0,0,0.21,-2.31,1.33,-0.00,1.00,-0.14
-12.852539,-0.0034394525,0.011428228,0.014367041,-0.0,1.0,-0.13,25556,9934.50,0,0,165,0.35,-2.10,1.19,-0.00,1.00,-0.13
-14.75293,-0.004439452,0.011428228,0.01236704,-0.0,1.0,-0.13,25570,9932.60,0,0,0,0.28,-2.10,1.05,-0.00,1.00,-0.13
-14.75293,0.0015605474,0.010428226,0.00736704,-0.0,1.0,-0.14,25578,9932.60,0,0,165,0.70,-2.17,0.70,-0.00,1.00,-0.14
-13.452148,0.0015605474,0.0054282285,0.0013670404,0.0,1.0,-0.14,25593,9933.90,0,0,0,0.70,-2.52,0.28,0.00,1.00,-0.14
-13.852539,0.0075605484,0.0034282245,-0.00663296,0.0,1.0,-0.14,25608,9933.50,0,0,165,1.12,-2.66,-0.28,0.00,1.00,-0.14
-14.75293,0.004560548,0.006428227,-0.00463296,0.0,1.0,-0.14,25616,9932.60,0,0,0,0.91,-2.45,-0.14,0.00,1.00,-0.14
-13.852539,0.0025605476,0.0054282285,-0.00663296,-0.0,1.0,-0.14,25631,9933.50,0,0,165,0.77,-2.52,-0.28,-0.00,1.00,-0.14
-14.75293,-0.0034394525,0.023428228,-0.00663296,-0.0,1.0,-0.15,25645,9932.60,0,0,0,0.35,-1.26,-0.28,-0.00,1.00,-0.15
-14.75293,-0.023439452,0.019428227,-0.02763296,0.0,1.0,-0.14,25652,9932.60,0,0,165,-1.05,-1.54,-1.75,0.00,1.00,-0.14
-14.75293,-0.023439452,0.006428227,-0.03263296,-0.0,1.0,-0.14,25668,9932.60,0,0,0,-1.05,-2.45,-2.10,-0.00,1.00,-0.14
-13.852539,-0.016439453,0.017428229,-0.0076329596,0.0,1.0,-0.14,25682,9933.50,0,0,165,-0.56,-1.68,-0.35,0.00,1.00,-0.14
-14.452148,-0.02643945,0.022428226,-0.02763296,-0.0,1.0,-0.13,25691,9932.90,0,0,0,-1.26,-1.33,-1.75,-0.00,1.00,-0.13
-14.452148,-0.040439453,0.028428227,-0.04163296,-0.0,1.0,-0.13,25707,9932.90,0,0,165,-2.24,-0.91,-2.73,-0.00,1.00,-0.13
-14.75293,-0.04843945,0.020428227,-0.08763296,-0.0,1.0,-0.14,25720,9932.60,0,0,0,-2.80,-1.47,-5.95,-0.00,1.00,-0.14
-13.852539,-0.047439452,0.007428225,-0.114632964,-0.0,1.0,-0.13,25728,9933.50,0,0,165,-2.73,-2.38,-7.84,-0.00,1.00,-0.13
-14.152344,-0.036439452,-0.012571774,-0.10163296,-0.01,1.0,-0.13,25744,9933.20,0,0,0,-1.96,-3.78,-6.93,-0.01,1.00,-0.13
-15.052734,-0.029439453,-0.0055717714,-0.05763296,-0.01,1.0,-0.13,25759,9932.30,0,0,165,-1.47,-3.29,-3.85,-0.01,1.00,-0.13
-15.052734,-0.022439454,0.009428225,-0.01663296,-0.01,1.0,-0.13,25766,9932.30,0,0,0,-0.98,-2.24,-0.98,-0.01,1.00,-0.13
-15.052734,-0.022439454,0.013428226,-0.02763296,-0.01,1.0,-0.13,25781,9932.30,0,0,165,-0.98,-1.96,-1.75,-0.01,1.00,-0.13
-15.052734,-0.020439452,-5.7177246E-4,-0.047632962,-0.01,1.0,-0.13,25798,9932.30,0,0,0,-0.84,-2.94,-3.15,-0.01,1.00,-0.13
-15.052734,-0.009439453,-0.013571773,-0.02763296,-0.01,1.0,-0.13,25806,9932.30,0,0,165,-0.07,-3.85,-1.75,-0.01,1.00,-0.13
-15.052734,-0.0034394525,-0.008571774,0.02136704,-0.01,1.0,-0.13,25819,9932.30,0,0,0,0.35,-3.50,1.68,-0.01,1.00,-0.13
-14.152344,0.020560548,-0.03857177,0.04836704,-0.02,1.01,-0.13,25834,9933.20,0,0,165,2.03,-5.60,3.57,-0.02,1.01,-0.13
-14.152344,0.005560548,-0.0065717697,0.055367038,-0.0,1.0,-0.14,25841,9933.20,0,0,0,0.98,-3.36,4.06,-0.00,1.00,-0.14
-14.75293,-4.39452E-4,-0.010571774,0.00636704,-0.01,1.0,-0.14,25856,9932.60,0,0,165,0.56,-3.64,0.63,-0.01,1.00,-0.14
-14.75293,5.605472E-4,-0.0065717697,0.044367038,-0.01,1.0,-0.13,25871,9932.60,0,0,0,0.63,-3.36,3.29,-0.01,1.00,-0.13
-13.852539,-0.017439451,-0.0025717728,0.08136704,-0.0,1.0,-0.13,25879,9933.50,0,0,165,-0.63,-3.08,5.88,-0.00,1.00,-0.13
-9.652344,0.011560547,-0.042571772,0.13736704,-0.02,0.98,-0.13,25894,9937.70,0,0,0,1.40,-5.88,9.80,-0.02,0.98,-0.13
-4.852539,-0.59743947,-0.11457178,0.9613671,-0.04,1.05,-0.06,25908,9942.50,0,0,165,-41.23,-10.92,67.48,-0.04,1.05,-0.06
-15.052734,-0.70043945,0.093428224,0.567367,0.05,0.97,-0.05,25916,9932.30,0,0,0,-48.44,3.64,39.90,0.05,0.97,-0.05
-2.352539,-0.14343944,0.013428226,0.14336704,0.03,0.98,-0.11,25931,9945.00,0,0,165,-9.45,-1.96,10.22,0.03,0.98,-0.11
-6.7529297,-0.11843945,0.012428228,0.03536704,0.03,0.98,-0.09,25946,9940.60,0,0,0,-7.70,-2.03,2.66,0.03,0.98,-0.09
-4.5527344,-0.0014394522,0.015428226,0.11536704,0.01,1.02,-0.12,25953,9942.80,0,0,165,0.49,-1.82,8.26,0.01,1.02,-0.12
-6.7529297,0.008560549,-0.020571776,0.08536704,0.03,1.01,-0.13,25968,9940.60,0,0,0,1.19,-4.34,6.16,0.03,1.01,-0.13
-6.7529297,-0.058439452,-0.017571773,-0.0126329595,0.03,1.01,-0.12,25983,9940.60,0,0,165,-3.50,-4.13,-0.70,0.03,1.01,-0.12
-7.352539,-0.09343945,-0.031571772,0.07736704,0.02,1.0,-0.11,25991,9940.00,0,0,0,-5.95,-5.11,5.60,0.02,1.00,-0.11
-8.052734,-0.07043946,-0.020571776,0.17736705,0.02,1.01,-0.11,26006,9939.30,0,0,165,-4.34,-4.34,12.60,0.02,1.01,-0.11
-6.1523438,-0.11343945,0.021428227,0.29336706,0.03,1.01,-0.1,26020,9941.20,0,0,0,-7.35,-1.40,20.72,0.03,1.01,-0.10
-5.4521484,-0.10743945,0.020428227,0.29436707,0.04,1.0,-0.1,26029,9941.90,0,0,165,-6.93,-1.47,20.79,0.04,1.00,-0.10
-5.852539,-0.17043945,0.059428226,0.18136704,0.05,0.99,-0.08,26043,9941.50,0,0,0,-11.34,1.26,12.88,0.05,0.99,-0.08
-4.5527344,-0.031439453,0.014428226,0.02336704,0.05,1.0,-0.1,26059,9942.80,0,0,165,-1.61,-1.89,1.82,0.05,1.00,-0.10
-5.852539,-0.004439452,0.0014282279,-0.00463296,0.04,1.0,-0.1,26066,9941.50,0,0,0,0.28,-2.80,-0.14,0.04,1.00,-0.10
-5.852539,-0.012439452,-0.0025717728,0.013367041,0.04,1.0,-0.1,26081,9941.50,0,0,165,-0.28,-3.08,1.12,0.04,1.00,-0.10
-6.7529297,-0.008439452,0.0024282262,0.0033670398,0.04,1.0,-0.1,26096,9940.60,0,0,0,0.00,-2.73,0.42,0.04,1.00,-0.10
-6.7529297,-0.011439452,0.0024282262,0.0033670398,0.04,1.0,-0.1,26103,9940.60,0,0,165,-0.21,-2.73,0.42,0.04,1.00,-0.10
-8.052734,5.605472E-4,-0.004571773,-0.00863296,0.04,1.0,-0.1,26119,9939.30,0,0,0,0.63,-3.22,-0.42,0.04,1.00,-0.10
-7.0527344,-4.39452E-4,-0.0065717697,-0.0056329593,0.04,1.0,-0.1,26134,9940.30,0,0,165,0.56,-3.36,-0.21,0.04,1.00,-0.10
-8.052734,0.0015605474,-0.0015717745,-0.00363296,0.04,1.0,-0.1,26141,9939.30,0,0,0,0.70,-3.01,-0.07,0.04,1.00,-0.10
-8.952148,-4.39452E-4,-0.0025717728,3.6704005E-4,0.04,1.0,-0.1,26157,9938.40,0,0,165,0.56,-3.08,0.21,0.04,1.00,-0.10
-8.052734,0.0025605476,4.2822957E-4,0.0053670406,0.04,1.0,-0.1,26170,9939.30,0,0,0,0.77,-2.87,0.56,0.04,1.00,-0.10
-7.7529297,0.0035605468,-0.0025717728,0.00836704,0.04,1.0,-0.1,26178,9939.60,0,0,165,0.84,-3.08,0.77,0.04,1.00,-0.10
-8.052734,-0.0024394528,-5.7177246E-4,0.009367039,0.04,1.0,-0.1,26194,9939.30,0,0,0,0.42,-2.94,0.84,0.04,1.00,-0.10
-7.7529297,5.605472E-4,4.2822957E-4,-0.0026329597,0.04,1.0,-0.1,26208,9939.60,0,0,165,0.63,-2.87,0.00,0.04,1.00,-0.10
-8.052734,5.605472E-4,4.2822957E-4,0.0013670404,0.04,1.0,-0.1,26216,9939.30,0,0,0,0.63,-2.87,0.28,0.04,1.00,-0.10
-8.052734,0.0025605476,-0.0035717748,-0.0056329593,0.04,1.0,-0.1,26230,9939.30,0,0,165,0.77,-3.15,-0.21,0.04,1.00,-0.10
-7.0527344,0.0025605476,-0.0015717745,-6.3295965E-4,0.04,1.01,-0.1,26246,9940.30,0,0,0,0.77,-3.01,0.14,0.04,1.01,-0.10
-7.352539,-0.013439452,0.0054282285,0.01836704,0.04,1.0,-0.1,26253,9940.00,0,0,165,-0.35,-2.52,1.47,0.04,1.00,-0.10
-8.052734,-0.008439452,0.0034282245,0.0103670405,0.04,1.0,-0.1,26268,9939.30,0,0,0,0.00,-2.66,0.91,0.04,1.00,-0.10
-7.0527344,-0.006439452,0.0014282279,0.011367041,0.04,1.0,-0.1,26284,9940.30,0,0,165,0.14,-2.80,0.98,0.04,1.00,-0.10
-8.052734,-0.007439452,4.2822957E-4,0.0103670405,0.04,1.0,-0.1,26291,9939.30,0,0,0,0.07,-2.87,0.91,0.04,1.00,-0.10
-8.052734,-0.011439452,0.0034282245,0.01236704,0.04,1.0,-0.1,26314,9939.30,0,0,165,-0.21,-2.66,1.05,0.04,1.00,-0.10
-8.052734,-0.012439452,0.0034282245,0.0153670395,0.04,1.0,-0.1,26321,9939.30,0,0,0,-0.28,-2.66,1.26,0.04,1.00,-0.10
-8.052734,-0.020439452,0.014428226,-0.01063296,0.04,1.0,-0.1,26328,9939.30,0,0,165,-0.84,-1.89,-0.56,0.04,1.00,-0.10
-8.952148,-0.024439454,0.010428226,0.02936704,0.04,1.01,-0.1,26343,9938.40,0,0,0,-1.12,-2.17,2.24,0.04,1.01,-0.10
-8.952148,-0.024439454,0.011428228,0.01836704,0.04,1.0,-0.1,26358,9938.40,0,0,165,-1.12,-2.10,1.47,0.04,1.00,-0.10
-7.0527344,-0.021439452,0.008428227,0.02136704,0.05,1.0,-0.1,26366,9940.30,0,0,0,-0.91,-2.31,1.68,0.05,1.00,-0.10
-8.952148,-0.027439453,0.010428226,0.01836704,0.05,1.0,-0.1,26381,9938.40,0,0,165,-1.33,-2.17,1.47,0.05,1.00,-0.10
-8.352539,-0.020439452,0.010428226,0.00736704,0.05,1.0,-0.09,26396,9939.00,0,0,0,-0.84,-2.17,0.70,0.05,1.00,-0.09
-9.352539,-0.019439451,0.007428225,0.0033670398,0.04,1.0,-0.09,26403,9938.00,0,0,165,-0.77,-2.38,0.42,0.04,1.00,-0.09
-8.952148,-0.004439452,0.0014282279,0.01636704,0.04,1.0,-0.1,26418,9938.40,0,0,0,0.28,-2.80,1.33,0.04,1.00,-0.10
-8.952148,-0.012439452,0.020428227,0.01936704,0.05,1.0,-0.09,26433,9938.40,0,0,165,-0.28,-1.47,1.54,0.05,1.00,-0.09
-6.1523438,-0.0034394525,0.0054282285,0.009367039,0.04,1.0,-0.1,26440,9941.20,0,0,0,0.35,-2.52,0.84,0.04,1.00,-0.10
-4.2529297,-0.006439452,0.0044282265,0.00636704,0.05,1.0,-0.09,26455,9943.10,0,0,165,0.14,-2.59,0.63,0.05,1.00,-0.09
-6.7529297,0.008560549,-5.7177246E-4,-0.0126329595,0.05,1.0,-0.1,26471,9940.60,0,0,0,1.19,-2.94,-0.70,0.05,1.00,-0.10
-6.4521484,0.015560546,0.0014282279,-0.0126329595,0.05,1.0,-0.1,26479,9940.90,0,0,165,1.68,-2.80,-0.70,0.05,1.00,-0.10
-6.4521484,0.010560549,4.2822957E-4,-0.0016329597,0.04,1.0,-0.1,26493,9940.90,0,0,0,1.33,-2.87,0.07,0.04,1.00,-0.10
-6.4521484,0.0015605474,-0.0025717728,0.0043670405,0.05,1.0,-0.1,26508,9940.90,0,0,165,0.70,-3.08,0.49,0.05,1.00,-0.10
-6.4521484,-0.006439452,-0.0055717714,0.00636704,0.04,1.0,-0.1,26516,9940.90,0,0,0,0.14,-3.29,0.63,0.04,1.00,-0.10
-6.7529297,-0.009439453,-0.0075717755,0.00836704,0.04,1.0,-0.1,26531,9940.60,0,0,165,-0.07,-3.43,0.77,0.04,1.00,-0.10
-6.7529297,-0.0024394528,-0.004571773,-0.0016329597,0.04,1.0,-0.1,26547,9940.60,0,0,0,0.42,-3.22,0.07,0.04,1.00,-0.10
-6.4521484,0.012560547,0.0024282262,-0.015632961,0.04,1.0,-0.1,26554,9940.90,0,0,165,1.47,-2.73,-0.91,0.04,1.00,-0.10
-5.852539,0.0135605475,0.008428227,-0.01863296,0.04,1.0,-0.1,26568,9941.50,0,0,0,1.54,-2.31,-1.12,0.04,1.00,-0.10
-6.7529297,0.01756055,0.007428225,-0.019632962,0.04,1.0,-0.1,26583,9940.60,0,0,165,1.82,-2.38,-1.19,0.04,1.00,-0.10
-6.4521484,0.010560549,0.0024282262,-0.021632962,0.05,1.0,-0.1,26591,9940.90,0,0,0,1.33,-2.73,-1.33,0.05,1.00,-0.10
-6.7529297,0.0035605468,-0.0055717714,-0.01063296,0.04,1.0,-0.1,26606,9940.60,0,0,165,0.84,-3.29,-0.56,0.04,1.00,-0.10
-5.4521484,5.605472E-4,-0.011571772,-0.0016329597,0.04,1.0,-0.1,26620,9941.90,0,0,0,0.63,-3.71,0.07,0.04,1.00,-0.10
-6.7529297,-0.005439453,-0.011571772,0.014367041,0.04,1.0,-0.1,26628,9940.60,0,0,165,0.21,-3.71,1.19,0.04,1.00,-0.10
-6.7529297,-0.0034394525,-0.0075717755,0.026367038,0.05,1.0,-0.1,26643,9940.60,0,0,0,0.35,-3.43,2.03,0.05,1.00,-0.10
-6.4521484,-0.005439453,-5.7177246E-4,0.01836704,0.05,1.0,-0.1,26658,9940.90,0,0,165,0.21,-2.94,1.47,0.05,1.00,-0.10
-6.4521484,0.0065605473,-0.004571773,-0.0026329597,0.04,1.0,-0.1,26666,9940.90,0,0,0,1.05,-3.22,0.00,0.04,1.00,-0.10
-6.4521484,-0.0024394528,-5.7177246E-4,0.00836704,0.04,1.0,-0.1,26681,9940.90,0,0,165,0.42,-2.94,0.77,0.04,1.00,-0.10
-5.7529297,-0.0014394522,0.0014282279,0.0043670405,0.04,1.0,-0.1,26696,9941.60,0,0,0,0.49,-2.80,0.49,0.04,1.00,-0.10
-6.7529297,-0.006439452,0.0014282279,0.00836704,0.04,1.0,-0.1,26703,9940.60,0,0,165,0.14,-2.80,0.77,0.04,1.00,-0.10
-7.352539,-0.005439453,0.0024282262,0.00636704,0.04,1.0,-0.1,26718,9940.00,0,0,0,0.21,-2.73,0.63,0.04,1.00,-0.10
-6.7529297,-0.010439453,0.0034282245,0.01236704,0.04,1.0,-0.1,26732,9940.60,0,0,165,-0.14,-2.66,1.05,0.04,1.00,-0.10
-6.4521484,-0.013439452,0.0054282285,0.01836704,0.04,1.0,-0.1,26741,9940.90,0,0,0,-0.35,-2.52,1.47,0.04,1.00,-0.10
-6.4521484,-0.017439451,0.0054282285,0.02536704,0.04,1.0,-0.1,26756,9940.90,0,0,165,-0.63,-2.52,1.96,0.04,1.00,-0.10
-6.4521484,-0.015439453,0.009428225,0.02136704,0.04,1.0,-0.1,26770,9940.90,0,0,0,-0.49,-2.24,1.68,0.04,1.00,-0.10
-2.9521484,-0.005439453,0.009428225,0.0013670404,0.05,1.0,-0.09,26778,9944.40,0,0,165,0.21,-2.24,0.28,0.05,1.00,-0.09
1.2470703,-0.0034394525,0.007428225,0.0033670398,0.05,1.0,-0.09,26793,9948.60,0,0,0,0.35,-2.38,0.42,0.05,1.00,-0.09
-3.852539,-0.0014394522,0.0054282285,-0.0016329597,0.05,1.01,-0.09,26808,9943.50,0,0,165,0.49,-2.52,0.07,0.05,1.01,-0.09
-6.4521484,0.0025605476,-0.0035717748,0.0013670404,0.04,1.0,-0.1,26816,9940.90,0,0,0,0.77,-3.15,0.28,0.04,1.00,-0.10
-6.4521484,-4.39452E-4,-0.0015717745,0.0023670401,0.05,1.0,-0.09,26830,9940.90,0,0,165,0.56,-3.01,0.35,0.05,1.00,-0.09
-6.4521484,-0.0024394528,-0.004571773,0.00736704,0.05,1.0,-0.1,26847,9940.90,0,0,0,0.42,-3.22,0.70,0.05,1.00,-0.10
-6.1523438,0.004560548,-5.7177246E-4,-0.00863296,0.05,1.0,-0.1,26853,9941.20,0,0,165,0.91,-2.94,-0.42,0.05,1.00,-0.10
-4.5527344,-0.009439453,-0.004571773,0.011367041,0.05,1.0,-0.1,26869,9942.80,0,0,0,-0.07,-3.22,0.98,0.05,1.00,-0.10
-5.4521484,0.005560548,-0.0025717728,-0.00663296,0.05,1.0,-0.1,26883,9941.90,0,0,165,0.98,-3.08,-0.28,0.05,1.00,-0.10
-5.4521484,-0.0014394522,-0.0015717745,-0.0026329597,0.05,1.0,-0.1,26891,9941.90,0,0,0,0.49,-3.01,0.00,0.05,1.00,-0.10
-6.4521484,0.009560547,-0.0025717728,-0.014632959,0.04,1.0,-0.1,26906,9940.90,0,0,165,1.26,-3.08,-0.84,0.04,1.00,-0.10
-6.4521484,0.005560548,-0.0025717728,-0.00663296,0.05,1.0,-0.1,26920,9940.90,0,0,0,0.98,-3.08,-0.28,0.05,1.00,-0.10
-6.4521484,0.0065605473,-0.0015717745,-0.0076329596,0.05,1.0,-0.1,26929,9940.90,0,0,165,1.05,-3.01,-0.35,0.05,1.00,-0.10
-7.7529297,0.0015605474,-0.0015717745,-0.0056329593,0.05,1.0,-0.1,26943,9939.60,0,0,0,0.70,-3.01,-0.21,0.05,1.00,-0.10
-6.4521484,-0.0014394522,-0.0025717728,-0.00463296,0.05,1.0,-0.1,26958,9940.90,0,0,165,0.49,-3.08,-0.14,0.05,1.00,-0.10
-6.4521484,5.605472E-4,-5.7177246E-4,-0.00663296,0.05,1.0,-0.1,26965,9940.90,0,0,0,0.63,-2.94,-0.28,0.05,1.00,-0.10
-6.4521484,0.0015605474,4.2822957E-4,-0.00663296,0.05,1.0,-0.1,26981,9940.90,0,0,165,0.70,-2.87,-0.28,0.05,1.00,-0.10
-5.4521484,-0.0024394528,4.2822957E-4,-0.00863296,0.05,1.0,-0.09,26995,9941.90,0,0,0,0.42,-2.87,-0.42,0.05,1.00,-0.09
-6.4521484,5.605472E-4,-0.0025717728,-0.0076329596,0.04,1.01,-0.1,27004,9940.90,0,0,165,0.63,-3.08,-0.35,0.04,1.01,-0.10
-6.4521484,-0.018439453,-0.0025717728,3.6704005E-4,0.05,1.0,-0.09,27018,9940.90,0,0,0,-0.70,-3.08,0.21,0.05,1.00,-0.09
-6.4521484,-0.019439451,-0.0025717728,0.00736704,0.05,1.0,-0.09,27033,9940.90,0,0,165,-0.77,-3.08,0.70,0.05,1.00,-0.09
-6.1523438,-0.021439452,0.0014282279,0.0013670404,0.05,1.0,-0.09,27042,9941.20,0,0,0,-0.91,-2.80,0.28,0.05,1.00,-0.09
-3.5527344,-0.019439451,-0.0035717748,-0.00363296,0.05,1.0,-0.09,27056,9943.80,0,0,165,-0.77,-3.15,-0.07,0.05,1.00,-0.09
-3.852539,-0.04443945,-0.034571778,0.03536704,0.05,1.01,-0.08,27071,9943.50,0,0,0,-2.52,-5.32,2.66,0.05,1.01,-0.08
-5.7529297,-0.10743945,-0.12157178,0.11436703,0.08,1.01,-0.06,27079,9941.60,0,0,165,-6.93,-11.41,8.19,0.08,1.01,-0.06
12.147461,-0.17743945,-0.29857177,0.22136705,0.1,1.02,-0.01,27094,9959.50,0,0,0,-11.83,-23.80,15.68,0.10,1.02,-0.01
13.047852,-0.25043947,-0.45557177,0.27436703,0.06,1.0,-0.08,27109,9960.40,0,0,165,-16.94,-34.79,19.39,0.06,1.00,-0.08
17.847656,-0.27543947,-0.5045718,0.29336706,0.05,1.01,-0.09,27117,9965.20,0,0,0,-18.69,-38.22,20.72,0.05,1.01,-0.09
17.947266,-0.24043944,-0.39057177,0.24036704,0.03,1.0,-0.1,27131,9965.30,0,0,165,-16.24,-30.24,17.01,0.03,1.00,-0.10
-15098.953,-0.21443945,-0.31557176,0.22436704,0.06,1.0,-0.08,27146,-5151.60,0,0,0,-14.42,-24.99,15.89,0.06,1.00,-0.08
-15098.953,-0.21143945,-0.27657175,0.20636705,0.06,1.01,-0.08,27153,-5151.60,0,0,165,-14.21,-22.26,14.63,0.06,1.01,-0.08
-15098.953,-0.17543945,-0.19257176,0.24536705,0.12,1.01,-0.03,27167,-5151.60,0,0,0,-11.69,-16.38,17.36,0.12,1.01,-0.03
-15098.953,-0.23643945,-0.13957177,0.34736705,0.11,1.01,-0.02,27184,-5151.60,0,0,165,-15.96,-12.67,24.50,0.11,1.01,-0.02
-15098.953,-0.30643946,-0.16757178,0.39936703,0.03,1.01,-0.07,27191,-5151.60,0,0,0,-20.86,-14.63,28.14,0.03,1.01,-0.07
