Pressure_Rel,GyroX_Rel,GyroY_Rel,GyroZ_Rel,AccX_Rel,AccY_Rel,AccZ_Rel,Timestamp,Pressure_abs,HeartRate,Oxygen,Status,GyroX,GyroY,GyroZ,AccX,AccY,AccZ
0.0,0.0,0.0,0.0,0.0,0.0,0.0,5426,10139.00,0,0,0,-44.87,-13.37,20.93,-0.10,0.91,0.43
0.0,0.0,0.0,0.0,0.0,0.0,0.0,5455,10138.40,0,0,0,-157.78,-185.22,218.40,-0.09,0.91,0.43
0.0,0.0,0.0,0.0,0.0,0.0,0.0,5458,10139.30,0,0,165,2.31,-22.75,-2.59,-0.10,0.91,0.44
0.0,0.0,0.0,0.0,0.0,0.0,0.0,5466,10139.30,0,0,0,-1.82,-3.29,0.70,-0.10,0.91,0.44
0.0,0.0,0.0,0.0,0.0,0.0,0.0,5483,10139.30,0,0,165,-0.42,-3.15,0.35,-0.10,0.91,0.44
0.0,0.0,0.0,0.0,0.0,0.0,0.0,5486,10139.30,0,0,0,1.33,-3.01,-0.07,-0.10,0.91,0.44
0.0,0.0,0.0,0.0,0.0,0.0,0.0,5502,10140.30,0,0,165,3.15,-2.73,-0.28,-0.10,0.91,0.44
0.0,0.0,0.0,0.0,0.0,0.0,0.0,5516,10138.00,0,0,0,3.85,-2.66,-0.35,-0.09,0.91,0.43
0.0,0.0,0.0,0.0,0.0,0.0,0.0,5524,10139.30,0,0,165,3.57,-2.73,-0.28,-0.09,0.92,0.44
0.0,0.0,0.0,0.0,0.0,0.0,0.0,5539,10139.30,0,0,0,2.17,-2.94,-0.21,-0.09,0.91,0.43
0.0,0.0,0.0,0.0,0.0,0.0,0.0,5555,10139.30,0,0,165,0.70,-3.08,0.07,-0.09,0.92,0.44
0.0,0.0,0.0,0.0,0.0,0.0,0.0,5562,10139.30,0,0,0,-0.98,-3.36,0.28,-0.09,0.91,0.44
0.0,0.0,0.0,0.0,0.0,0.0,0.0,5577,10139.30,0,0,165,-1.89,-3.29,0.35,-0.09,0.92,0.44
0.0,0.0,0.0,0.0,0.0,0.0,0.0,5592,10139.30,0,0,0,-2.24,-3.36,0.42,-0.09,0.92,0.44
0.0,0.0,0.0,0.0,0.0,0.0,0.0,5600,10138.40,0,0,165,-1.54,-3.22,0.35,-0.09,0.91,0.44
0.0,0.0,0.0,0.0,0.0,0.0,0.0,5615,10139.30,0,0,0,-0.49,-3.15,0.21,-0.10,0.91,0.44
0.0,0.0,0.0,0.0,0.0,0.0,0.0,5630,10138.40,0,0,165,0.56,-3.08,0.07,-0.10,0.91,0.44
0.0,0.0,0.0,0.0,0.0,0.0,0.0,5638,10139.30,0,0,0,1.33,-2.87,-0.21,-0.10,0.92,0.44
0.0,0.0,0.0,0.0,0.0,0.0,0.0,5652,10138.70,0,0,165,2.03,-2.94,-0.07,-0.10,0.91,0.44
0.0,0.0,0.0,0.0,0.0,0.0,0.0,5666,10138.70,0,0,0,2.45,-2.87,-0.14,-0.10,0.91,0.44
0.0,0.0,0.0,0.0,0.0,0.0,0.0,5673,10139.30,0,0,165,2.24,-2.94,-0.14,-0.10,0.92,0.44
0.0,0.0,0.0,0.0,0.0,0.0,0.0,5689,10140.30,0,0,0,1.82,-2.94,-0.14,-0.10,0.92,0.44
0.0,0.0,0.0,0.0,0.0,0.0,0.0,5704,10139.70,0,0,165,1.19,-3.01,0.00,-0.09,0.92,0.44
0.0,0.0,0.0,0.0,0.0,0.0,0.0,5712,10139.30,0,0,0,0.14,-3.08,0.21,-0.09,0.92,0.44
0.0,0.0,0.0,0.0,0.0,0.0,0.0,5726,10140.30,0,0,165,-1.12,-3.36,0.35,-0.09,0.92,0.44
0.0,0.0,0.0,0.0,0.0,0.0,0.0,5742,10139.30,0,0,0,-1.68,-3.29,0.35,-0.09,0.92,0.44
0.0,0.0,0.0,0.0,0.0,0.0,0.0,5750,10139.30,0,0,165,-1.75,-3.36,0.35,-0.09,0.92,0.44
0.0,0.0,0.0,0.0,0.0,0.0,0.0,5765,10139.30,0,0,0,-1.19,-3.15,0.07,-0.09,0.91,0.44
0.0,0.0,0.0,0.0,0.0,0.0,0.0,5787,10140.30,0,0,165,-0.07,-3.01,0.07,-0.10,0.92,0.44
0.0,0.0,0.0,0.0,0.0,0.0,0.0,5788,10139.30,0,0,0,1.33,-2.94,0.00,-0.10,0.91,0.44
0.0,0.0,0.0,0.0,0.0,0.0,0.0,5802,10139.70,0,0,165,1.96,-2.80,-0.21,-0.10,0.92,0.44
0.0,0.0,0.0,0.0,0.0,0.0,0.0,5817,10138.70,0,0,0,2.38,-2.80,-0.07,-0.11,0.91,0.44
0.0,0.0,0.0,0.0,0.0,0.0,0.0,5827,10139.30,0,0,165,2.31,-2.87,-0.07,-0.10,0.91,0.44
0.0,0.0,0.0,0.0,0.0,0.0,0.0,5839,10139.30,0,0,0,1.96,-2.80,0.07,-0.10,0.92,0.43
0.0,0.0,0.0,0.0,0.0,0.0,0.0,5854,10139.70,0,0,165,1.61,-3.22,0.21,-0.09,0.92,0.43
0.0,0.0,0.0,0.0,0.0,0.0,0.0,5862,10138.40,0,0,0,0.84,-3.01,0.07,-0.09,0.92,0.43
0.0,0.0,0.0,0.0,0.0,0.0,0.0,5877,10139.70,0,0,165,0.00,-3.08,0.07,-0.08,0.92,0.44
0.0,0.0,0.0,0.0,0.0,0.0,0.0,5892,10138.70,0,0,0,-0.84,-3.29,0.42,-0.08,0.92,0.44
0.0,0.0,0.0,0.0,0.0,0.0,0.0,5901,10139.70,0,0,165,-1.54,-3.22,0.21,-0.09,0.92,0.44
0.0,0.0,0.0,0.0,0.0,0.0,0.0,5916,10139.30,0,0,0,-1.89,-3.36,0.35,-0.09,0.92,0.44
0.0,0.0,0.0,0.0,0.0,0.0,0.0,5929,10139.70,0,0,165,-1.75,-3.43,0.35,-0.09,0.91,0.45
0.0,0.0,0.0,0.0,0.0,0.0,0.0,5937,10139.70,0,0,0,-1.19,-3.15,0.07,-0.10,0.91,0.45
0.0,0.0,0.0,0.0,0.0,0.0,0.0,5952,10139.70,0,0,165,0.14,-3.15,0.07,-0.10,0.91,0.44
0.0,0.0,0.0,0.0,0.0,0.0,0.0,5966,10138.70,0,0,0,1.54,-3.01,-0.07,-0.10,0.91,0.44
0.0,0.0,0.0,0.0,0.0,0.0,0.0,5974,10139.70,0,0,165,2.52,-2.73,-0.28,-0.10,0.92,0.44
0.0,0.0,0.0,0.0,0.0,0.0,0.0,5989,10140.60,0,0,0,3.36,-2.66,-0.28,-0.10,0.91,0.44
0.0,0.0,0.0,0.0,0.0,0.0,0.0,6004,10138.70,0,0,165,3.50,-2.73,-0.28,-0.10,0.92,0.44
0.0,0.0,0.0,0.0,0.0,0.0,0.0,6012,10139.30,0,0,0,2.73,-2.87,-0.21,-0.10,0.92,0.44
0.0,0.0,0.0,0.0,0.0,0.0,0.0,6026,10139.70,0,0,165,1.61,-3.01,0.00,-0.09,0.92,0.43
0.0,0.0,0.0,0.0,0.0,0.0,0.0,6042,10139.70,0,0,0,-0.07,-3.22,0.14,-0.09,0.92,0.44
0.0,0.0,0.0,0.0,0.0,0.0,0.0,6050,10139.70,0,0,165,-1.19,-3.22,0.28,-0.09,0.92,0.44
0.0,0.0,0.0,0.0,0.0,0.0,0.0,6065,10139.70,0,0,0,-1.96,-3.36,0.28,-0.09,0.91,0.44
0.0,0.0,0.0,0.0,0.0,0.0,0.0,6088,10139.70,0,0,165,-1.89,-3.36,0.35,-0.09,0.91,0.44
0.0,0.0,0.0,0.0,0.0,0.0,0.0,6089,10139.70,0,0,0,-1.47,-3.22,0.28,-0.09,0.92,0.44
0.0,0.0,0.0,0.0,0.0,0.0,0.0,6103,10139.70,0,0,165,-0.56,-3.22,0.21,-0.09,0.91,0.44
0.0,0.0,0.0,0.0,0.0,0.0,0.0,6117,10138.70,0,0,0,0.49,-3.01,0.14,-0.09,0.91,0.44
0.0,0.0,0.0,0.0,0.0,0.0,0.0,6125,10139.70,0,0,165,1.26,-3.08,-0.14,-0.09,0.91,0.44
0.0,0.0,0.0,0.0,0.0,0.0,0.0,6139,10138.40,0,0,0,1.68,-2.94,-0.14,-0.10,0.91,0.44
0.0,0.0,0.0,0.0,0.0,0.0,0.0,6154,10140.60,0,0,165,1.96,-2.94,-0.14,-0.09,0.91,0.44
0.0,0.0,0.0,0.0,0.0,0.0,0.0,6162,10139.70,0,0,0,1.96,-2.94,-0.28,-0.10,0.92,0.44
0.0,0.0,0.0,0.0,0.0,0.0,0.0,6177,10139.70,0,0,165,1.75,-2.94,-0.14,-0.10,0.92,0.44
0.0,0.0,0.0,0.0,0.0,0.0,0.0,6192,10138.70,0,0,0,1.54,-2.94,-0.14,-0.10,0.92,0.43
0.0,0.0,0.0,0.0,0.0,0.0,0.0,6199,10139.70,0,0,165,0.84,-2.94,0.07,-0.10,0.92,0.43
0.0,0.0,0.0,0.0,0.0,0.0,0.0,6214,10138.70,0,0,0,-0.14,-3.22,0.21,-0.10,0.92,0.44
0.0,0.0,0.0,0.0,0.0,0.0,0.0,6228,10139.70,0,0,165,-0.84,-3.22,0.35,-0.10,0.91,0.44
0.0,0.0,0.0,0.0,0.0,0.0,0.0,6237,10139.70,0,0,0,-1.12,-3.22,0.42,-0.10,0.91,0.44
0.0,0.0,0.0,0.0,0.0,0.0,0.0,6252,10139.70,0,0,165,-0.91,-3.22,0.21,-0.09,0.92,0.44
0.0,0.0,0.0,0.0,0.0,0.0,0.0,6267,10138.70,0,0,0,-0.28,-3.22,0.14,-0.09,0.91,0.44
0.0,0.0,0.0,0.0,0.0,0.0,0.0,6274,10139.70,0,0,165,0.56,-3.08,0.00,-0.09,0.92,0.44
0.0,0.0,0.0,0.0,0.0,0.0,0.0,6289,10138.70,0,0,0,1.19,-3.01,-0.07,-0.09,0.92,0.44
0.0,0.0,0.0,0.0,0.0,0.0,0.0,6304,10139.70,0,0,165,1.40,-3.01,-0.07,-0.09,0.92,0.44
0.0,0.0,0.0,0.0,0.0,0.0,0.0,6319,10138.70,0,0,0,1.19,-3.08,0.00,-0.10,0.91,0.44
0.0,0.0,0.0,0.0,0.0,0.0,0.0,6326,10139.70,0,0,165,1.05,-3.08,0.00,-0.09,0.92,0.44
0.0,0.0,0.0,0.0,0.0,0.0,0.0,6341,10139.70,0,0,0,0.63,-3.01,0.00,-0.09,0.92,0.44
0.0,0.0,0.0,0.0,0.0,0.0,0.0,6348,10138.70,0,0,165,0.49,-2.94,0.14,-0.09,0.92,0.44
0.0,0.0,0.0,0.0,0.0,0.0,0.0,6363,10139.70,0,0,0,0.28,-3.01,0.07,-0.09,0.92,0.44
0.0,0.0,0.0,0.0,0.0,0.0,0.0,6379,10139.70,0,0,165,0.14,-3.01,0.14,-0.10,0.92,0.44
0.0,0.0,0.0,0.0,0.0,0.0,0.0,6386,10139.70,0,0,0,-0.14,-3.15,0.35,-0.10,0.92,0.44
0.0,0.0,0.0,0.0,0.0,0.0,0.0,6402,10139.30,0,0,165,-0.14,-3.15,0.28,-0.10,0.92,0.44
0.0,0.0,0.0,0.0,0.0,0.0,0.0,6416,10139.70,0,0,0,0.14,-3.01,0.14,-0.10,0.92,0.44
0.0,0.0,0.0,0.0,0.0,0.0,0.0,6423,10139.70,0,0,165,0.35,-3.01,0.07,-0.10,0.92,0.44
0.0,0.0,0.0,0.0,0.0,0.0,0.0,6439,10138.70,0,0,0,0.84,-2.87,0.00,-0.09,0.92,0.44
0.0,0.0,0.0,0.0,0.0,0.0,0.0,6453,10138.40,0,0,165,1.40,-2.87,-0.07,-0.09,0.92,0.44
0.0,0.0,0.0,0.0,0.0,0.0,0.0,6461,10138.70,0,0,0,1.75,-2.87,-0.07,-0.09,0.92,0.44
0.0,0.0,0.0,0.0,0.0,0.0,0.0,6477,10140.60,0,0,165,1.47,-3.01,-0.07,-0.09,0.92,0.44
0.0,0.0,0.0,0.0,0.0,0.0,0.0,6491,10139.70,0,0,0,0.84,-3.08,0.07,-0.09,0.92,0.44
0.0,0.0,0.0,0.0,0.0,0.0,0.0,6499,10139.70,0,0,165,0.07,-3.15,0.07,-0.09,0.92,0.44
0.0,0.0,0.0,0.0,0.0,0.0,0.0,6514,10139.70,0,0,0,-0.63,-3.15,0.21,-0.10,0.92,0.44
0.0,0.0,0.0,0.0,0.0,0.0,0.0,6529,10140.60,0,0,165,-0.91,-3.15,0.21,-0.10,0.92,0.44
0.0,0.0,0.0,0.0,0.0,0.0,0.0,6536,10138.70,0,0,0,-0.70,-3.08,0.14,-0.10,0.91,0.44
0.0,0.0,0.0,0.0,0.0,0.0,0.0,6551,10138.70,0,0,165,-0.35,-3.15,0.07,-0.10,0.91,0.44
0.0,0.0,0.0,0.0,0.0,0.0,0.0,6567,10138.70,0,0,0,-0.07,-3.15,0.14,-0.09,0.92,0.44
0.0,0.0,0.0,0.0,0.0,0.0,0.0,6574,10139.70,0,0,165,0.35,-3.15,-17.78,-0.10,0.91,0.44
0.0,0.0,0.0,0.0,0.0,0.0,0.0,6588,10139.70,0,0,0,1.19,-2.94,0.07,-0.09,0.92,0.44
0.0,0.0,0.0,0.0,0.0,0.0,0.0,6604,10140.60,0,0,165,1.82,-2.94,-0.14,-0.09,0.92,0.44
0.0,0.0,0.0,0.0,0.0,0.0,0.0,6611,10138.70,0,0,0,2.45,-2.73,-0.14,-0.09,0.92,0.44
0.0,0.0,0.0,0.0,0.0,0.0,0.0,6627,10139.70,0,0,165,2.66,-2.80,-0.28,-0.10,0.92,0.43
0.0,0.0,0.0,0.0,0.0,0.0,0.0,6641,10137.70,0,0,0,2.38,-2.80,-0.14,-0.10,0.92,0.43
0.0,0.0,0.0,0.0,0.0,0.0,0.0,6650,10139.70,0,0,165,0.98,-3.08,0.00,-0.10,0.92,0.44
0.0,0.0,0.0,0.0,0.0,0.0,0.0,6664,10139.70,0,0,0,-0.49,-3.15,0.00,-0.10,0.92,0.44
0.0,0.0,0.0,0.0,0.0,0.0,0.0,6679,10139.70,0,0,165,-1.68,-3.43,0.42,-0.10,0.92,0.44
0.0,0.0,0.0,0.0,0.0,0.0,0.0,6686,10138.70,0,0,0,-2.38,-3.50,0.35,-0.09,0.92,0.44
0.0,0.0,0.0,0.0,0.0,0.0,0.0,6703,10138.70,0,0,165,-1.89,-3.29,0.35,-0.09,0.91,0.44
0.0,0.0,0.0,0.0,0.0,0.0,0.0,6716,10139.70,0,0,0,-0.49,-3.15,0.21,-0.09,0.91,0.44
0.0,0.0,0.0,0.0,0.0,0.0,0.0,6723,10139.70,0,0,165,0.84,-3.01,-0.07,-0.09,0.91,0.44
0.0,0.0,0.0,0.0,0.0,0.0,0.0,6738,10139.70,0,0,0,1.89,-2.80,-0.14,-0.09,0.91,0.44
0.0,0.0,0.0,0.0,0.0,0.0,0.0,6754,10138.70,0,0,165,2.38,-2.80,-0.28,-0.09,0.91,0.44
0.0,0.0,0.0,0.0,0.0,0.0,0.0,6765,10139.70,0,0,0,2.31,-3.01,-0.14,-0.10,0.92,0.44
0.0,0.0,0.0,0.0,0.0,0.0,0.0,6776,10139.70,0,0,165,1.89,-2.94,-0.14,-0.10,0.92,0.44
0.0,0.0,0.0,0.0,0.0,0.0,0.0,6792,10140.00,0,0,0,1.05,-3.01,-0.07,-0.10,0.92,0.44
0.0,0.0,0.0,0.0,0.0,0.0,0.0,6801,10139.70,0,0,165,0.35,-3.08,-0.07,-0.10,0.92,0.44
0.0,0.0,0.0,0.0,0.0,0.0,0.0,6814,10140.00,0,0,0,-0.28,-3.15,0.14,-0.09,0.92,0.44
0.0,0.0,0.0,0.0,0.0,0.0,0.0,6829,10139.70,0,0,165,-0.56,-3.15,0.21,-0.10,0.91,0.44
0.0,0.0,0.0,0.0,0.0,0.0,0.0,6836,10139.70,0,0,0,-0.70,-3.29,0.21,-0.09,0.91,0.44
0.0,0.0,0.0,0.0,0.0,0.0,0.0,6852,10140.60,0,0,165,-0.63,-3.15,0.28,-0.10,0.92,0.44
0.0,0.0,0.0,0.0,0.0,0.0,0.0,6867,10139.70,0,0,0,-0.14,-3.15,0.21,-0.10,0.92,0.44
0.0,0.0,0.0,0.0,0.0,0.0,0.0,6874,10138.70,0,0,165,0.56,-3.01,0.00,-0.10,0.92,0.44
0.0,0.0,0.0,0.0,0.0,0.0,0.0,6891,10138.70,0,0,0,1.26,-3.01,-0.07,-0.09,0.92,0.44
0.0,0.0,0.0,0.0,0.0,0.0,0.0,6904,10139.70,0,0,165,1.82,-2.87,-0.07,-0.09,0.91,0.44
0.0,0.0,0.0,0.0,0.0,0.0,0.0,6911,10138.70,0,0,0,1.68,-2.94,-0.07,-0.09,0.92,0.44
0.0,0.0,0.0,0.0,0.0,0.0,0.0,6926,10140.00,0,0,165,1.12,-3.08,0.14,-0.09,0.92,0.44
0.0,0.0,0.0,0.0,0.0,0.0,0.0,6942,10138.70,0,0,0,0.42,-3.15,0.21,-0.09,0.92,0.44
0.0,0.0,0.0,0.0,0.0,0.0,0.0,6949,10138.70,0,0,165,-0.14,-3.08,0.21,-0.09,0.92,0.44
0.0,0.0,0.0,0.0,0.0,0.0,0.0,6965,10139.70,0,0,0,-0.63,-3.29,0.07,-0.09,0.92,0.44
0.0,0.0,0.0,0.0,0.0,0.0,0.0,6979,10138.70,0,0,165,-0.35,-3.15,0.00,-0.09,0.92,0.44
0.0,0.0,0.0,0.0,0.0,0.0,0.0,6986,10138.70,0,0,0,-0.14,-3.08,0.07,-0.10,0.92,0.44
0.0,0.0,0.0,0.0,0.0,0.0,0.0,7002,10139.70,0,0,165,0.49,-3.08,0.21,-0.10,0.92,0.44
0.0,0.0,0.0,0.0,0.0,0.0,0.0,7017,10137.70,0,0,0,0.98,-3.08,0.00,-0.10,0.92,0.44
0.0,0.0,0.0,0.0,0.0,0.0,0.0,7024,10139.70,0,0,165,1.19,-2.94,0.00,-0.10,0.92,0.44
0.0,0.0,0.0,0.0,0.0,0.0,0.0,7039,10140.60,0,0,0,1.26,-2.94,0.00,-0.10,0.92,0.44
0.0,0.0,0.0,0.0,0.0,0.0,0.0,7055,10139.70,0,0,165,1.05,-3.01,0.00,-0.10,0.92,0.44
0.0,0.0,0.0,0.0,0.0,0.0,0.0,7061,10139.70,0,0,0,0.42,-3.01,0.07,-0.10,0.92,0.44
0.0,0.0,0.0,0.0,0.0,0.0,0.0,7076,10139.70,0,0,165,0.14,-3.08,0.07,-0.10,0.92,0.44
0.0,0.0,0.0,0.0,0.0,0.0,0.0,7091,10138.70,0,0,0,-0.07,-3.22,0.07,-0.09,0.91,0.44
0.0,0.0,0.0,0.0,0.0,0.0,0.0,7100,10138.70,0,0,165,-0.07,-3.01,0.14,-0.09,0.92,0.44
0.0,0.0,0.0,0.0,0.0,0.0,0.0,7117,10139.70,0,0,0,0.14,-3.15,0.21,-0.09,0.92,0.44
0.0,0.0,0.0,0.0,0.0,0.0,0.0,7131,10139.70,0,0,165,0.28,-3.08,0.28,-0.09,0.92,0.44
0.0,0.0,0.0,0.0,0.0,0.0,0.0,7136,10139.70,0,0,0,0.49,-3.08,0.07,-0.09,0.92,0.44
0.0,0.0,0.0,0.0,0.0,0.0,0.0,7155,10138.70,0,0,165,0.56,-3.01,0.14,-0.10,0.92,0.44
0.0,0.0,0.0,0.0,0.0,0.0,0.0,7168,10139.70,0,0,0,1.05,-3.08,0.07,-0.09,0.91,0.44
0.0,0.0,0.0,0.0,0.0,0.0,0.0,7186,10139.70,0,0,165,0.70,-2.94,0.00,-0.09,0.91,0.44
0.0,0.0,0.0,0.0,0.0,0.0,0.0,7196,10139.70,0,0,0,0.70,-3.08,0.07,-0.10,0.92,0.44
0.0,0.0,0.0,0.0,0.0,0.0,0.0,7205,10139.70,0,0,165,0.56,-2.94,0.00,-0.09,0.91,0.44
-0.82714844,0.010763978,0.0019192249,-0.0017049693,-0.09,0.92,0.43,11241,10138.70,0,0,0,1.33,-2.94,-0.07,-0.09,0.92,0.43
-0.52734375,0.008763977,9.1922283E-4,-7.049693E-4,-0.1,0.92,0.43,11243,10139.00,0,0,165,1.19,-3.01,0.00,-0.10,0.92,0.43
0.47265625,0.0027639763,9.1922283E-4,-7.049693E-4,-0.1,0.92,0.42,11254,10140.00,0,0,0,0.77,-3.01,0.00,-0.10,0.92,0.42
0.47265625,-0.0042360234,9.1922283E-4,2.9503077E-4,-0.1,0.92,0.42,11276,10140.00,0,0,165,0.28,-3.01,0.07,-0.10,0.92,0.42
0.47265625,-0.008236024,-8.077547E-5,0.0012950308,-0.1,0.92,0.42,11279,10140.00,0,0,0,0.00,-3.08,0.14,-0.10,0.92,0.42
1.4726562,-0.015236024,-0.003080774,0.0022950305,-0.1,0.92,0.43,11292,10141.00,0,0,165,-0.49,-3.29,0.21,-0.10,0.92,0.43
1.4726562,-0.016236024,-0.0020807758,0.0022950305,-0.1,0.92,0.43,11300,10141.00,0,0,0,-0.56,-3.22,0.21,-0.10,0.92,0.43
0.17285156,-0.012236023,9.1922283E-4,0.0012950308,-0.1,0.92,0.43,11315,10139.70,0,0,165,-0.28,-3.01,0.14,-0.10,0.92,0.43
-0.52734375,-0.008236024,-0.0010807775,0.0012950308,-0.1,0.92,0.43,11330,10139.00,0,0,0,0.00,-3.15,0.14,-0.10,0.92,0.43
0.47265625,-0.0012360234,0.0019192249,2.9503077E-4,-0.1,0.92,0.43,11337,10140.00,0,0,165,0.49,-2.94,0.07,-0.10,0.92,0.43
0.47265625,0.008763977,0.002919227,2.9503077E-4,-0.1,0.92,0.43,11351,10140.00,0,0,0,1.19,-2.87,0.07,-0.10,0.92,0.43
-0.52734375,0.013763976,9.1922283E-4,-0.0017049693,-0.1,0.93,0.43,11366,10139.00,0,0,165,1.54,-3.01,-0.07,-0.10,0.93,0.43
-1.4277344,0.014763976,9.1922283E-4,-0.0017049693,-0.1,0.92,0.42,11374,10138.10,0,0,0,1.61,-3.01,-0.07,-0.10,0.92,0.42
-0.52734375,0.009763976,0.0019192249,-0.0027049694,-0.09,0.92,0.43,11389,10139.00,0,0,165,1.26,-2.94,-0.14,-0.09,0.92,0.43
0.47265625,0.0017639762,9.1922283E-4,-7.049693E-4,-0.09,0.92,0.42,11404,10140.00,0,0,0,0.70,-3.01,0.00,-0.09,0.92,0.42
-0.12695312,-0.005236024,-8.077547E-5,2.9503077E-4,-0.1,0.92,0.42,11411,10139.40,0,0,165,0.21,-3.08,0.07,-0.10,0.92,0.42
1.4726562,-0.012236023,-8.077547E-5,0.0022950305,-0.1,0.93,0.42,11426,10141.00,0,0,0,-0.28,-3.08,0.21,-0.10,0.93,0.42
0.47265625,-0.014236024,-0.0010807775,0.003295031,-0.1,0.92,0.43,11442,10140.00,0,0,165,-0.42,-3.15,0.28,-0.10,0.92,0.43
0.47265625,-0.015236024,-8.077547E-5,0.0012950308,-0.09,0.92,0.43,11449,10140.00,0,0,0,-0.49,-3.08,0.14,-0.09,0.92,0.43
1.4726562,-0.010236024,-0.0020807758,0.0012950308,-0.1,0.92,0.42,11464,10141.00,0,0,165,-0.14,-3.22,0.14,-0.10,0.92,0.42
0.47265625,-0.002236024,-0.0010807775,-0.0017049693,-0.1,0.92,0.43,11479,10140.00,0,0,0,0.42,-3.15,-0.07,-0.10,0.92,0.43
0.47265625,0.0037639756,9.1922283E-4,-0.0017049693,-0.1,0.92,0.43,11487,10140.00,0,0,165,0.84,-3.01,-0.07,-0.10,0.92,0.43
-0.52734375,0.011763976,-8.077547E-5,-0.0017049693,-0.1,0.92,0.43,11502,10139.00,0,0,0,1.40,-3.08,-0.07,-0.10,0.92,0.43
0.47265625,0.011763976,0.0019192249,-7.049693E-4,-0.1,0.92,0.43,11516,10140.00,0,0,165,1.40,-2.94,0.00,-0.10,0.92,0.43
0.47265625,0.009763976,9.1922283E-4,-7.049693E-4,-0.1,0.92,0.43,11524,10140.00,0,0,0,1.26,-3.01,0.00,-0.10,0.92,0.43
0.47265625,0.0027639763,9.1922283E-4,2.9503077E-4,-0.1,0.92,0.42,11539,10140.00,0,0,165,0.77,-3.01,0.07,-0.10,0.92,0.42
-0.52734375,-0.0042360234,-8.077547E-5,0.0012950308,-0.1,0.92,0.42,11554,10139.00,0,0,0,0.28,-3.08,0.14,-0.10,0.92,0.42
0.47265625,-0.0072360234,-0.0020807758,2.9503077E-4,-0.1,0.92,0.43,11563,10140.00,0,0,165,0.07,-3.22,0.07,-0.10,0.92,0.43
-0.52734375,-0.012236023,-0.0010807775,0.0012950308,-0.1,0.92,0.42,11577,10139.00,0,0,0,-0.28,-3.15,0.14,-0.10,0.92,0.42
0.47265625,-0.011236023,-8.077547E-5,0.0022950305,-0.1,0.92,0.42,11592,10140.00,0,0,165,-0.21,-3.08,0.21,-0.10,0.92,0.42
0.47265625,-0.0072360234,-0.0010807775,0.0012950308,-0.1,0.92,0.43,11600,10140.00,0,0,0,0.07,-3.15,0.14,-0.10,0.92,0.43
-0.52734375,-0.005236024,-8.077547E-5,0.0022950305,-0.1,0.92,0.43,11614,10139.00,0,0,165,0.21,-3.08,0.21,-0.10,0.92,0.43
0.47265625,-2.3602322E-4,9.1922283E-4,2.9503077E-4,-0.1,0.92,0.43,11629,10140.00,0,0,0,0.56,-3.01,0.07,-0.10,0.92,0.43
0.47265625,0.0037639756,9.1922283E-4,-0.0017049693,-0.1,0.92,0.43,11637,10140.00,0,0,165,0.84,-3.01,-0.07,-0.10,0.92,0.43
0.47265625,0.006763976,9.1922283E-4,2.9503077E-4,-0.1,0.92,0.43,11651,10140.00,0,0,0,1.05,-3.01,0.07,-0.10,0.92,0.43
0.47265625,0.005763977,-8.077547E-5,-0.0017049693,-0.09,0.92,0.42,11667,10140.00,0,0,165,0.98,-3.08,-0.07,-0.09,0.92,0.42
0.47265625,0.0037639756,-8.077547E-5,-0.0017049693,-0.09,0.93,0.42,11674,10140.00,0,0,0,0.84,-3.08,-0.07,-0.09,0.93,0.42
-0.52734375,7.63976E-4,9.1922283E-4,2.9503077E-4,-0.09,0.92,0.43,11689,10139.00,0,0,165,0.63,-3.01,0.07,-0.09,0.92,0.43
1.4726562,-0.0042360234,-8.077547E-5,2.9503077E-4,-0.1,0.92,0.42,11704,10141.00,0,0,0,0.28,-3.08,0.07,-0.10,0.92,0.42
0.47265625,-0.005236024,-8.077547E-5,0.0012950308,-0.1,0.92,0.42,11712,10140.00,0,0,165,0.21,-3.08,0.14,-0.10,0.92,0.42
0.47265625,-0.0062360233,-8.077547E-5,0.0012950308,-0.1,0.92,0.42,11726,10140.00,0,0,0,0.14,-3.08,0.14,-0.10,0.92,0.42
0.47265625,-0.0072360234,-8.077547E-5,0.0022950305,-0.1,0.93,0.43,11742,10140.00,0,0,165,0.07,-3.08,0.21,-0.10,0.93,0.43
0.47265625,-0.005236024,-8.077547E-5,0.0022950305,-0.1,0.92,0.42,11749,10140.00,0,0,0,0.21,-3.08,0.21,-0.10,0.92,0.42
-0.52734375,-0.0042360234,9.1922283E-4,-0.0017049693,-0.1,0.92,0.43,11765,10139.00,0,0,165,0.28,-3.01,-0.07,-0.10,0.92,0.43
-0.52734375,-0.0032360237,-8.077547E-5,2.9503077E-4,-0.1,0.92,0.42,11779,10139.00,0,0,0,0.35,-3.08,0.07,-0.10,0.92,0.42
0.47265625,-0.0012360234,-8.077547E-5,-7.049693E-4,-0.1,0.92,0.43,11786,10140.00,0,0,165,0.49,-3.08,0.00,-0.10,0.92,0.43
-0.52734375,7.63976E-4,0.0019192249,2.9503077E-4,-0.1,0.92,0.43,11801,10139.00,0,0,0,0.63,-2.94,0.07,-0.10,0.92,0.43
-0.52734375,0.0027639763,-8.077547E-5,2.9503077E-4,-0.1,0.92,0.42,11816,10139.00,0,0,165,0.77,-3.08,0.07,-0.10,0.92,0.42
0.47265625,0.0037639756,9.1922283E-4,-7.049693E-4,-0.1,0.92,0.42,11824,10140.00,0,0,0,0.84,-3.01,0.00,-0.10,0.92,0.42
0.47265625,0.0047639767,0.0019192249,0.0012950308,-0.1,0.92,0.43,11839,10140.00,0,0,165,0.91,-2.94,0.14,-0.10,0.92,0.43
0.47265625,0.0027639763,9.1922283E-4,0.0022950305,-0.1,0.93,0.42,11855,10140.00,0,0,0,0.77,-3.01,0.21,-0.10,0.93,0.42
0.47265625,7.63976E-4,9.1922283E-4,2.9503077E-4,-0.1,0.92,0.42,11862,10140.00,0,0,165,0.63,-3.01,0.07,-0.10,0.92,0.42
0.47265625,-0.0042360234,-0.0010807775,0.0012950308,-0.1,0.92,0.43,11877,10140.00,0,0,0,0.28,-3.15,0.14,-0.10,0.92,0.43
0.47265625,-0.0072360234,-0.0010807775,2.9503077E-4,-0.1,0.92,0.42,11892,10140.00,0,0,165,0.07,-3.15,0.07,-0.10,0.92,0.42
0.47265625,-0.009236024,-0.0010807775,0.0012950308,-0.1,0.92,0.43,11900,10140.00,0,0,0,-0.07,-3.15,0.14,-0.10,0.92,0.43
0.47265625,-0.010236024,-0.0010807775,0.0012950308,-0.1,0.92,0.42,11915,10140.00,0,0,165,-0.14,-3.15,0.14,-0.10,0.92,0.42
0.47265625,-0.0072360234,-8.077547E-5,-7.049693E-4,-0.1,0.92,0.43,11929,10140.00,0,0,0,0.07,-3.08,0.00,-0.10,0.92,0.43
1.0722656,-0.0012360234,0.0019192249,2.9503077E-4,-0.1,0.92,0.42,11937,10140.60,0,0,165,0.49,-2.94,0.07,-0.10,0.92,0.42
-0.52734375,0.0047639767,9.1922283E-4,2.9503077E-4,-0.09,0.92,0.43,11951,10139.00,0,0,0,0.91,-3.01,0.07,-0.09,0.92,0.43
-0.52734375,0.005763977,0.0019192249,-0.0017049693,-0.1,0.93,0.42,11966,10139.00,0,0,165,0.98,-2.94,-0.07,-0.10,0.93,0.42
0.47265625,0.009763976,0.0019192249,2.9503077E-4,-0.1,0.93,0.43,11974,10140.00,0,0,0,1.26,-2.94,0.07,-0.10,0.93,0.43
0.47265625,0.008763977,9.1922283E-4,-0.0017049693,-0.1,0.92,0.42,11988,10140.00,0,0,165,1.19,-3.01,-0.07,-0.10,0.92,0.42
-0.52734375,0.0037639756,-8.077547E-5,2.9503077E-4,-0.1,0.92,0.42,12003,10139.00,0,0,0,0.84,-3.08,0.07,-0.10,0.92,0.42
-0.52734375,-0.0012360234,0.0019192249,2.9503077E-4,-0.1,0.92,0.42,12010,10139.00,0,0,165,0.49,-2.94,0.07,-0.10,0.92,0.42
0.47265625,-0.010236024,-8.077547E-5,0.0022950305,-0.1,0.92,0.42,12026,10140.00,0,0,0,-0.14,-3.08,0.21,-0.10,0.92,0.42
0.47265625,-0.014236024,-0.0010807775,0.003295031,-0.1,0.92,0.43,12041,10140.00,0,0,165,-0.42,-3.15,0.28,-0.10,0.92,0.43
0.47265625,-0.015236024,-0.0020807758,0.0012950308,-0.1,0.92,0.43,12049,10140.00,0,0,0,-0.49,-3.22,0.14,-0.10,0.92,0.43
-0.52734375,-0.012236023,-8.077547E-5,0.0022950305,-0.1,0.92,0.43,12064,10139.00,0,0,165,-0.28,-3.08,0.21,-0.10,0.92,0.43
0.47265625,-0.0062360233,-0.0010807775,2.9503077E-4,-0.1,0.92,0.43,12079,10140.00,0,0,0,0.14,-3.15,0.07,-0.10,0.92,0.43
-0.52734375,0.0017639762,-8.077547E-5,-0.0017049693,-0.1,0.92,0.43,12086,10139.00,0,0,165,0.70,-3.08,-0.07,-0.10,0.92,0.43
0.47265625,0.008763977,9.1922283E-4,-0.0017049693,-0.1,0.92,0.43,12101,10140.00,0,0,0,1.19,-3.01,-0.07,-0.10,0.92,0.43
0.47265625,0.012763976,0.0019192249,2.9503077E-4,-0.1,0.92,0.42,12117,10140.00,0,0,165,1.47,-2.94,0.07,-0.10,0.92,0.42
-0.82714844,0.013763976,0.002919227,-7.049693E-4,-0.1,0.92,0.42,12124,10138.70,0,0,0,1.54,-2.87,0.00,-0.10,0.92,0.42
-0.52734375,0.005763977,9.1922283E-4,2.9503077E-4,-0.1,0.92,0.43,12138,10139.00,0,0,165,0.98,-3.01,0.07,-0.10,0.92,0.43
0.47265625,-0.002236024,-0.0010807775,2.9503077E-4,-0.1,0.92,0.42,12154,10140.00,0,0,0,0.42,-3.15,0.07,-0.10,0.92,0.42
0.47265625,-0.0072360234,-8.077547E-5,2.9503077E-4,-0.1,0.92,0.43,12161,10140.00,0,0,165,0.07,-3.08,0.07,-0.10,0.92,0.43
-0.52734375,-0.012236023,-0.0010807775,0.0012950308,-0.1,0.93,0.43,12176,10139.00,0,0,0,-0.28,-3.15,0.14,-0.10,0.93,0.43
0.47265625,-0.014236024,-0.0010807775,-7.049693E-4,-0.1,0.92,0.42,12191,10140.00,0,0,165,-0.42,-3.15,0.00,-0.10,0.92,0.42
0.47265625,-0.0072360234,9.1922283E-4,0.0012950308,-0.1,0.92,0.43,12199,10140.00,0,0,0,0.07,-3.01,0.14,-0.10,0.92,0.43
0.47265625,-0.0032360237,-8.077547E-5,2.9503077E-4,-0.09,0.92,0.43,12214,10140.00,0,0,165,0.35,-3.08,0.07,-0.09,0.92,0.43
0.47265625,0.0017639762,0.0019192249,2.9503077E-4,-0.09,0.92,0.43,12229,10140.00,0,0,0,0.70,-2.94,0.07,-0.09,0.92,0.43
0.47265625,0.009763976,0.0019192249,2.9503077E-4,-0.1,0.93,0.42,12236,10140.00,0,0,165,1.26,-2.94,0.07,-0.10,0.93,0.42
0.47265625,0.013763976,0.0019192249,-0.0027049694,-0.1,0.92,0.42,12251,10140.00,0,0,0,1.54,-2.94,-0.14,-0.10,0.92,0.42
1.4726562,0.009763976,0.0019192249,-7.049693E-4,-0.1,0.93,0.42,12265,10141.00,0,0,165,1.26,-2.94,0.00,-0.10,0.93,0.42
-0.52734375,0.0017639762,-8.077547E-5,-0.0017049693,-0.1,0.93,0.42,12273,10139.00,0,0,0,0.70,-3.08,-0.07,-0.10,0.93,0.42
0.47265625,-0.0062360233,9.1922283E-4,0.0012950308,-0.1,0.92,0.42,12288,10140.00,0,0,165,0.14,-3.01,0.14,-0.10,0.92,0.42
0.47265625,-0.017236024,-0.0020807758,0.003295031,-0.1,0.92,0.42,12304,10140.00,0,0,0,-0.63,-3.22,0.28,-0.10,0.92,0.42
-0.52734375,-0.023236023,-0.0020807758,0.003295031,-0.1,0.92,0.42,12312,10139.00,0,0,165,-1.05,-3.22,0.28,-0.10,0.92,0.42
-0.52734375,-0.020236023,-0.0010807775,0.0022950305,-0.1,0.93,0.43,12326,10139.00,0,0,0,-0.84,-3.15,0.21,-0.10,0.93,0.43
-0.52734375,-0.012236023,-8.077547E-5,0.0022950305,-0.09,0.92,0.43,12341,10139.00,0,0,165,-0.28,-3.08,0.21,-0.09,0.92,0.43
-0.52734375,7.63976E-4,0.002919227,-0.0017049693,-0.09,0.92,0.43,12348,10139.00,0,0,0,0.63,-2.87,-0.07,-0.09,0.92,0.43
0.47265625,0.013763976,0.0019192249,-0.0017049693,-0.09,0.92,0.42,12364,10140.00,0,0,165,1.54,-2.94,-0.07,-0.09,0.92,0.42
-0.52734375,0.026763976,0.003919225,-0.0027049694,-0.09,0.92,0.42,12386,10139.00,0,0,0,2.45,-2.80,-0.14,-0.09,0.92,0.42
0.47265625,0.025763977,0.003919225,-0.0047049695,-0.09,0.93,0.42,12394,10140.00,0,0,165,2.38,-2.80,-0.28,-0.09,0.93,0.42
0.47265625,0.022763979,9.1922283E-4,-0.0027049694,-0.09,0.93,0.42,12401,10140.00,0,0,0,2.17,-3.01,-0.14,-0.09,0.93,0.42
0.47265625,0.012763976,9.1922283E-4,-7.049693E-4,-0.1,0.93,0.42,12416,10140.00,0,0,165,1.47,-3.01,0.00,-0.10,0.93,0.42
-0.82714844,-0.005236024,-0.0010807775,-7.049693E-4,-0.1,0.93,0.42,12424,10138.70,0,0,0,0.21,-3.15,0.00,-0.10,0.93,0.42
0.47265625,-0.019236024,-0.0010807775,0.003295031,-0.1,0.92,0.42,12439,10140.00,0,0,165,-0.77,-3.15,0.28,-0.10,0.92,0.42
0.47265625,-0.029236022,-0.0020807758,0.0042950306,-0.1,0.92,0.42,12446,10140.00,0,0,0,-1.47,-3.22,0.35,-0.10,0.92,0.42
0.17285156,-0.033236023,-0.0020807758,0.006295031,-0.1,0.92,0.43,12461,10139.70,0,0,165,-1.75,-3.22,0.49,-0.10,0.92,0.43
1.4726562,-0.027236026,-0.0020807758,0.006295031,-0.1,0.92,0.43,12475,10141.00,0,0,0,-1.33,-3.22,0.49,-0.10,0.92,0.43
0.47265625,-0.018236022,-0.0010807775,0.0022950305,-0.1,0.92,0.43,12483,10140.00,0,0,165,-0.70,-3.15,0.21,-0.10,0.92,0.43
0.47265625,-0.002236024,-8.077547E-5,-0.0017049693,-0.1,0.92,0.43,12499,10140.00,0,0,0,0.42,-3.08,-0.07,-0.10,0.92,0.43
0.47265625,0.014763976,0.0019192249,-0.003704969,-0.1,0.92,0.42,12514,10140.00,0,0,165,1.61,-2.94,-0.21,-0.10,0.92,0.42
-0.52734375,0.030763976,0.002919227,-0.005704969,-0.09,0.92,0.42,12520,10139.00,0,0,0,2.73,-2.87,-0.35,-0.09,0.92,0.42
0.47265625,0.035763975,0.003919225,-0.003704969,-0.09,0.93,0.42,12536,10140.00,0,0,165,3.08,-2.80,-0.21,-0.09,0.93,0.42
-0.52734375,0.029763978,0.003919225,-0.0027049694,-0.1,0.92,0.42,12551,10139.00,0,0,0,2.66,-2.80,-0.14,-0.10,0.92,0.42
-0.52734375,0.012763976,9.1922283E-4,-7.049693E-4,-0.1,0.92,0.42,12558,10139.00,0,0,165,1.47,-3.01,0.00,-0.10,0.92,0.42
0.47265625,-0.005236024,-8.077547E-5,0.0022950305,-0.1,0.93,0.42,12573,10140.00,0,0,0,0.21,-3.08,0.21,-0.10,0.93,0.42
0.47265625,-0.021236025,-0.0020807758,0.0022950305,-0.1,0.92,0.42,12589,10140.00,0,0,165,-0.91,-3.22,0.21,-0.10,0.92,0.42
0.47265625,-0.031236023,-0.0040807724,0.0052950303,-0.1,0.92,0.42,12596,10140.00,0,0,0,-1.61,-3.36,0.42,-0.10,0.92,0.42
0.47265625,-0.033236023,-0.0020807758,0.0042950306,-0.1,0.93,0.43,12611,10140.00,0,0,165,-1.75,-3.22,0.35,-0.10,0.93,0.43
-0.52734375,-0.023236023,-0.0020807758,0.0022950305,-0.1,0.93,0.43,12626,10139.00,0,0,0,-1.05,-3.22,0.21,-0.10,0.93,0.43
0.47265625,-0.0062360233,-0.0020807758,0.0022950305,-0.1,0.92,0.43,12633,10140.00,0,0,165,0.14,-3.22,0.21,-0.10,0.92,0.43
0.47265625,0.010763978,0.0019192249,-0.0017049693,-0.1,0.92,0.42,12650,10140.00,0,0,0,1.33,-2.94,-0.07,-0.10,0.92,0.42
0.47265625,0.022763979,0.0019192249,-0.0017049693,-0.1,0.92,0.42,12666,10140.00,0,0,165,2.17,-2.94,-0.07,-0.10,0.92,0.42
0.47265625,0.026763976,0.003919225,-0.003704969,-0.1,0.92,0.42,12671,10140.00,0,0,0,2.45,-2.80,-0.21,-0.10,0.92,0.42
0.47265625,0.024763975,0.003919225,-0.0027049694,-0.1,0.93,0.42,12686,10140.00,0,0,165,2.31,-2.80,-0.14,-0.10,0.93,0.42
0.47265625,0.014763976,0.0019192249,-0.0017049693,-0.1,0.92,0.42,12701,10140.00,0,0,0,1.61,-2.94,-0.07,-0.10,0.92,0.42
-0.52734375,0.0017639762,9.1922283E-4,0.0012950308,-0.1,0.93,0.42,12708,10139.00,0,0,165,0.70,-3.01,0.14,-0.10,0.93,0.42
0.47265625,-0.0132360235,-0.0020807758,0.0012950308,-0.1,0.92,0.42,12723,10140.00,0,0,0,-0.35,-3.22,0.14,-0.10,0.92,0.42
-0.82714844,-0.022236023,-0.0020807758,0.0012950308,-0.09,0.92,0.42,12738,10138.70,0,0,165,-0.98,-3.22,0.14,-0.09,0.92,0.42
0.47265625,-0.025236025,-0.0020807758,0.003295031,-0.1,0.92,0.42,12746,10140.00,0,0,0,-1.19,-3.22,0.28,-0.10,0.92,0.42
0.47265625,-0.022236023,-0.003080774,0.0042950306,-0.1,0.92,0.43,12762,10140.00,0,0,165,-0.98,-3.29,0.35,-0.10,0.92,0.43
0.47265625,-0.012236023,-0.0010807775,0.0012950308,-0.1,0.92,0.42,12776,10140.00,0,0,0,-0.28,-3.15,0.14,-0.10,0.92,0.42
0.47265625,-2.3602322E-4,9.1922283E-4,2.9503077E-4,-0.1,0.92,0.42,12784,10140.00,0,0,165,0.56,-3.01,0.07,-0.10,0.92,0.42
-0.82714844,0.011763976,9.1922283E-4,-0.0027049694,-0.1,0.92,0.42,12799,10138.70,0,0,0,1.40,-3.01,-0.14,-0.10,0.92,0.42
0.47265625,0.015763976,0.002919227,-0.0027049694,-0.1,0.92,0.42,12814,10140.00,0,0,165,1.68,-2.87,-0.14,-0.10,0.92,0.42
-0.52734375,0.015763976,-8.077547E-5,-0.003704969,-0.1,0.92,0.43,12822,10139.00,0,0,0,1.68,-3.08,-0.21,-0.10,0.92,0.43
-0.52734375,0.013763976,-8.077547E-5,-0.0017049693,-0.1,0.92,0.42,12836,10139.00,0,0,165,1.54,-3.08,-0.07,-0.10,0.92,0.42
-0.52734375,0.007763977,9.1922283E-4,-0.0017049693,-0.1,0.92,0.42,12851,10139.00,0,0,0,1.12,-3.01,-0.07,-0.10,0.92,0.42
-0.52734375,-0.0032360237,-0.0020807758,0.0012950308,-0.09,0.92,0.42,12858,10139.00,0,0,165,0.35,-3.22,0.14,-0.09,0.92,0.42
0.47265625,-0.009236024,-0.0010807775,0.0012950308,-0.09,0.92,0.42,12873,10140.00,0,0,0,-0.07,-3.15,0.14,-0.09,0.92,0.42
0.47265625,-0.0132360235,-8.077547E-5,2.9503077E-4,-0.1,0.92,0.42,12888,10140.00,0,0,165,-0.35,-3.08,0.07,-0.10,0.92,0.42
0.47265625,-0.0132360235,-0.0010807775,0.0022950305,-0.1,0.92,0.42,12898,10140.00,0,0,0,-0.35,-3.15,0.21,-0.10,0.92,0.42
-0.52734375,-0.011236023,-8.077547E-5,2.9503077E-4,-0.1,0.92,0.42,12911,10139.00,0,0,165,-0.21,-3.08,0.07,-0.10,0.92,0.42
0.47265625,-0.0062360233,-0.0010807775,2.9503077E-4,-0.1,0.93,0.42,12929,10140.00,0,0,0,0.14,-3.15,0.07,-0.10,0.93,0.42
0.47265625,-2.3602322E-4,-8.077547E-5,-0.0017049693,-0.1,0.92,0.42,12940,10140.00,0,0,165,0.56,-3.08,-0.07,-0.10,0.92,0.42
-0.52734375,0.0037639756,0.0019192249,2.9503077E-4,-0.1,0.93,0.42,12949,10139.00,0,0,0,0.84,-2.94,0.07,-0.10,0.93,0.42
-0.52734375,0.006763976,0.0019192249,-0.0027049694,-0.1,0.92,0.42,12963,10139.00,0,0,165,1.05,-2.94,-0.14,-0.10,0.92,0.42
0.47265625,0.007763977,9.1922283E-4,-7.049693E-4,-0.1,0.92,0.42,12970,10140.00,0,0,0,1.12,-3.01,0.00,-0.10,0.92,0.42
0.47265625,0.012763976,0.0019192249,0.0012950308,-0.1,0.93,0.42,12985,10140.00,0,0,165,1.47,-2.94,0.14,-0.10,0.93,0.42
0.17285156,0.005763977,0.002919227,0.25429502,-0.1,0.92,0.42,13000,10139.70,0,0,0,0.98,-2.87,17.85,-0.10,0.92,0.42
0.47265625,-0.002236024,-0.0010807775,0.0022950305,-0.09,0.93,0.42,13008,10140.00,0,0,165,0.42,-3.15,0.21,-0.09,0.93,0.42
0.47265625,-0.010236024,-0.003080774,-0.0017049693,-0.09,0.92,0.42,13023,10140.00,0,0,0,-0.14,-3.29,-0.07,-0.09,0.92,0.42
0.47265625,-0.025236025,-0.0010807775,-7.049693E-4,-0.09,0.92,0.43,13038,10140.00,0,0,165,-1.19,-3.15,0.00,-0.09,0.92,0.43
-0.52734375,-0.031236023,-0.008080777,0.007295031,-0.1,0.92,0.43,13046,10139.00,0,0,0,-1.61,-3.64,0.56,-0.10,0.92,0.43
-0.52734375,-0.021236025,-0.0020807758,2.9503077E-4,-0.1,0.92,0.43,13062,10139.00,0,0,165,-0.91,-3.22,0.07,-0.10,0.92,0.43
-0.52734375,-0.0012360234,0.0049192235,-0.0027049694,-0.1,0.92,0.42,13076,10139.00,0,0,0,0.49,-2.73,-0.14,-0.10,0.92,0.42
-0.52734375,0.022763979,9.1922283E-4,2.9503077E-4,-0.1,0.92,0.42,13083,10139.00,0,0,165,2.17,-3.01,0.07,-0.10,0.92,0.42
0.47265625,0.038763974,0.007919226,-0.0077049695,-0.11,0.92,0.42,13098,10140.00,0,0,0,3.29,-2.52,-0.49,-0.11,0.92,0.42
-0.52734375,0.041763976,0.005919222,-0.005704969,-0.1,0.93,0.42,13113,10139.00,0,0,165,3.50,-2.66,-0.35,-0.10,0.93,0.42
0.47265625,0.033763975,-0.0010807775,-0.0027049694,-0.1,0.93,0.42,13121,10140.00,0,0,0,2.94,-3.15,-0.14,-0.10,0.93,0.42
-0.82714844,0.011763976,0.002919227,-0.0027049694,-0.09,0.93,0.42,13136,10138.70,0,0,165,1.40,-2.87,-0.14,-0.09,0.93,0.42
0.47265625,-0.005236024,-0.0040807724,0.0042950306,-0.09,0.93,0.42,13151,10140.00,0,0,0,0.21,-3.36,0.35,-0.09,0.93,0.42
0.47265625,-0.022236023,-0.003080774,0.0022950305,-0.09,0.92,0.42,13158,10140.00,0,0,165,-0.98,-3.29,0.21,-0.09,0.92,0.42
-0.52734375,-0.036236025,-0.0020807758,0.0052950303,-0.09,0.93,0.43,13173,10139.00,0,0,0,-1.96,-3.22,0.42,-0.09,0.93,0.43
-0.52734375,-0.038236022,-0.005080778,0.006295031,-0.09,0.92,0.43,13189,10139.00,0,0,165,-2.10,-3.43,0.49,-0.09,0.92,0.43
0.47265625,-0.035236023,-0.0010807775,0.0022950305,-0.09,0.92,0.43,13196,10140.00,0,0,0,-1.89,-3.15,0.21,-0.09,0.92,0.43
-0.82714844,-0.021236025,-0.0020807758,0.0042950306,-0.1,0.92,0.43,13211,10138.70,0,0,165,-0.91,-3.22,0.35,-0.10,0.92,0.43
1.4726562,-0.0032360237,-8.077547E-5,-0.0027049694,-0.1,0.92,0.42,13226,10141.00,0,0,0,0.35,-3.08,-0.14,-0.10,0.92,0.42
0.47265625,0.016763978,0.0049192235,-0.003704969,-0.1,0.92,0.42,13234,10140.00,0,0,165,1.75,-2.73,-0.21,-0.10,0.92,0.42
0.47265625,0.045763977,0.002919227,-0.005704969,-0.1,0.93,0.42,13248,10140.00,0,0,0,3.78,-2.87,-0.35,-0.10,0.93,0.42
-0.52734375,0.05376398,0.007919226,-0.010704969,-0.1,0.92,0.42,13263,10139.00,0,0,165,4.34,-2.52,-0.70,-0.10,0.92,0.42
0.47265625,0.047763977,0.007919226,-0.006704969,-0.1,0.93,0.42,13270,10140.00,0,0,0,3.92,-2.52,-0.42,-0.10,0.93,0.42
0.47265625,0.028763976,-0.0020807758,0.0012950308,-0.1,0.92,0.42,13286,10140.00,0,0,165,2.59,-3.22,0.14,-0.10,0.92,0.42
-0.52734375,-0.25823602,9.1922283E-4,-0.0017049693,-0.1,0.92,0.42,13301,10139.00,0,0,0,-17.50,-3.01,-0.07,-0.10,0.92,0.42
0.47265625,-0.040236026,-0.0060807765,0.007295031,-0.1,0.92,0.42,13308,10140.00,0,0,165,-2.24,-3.50,0.56,-0.10,0.92,0.42
0.47265625,-0.061236024,-0.010080777,0.0092950305,-0.09,0.92,0.42,13324,10140.00,0,0,0,-3.71,-3.78,0.70,-0.09,0.92,0.42
0.47265625,-0.06323602,-0.0040807724,0.0042950306,-0.09,0.92,0.43,13338,10140.00,0,0,165,-3.85,-3.36,0.35,-0.09,0.92,0.43
0.47265625,-0.042236026,-0.005080778,0.0052950303,-0.09,0.93,0.43,13346,10140.00,0,0,0,-2.38,-3.43,0.42,-0.09,0.93,0.43
-0.52734375,-0.011236023,-8.077547E-5,-7.049693E-4,-0.09,0.92,0.43,13361,10139.00,0,0,165,-0.21,-3.08,0.00,-0.09,0.92,0.43
0.47265625,0.023763977,0.005919222,-0.0047049695,-0.09,0.92,0.43,13376,10140.00,0,0,0,2.24,-2.66,-0.28,-0.09,0.92,0.43
0.47265625,0.046763975,0.0049192235,-0.0027049694,-0.1,0.92,0.42,13384,10140.00,0,0,165,3.85,-2.73,-0.14,-0.10,0.92,0.42
0.47265625,0.051763974,0.005919222,-0.00870497,-0.1,0.92,0.42,13399,10140.00,0,0,0,4.20,-2.66,-0.56,-0.10,0.92,0.42
0.47265625,0.041763976,0.0049192235,-0.0047049695,-0.1,0.92,0.42,13413,10140.00,0,0,165,3.50,-2.73,-0.28,-0.10,0.92,0.42
0.47265625,0.021763977,-0.0010807775,-0.0017049693,-0.1,0.93,0.42,13421,10140.00,0,0,0,2.10,-3.15,-0.07,-0.10,0.93,0.42
0.47265625,-0.0072360234,9.1922283E-4,-0.0017049693,-0.1,0.93,0.42,13436,10140.00,0,0,165,0.07,-3.01,-0.07,-0.10,0.93,0.42
-0.52734375,-0.027236026,-0.0040807724,0.0052950303,-0.1,0.92,0.42,13451,10139.00,0,0,0,-1.33,-3.36,0.42,-0.10,0.92,0.42
-0.82714844,-0.038236022,-0.0060807765,0.0052950303,-0.1,0.92,0.42,13459,10138.70,0,0,165,-2.10,-3.50,0.42,-0.10,0.92,0.42
-0.52734375,-0.041236024,-0.0020807758,0.0052950303,-0.1,0.93,0.43,13474,10139.00,0,0,0,-2.31,-3.22,0.42,-0.10,0.93,0.43
0.77246094,-0.030236024,-0.0060807765,0.007295031,-0.1,0.92,0.43,13488,10140.30,0,0,165,-1.54,-3.50,0.56,-0.10,0.92,0.43
0.47265625,-0.015236024,-0.0010807775,2.9503077E-4,-0.1,0.93,0.43,13496,10140.00,0,0,0,-0.49,-3.15,0.07,-0.10,0.93,0.43
0.47265625,0.0047639767,9.1922283E-4,-0.0017049693,-0.1,0.92,0.43,13511,10140.00,0,0,165,0.91,-3.01,-0.07,-0.10,0.92,0.43
-0.52734375,0.011763976,0.0019192249,0.25229502,-0.1,0.94,0.44,13526,10139.00,0,0,0,1.40,-2.94,17.71,-0.10,0.94,0.44
0.47265625,0.028763976,0.002919227,-0.015704969,-0.1,0.92,0.43,13533,10140.00,0,0,165,2.59,-2.87,-1.05,-0.10,0.92,0.43
0.17285156,-0.009236024,-0.013080776,-0.011704969,-0.04,0.92,0.46,13549,10139.70,0,0,0,-0.07,-3.99,-0.77,-0.04,0.92,0.46
0.47265625,0.052763976,0.022919225,-0.015704969,-0.1,0.93,0.42,13564,10140.00,0,0,165,4.27,-1.47,-1.05,-0.10,0.93,0.42
-0.52734375,0.060763974,0.007919226,0.0152950315,-0.17,0.93,0.36,13571,10139.00,0,0,0,4.83,-2.52,1.12,-0.17,0.93,0.36
0.47265625,0.009763976,0.006919224,0.02129503,-0.09,0.92,0.4,13586,10140.00,0,0,165,1.26,-2.59,1.54,-0.09,0.92,0.40
0.47265625,-0.044236023,0.015919223,-0.015704969,-0.1,0.94,0.43,13601,10140.00,0,0,0,-2.52,-1.96,-1.05,-0.10,0.94,0.43
0.47265625,-0.052236024,-0.010080777,0.01629503,-0.1,0.93,0.43,13609,10140.00,0,0,165,-3.08,-3.78,1.19,-0.10,0.93,0.43
0.47265625,-0.015236024,-0.026080776,-0.003704969,-0.08,0.93,0.42,13624,10140.00,0,0,0,-0.49,-4.90,-0.21,-0.08,0.93,0.42
-0.52734375,-0.005236024,0.012919223,-0.011704969,-0.09,0.92,0.41,13639,10139.00,0,0,165,0.21,-2.17,-0.77,-0.09,0.92,0.41
0.47265625,0.031763975,-0.003080774,0.0022950305,-0.09,0.93,0.43,13647,10140.00,0,0,0,2.80,-3.29,0.21,-0.09,0.93,0.43
0.47265625,0.031763975,-8.077547E-5,-0.0047049695,-0.09,0.92,0.42,13661,10140.00,0,0,165,2.80,-3.08,-0.28,-0.09,0.92,0.42
0.47265625,0.007763977,0.007919226,-7.049693E-4,-0.1,0.93,0.42,13676,10140.00,0,0,0,1.12,-2.52,0.00,-0.10,0.93,0.42
0.47265625,-0.025236025,-0.010080777,0.0092950305,-0.1,0.92,0.43,13684,10140.00,0,0,165,-1.19,-3.78,0.70,-0.10,0.92,0.43
-0.52734375,-0.06623602,-8.077547E-5,0.003295031,-0.1,0.92,0.43,13699,10139.00,0,0,0,-4.06,-3.08,0.28,-0.10,0.92,0.43
0.47265625,-0.069236025,-0.003080774,0.007295031,-0.11,0.92,0.43,13706,10140.00,0,0,165,-4.27,-3.29,0.56,-0.11,0.92,0.43
0.47265625,-0.037236024,-0.0060807765,0.006295031,-0.1,0.92,0.43,13721,10140.00,0,0,0,-2.03,-3.50,0.49,-0.10,0.92,0.43
-0.52734375,0.0027639763,0.006919224,2.9503077E-4,-0.1,0.92,0.42,13736,10139.00,0,0,165,0.77,-2.59,0.07,-0.10,0.92,0.42
-0.52734375,0.050763976,0.0049192235,-0.003704969,-0.1,0.93,0.42,13744,10139.00,0,0,0,4.13,-2.73,-0.21,-0.10,0.93,0.42
0.47265625,0.08676398,0.008919224,-0.010704969,-0.1,0.93,0.42,13758,10140.00,0,0,165,6.65,-2.45,-0.70,-0.10,0.93,0.42
-0.52734375,0.08676398,0.0109192245,-0.011704969,-0.09,0.93,0.42,13773,10139.00,0,0,0,6.65,-2.31,-0.77,-0.09,0.93,0.42
0.47265625,0.06976398,0.002919227,-0.006704969,-0.09,0.93,0.41,13781,10140.00,0,0,165,5.46,-2.87,-0.42,-0.09,0.93,0.41
0.47265625,0.029763978,0.002919227,-0.0017049693,-0.09,0.93,0.41,13796,10140.00,0,0,0,2.66,-2.87,-0.07,-0.09,0.93,0.41
1.4726562,-0.012236023,-0.003080774,0.003295031,-0.09,0.93,0.42,13811,10141.00,0,0,165,-0.28,-3.29,0.28,-0.09,0.93,0.42
1.4726562,-0.058236025,-0.008080777,0.00829503,-0.09,0.92,0.42,13819,10141.00,0,0,0,-3.50,-3.64,0.63,-0.09,0.92,0.42
-1.4277344,-0.084236026,-0.0070807748,0.012295031,-0.1,0.92,0.43,13834,10138.10,0,0,165,-5.32,-3.57,0.91,-0.10,0.92,0.43
0.47265625,-0.08523602,-0.010080777,0.013295031,-0.1,0.92,0.43,13848,10140.00,0,0,0,-5.39,-3.78,0.98,-0.10,0.92,0.43
0.77246094,-0.06823602,-0.005080778,0.00829503,-0.1,0.92,0.43,13856,10140.30,0,0,165,-4.20,-3.43,0.63,-0.10,0.92,0.43
-0.52734375,-0.018236022,-8.077547E-5,0.0012950308,-0.1,0.92,0.43,13871,10139.00,0,0,0,-0.70,-3.08,0.14,-0.10,0.92,0.43
-0.52734375,0.032763973,0.003919225,-0.0047049695,-0.1,0.92,0.42,13886,10139.00,0,0,165,2.87,-2.80,-0.28,-0.10,0.92,0.42
-0.52734375,0.07676398,0.0109192245,-0.010704969,-0.1,0.92,0.42,13893,10139.00,0,0,0,5.95,-2.31,-0.70,-0.10,0.92,0.42
1.4726562,0.10576398,0.009919222,-0.011704969,-0.1,0.93,0.42,13908,10141.00,0,0,165,7.98,-2.38,-0.77,-0.10,0.93,0.42
-0.52734375,0.09776398,0.009919222,-0.012704968,-0.1,0.93,0.42,13923,10139.00,0,0,0,7.42,-2.38,-0.84,-0.10,0.93,0.42
-0.52734375,0.05676398,0.008919224,-0.0077049695,-0.1,0.93,0.42,13932,10139.00,0,0,165,4.55,-2.45,-0.49,-0.10,0.93,0.42
0.47265625,-0.002236024,-0.0060807765,0.0042950306,-0.1,0.93,0.42,13949,10140.00,0,0,0,0.42,-3.50,0.35,-0.10,0.93,0.42
-0.52734375,-0.055236023,-0.0070807748,0.0052950303,-0.1,0.92,0.42,13961,10139.00,0,0,165,-3.29,-3.57,0.42,-0.10,0.92,0.42
0.47265625,-0.095236026,-0.0070807748,0.01429503,-0.1,0.92,0.42,13968,10140.00,0,0,0,-6.09,-3.57,1.05,-0.10,0.92,0.42
0.47265625,-0.09723602,-0.014080774,0.013295031,-0.1,0.92,0.43,13983,10140.00,0,0,165,-6.23,-4.06,0.98,-0.10,0.92,0.43
-0.52734375,-0.073236026,-0.003080774,0.0042950306,-0.1,0.92,0.43,13999,10139.00,0,0,0,-4.55,-3.29,0.35,-0.10,0.92,0.43
0.47265625,-0.029236022,-0.0020807758,0.0052950303,-0.1,0.92,0.43,14006,10140.00,0,0,165,-1.47,-3.22,0.42,-0.10,0.92,0.43
0.47265625,0.031763975,0.002919227,-0.003704969,-0.1,0.92,0.42,14021,10140.00,0,0,0,2.80,-2.87,-0.21,-0.10,0.92,0.42
-0.52734375,0.06876398,0.011919223,-0.009704969,-0.1,0.93,0.42,14036,10139.00,0,0,165,5.39,-2.24,-0.63,-0.10,0.93,0.42
-0.52734375,0.09276398,0.007919226,-0.009704969,-0.1,0.93,0.42,14043,10139.00,0,0,0,7.07,-2.52,-0.63,-0.10,0.93,0.42
0.47265625,0.08676398,0.009919222,-0.011704969,-0.1,0.92,0.41,14058,10140.00,0,0,165,6.65,-2.38,-0.77,-0.10,0.92,0.41
0.47265625,0.050763976,0.007919226,-0.005704969,-0.1,0.93,0.41,14073,10140.00,0,0,0,4.13,-2.52,-0.35,-0.10,0.93,0.41
0.47265625,0.007763977,-0.005080778,0.0012950308,-0.1,0.93,0.41,14081,10140.00,0,0,165,1.12,-3.43,0.14,-0.10,0.93,0.41
1.4726562,-0.044236023,-0.0020807758,0.0022950305,-0.1,0.93,0.42,14096,10141.00,0,0,0,-2.52,-3.22,0.21,-0.10,0.93,0.42
0.47265625,-0.07423602,-0.010080777,0.013295031,-0.1,0.93,0.42,14111,10140.00,0,0,165,-4.62,-3.78,0.98,-0.10,0.93,0.42
0.47265625,-0.08523602,-0.011080775,0.012295031,-0.1,0.92,0.42,14119,10140.00,0,0,0,-5.39,-3.85,0.91,-0.10,0.92,0.42
0.47265625,-0.076236024,-0.0040807724,0.00829503,-0.09,0.93,0.43,14134,10140.00,0,0,165,-4.76,-3.36,0.63,-0.09,0.93,0.43
0.47265625,-0.037236024,-0.005080778,0.006295031,-0.1,0.93,0.43,14149,10140.00,0,0,0,-2.03,-3.43,0.49,-0.10,0.93,0.43
-0.52734375,0.006763976,0.0019192249,-0.003704969,-0.1,0.92,0.42,14156,10139.00,0,0,165,1.05,-2.94,-0.21,-0.10,0.92,0.42
0.47265625,0.047763977,0.007919226,-0.00870497,-0.1,0.93,0.42,14171,10140.00,0,0,0,3.92,-2.52,-0.56,-0.10,0.93,0.42
0.47265625,0.073763974,0.009919222,-0.010704969,-0.1,0.92,0.42,14186,10140.00,0,0,165,5.74,-2.38,-0.70,-0.10,0.92,0.42
0.77246094,0.07176398,-0.0010807775,-0.006704969,-0.08,0.92,0.43,14193,10140.30,0,0,0,5.60,-3.15,-0.42,-0.08,0.92,0.43
0.47265625,0.029763978,-0.0070807748,0.250295,-0.04,0.9,0.47,14209,10140.00,0,0,165,2.66,-3.57,17.57,-0.04,0.90,0.47
-0.52734375,0.015763976,0.006919224,-0.027704969,-0.1,0.92,0.44,14223,10139.00,0,0,0,1.68,-2.59,-1.89,-0.10,0.92,0.44
-0.52734375,0.022763979,0.005919222,-0.0017049693,-0.11,0.92,0.42,14231,10139.00,0,0,165,2.17,-2.66,-0.07,-0.11,0.92,0.42
0.47265625,0.011763976,-0.009080775,0.0092950305,-0.1,0.93,0.41,14246,10140.00,0,0,0,1.40,-3.71,0.70,-0.10,0.93,0.41
0.47265625,0.028763976,-0.061080772,0.03229503,-0.1,0.92,0.41,14261,10140.00,0,0,165,2.59,-7.35,2.31,-0.10,0.92,0.41
0.47265625,0.119763985,-0.14808077,0.06529503,-0.1,0.93,0.43,14269,10140.00,0,0,0,8.96,-13.44,4.62,-0.10,0.93,0.43
1.4726562,0.233764,-0.12608078,0.03429503,-0.08,0.92,0.42,14284,10141.00,0,0,165,16.94,-11.90,2.45,-0.08,0.92,0.42
0.47265625,0.24576399,0.07391922,-0.05070497,-0.08,0.94,0.41,14303,10140.00,0,0,0,17.78,2.10,-3.50,-0.08,0.94,0.41
0.47265625,0.13876398,0.14991923,-0.10770496,-0.09,0.93,0.4,14306,10140.00,0,0,165,10.29,7.42,-7.49,-0.09,0.93,0.40
-0.52734375,0.045763977,0.051919226,-0.030704968,-0.11,0.93,0.4,14321,10139.00,0,0,0,3.78,0.56,-2.10,-0.11,0.93,0.40
0.47265625,0.010763978,-0.022080775,0.01929503,-0.1,0.93,0.4,14336,10140.00,0,0,165,1.33,-4.62,1.40,-0.10,0.93,0.40
-0.12695312,-0.059236024,-0.023080777,0.01629503,-0.1,0.93,0.4,14343,10139.40,0,0,0,-3.57,-4.69,1.19,-0.10,0.93,0.40
0.77246094,-0.13623603,-0.013080776,0.0152950315,-0.1,0.93,0.41,14358,10140.30,0,0,165,-8.96,-3.99,1.12,-0.10,0.93,0.41
-0.52734375,-0.16723602,0.005919222,0.0152950315,-0.1,0.93,0.41,14373,10139.00,0,0,0,-11.13,-2.66,1.12,-0.10,0.93,0.41
-0.52734375,-0.12423602,0.0019192249,0.007295031,-0.1,0.93,0.42,14381,10139.00,0,0,165,-8.12,-2.94,0.56,-0.10,0.93,0.42
0.47265625,-0.055236023,-0.028080773,0.02329503,-0.1,0.93,0.42,14396,10140.00,0,0,0,-3.29,-5.04,1.68,-0.10,0.93,0.42
-0.52734375,-0.009236024,-0.018080778,0.012295031,-0.09,0.93,0.42,14411,10139.00,0,0,165,-0.07,-4.34,0.91,-0.09,0.93,0.42
-0.52734375,0.023763977,0.021919224,-0.015704969,-0.09,0.93,0.41,14419,10139.00,0,0,0,2.24,-1.54,-1.05,-0.09,0.93,0.41
-0.12695312,0.062763974,0.026919223,-0.019704971,-0.09,0.93,0.41,14434,10139.40,0,0,165,4.97,-1.19,-1.33,-0.09,0.93,0.41
-0.52734375,0.10476398,0.006919224,-0.011704969,-0.09,0.93,0.41,14449,10139.00,0,0,0,7.91,-2.59,-0.77,-0.09,0.93,0.41
1.4726562,0.11176398,0.003919225,-0.006704969,-0.09,0.93,0.41,14456,10141.00,0,0,165,8.40,-2.80,-0.42,-0.09,0.93,0.41
1.4726562,0.049763974,0.003919225,-0.006704969,-0.09,0.93,0.41,14470,10141.00,0,0,0,4.06,-2.80,-0.42,-0.09,0.93,0.41
-0.52734375,-0.012236023,0.003919225,-0.0047049695,-0.1,0.93,0.41,14486,10139.00,0,0,165,-0.28,-2.80,-0.28,-0.10,0.93,0.41
0.47265625,-0.05623602,-0.0010807775,0.0042950306,-0.1,0.93,0.41,14493,10140.00,0,0,0,-3.36,-3.15,0.35,-0.10,0.93,0.41
0.47265625,-0.08023602,-0.017080776,0.012295031,-0.1,0.93,0.41,14508,10140.00,0,0,165,-5.04,-4.27,0.91,-0.10,0.93,0.41
0.47265625,-0.08623602,-0.008080777,0.0092950305,-0.1,0.93,0.41,14524,10140.00,0,0,0,-5.46,-3.64,0.70,-0.10,0.93,0.41
0.47265625,-0.062236026,-8.077547E-5,0.0052950303,-0.1,0.93,0.41,14531,10140.00,0,0,165,-3.78,-3.08,0.42,-0.10,0.93,0.41
0.47265625,-0.0072360234,-8.077547E-5,2.9503077E-4,-0.1,0.93,0.42,14546,10140.00,0,0,0,0.07,-3.08,0.07,-0.10,0.93,0.42
0.47265625,0.038763974,-0.0060807765,2.9503077E-4,-0.1,0.93,0.42,14568,10140.00,0,0,165,3.29,-3.50,0.07,-0.10,0.93,0.42
0.47265625,0.051763974,-0.0020807758,2.9503077E-4,-0.09,0.93,0.42,14569,10140.00,0,0,0,4.20,-3.22,0.07,-0.09,0.93,0.42
0.47265625,0.05576398,0.0109192245,-0.00870497,-0.09,0.93,0.41,14583,10140.00,0,0,165,4.48,-2.31,-0.56,-0.09,0.93,0.41
0.77246094,0.033763975,0.0019192249,-0.006704969,-0.09,0.93,0.41,14599,10140.30,0,0,0,2.94,-2.94,-0.42,-0.09,0.93,0.41
0.77246094,0.006763976,-0.012080777,0.0052950303,-0.1,0.93,0.41,14606,10140.30,0,0,165,1.05,-3.92,0.42,-0.10,0.93,0.41
-0.52734375,-0.039236024,-8.077547E-5,-0.010704969,-0.14,0.93,0.41,14621,10139.00,0,0,0,-2.17,-3.08,-0.70,-0.14,0.93,0.41
0.47265625,-0.051236026,-0.034080777,0.028295029,-0.09,0.93,0.4,14636,10140.00,0,0,165,-3.01,-5.46,2.03,-0.09,0.93,0.40
-0.52734375,-0.06423602,0.006919224,-0.003704969,-0.09,0.93,0.41,14643,10139.00,0,0,0,-3.92,-2.59,-0.21,-0.09,0.93,0.41
0.47265625,-0.076236024,0.007919226,0.0042950306,-0.1,0.92,0.41,14659,10140.00,0,0,165,-4.76,-2.52,0.35,-0.10,0.92,0.41
0.77246094,-0.046236027,-0.028080773,0.02329503,-0.1,0.93,0.41,14674,10140.30,0,0,0,-2.66,-5.04,1.68,-0.10,0.93,0.41
-0.52734375,-0.014236024,-0.023080777,-0.023704968,-0.09,0.93,0.41,14681,10139.00,0,0,165,-0.42,-4.69,-1.61,-0.09,0.93,0.41
0.47265625,0.033763975,-0.07308076,-0.04770497,-0.1,0.93,0.41,14696,10140.00,0,0,0,2.94,-8.19,-3.29,-0.10,0.93,0.41
0.47265625,0.06476398,-0.050080772,-0.010704969,-0.1,0.92,0.42,14711,10140.00,0,0,165,5.11,-6.58,-0.70,-0.10,0.92,0.42
-0.52734375,0.074763976,0.030919224,-0.028704971,-0.09,0.93,0.41,14718,10139.00,0,0,0,5.81,-0.91,-1.96,-0.09,0.93,0.41
-0.52734375,0.09376398,-0.028080773,0.030295033,-0.11,0.93,0.41,14733,10139.00,0,0,165,7.14,-5.04,2.17,-0.11,0.93,0.41
-0.52734375,0.09776398,-0.064080775,0.024295032,-0.09,0.93,0.42,14748,10139.00,0,0,0,7.42,-7.56,1.75,-0.09,0.93,0.42
-0.52734375,0.12376398,-0.077080786,0.03529503,-0.1,0.93,0.41,14755,10139.00,0,0,165,9.24,-8.47,2.52,-0.10,0.93,0.41
0.47265625,0.17976397,-0.08508077,0.017295029,-0.1,0.93,0.41,14771,10140.00,0,0,0,13.16,-9.03,1.26,-0.10,0.93,0.41
-0.52734375,0.24576399,-0.045080777,-0.0027049694,-0.09,0.94,0.41,14786,10139.00,0,0,165,17.78,-6.23,-0.14,-0.09,0.94,0.41
0.47265625,0.288764,-0.034080777,-0.017704971,-0.08,0.94,0.39,14793,10140.00,0,0,0,20.79,-5.46,-1.19,-0.08,0.94,0.39
0.47265625,0.28576398,0.047919225,-0.02970497,-0.08,0.95,0.38,14808,10140.00,0,0,165,20.58,0.28,-2.03,-0.08,0.95,0.38
-0.52734375,0.14876397,0.052919224,-0.038704973,-0.1,0.94,0.37,14823,10139.00,0,0,0,10.99,0.63,-2.66,-0.10,0.94,0.37
-0.52734375,-2.3602322E-4,0.019919226,-0.0047049695,-0.09,0.94,0.37,14833,10139.00,0,0,165,0.56,-1.68,-0.28,-0.09,0.94,0.37
-0.52734375,-0.14323601,0.026919223,-0.00870497,-0.1,0.94,0.39,14846,10139.00,0,0,0,-9.45,-1.19,-0.56,-0.10,0.94,0.39
0.47265625,-0.17423601,-0.030080777,0.029295031,-0.1,0.94,0.4,14861,10140.00,0,0,165,-11.62,-5.18,2.10,-0.10,0.94,0.40
-0.52734375,-0.12823603,-0.023080777,0.003295031,-0.08,0.94,0.41,14868,10139.00,0,0,0,-8.40,-4.69,0.28,-0.08,0.94,0.41
0.47265625,-0.016236024,0.037919223,-0.023704968,-0.09,0.93,0.4,14883,10140.00,0,0,165,-0.56,-0.42,-1.61,-0.09,0.93,0.40
0.47265625,0.036763977,0.012919223,-7.049693E-4,-0.1,0.94,0.4,14898,10140.00,0,0,0,3.15,-2.17,0.00,-0.10,0.94,0.40
-0.52734375,0.006763976,0.029919224,-0.021704968,-0.09,0.94,0.4,14906,10139.00,0,0,165,1.05,-0.98,-1.47,-0.09,0.94,0.40
0.47265625,-0.053236026,0.044919223,-0.02070497,-0.1,0.94,0.39,14921,10140.00,0,0,0,-3.15,0.07,-1.40,-0.10,0.94,0.39
-0.52734375,-0.09323602,-0.0010807775,0.0042950306,-0.1,0.93,0.4,14937,10139.00,0,0,165,-5.95,-3.15,0.35,-0.10,0.93,0.40
-0.52734375,-0.09323602,9.1922283E-4,0.007295031,-0.09,0.93,0.4,14944,10139.00,0,0,0,-5.95,-3.01,0.56,-0.09,0.93,0.40
-0.52734375,-0.06623602,-0.0040807724,0.0052950303,-0.1,0.93,0.4,14959,10139.00,0,0,165,-4.06,-3.36,0.42,-0.10,0.93,0.40
0.77246094,-0.041236024,-0.020080779,0.020295031,-0.09,0.93,0.4,14973,10140.30,0,0,0,-2.31,-4.48,1.47,-0.09,0.93,0.40
0.47265625,-0.025236025,0.0049192235,-0.0017049693,-0.09,0.93,0.4,14981,10140.00,0,0,165,-1.19,-2.73,-0.07,-0.09,0.93,0.40
-0.52734375,0.0047639767,0.007919226,-0.0047049695,-0.1,0.93,0.4,14996,10139.00,0,0,0,0.91,-2.52,-0.28,-0.10,0.93,0.40
-0.52734375,0.024763975,-0.0040807724,0.003295031,-0.1,0.94,0.4,15011,10139.00,0,0,165,2.31,-3.36,0.28,-0.10,0.94,0.40
0.47265625,0.028763976,0.005919222,-0.009704969,-0.1,0.93,0.4,15018,10140.00,0,0,0,2.59,-2.66,-0.63,-0.10,0.93,0.40
1.4726562,0.022763979,0.007919226,-0.0047049695,-0.1,0.93,0.4,15034,10141.00,0,0,165,2.17,-2.52,-0.28,-0.10,0.93,0.40
0.47265625,0.017763976,0.003919225,-0.0017049693,-0.1,0.93,0.4,15049,10140.00,0,0,0,1.82,-2.80,-0.07,-0.10,0.93,0.40
-1.4277344,0.008763977,0.003919225,0.0012950308,-0.1,0.93,0.4,15056,10138.10,0,0,165,1.19,-2.80,0.14,-0.10,0.93,0.40
0.47265625,-0.010236024,-0.008080777,0.006295031,-0.09,0.93,0.4,15071,10140.00,0,0,0,-0.14,-3.64,0.49,-0.09,0.93,0.40
-0.52734375,-0.024236023,-0.0040807724,0.0052950303,-0.09,0.94,0.4,15086,10139.00,0,0,165,-1.12,-3.36,0.42,-0.09,0.94,0.40
0.47265625,-0.033236023,0.003919225,2.9503077E-4,-0.09,0.93,0.4,15094,10140.00,0,0,0,-1.75,-2.80,0.07,-0.09,0.93,0.40
0.47265625,-0.016236024,-8.077547E-5,0.0012950308,-0.09,0.93,0.4,15109,10140.00,0,0,165,-0.56,-3.08,0.14,-0.09,0.93,0.40
-0.12695312,0.0017639762,9.1922283E-4,-7.049693E-4,-0.09,0.93,0.4,15124,10139.40,0,0,0,0.70,-3.01,0.00,-0.09,0.93,0.40
-0.52734375,0.013763976,0.002919227,-0.0047049695,-0.09,0.93,0.4,15132,10139.00,0,0,165,1.54,-2.87,-0.28,-0.09,0.93,0.40
0.47265625,0.023763977,0.002919227,-0.003704969,-0.1,0.94,0.4,15147,10140.00,0,0,0,2.24,-2.87,-0.21,-0.10,0.94,0.40
0.47265625,0.026763976,0.0019192249,-0.0047049695,-0.1,0.94,0.4,15161,10140.00,0,0,165,2.45,-2.94,-0.28,-0.10,0.94,0.40
-0.52734375,0.0047639767,9.1922283E-4,-0.003704969,-0.1,0.93,0.4,15168,10139.00,0,0,0,0.91,-3.01,-0.21,-0.10,0.93,0.40
-0.52734375,-0.009236024,-0.005080778,2.9503077E-4,-0.1,0.94,0.4,15183,10139.00,0,0,165,-0.07,-3.43,0.07,-0.10,0.94,0.40
-0.52734375,-0.028236024,0.0019192249,-7.049693E-4,-0.1,0.93,0.4,15199,10139.00,0,0,0,-1.40,-2.94,0.00,-0.10,0.93,0.40
0.77246094,-0.029236022,-0.0020807758,2.9503077E-4,-0.1,0.93,0.41,15206,10140.30,0,0,165,-1.47,-3.22,0.07,-0.10,0.93,0.41
0.47265625,-0.021236025,-0.0020807758,0.003295031,-0.1,0.93,0.4,15221,10140.00,0,0,0,-0.91,-3.22,0.28,-0.10,0.93,0.40
-0.52734375,-0.005236024,-0.0040807724,2.9503077E-4,-0.1,0.94,0.4,15236,10139.00,0,0,165,0.21,-3.36,0.07,-0.10,0.94,0.40
0.47265625,0.008763977,0.003919225,2.9503077E-4,-0.1,0.94,0.4,15243,10140.00,0,0,0,1.19,-2.80,0.07,-0.10,0.94,0.40
0.47265625,0.042763975,0.007919226,-0.0027049694,-0.1,0.94,0.4,15259,10140.00,0,0,165,3.57,-2.52,-0.14,-0.10,0.94,0.40
0.47265625,0.027763974,0.0109192245,-0.003704969,-0.1,0.94,0.4,15274,10140.00,0,0,0,2.52,-2.31,-0.21,-0.10,0.94,0.40
0.47265625,0.026763976,0.0109192245,-0.0047049695,-0.1,0.94,0.39,15282,10140.00,0,0,165,2.45,-2.31,-0.28,-0.10,0.94,0.39
0.47265625,0.021763977,0.012919223,-0.0027049694,-0.1,0.94,0.4,15297,10140.00,0,0,0,2.10,-2.17,-0.14,-0.10,0.94,0.40
0.47265625,0.0027639763,0.015919223,0.0022950305,-0.09,0.94,0.4,15311,10140.00,0,0,165,0.77,-1.96,0.21,-0.09,0.94,0.40
0.47265625,-0.027236026,0.007919226,0.01129503,-0.09,0.94,0.41,15319,10140.00,0,0,0,-1.33,-2.52,0.84,-0.09,0.94,0.41
0.47265625,-0.06323602,0.003919225,0.006295031,-0.11,0.92,0.43,15334,10140.00,0,0,165,-3.85,-2.80,0.49,-0.11,0.92,0.43
0.47265625,-0.095236026,-0.02108078,0.0152950315,-0.1,0.93,0.41,15349,10140.00,0,0,0,-6.09,-4.55,1.12,-0.10,0.93,0.41
-0.52734375,-0.07123602,-0.011080775,0.0092950305,-0.1,0.94,0.4,15356,10139.00,0,0,165,-4.41,-3.85,0.70,-0.10,0.94,0.40
0.47265625,-0.034236025,0.002919227,2.9503077E-4,-0.09,0.93,0.4,15371,10140.00,0,0,0,-1.82,-2.87,0.07,-0.09,0.93,0.40
0.47265625,0.008763977,-8.077547E-5,0.0022950305,-0.1,0.93,0.4,15386,10140.00,0,0,165,1.19,-3.08,0.21,-0.10,0.93,0.40
0.47265625,0.049763974,0.005919222,-0.00870497,-0.09,0.93,0.4,15393,10140.00,0,0,0,4.06,-2.66,-0.56,-0.09,0.93,0.40
1.4726562,0.07076398,0.012919223,-0.011704969,-0.1,0.93,0.4,15415,10141.00,0,0,165,5.53,-2.17,-0.77,-0.10,0.93,0.40
0.47265625,0.07776398,0.005919222,-0.00870497,-0.1,0.93,0.39,15423,10140.00,0,0,0,6.02,-2.66,-0.56,-0.10,0.93,0.39
0.47265625,0.057763975,0.006919224,-0.00870497,-0.1,0.93,0.39,15431,10140.00,0,0,165,4.62,-2.59,-0.56,-0.10,0.93,0.39
-0.52734375,0.012763976,0.0019192249,-0.005704969,-0.11,0.94,0.39,15445,10139.00,0,0,0,1.47,-2.94,-0.35,-0.11,0.94,0.39
-0.52734375,-0.028236024,-0.0070807748,-0.003704969,-0.11,0.94,0.39,15461,10139.00,0,0,165,-1.40,-3.57,-0.21,-0.11,0.94,0.39
0.47265625,-0.062236026,-0.014080774,0.010295031,-0.1,0.94,0.4,15469,10140.00,0,0,0,-3.78,-4.06,0.77,-0.10,0.94,0.40
0.77246094,-0.09123602,-0.013080776,0.01929503,-0.09,0.94,0.41,15483,10140.30,0,0,165,-5.81,-3.99,1.40,-0.09,0.94,0.41
-0.52734375,-0.07823602,0.0019192249,-0.0017049693,-0.1,0.93,0.4,15499,10139.00,0,0,0,-4.90,-2.94,-0.07,-0.10,0.93,0.40
0.47265625,-0.045236025,-0.010080777,0.00829503,-0.09,0.93,0.4,15506,10140.00,0,0,165,-2.59,-3.78,0.63,-0.09,0.93,0.40
0.47265625,0.019763976,0.0109192245,-0.0077049695,-0.09,0.93,0.41,15521,10140.00,0,0,0,1.96,-2.31,-0.49,-0.09,0.93,0.41
0.47265625,0.067763984,0.009919222,-0.010704969,-0.1,0.93,0.4,15536,10140.00,0,0,165,5.32,-2.38,-0.70,-0.10,0.93,0.40
0.47265625,0.09276398,0.0019192249,-0.005704969,-0.09,0.93,0.4,15544,10140.00,0,0,0,7.07,-2.94,-0.35,-0.09,0.93,0.40
-0.52734375,0.08876398,0.015919223,-0.012704968,-0.09,0.94,0.4,15558,10139.00,0,0,165,6.79,-1.96,-0.84,-0.09,0.94,0.40
-0.52734375,0.060763974,0.0109192245,-0.003704969,-0.11,0.93,0.39,15574,10139.00,0,0,0,4.83,-2.31,-0.21,-0.11,0.93,0.39
0.47265625,0.017763976,0.0019192249,-7.049693E-4,-0.1,0.93,0.39,15582,10140.00,0,0,165,1.82,-2.94,0.00,-0.10,0.93,0.39
-0.52734375,-0.03223602,-0.005080778,0.00829503,-0.1,0.94,0.39,15597,10139.00,0,0,0,-1.68,-3.43,0.63,-0.10,0.94,0.39
0.47265625,-0.079236016,-0.008080777,0.00829503,-0.1,0.93,0.4,15611,10140.00,0,0,165,-4.97,-3.64,0.63,-0.10,0.93,0.40
1.4726562,-0.09323602,-0.011080775,0.01129503,-0.1,0.93,0.4,15619,10141.00,0,0,0,-5.95,-3.85,0.84,-0.10,0.93,0.40
0.77246094,-0.07423602,-0.0060807765,0.0092950305,-0.1,0.93,0.4,15634,10140.30,0,0,165,-4.62,-3.50,0.70,-0.10,0.93,0.40
0.77246094,-0.059236024,-0.016080774,0.020295031,-0.1,0.94,0.4,15649,10140.30,0,0,0,-3.57,-4.20,1.47,-0.10,0.94,0.40
0.47265625,-0.046236027,0.013919225,-0.0027049694,-0.12,0.95,0.39,15656,10140.00,0,0,165,-2.66,-2.10,-0.14,-0.12,0.95,0.39
-0.52734375,0.052763976,0.060919225,-0.04370497,-0.3,0.96,0.31,15671,10139.00,0,0,0,4.27,1.19,-3.01,-0.30,0.96,0.31
0.77246094,0.19876398,0.26591924,-0.23870496,-0.48,0.93,0.3,15685,10140.30,0,0,165,14.49,15.54,-16.66,-0.48,0.93,0.30
0.77246094,0.12376398,-0.0010807775,0.13929503,-0.11,0.93,0.38,15693,10140.30,0,0,0,9.24,-3.15,9.80,-0.11,0.93,0.38
-0.52734375,-0.29023603,-0.064080775,0.301295,-0.06,0.91,0.37,15708,10139.00,0,0,165,-19.74,-7.56,21.14,-0.06,0.91,0.37
-0.52734375,-0.38923603,0.12791923,-0.017704971,0.01,0.92,0.41,15724,10139.00,0,0,0,-26.67,5.88,-1.19,0.01,0.92,0.41
-0.12695312,-0.28123602,0.19991922,0.020295031,0.02,0.97,0.36,15732,10139.40,0,0,165,-19.11,10.92,1.47,0.02,0.97,0.36
0.77246094,0.033763975,0.08491922,0.23529503,0.08,1.0,0.4,15746,10140.30,0,0,0,2.94,2.87,16.52,0.08,1.00,0.40
-0.52734375,0.40176398,0.37491924,0.12529503,0.08,0.97,0.35,15760,10139.00,0,0,165,28.70,23.17,8.82,0.08,0.97,0.35
0.47265625,0.100763984,0.39491922,0.264295,-0.0,0.91,0.48,15769,10140.00,0,0,0,7.63,24.57,18.55,-0.00,0.91,0.48
0.47265625,-0.037236024,0.67591923,0.13829502,-0.11,0.91,0.61,15783,10140.00,0,0,165,-2.03,44.24,9.73,-0.11,0.91,0.61
0.47265625,-0.08023602,0.7289192,-0.03270497,-0.06,0.94,0.52,15799,10140.00,0,0,0,-5.04,47.95,-2.24,-0.06,0.94,0.52
0.47265625,0.26476398,0.96691924,-0.14870498,0.11,0.97,0.45,15806,10140.00,0,0,165,19.11,64.61,-10.36,0.11,0.97,0.45
0.47265625,0.21776398,0.81391925,0.43929502,0.07,0.86,0.57,15821,10140.00,0,0,0,15.82,53.90,30.80,0.07,0.86,0.57
0.77246094,-0.342236,0.8469192,0.8822951,-0.24,0.93,0.57,15836,10140.30,0,0,165,-23.38,56.21,61.81,-0.24,0.93,0.57
-0.52734375,-0.57223606,1.0449193,1.165295,-0.19,1.22,0.5,15843,10139.00,0,0,0,-39.48,70.07,81.62,-0.19,1.22,0.50
-0.52734375,-0.435236,1.1429192,1.2942951,-0.13,1.34,0.39,15859,10139.00,0,0,165,-29.89,76.93,90.65,-0.13,1.34,0.39
-0.52734375,0.038763974,0.9549192,1.284295,0.04,1.4,0.23,15882,10139.00,0,0,0,3.29,63.77,89.95,0.04,1.40,0.23
-0.52734375,0.554764,0.7989192,1.108295,0.07,1.42,0.16,15884,10139.00,0,0,165,39.41,52.85,77.63,0.07,1.42,0.16
0.47265625,1.6227639,0.5359192,1.195295,0.02,1.33,0.26,15907,10140.00,0,0,0,114.17,34.44,83.72,0.02,1.33,0.26
-0.52734375,2.0947642,0.50891924,1.298295,0.01,1.01,0.22,15918,10139.00,0,0,165,147.21,32.55,90.93,0.01,1.01,0.22
0.77246094,2.0637639,0.47091922,1.2582949,-0.0,0.99,0.28,15920,10140.30,0,0,0,145.04,29.89,88.13,-0.00,0.99,0.28
-0.12695312,1.800764,0.48591924,1.0952951,-0.1,0.95,0.35,15933,10139.40,0,0,165,126.63,30.94,76.72,-0.10,0.95,0.35
-0.52734375,1.6597639,0.6629192,1.073295,-0.07,1.0,0.21,15949,10139.00,0,0,0,116.76,43.33,75.18,-0.07,1.00,0.21
0.47265625,1.4467639,0.7309192,0.87429506,0.01,1.07,0.05,15956,10140.00,0,0,165,101.85,48.09,61.25,0.01,1.07,0.05
0.47265625,1.440764,0.5939192,0.66229504,0.02,1.09,-0.02,15971,10140.00,0,0,0,101.43,38.50,46.41,0.02,1.09,-0.02
-0.52734375,1.589764,0.55591923,0.480295,-0.0,1.04,-0.0,15986,10139.00,0,0,165,111.86,35.84,33.67,-0.00,1.04,-0.00
-0.52734375,1.781764,0.56091917,0.53629506,0.01,1.1,-0.04,15994,10139.00,0,0,0,125.30,36.19,37.59,0.01,1.10,-0.04
0.47265625,2.080764,0.5529192,0.63829505,-0.03,1.2,-0.05,16009,10140.00,0,0,165,146.23,35.63,44.73,-0.03,1.20,-0.05
-1.4277344,2.5727642,0.49491924,0.7692951,0.02,1.23,-0.09,16024,10138.10,0,0,0,180.67,31.57,53.90,0.02,1.23,-0.09
-0.52734375,3.024764,0.29291922,0.8632951,0.04,1.18,-0.09,16031,10139.00,0,0,165,212.31,17.43,60.48,0.04,1.18,-0.09
-0.52734375,3.284764,0.025919225,0.8822951,0.1,1.11,-0.12,16046,10139.00,0,0,0,230.51,-1.26,61.81,0.10,1.11,-0.12
-0.12695312,3.458764,-0.13308078,0.79229504,0.08,1.01,-0.15,16060,10139.40,0,0,165,242.69,-12.39,55.51,0.08,1.01,-0.15
-0.52734375,3.5467641,-0.17308077,0.7682951,0.04,0.91,-0.18,16068,10139.00,0,0,0,248.85,-15.19,53.83,0.04,0.91,-0.18
-0.12695312,3.311764,-0.17108078,0.86429507,0.1,1.0,-0.28,16083,10139.40,0,0,165,232.40,-15.05,60.55,0.10,1.00,-0.28
-1.4277344,2.9337642,-0.1980808,1.0052949,0.22,1.01,-0.41,16099,10138.10,0,0,0,205.94,-16.94,70.42,0.22,1.01,-0.41
-0.52734375,2.7377641,-0.36808077,0.95329505,0.21,1.08,-0.43,16106,10139.00,0,0,165,192.22,-28.84,66.78,0.21,1.08,-0.43
-0.52734375,2.823764,-0.5490808,0.7562951,0.16,1.04,-0.28,16120,10139.00,0,0,0,198.24,-41.51,52.99,0.16,1.04,-0.28
-0.12695312,3.0487642,-0.45808074,0.6222951,0.15,0.83,-0.27,16136,10139.40,0,0,165,213.99,-35.14,43.61,0.15,0.83,-0.27
0.77246094,2.6887639,-0.4910808,0.426295,0.24,0.7,-0.34,16144,10140.30,0,0,0,188.79,-37.45,29.89,0.24,0.70,-0.34
0.47265625,2.013764,-0.70908076,0.21729504,0.21,0.57,-0.3,16158,10140.00,0,0,165,141.54,-52.71,15.26,0.21,0.57,-0.30
-0.52734375,1.563764,-0.76308084,-0.24570496,0.08,0.44,-0.18,16174,10139.00,0,0,0,110.04,-56.49,-17.15,0.08,0.44,-0.18
-0.12695312,1.0067639,-0.62008077,-0.22970499,0.11,0.41,-0.22,16188,10139.40,0,0,165,71.05,-46.48,-16.03,0.11,0.41,-0.22
-0.52734375,0.31576398,-0.36308077,-0.09870497,0.21,0.54,-0.4,16202,10139.00,0,0,0,22.68,-28.49,-6.86,0.21,0.54,-0.40
-0.52734375,-0.25123602,-0.30908075,-0.07670497,0.28,0.89,-0.43,16218,10139.00,0,0,165,-17.01,-24.71,-5.32,0.28,0.89,-0.43
0.77246094,-0.454236,-0.33608076,-0.03770497,0.24,1.07,-0.36,16219,10140.30,0,0,0,-31.22,-26.60,-2.59,0.24,1.07,-0.36
0.77246094,-0.15923601,-0.27108076,-0.11670496,0.17,1.18,-0.28,16233,10140.30,0,0,165,-10.57,-22.05,-8.12,0.17,1.18,-0.28
-0.52734375,0.33076397,-0.13008079,-0.36370498,0.13,1.0,-0.26,16250,10139.00,0,0,0,23.73,-12.18,-25.41,0.13,1.00,-0.26
-0.52734375,0.5957639,-0.02408078,-0.5537049,0.08,0.81,-0.16,16256,10139.00,0,0,165,42.28,-4.76,-38.71,0.08,0.81,-0.16
-1.4277344,0.540764,0.009919222,-0.5777049,0.25,0.6,-0.19,16271,10138.10,0,0,0,38.43,-2.38,-40.39,0.25,0.60,-0.19
-0.52734375,-0.09623602,-0.14108078,-0.39570495,0.19,0.78,-0.3,16286,10139.00,0,0,165,-6.16,-12.95,-27.65,0.19,0.78,-0.30
-0.52734375,-0.379236,-0.33008078,-0.28870496,0.2,1.0,-0.31,16293,10139.00,0,0,0,-25.97,-26.18,-20.16,0.20,1.00,-0.31
-0.52734375,-0.11123602,-0.43508074,-0.42370498,0.07,0.93,-0.2,16309,10139.00,0,0,165,-7.21,-33.53,-29.61,0.07,0.93,-0.20
-1.1269531,-0.021236025,-0.39408076,-0.57970494,0.01,0.72,-0.19,16324,10138.40,0,0,0,-0.91,-30.66,-40.53,0.01,0.72,-0.19
-0.52734375,-0.36223602,-0.28008077,-0.64970493,-0.0,0.73,-0.2,16333,10139.00,0,0,165,-24.78,-22.68,-45.43,-0.00,0.73,-0.20
-0.12695312,-0.72023606,-0.19308078,-0.6557049,-0.03,0.86,-0.16,16346,10139.40,0,0,0,-49.84,-16.59,-45.85,-0.03,0.86,-0.16
-0.52734375,-0.68823606,-0.099080786,-0.535705,0.01,0.89,-0.24,16361,10139.00,0,0,165,-47.60,-10.01,-37.45,0.01,0.89,-0.24
0.47265625,-0.07123602,0.041919224,-0.13770498,0.02,0.64,-0.38,16368,10140.00,0,0,0,-4.41,-0.14,-9.59,0.02,0.64,-0.38
0.47265625,-0.89223605,-0.013080776,0.00829503,0.03,0.75,-0.27,16383,10140.00,0,0,165,-61.88,-3.99,0.63,0.03,0.75,-0.27
-1.1269531,-1.484236,0.28491923,-0.05870497,-0.19,0.62,0.21,16398,10138.40,0,0,0,-103.32,16.87,-4.06,-0.19,0.62,0.21
-0.52734375,-2.621236,0.049919225,0.04529503,-0.07,0.89,0.04,16406,10139.00,0,0,165,-182.91,0.42,3.22,-0.07,0.89,0.04
-0.12695312,-2.6242359,0.31491923,0.5622951,0.04,0.84,-0.25,16421,10139.40,0,0,0,-183.12,18.97,39.41,0.04,0.84,-0.25
-0.12695312,-3.035236,0.37991923,1.017295,0.09,0.95,-0.16,16436,10139.40,0,0,165,-211.89,23.52,71.26,0.09,0.95,-0.16
0.47265625,-2.896236,0.41591924,1.797295,0.12,1.07,-0.07,16443,10140.00,0,0,0,-202.16,26.04,125.86,0.12,1.07,-0.07
-0.12695312,-2.704236,0.41391924,2.435295,0.08,0.96,-0.03,16459,10139.40,0,0,165,-188.72,25.90,170.52,0.08,0.96,-0.03
1.4726562,-0.857236,0.6589192,-0.34070498,0.1,2.08,0.0,16474,10141.00,0,0,0,-59.43,43.05,-23.80,0.10,2.08,0.00
0.77246094,-0.71523607,0.6929192,0.21929502,0.19,0.51,-0.5,16482,10140.30,0,0,165,-49.49,45.43,15.40,0.19,0.51,-0.50
0.47265625,-0.13923602,1.0799191,-0.6277049,0.06,0.97,-0.24,16497,10140.00,0,0,0,-9.17,72.52,-43.89,0.06,0.97,-0.24
0.77246094,-0.33923602,1.2729192,-0.72770494,0.09,0.47,0.12,16511,10140.30,0,0,165,-23.17,86.03,-50.89,0.09,0.47,0.12
-0.52734375,0.021763977,0.8329192,-0.6687049,0.1,1.25,0.16,16518,10139.00,0,0,0,2.10,55.23,-46.76,0.10,1.25,0.16
0.47265625,0.08376398,0.96691924,-0.644705,0.78,1.14,-0.08,16533,10140.00,0,0,165,6.44,64.61,-45.08,0.78,1.14,-0.08
1.4726562,0.07176398,0.6649192,-0.418705,0.26,1.1,-0.15,16549,10141.00,0,0,0,5.60,43.47,-29.26,0.26,1.10,-0.15
0.47265625,-0.13223603,0.6909192,-0.10570496,0.24,1.08,-0.13,16556,10140.00,0,0,165,-8.68,45.29,-7.35,0.24,1.08,-0.13
-0.52734375,-0.08523602,0.56491923,0.37629503,0.13,1.02,-0.17,16571,10139.00,0,0,0,-5.39,36.47,26.39,0.13,1.02,-0.17
0.77246094,0.017763976,0.47791922,0.382295,0.13,1.1,-0.21,16586,10140.30,0,0,165,1.82,30.38,26.81,0.13,1.10,-0.21
0.47265625,0.370764,0.63791925,0.21729504,0.27,1.29,-0.36,16593,10140.00,0,0,0,26.53,41.58,15.26,0.27,1.29,-0.36
-0.12695312,0.251764,0.49491924,0.22729503,0.3,1.14,-0.2,16608,10139.40,0,0,165,18.20,31.57,15.96,0.30,1.14,-0.20
-0.12695312,-0.29323602,0.27391922,0.14029503,0.07,1.08,-0.19,16623,10139.40,0,0,0,-19.95,16.10,9.87,0.07,1.08,-0.19
0.77246094,-0.635236,0.046919223,-0.6797049,0.07,0.86,0.1,16631,10140.30,0,0,165,-43.89,0.21,-47.53,0.07,0.86,0.10
-0.52734375,-0.41923603,0.026919223,-0.93170494,-0.02,1.05,-0.2,16646,10139.00,0,0,0,-28.77,-1.19,-65.17,-0.02,1.05,-0.20
0.47265625,0.34576398,0.26691923,-0.74870497,-0.16,1.09,-0.26,16661,10140.00,0,0,165,24.78,15.61,-52.36,-0.16,1.09,-0.26
-0.12695312,0.046763975,0.6769192,-0.54170495,-0.07,1.13,-0.24,16668,10139.40,0,0,0,3.85,44.31,-37.87,-0.07,1.13,-0.24
0.77246094,-0.5562361,0.6039192,-0.367705,0.19,1.05,-0.18,16683,10140.30,0,0,165,-38.36,39.20,-25.69,0.19,1.05,-0.18
-1.4277344,-0.9312361,0.50391924,-0.17170498,0.24,1.17,-0.28,16699,10138.10,0,0,0,-64.61,32.20,-11.97,0.24,1.17,-0.28
0.77246094,-0.66023606,2.0959194,0.728295,0.48,1.73,-0.31,16706,10140.30,0,0,165,-45.64,143.64,51.03,0.48,1.73,-0.31
-0.12695312,-0.21923603,1.8239192,0.67029506,0.1,0.97,-0.09,16720,10139.40,0,0,0,-14.77,124.60,46.97,0.10,0.97,-0.09
0.47265625,-1.1242361,1.2649193,0.66329503,0.23,1.09,-0.17,16735,10140.00,0,0,165,-78.12,85.47,46.48,0.23,1.09,-0.17
0.47265625,-1.2012361,1.2669193,0.985295,0.32,1.25,-0.21,16744,10140.00,0,0,0,-83.51,85.61,69.02,0.32,1.25,-0.21
0.77246094,-1.3282361,1.3049191,1.146295,0.29,1.17,-0.12,16758,10140.30,0,0,165,-92.40,88.27,80.29,0.29,1.17,-0.12
-0.52734375,-1.482236,1.4569193,1.343295,0.27,1.11,-0.06,16773,10139.00,0,0,0,-103.18,98.91,94.08,0.27,1.11,-0.06
0.77246094,-1.4212362,1.6569192,1.200295,0.26,1.03,0.06,16781,10140.30,0,0,165,-98.91,112.91,84.07,0.26,1.03,0.06
0.77246094,-1.3532361,1.6899192,0.84629506,0.31,0.99,0.09,16798,10140.30,0,0,0,-94.15,115.22,59.29,0.31,0.99,0.09
-0.52734375,-1.276236,1.5499191,0.41829503,0.39,0.88,0.16,16811,10139.00,0,0,165,-88.76,105.42,29.33,0.39,0.88,0.16
1.4726562,-1.265236,1.0819193,-0.09770497,0.33,0.89,0.18,16818,10141.00,0,0,0,-87.99,72.66,-6.79,0.33,0.89,0.18
-0.52734375,-1.1232361,0.7649192,-0.38470495,0.19,0.93,0.15,16833,10139.00,0,0,165,-78.05,50.47,-26.88,0.19,0.93,0.15
0.47265625,-0.8902361,0.5369192,-0.55670494,0.14,0.98,0.11,16849,10140.00,0,0,0,-61.74,34.51,-38.92,0.14,0.98,0.11
1.7724609,-0.6172361,0.45291921,-0.53870493,0.13,0.94,0.19,16856,10141.30,0,0,165,-42.63,28.63,-37.66,0.13,0.94,0.19
0.77246094,-0.64823604,0.21791923,-0.622705,0.18,0.87,0.28,16871,10140.30,0,0,0,-44.80,12.18,-43.54,0.18,0.87,0.28
0.77246094,-0.59723604,0.12191923,-0.57870495,0.13,0.92,0.23,16886,10140.30,0,0,165,-41.23,5.46,-40.46,0.13,0.92,0.23
0.47265625,-0.44823602,0.22891922,-0.45270497,0.1,0.92,0.25,16893,10140.00,0,0,0,-30.80,12.95,-31.64,0.10,0.92,0.25
0.77246094,-0.40623602,0.25491923,-0.311705,0.04,0.86,0.31,16909,10140.30,0,0,165,-27.86,14.77,-21.77,0.04,0.86,0.31
0.47265625,-0.461236,0.14591922,-0.32870495,0.03,0.78,0.37,16923,10140.00,0,0,0,-31.71,7.14,-22.96,0.03,0.78,0.37
0.77246094,-0.539236,0.043919224,-0.341705,0.11,0.9,0.19,16931,10140.30,0,0,165,-37.17,0.00,-23.87,0.11,0.90,0.19
1.4726562,0.428764,0.27191922,-0.019704971,0.16,1.02,0.18,16946,10141.00,0,0,0,30.59,15.96,-1.33,0.16,1.02,0.18
0.47265625,0.88976395,0.6049192,0.110295035,0.26,0.93,0.25,16969,10140.00,0,0,165,62.86,39.27,7.77,0.26,0.93,0.25
0.77246094,0.55076396,0.31391922,-0.10470497,0.27,0.95,0.36,16970,10140.30,0,0,0,39.13,18.90,-7.28,0.27,0.95,0.36
0.47265625,0.09476398,0.48091924,-0.14270496,0.26,0.98,0.23,16986,10140.00,0,0,165,7.21,30.59,-9.94,0.26,0.98,0.23
-0.52734375,0.26876396,0.5349192,-0.07870497,0.22,1.02,0.22,16998,10139.00,0,0,0,19.39,34.37,-5.46,0.22,1.02,0.22
0.47265625,0.24676397,0.54191923,-0.028704971,0.17,1.01,0.25,17006,10140.00,0,0,165,17.85,34.86,-1.96,0.17,1.01,0.25
-0.52734375,0.033763975,0.43291923,0.10029504,0.17,1.03,0.21,17021,10139.00,0,0,0,2.94,27.23,7.07,0.17,1.03,0.21
0.47265625,0.13476399,0.39891925,0.26329502,0.21,1.0,0.27,17036,10140.00,0,0,165,10.01,24.85,18.48,0.21,1.00,0.27
0.47265625,0.050763976,0.19991922,0.16929503,0.27,0.98,0.3,17043,10140.00,0,0,0,4.13,10.92,11.90,0.27,0.98,0.30
1.4726562,-0.07523602,-0.03808077,0.12329504,0.29,1.03,0.2,17058,10141.00,0,0,165,-4.69,-5.74,8.68,0.29,1.03,0.20
-0.12695312,0.29276398,0.7359192,0.54529506,0.53,1.35,0.12,17073,10139.40,0,0,0,21.07,48.44,38.22,0.53,1.35,0.12
0.77246094,0.34176397,0.9699192,0.79929507,0.25,0.98,0.17,17081,10140.30,0,0,165,24.50,64.82,56.00,0.25,0.98,0.17
0.77246094,0.057763975,1.2069193,0.88929504,0.28,1.03,0.18,17096,10140.30,0,0,0,4.62,81.41,62.30,0.28,1.03,0.18
0.77246094,0.19276397,1.2029191,0.86929506,0.35,0.93,0.26,17110,10140.30,0,0,165,14.07,81.13,60.90,0.35,0.93,0.26
0.77246094,0.65476394,1.1059191,0.692295,0.25,0.85,0.22,17118,10140.30,0,0,0,46.41,74.34,48.51,0.25,0.85,0.22
0.77246094,0.785764,1.2329192,0.23229502,0.3,0.91,0.28,17133,10140.30,0,0,165,55.58,83.23,16.31,0.30,0.91,0.28
0.47265625,0.490764,1.0309192,-0.0047049695,0.35,0.92,0.23,17148,10140.00,0,0,0,34.93,69.09,-0.28,0.35,0.92,0.23
0.77246094,0.40076396,0.93991923,-0.12870498,0.19,0.96,0.17,17156,10140.30,0,0,165,28.63,62.72,-8.96,0.19,0.96,0.17
0.47265625,0.34976396,0.89991915,-0.023704968,0.08,0.9,0.18,17171,10140.00,0,0,0,25.06,59.92,-1.61,0.08,0.90,0.18
0.47265625,0.21876398,0.8159192,-0.015704969,-0.0,0.92,0.14,17186,10140.00,0,0,165,15.89,54.04,-1.05,-0.00,0.92,0.14
-0.52734375,0.17676398,0.7649192,0.057295028,0.12,0.96,0.12,17193,10139.00,0,0,0,12.95,50.47,4.06,0.12,0.96,0.12
0.77246094,0.13176398,0.7499192,0.24329503,0.11,0.99,0.13,17208,10140.30,0,0,165,9.80,49.42,17.08,0.11,0.99,0.13
0.47265625,0.372764,0.69991916,0.25629503,0.19,0.95,0.17,17224,10140.00,0,0,0,26.67,45.92,17.99,0.19,0.95,0.17
0.77246094,0.510764,0.49191925,0.23429504,0.15,0.93,0.16,17231,10140.30,0,0,165,36.33,31.36,16.45,0.15,0.93,0.16
-0.12695312,0.379764,0.35791922,0.22929503,0.14,0.93,0.15,17246,10139.40,0,0,0,27.16,21.98,16.10,0.14,0.93,0.15
0.47265625,0.050763976,0.32391924,0.28829503,0.21,1.0,0.13,17261,10140.00,0,0,165,4.13,19.60,20.23,0.21,1.00,0.13
0.47265625,-0.18023603,0.22791922,0.56929505,0.28,1.02,0.12,17268,10140.00,0,0,0,-12.04,12.88,39.90,0.28,1.02,0.12
1.4726562,-0.335236,0.07791923,0.66229504,0.37,1.03,0.14,17283,10141.00,0,0,165,-22.89,2.38,46.41,0.37,1.03,0.14
0.77246094,-0.09323602,0.11791922,0.63929504,0.33,1.11,0.15,17298,10140.30,0,0,0,-5.95,5.18,44.80,0.33,1.11,0.15
0.47265625,0.07676398,0.078919224,0.45329502,0.35,1.02,0.18,17314,10140.00,0,0,165,5.95,2.45,31.78,0.35,1.02,0.18
0.47265625,0.10376398,-0.04308078,0.35929504,0.4,1.02,0.19,17321,10140.00,0,0,0,7.84,-6.09,25.20,0.40,1.02,0.19
0.77246094,0.06876398,-0.09308079,0.33929503,0.41,0.96,0.19,17335,10140.30,0,0,165,5.39,-9.59,23.80,0.41,0.96,0.19
1.4726562,-0.15523602,-0.16208078,0.39229503,0.42,1.0,0.2,17358,10141.00,0,0,0,-10.29,-14.42,27.51,0.42,1.00,0.20
0.77246094,-0.392236,-0.24808078,0.38429505,0.41,0.99,0.17,17359,10140.30,0,0,165,-26.88,-20.44,26.95,0.41,0.99,0.17
1.4726562,-0.461236,-0.24508078,0.30629504,0.35,1.02,0.13,17366,10141.00,0,0,0,-31.71,-20.23,21.49,0.35,1.02,0.13
0.77246094,-0.506236,-0.27908078,0.14829503,0.28,1.03,0.15,17382,10140.30,0,0,165,-34.86,-22.61,10.43,0.28,1.03,0.15
-0.52734375,-0.53223604,-0.34908077,-0.267705,0.15,0.92,0.13,17396,10139.00,0,0,0,-36.68,-27.51,-18.69,0.15,0.92,0.13
0.77246094,-0.64223605,-0.5930808,-0.471705,0.06,0.92,0.17,17404,10140.30,0,0,165,-44.38,-44.59,-32.97,0.06,0.92,0.17
-0.12695312,-0.45523605,-0.8080808,-0.6937049,-0.02,0.86,0.07,17418,10139.40,0,0,0,-31.29,-59.64,-48.51,-0.02,0.86,0.07
-0.12695312,-0.47123602,-0.8070808,-0.5997049,0.05,0.95,0.31,17433,10139.40,0,0,165,-32.41,-59.57,-41.93,0.05,0.95,0.31
0.77246094,-0.36323604,-0.6930808,-0.84670496,0.12,0.8,0.2,17441,10140.30,0,0,0,-24.85,-51.59,-59.22,0.12,0.80,0.20
-0.12695312,-0.33423603,-0.6770808,-0.990705,0.08,0.88,0.13,17456,10139.40,0,0,165,-22.82,-50.47,-69.30,0.08,0.88,0.13
0.77246094,-0.33723602,-0.46208075,-0.94470495,0.03,0.88,0.12,17478,10140.30,0,0,0,-23.03,-35.42,-66.08,0.03,0.88,0.12
0.47265625,-0.37123603,-0.20108077,-0.88970494,0.0,0.89,0.14,17486,10140.00,0,0,165,-25.41,-17.15,-62.23,0.00,0.89,0.14
0.47265625,-0.278236,0.009919222,-0.80070496,-0.04,0.92,0.15,17493,10140.00,0,0,0,-18.90,-2.38,-56.00,-0.04,0.92,0.15
0.47265625,-0.033236023,0.08791922,-0.79270494,-0.06,0.93,0.13,17508,10140.00,0,0,165,-1.75,3.08,-55.44,-0.06,0.93,0.13
-0.12695312,0.23176397,0.071919225,-0.6547049,-0.05,0.92,0.13,17516,10139.40,0,0,0,16.80,1.96,-45.78,-0.05,0.92,0.13
0.47265625,0.29076397,0.009919222,-0.571705,-0.05,0.91,0.2,17531,10140.00,0,0,165,20.93,-2.38,-39.97,-0.05,0.91,0.20
-0.52734375,0.17976397,-0.121080786,-0.41070497,0.04,0.9,0.24,17546,10139.00,0,0,0,13.16,-11.55,-28.70,0.04,0.90,0.24
0.47265625,-0.0072360234,-0.35108075,-0.21870498,0.1,0.94,0.23,17553,10140.00,0,0,165,0.07,-27.65,-15.26,0.10,0.94,0.23
0.77246094,-0.17723602,-0.5220808,0.22029503,0.12,0.98,0.17,17568,10140.30,0,0,0,-11.83,-39.62,15.47,0.12,0.98,0.17
0.77246094,-0.21323602,-0.44808075,0.16529502,0.12,1.02,0.16,17584,10140.30,0,0,165,-14.35,-34.44,11.62,0.12,1.02,0.16
0.47265625,-0.14123602,-0.29108077,0.26729503,0.15,0.98,0.21,17591,10140.00,0,0,0,-9.31,-23.45,18.76,0.15,0.98,0.21
0.47265625,-0.09123602,-0.21808077,0.408295,0.21,0.97,0.25,17606,10140.00,0,0,165,-5.81,-18.34,28.63,0.21,0.97,0.25
0.77246094,-0.07423602,-0.19308078,0.52329504,0.23,0.99,0.24,17635,10140.30,0,0,0,-4.62,-16.59,36.68,0.23,0.99,0.24
0.77246094,-0.09423602,-0.13308078,0.5842951,0.22,0.98,0.24,17637,10140.30,0,0,165,-6.02,-12.39,40.95,0.22,0.98,0.24
0.47265625,-0.08623602,-0.037080776,0.6872951,0.19,1.01,0.21,17643,10140.00,0,0,0,-5.46,-5.67,48.16,0.19,1.01,0.21
0.77246094,-0.16223602,0.06591922,0.463295,0.23,0.98,0.2,17659,10140.30,0,0,165,-10.78,1.54,32.48,0.23,0.98,0.20
0.77246094,0.06876398,0.19091922,0.27229503,0.25,0.96,0.25,17681,10140.30,0,0,0,5.39,10.29,19.11,0.25,0.96,0.25
0.77246094,0.012763976,0.14391923,0.15129504,0.28,0.91,0.27,17682,10140.30,0,0,165,1.47,7.00,10.64,0.28,0.91,0.27
0.77246094,-0.117236026,0.006919224,0.0022950305,0.2,0.9,0.3,17705,10140.30,0,0,0,-7.63,-2.59,0.21,0.20,0.90,0.30
0.77246094,-0.23523602,-0.16208078,-0.10770496,0.01,0.9,0.25,17707,10140.30,0,0,165,-15.89,-14.42,-7.49,0.01,0.90,0.25
0.47265625,-0.321236,-0.34508076,0.05029503,-0.24,0.94,0.23,17726,10140.00,0,0,0,-21.91,-27.23,3.57,-0.24,0.94,0.23
0.77246094,-0.5572361,-0.20008078,0.14729503,-0.06,0.97,0.15,17733,10140.30,0,0,165,-38.43,-17.08,10.36,-0.06,0.97,0.15
0.77246094,-0.5712361,-0.20208077,0.449295,0.18,1.04,0.24,17741,10140.30,0,0,0,-39.41,-17.22,31.50,0.18,1.04,0.24
-0.12695312,-0.46823603,-0.26608077,0.5252951,0.24,0.89,0.32,17755,10139.40,0,0,165,-32.20,-21.70,36.82,0.24,0.89,0.32
0.77246094,-0.311236,-0.32408077,0.50529504,0.28,0.84,0.35,17770,10140.30,0,0,0,-21.21,-25.76,35.42,0.28,0.84,0.35
1.7724609,-0.025236025,-0.16708079,0.32329503,0.21,0.82,0.28,17779,10141.30,0,0,165,-1.19,-14.77,22.68,0.21,0.82,0.28
1.7724609,0.83076394,0.36791924,-0.14770497,0.29,0.52,0.25,17794,10141.30,0,0,0,58.73,22.68,-10.29,0.29,0.52,0.25
-0.12695312,1.239764,0.078919224,-0.84270495,0.22,0.95,0.54,17801,10139.40,0,0,165,87.36,2.45,-58.94,0.22,0.95,0.54
0.47265625,0.22176398,-0.49908075,-0.67270494,-0.01,0.94,0.18,17816,10140.00,0,0,0,16.10,-38.01,-47.04,-0.01,0.94,0.18
1.4726562,0.05576398,-0.23908077,-0.52370495,0.12,1.0,0.09,17831,10141.00,0,0,165,4.48,-19.81,-36.61,0.12,1.00,0.09
0.77246094,0.21676397,0.013919225,-0.33370498,0.2,1.05,0.09,17838,10140.30,0,0,0,15.75,-2.10,-23.31,0.20,1.05,0.09
0.77246094,0.265764,0.25591922,-0.110704966,0.29,1.04,0.12,17853,10140.30,0,0,165,19.18,14.84,-7.70,0.29,1.04,0.12
1.7724609,0.328764,0.54691917,0.022295032,0.45,1.05,0.18,17868,10141.30,0,0,0,23.59,35.21,1.61,0.45,1.05,0.18
-0.52734375,0.40876397,0.6639192,0.010295031,0.5,1.03,0.22,17876,10139.00,0,0,165,29.19,43.40,0.77,0.50,1.03,0.22
1.7724609,0.50576395,0.6569192,-0.04370497,0.45,1.0,0.28,17891,10141.30,0,0,0,35.98,42.91,-3.01,0.45,1.00,0.28
0.77246094,0.39476398,0.43191925,-0.08270496,0.36,1.03,0.3,17905,10140.30,0,0,165,28.21,27.16,-5.74,0.36,1.03,0.30
1.7724609,0.291764,0.19291922,-0.07670497,0.23,1.0,0.33,17913,10141.30,0,0,0,21.00,10.43,-5.32,0.23,1.00,0.33
1.7724609,0.266764,0.15591922,-0.17970496,0.19,0.95,0.34,17928,10141.30,0,0,165,19.25,7.84,-12.53,0.19,0.95,0.34
1.4726562,0.17276397,0.06891923,-0.366705,0.16,0.98,0.3,17943,10141.00,0,0,0,12.67,1.75,-25.62,0.16,0.98,0.30
1.4726562,0.12376398,-0.051080775,-0.39170498,0.17,1.0,0.16,17951,10141.00,0,0,165,9.24,-6.65,-27.37,0.17,1.00,0.16
1.7724609,0.114763975,0.036919225,-0.25870496,0.1,1.08,0.05,17966,10141.30,0,0,0,8.61,-0.49,-18.06,0.10,1.08,0.05
0.77246094,0.18076397,0.30891922,-0.07570497,0.1,1.05,0.1,17981,10140.30,0,0,165,13.23,18.55,-5.25,0.10,1.05,0.10
0.47265625,0.38276398,0.5159192,-0.06870497,0.13,0.97,0.18,17988,10140.00,0,0,0,27.37,33.04,-4.76,0.13,0.97,0.18
1.7724609,0.335764,0.39291924,-0.11670496,0.1,0.94,0.21,18003,10141.30,0,0,165,24.08,24.43,-8.12,0.10,0.94,0.21
1.7724609,0.31676397,0.26791924,-0.16770497,0.11,0.93,0.16,18019,10141.30,0,0,0,22.75,15.68,-11.69,0.11,0.93,0.16
1.7724609,0.26876396,0.13991922,-0.07170496,0.1,0.98,0.12,18026,10141.30,0,0,165,19.39,6.72,-4.97,0.10,0.98,0.12
0.47265625,0.34476396,0.22191922,-0.11970496,0.09,0.94,0.15,18041,10140.00,0,0,0,24.71,12.46,-8.33,0.09,0.94,0.15
1.7724609,0.39776397,0.017919224,-0.21270497,0.07,0.95,0.12,18056,10141.30,0,0,165,28.42,-1.82,-14.84,0.07,0.95,0.12
0.77246094,0.20576397,-0.35308078,-0.091704965,-0.01,1.01,0.1,18063,10140.30,0,0,0,14.98,-27.79,-6.37,-0.01,1.01,0.10
0.77246094,-0.034236025,-0.35808074,0.099295035,-0.03,1.02,0.05,18080,10140.30,0,0,165,-1.82,-28.14,7.00,-0.03,1.02,0.05
1.7724609,0.07976398,-0.14708078,0.23329501,-0.02,0.96,0.16,18093,10141.30,0,0,0,6.16,-13.37,16.38,-0.02,0.96,0.16
1.7724609,0.018763978,-0.18008079,0.20529503,0.08,0.98,0.14,18101,10141.30,0,0,165,1.89,-15.68,14.42,0.08,0.98,0.14
0.77246094,-0.083236024,-0.29008076,0.24929503,0.16,0.97,0.07,18116,10140.30,0,0,0,-5.25,-23.38,17.50,0.16,0.97,0.07
0.47265625,-0.03223602,-0.20308079,0.32229504,0.22,1.01,0.11,18132,10140.00,0,0,165,-1.68,-17.29,22.61,0.22,1.01,0.11
0.77246094,-0.07123602,-0.09008078,0.250295,0.2,0.98,0.17,18139,10140.30,0,0,0,-4.41,-9.38,17.57,0.20,0.98,0.17
0.77246094,0.022763979,0.026919223,-0.13770498,0.15,0.95,0.19,18154,10140.30,0,0,165,2.17,-1.19,-9.59,0.15,0.95,0.19
0.77246094,0.089763984,0.12591922,-0.30970496,0.14,1.03,0.12,18168,10140.30,0,0,0,6.86,5.74,-21.63,0.14,1.03,0.12
0.77246094,0.26776397,0.44991922,-0.16470496,0.13,0.99,0.12,18175,10140.30,0,0,165,19.32,28.42,-11.48,0.13,0.99,0.12
0.77246094,0.41976395,0.5289192,-0.11570497,0.16,0.98,0.25,18191,10140.30,0,0,0,29.96,33.95,-8.05,0.16,0.98,0.25
1.7724609,0.18976398,0.36491922,-0.12770498,0.14,0.99,0.19,18206,10141.30,0,0,165,13.86,22.47,-8.89,0.14,0.99,0.19
0.77246094,0.06976398,0.37091923,-0.120704964,0.2,1.0,0.1,18213,10140.30,0,0,0,5.46,22.89,-8.40,0.20,1.00,0.10
0.77246094,0.10276398,0.48591924,-0.15770496,0.26,1.0,0.06,18229,10140.30,0,0,165,7.77,30.94,-10.99,0.26,1.00,0.06
0.77246094,0.016763978,0.5589192,-0.14870498,0.16,1.02,0.13,18243,10140.30,0,0,0,1.75,36.05,-10.36,0.16,1.02,0.13
0.77246094,-0.07023603,0.51291925,-0.16570498,0.11,0.96,0.24,18251,10140.30,0,0,165,-4.34,32.83,-11.55,0.11,0.96,0.24
0.77246094,-0.012236023,0.35791922,-0.22170497,0.08,0.95,0.24,18266,10140.30,0,0,0,-0.28,21.98,-15.47,0.08,0.95,0.24
0.77246094,-0.016236024,0.19191922,-0.25070497,0.05,1.01,0.19,18281,10140.30,0,0,165,-0.56,10.36,-17.50,0.05,1.01,0.19
1.7724609,-0.20723602,0.11291923,0.06429504,-0.03,1.04,0.14,18288,10141.30,0,0,0,-13.93,4.83,4.55,-0.03,1.04,0.14
1.7724609,-0.073236026,0.44591922,0.31929502,-0.02,1.64,-0.47,18303,10141.30,0,0,165,-4.55,28.14,22.40,-0.02,1.64,-0.47
0.77246094,0.58076394,0.7489192,0.26729503,0.04,0.97,0.12,18318,10140.30,0,0,0,41.23,49.35,18.76,0.04,0.97,0.12
0.77246094,0.11176398,0.17791922,0.21829502,0.17,0.96,0.25,18325,10140.30,0,0,165,8.40,9.38,15.33,0.17,0.96,0.25
0.47265625,0.10676398,-0.18008079,0.04629503,0.1,1.0,0.11,18340,10140.00,0,0,0,8.05,-15.68,3.29,0.10,1.00,0.11
0.77246094,0.12276398,0.027919224,0.13929503,0.09,1.01,0.03,18356,10140.30,0,0,165,9.17,-1.12,9.80,0.09,1.01,0.03
0.77246094,0.057763975,0.18491922,0.117295034,0.11,1.02,0.11,18364,10140.30,0,0,0,4.62,9.87,8.26,0.11,1.02,0.11
0.77246094,-0.020236023,0.10291922,0.10029504,0.11,0.97,0.21,18379,10140.30,0,0,165,-0.84,4.13,7.07,0.11,0.97,0.21
0.77246094,-0.09923602,-0.06608078,0.006295031,0.18,0.99,0.18,18393,10140.30,0,0,0,-6.37,-7.70,0.49,0.18,0.99,0.18
0.77246094,-0.16223602,-0.034080777,-0.066704966,0.27,1.03,0.09,18401,10140.30,0,0,165,-10.78,-5.46,-4.62,0.27,1.03,0.09
0.77246094,0.0037639756,0.007919226,0.12329504,0.19,1.05,0.11,18416,10140.30,0,0,0,0.84,-2.52,8.68,0.19,1.05,0.11
0.77246094,0.018763978,0.06991923,0.23929502,0.29,0.98,0.16,18432,10140.30,0,0,165,1.89,1.82,16.80,0.29,0.98,0.16
-0.52734375,0.044763975,0.14091922,0.18129502,0.36,0.97,0.18,18438,10139.00,0,0,0,3.71,6.79,12.74,0.36,0.97,0.18
0.77246094,-0.049236022,0.040919226,0.057295028,0.31,0.9,0.26,18453,10140.30,0,0,165,-2.87,-0.21,4.06,0.31,0.90,0.26
-0.12695312,-0.936236,0.33491924,0.68529505,0.33,0.84,-0.0,18468,10139.40,0,0,0,-64.96,20.37,48.02,0.33,0.84,-0.00
0.77246094,0.09476398,0.35491925,0.33329502,0.12,0.91,0.27,18475,10140.30,0,0,165,7.21,21.77,23.38,0.12,0.91,0.27
0.47265625,0.35676396,0.08791922,0.32529503,0.19,1.01,0.09,18490,10140.00,0,0,0,25.55,3.08,22.82,0.19,1.01,0.09
1.7724609,0.5077639,0.21491922,0.35629502,0.22,0.94,0.11,18506,10141.30,0,0,165,36.12,11.97,24.99,0.22,0.94,0.11
0.77246094,0.50576395,0.26991922,0.29929504,0.2,0.99,0.14,18514,10140.30,0,0,0,35.98,15.82,21.00,0.20,0.99,0.14
0.77246094,0.39376396,0.23891921,0.24629503,0.21,1.01,0.13,18529,10140.30,0,0,165,28.14,13.65,17.29,0.21,1.01,0.13
1.7724609,0.20876397,0.13991922,0.23629503,0.24,1.01,0.11,18549,10141.30,0,0,0,15.19,6.72,16.59,0.24,1.01,0.11
1.7724609,-0.010236024,0.014919225,0.18229504,0.27,0.99,0.09,18550,10141.30,0,0,165,-0.14,-2.03,12.81,0.27,0.99,0.09
0.77246094,-0.12823603,-0.12008077,0.20829503,0.25,1.01,0.06,18565,10140.30,0,0,0,-8.40,-11.48,14.63,0.25,1.01,0.06
1.7724609,-0.08923602,-0.09508078,0.21229503,0.26,0.98,0.14,18581,10141.30,0,0,165,-5.67,-9.73,14.91,0.26,0.98,0.14
1.7724609,-0.19323602,-0.24808078,0.15429503,0.21,0.94,0.18,18588,10141.30,0,0,0,-12.95,-20.44,10.85,0.21,0.94,0.18
0.77246094,-0.34423602,-0.32808077,0.21329501,0.21,1.01,0.11,18603,10140.30,0,0,165,-23.52,-26.04,14.98,0.21,1.01,0.11
1.7724609,-0.273236,-0.10708077,0.29329503,0.16,0.99,0.16,18618,10141.30,0,0,0,-18.55,-10.57,20.58,0.16,0.99,0.16
2.0722656,-0.285236,-0.072080776,0.37029502,0.25,0.96,0.2,18626,10141.60,0,0,165,-19.39,-8.12,25.97,0.25,0.96,0.20
1.7724609,-0.49923602,-0.36808077,0.40329504,0.27,0.97,0.17,18640,10141.30,0,0,0,-34.37,-28.84,28.28,0.27,0.97,0.17
0.77246094,-0.6162361,-0.59708077,0.44729504,0.3,1.0,0.06,18656,10140.30,0,0,165,-42.56,-44.87,31.36,0.30,1.00,0.06
0.77246094,-0.26523602,-0.36508074,0.30929503,0.2,1.01,0.06,18664,10140.30,0,0,0,-17.99,-28.63,21.70,0.20,1.01,0.06
1.7724609,-0.03223602,-0.31608078,0.13929503,0.22,0.97,0.13,18678,10141.30,0,0,165,-1.68,-25.20,9.80,0.22,0.97,0.13
1.7724609,0.21976398,-0.09508078,0.11129504,0.22,0.99,0.13,18693,10141.30,0,0,0,15.96,-9.73,7.84,0.22,0.99,0.13
1.7724609,0.40076396,0.15791923,0.29229504,0.29,0.98,0.14,18700,10141.30,0,0,165,28.63,7.98,20.51,0.29,0.98,0.14
1.7724609,0.27976397,0.20591922,0.82429504,0.34,0.92,0.18,18716,10141.30,0,0,0,20.16,11.34,57.75,0.34,0.92,0.18
0.77246094,-0.0072360234,0.09091923,1.2602949,0.34,0.95,0.15,18731,10140.30,0,0,165,0.07,3.29,88.27,0.34,0.95,0.15
0.77246094,-0.18923602,0.056919225,1.4142951,0.28,0.99,0.13,18738,10140.30,0,0,0,-12.67,0.91,99.05,0.28,0.99,0.13
1.7724609,-0.34923604,0.085919224,1.4652951,0.33,0.99,0.23,18753,10141.30,0,0,165,-23.87,2.94,102.62,0.33,0.99,0.23
1.7724609,-0.58623606,-0.23208077,1.138295,0.22,0.9,0.01,18768,10141.30,0,0,0,-40.46,-19.32,79.73,0.22,0.90,0.01
1.7724609,0.0027639763,-0.048080776,0.10829504,0.33,0.94,0.22,18775,10141.30,0,0,165,0.77,-6.44,7.63,0.33,0.94,0.22
1.7724609,-0.106236026,-0.060080778,0.06329504,0.32,0.92,0.23,18790,10141.30,0,0,0,-6.86,-7.28,4.48,0.32,0.92,0.23
0.77246094,-2.231236,0.016919224,-1.271705,0.39,1.19,-0.12,18806,10140.30,0,0,165,-155.61,-1.89,-88.97,0.39,1.19,-0.12
0.77246094,-0.55323607,0.21191922,-0.41370496,0.31,0.95,0.21,18813,10140.30,0,0,0,-38.15,11.76,-28.91,0.31,0.95,0.21
1.7724609,-0.36923602,0.13591923,-0.558705,0.33,0.93,0.2,18828,10141.30,0,0,165,-25.27,6.44,-39.06,0.33,0.93,0.20
1.7724609,-0.34323603,0.20491923,-0.55670494,0.32,0.91,0.21,18843,10141.30,0,0,0,-23.45,11.27,-38.92,0.32,0.91,0.21
1.7724609,-0.12523602,0.20491923,-0.710705,0.26,0.89,0.15,18851,10141.30,0,0,165,-8.19,11.27,-49.70,0.26,0.89,0.15
1.7724609,0.12576398,0.29791924,-0.72170496,0.28,0.92,0.13,18865,10141.30,0,0,0,9.38,17.78,-50.47,0.28,0.92,0.13
0.77246094,0.07076398,0.37391925,-0.385705,0.24,0.95,0.13,18881,10140.30,0,0,165,5.53,23.10,-26.95,0.24,0.95,0.13
0.77246094,0.05576398,0.43591926,0.18829502,0.23,1.1,0.11,18888,10140.30,0,0,0,4.48,27.44,13.23,0.23,1.10,0.11
2.0722656,0.19376399,0.41991922,-0.25570497,0.29,0.73,0.2,18903,10141.60,0,0,165,14.14,26.32,-17.85,0.29,0.73,0.20
2.0722656,0.036763977,0.18891922,-0.15470497,0.21,1.04,0.23,18918,10141.60,0,0,0,3.15,10.15,-10.78,0.21,1.04,0.23
1.7724609,0.18476398,0.2889192,0.10429503,0.31,0.9,0.33,18925,10141.30,0,0,165,13.51,17.15,7.35,0.31,0.90,0.33
1.7724609,-0.09923602,0.22091922,0.029295031,0.24,1.02,0.21,18941,10141.30,0,0,0,-6.37,12.39,2.10,0.24,1.02,0.21
1.7724609,-0.069236025,0.24391922,0.012295031,0.26,0.97,0.22,18956,10141.30,0,0,165,-4.27,14.00,0.91,0.26,0.97,0.22
1.7724609,-0.084236026,0.23691922,0.010295031,0.29,0.96,0.19,18963,10141.30,0,0,0,-5.32,13.51,0.77,0.29,0.96,0.19
0.77246094,-0.057236027,0.21891922,0.01929503,0.26,0.94,0.21,18979,10140.30,0,0,165,-3.43,12.25,1.40,0.26,0.94,0.21
2.772461,-0.039236024,0.20691922,0.022295032,0.24,0.93,0.23,19001,10142.30,0,0,0,-2.17,11.41,1.61,0.24,0.93,0.23
1.7724609,0.037763976,0.19691922,0.03829503,0.23,0.94,0.23,19002,10141.30,0,0,165,3.22,10.71,2.73,0.23,0.94,0.23
1.7724609,0.073763974,0.22191922,0.040295027,0.23,0.95,0.23,19015,10141.30,0,0,0,5.74,12.46,2.87,0.23,0.95,0.23
2.772461,0.089763984,0.25891924,0.0042950306,0.2,1.19,0.19,19031,10142.30,0,0,165,6.86,15.05,0.35,0.20,1.19,0.19
2.0722656,0.19076398,0.49991924,-0.15670498,0.2,0.97,0.25,19038,10141.60,0,0,0,13.93,31.92,-10.92,0.20,0.97,0.25
1.7724609,0.25676396,0.6089192,-0.14770497,0.22,1.01,0.25,19054,10141.30,0,0,165,18.55,39.55,-10.29,0.22,1.01,0.25
0.77246094,0.19476397,0.65091926,-0.499705,0.25,0.94,0.24,19069,10140.30,0,0,0,14.21,42.49,-34.93,0.25,0.94,0.24
2.772461,0.284764,0.48691922,-0.7387049,0.22,0.94,0.24,19076,10142.30,0,0,165,20.51,31.01,-51.66,0.22,0.94,0.24
0.77246094,0.14276397,0.36791924,-0.923705,0.13,1.04,0.27,19092,10140.30,0,0,0,10.57,22.68,-64.61,0.13,1.04,0.27
1.7724609,0.052763976,0.6049192,-0.40970495,0.14,0.96,0.26,19106,10141.30,0,0,165,4.27,39.27,-28.63,0.14,0.96,0.26
2.772461,-0.08123602,0.8459192,-0.53670496,0.14,0.94,0.29,19114,10142.30,0,0,0,-5.11,56.14,-37.52,0.14,0.94,0.29
2.0722656,-0.48123604,1.0129193,-0.80970496,0.15,0.93,0.24,19129,10141.60,0,0,165,-33.11,67.83,-56.63,0.15,0.93,0.24
2.772461,-0.42223603,1.0529191,-0.25970495,0.1,0.97,0.17,19143,10142.30,0,0,0,-28.98,70.63,-18.13,0.10,0.97,0.17
2.772461,0.6097639,1.5459192,0.16029504,0.12,1.02,0.18,19151,10142.30,0,0,165,43.26,105.14,11.27,0.12,1.02,0.18
1.7724609,0.15676399,0.99091923,-0.44570497,0.26,1.02,0.18,19165,10141.30,0,0,0,11.55,66.29,-31.15,0.26,1.02,0.18
3.0722656,0.43176398,1.0829192,0.10629503,0.22,1.01,0.18,19181,10142.60,0,0,165,30.80,72.73,7.49,0.22,1.01,0.18
1.7724609,0.7217639,0.8449192,-0.07470497,0.18,0.91,0.48,19188,10141.30,0,0,0,51.10,56.07,-5.18,0.18,0.91,0.48
2.772461,0.24176398,0.6649192,0.05829503,0.23,0.96,0.21,19210,10142.30,0,0,165,17.50,43.47,4.13,0.23,0.96,0.21
3.0722656,0.21776398,0.57791924,0.084295034,0.22,0.92,0.2,19218,10142.60,0,0,0,15.82,37.38,5.95,0.22,0.92,0.20
2.772461,0.14476398,0.47991925,0.09329503,0.23,0.92,0.18,19225,10142.30,0,0,165,10.71,30.52,6.58,0.23,0.92,0.18
2.772461,0.05676398,0.32991925,0.12229503,0.26,0.93,0.1,19240,10142.30,0,0,0,4.55,20.02,8.61,0.26,0.93,0.10
3.0722656,0.05976398,0.14991923,0.17629503,0.27,0.93,0.08,19255,10142.60,0,0,165,4.76,7.42,12.39,0.27,0.93,0.08
4.0722656,-0.019236024,-0.029080775,0.18629503,0.3,0.9,0.08,19263,10143.60,0,0,0,-0.77,-5.11,13.09,0.30,0.90,0.08
2.772461,-0.022236023,-0.18408078,0.23729502,0.29,0.87,0.12,19278,10142.30,0,0,165,-0.98,-15.96,16.66,0.29,0.87,0.12
2.772461,-0.06423602,-0.27108076,0.36729503,0.26,0.88,0.19,19301,10142.30,0,0,0,-3.92,-22.05,25.76,0.26,0.88,0.19
2.772461,-0.19323602,-0.20608078,0.452295,0.24,0.88,0.2,19302,10142.30,0,0,165,-12.95,-17.50,31.71,0.24,0.88,0.20
1.7724609,-0.35123602,-0.20608078,0.55929506,0.17,0.95,0.18,19315,10141.30,0,0,0,-24.01,-17.50,39.20,0.17,0.95,0.18
3.772461,-0.39623603,-0.18408078,0.51429504,0.16,1.02,0.2,19331,10143.30,0,0,165,-27.16,-15.96,36.05,0.16,1.02,0.20
3.772461,-0.37423605,-0.11908078,0.42529503,0.18,1.03,0.23,19338,10143.30,0,0,0,-25.62,-11.41,29.82,0.18,1.03,0.23
2.772461,-0.30023602,-0.06708078,0.42529503,0.19,1.0,0.25,19353,10142.30,0,0,165,-20.44,-7.77,29.82,0.19,1.00,0.25
4.0722656,-0.24323604,-0.011080775,0.389295,0.2,0.95,0.24,19369,10143.60,0,0,0,-16.45,-3.85,27.30,0.20,0.95,0.24
3.772461,-0.23223603,-0.017080776,0.38029504,0.29,1.0,0.17,19376,10143.30,0,0,165,-15.68,-4.27,26.67,0.29,1.00,0.17
2.772461,-0.12423602,-0.04608078,0.39629504,0.29,0.95,0.18,19390,10142.30,0,0,0,-8.12,-6.30,27.79,0.29,0.95,0.18
2.772461,-0.076236024,-0.064080775,0.438295,0.24,0.97,0.2,19405,10142.30,0,0,165,-4.76,-7.56,30.73,0.24,0.97,0.20
3.772461,-0.07523602,-0.049080778,0.46129504,0.2,1.07,0.18,19413,10143.30,0,0,0,-4.69,-6.51,32.34,0.20,1.07,0.18
3.0722656,0.044763975,0.030919224,0.47129503,0.17,1.04,0.2,19429,10142.60,0,0,165,3.71,-0.91,33.04,0.17,1.04,0.20
3.772461,0.13676398,0.09591922,0.364295,0.19,1.02,0.24,19444,10143.30,0,0,0,10.15,3.64,25.55,0.19,1.02,0.24
4.6728516,0.15176398,0.13791922,0.24729504,0.21,1.0,0.25,19451,10144.20,0,0,165,11.20,6.58,17.36,0.21,1.00,0.25
3.772461,0.21576399,0.23691922,0.22029503,0.23,1.0,0.26,19465,10143.30,0,0,0,15.68,13.51,15.47,0.23,1.00,0.26
4.0722656,0.19876398,0.29591924,0.15529503,0.25,0.98,0.26,19481,10143.60,0,0,165,14.49,17.64,10.92,0.25,0.98,0.26
3.0722656,0.051763974,0.17591922,0.08529504,0.26,0.95,0.25,19488,10142.60,0,0,0,4.20,9.24,6.02,0.26,0.95,0.25
4.6728516,-0.062236026,0.11891922,0.02729503,0.25,0.98,0.25,19504,10144.20,0,0,165,-3.78,5.25,1.96,0.25,0.98,0.25
4.6728516,-0.058236025,0.13891922,-0.0047049695,0.23,1.0,0.23,19518,10144.20,0,0,0,-3.50,6.65,-0.28,0.23,1.00,0.23
4.6728516,-0.033236023,0.11391923,-0.08670497,0.26,0.97,0.23,19526,10144.20,0,0,165,-1.75,4.90,-6.02,0.26,0.97,0.23
5.0722656,-0.042236026,0.07691923,-0.07970497,0.31,0.94,0.19,19541,10144.60,0,0,0,-2.38,2.31,-5.53,0.31,0.94,0.19
4.6728516,-0.07823602,0.035919223,-0.07670497,0.32,0.94,0.21,19556,10144.20,0,0,165,-4.90,-0.56,-5.32,0.32,0.94,0.21
4.0722656,-0.16323602,-0.048080776,-0.08970497,0.29,0.95,0.2,19563,10143.60,0,0,0,-10.85,-6.44,-6.23,0.29,0.95,0.20
5.0722656,-0.18623602,-0.07608077,-0.12270497,0.26,0.98,0.22,19578,10144.60,0,0,165,-12.46,-8.40,-8.54,0.26,0.98,0.22
4.6728516,-0.20023601,-0.040080775,-0.14370498,0.22,0.97,0.25,19593,10144.20,0,0,0,-13.44,-5.88,-10.01,0.22,0.97,0.25
4.6728516,-0.21823601,-0.010080777,-0.16770497,0.25,0.98,0.2,19601,10144.20,0,0,165,-14.70,-3.78,-11.69,0.25,0.98,0.20
4.6728516,-0.22723602,-0.040080775,-0.18470497,0.28,0.93,0.22,19616,10144.20,0,0,0,-15.33,-5.88,-12.88,0.28,0.93,0.22
5.0722656,-0.277236,-0.08708078,-0.19270496,0.25,1.01,0.21,19631,10144.60,0,0,165,-18.83,-9.17,-13.44,0.25,1.01,0.21
4.6728516,-0.14523603,-0.031080779,-0.18070498,0.24,0.97,0.23,19638,10144.20,0,0,0,-9.59,-5.25,-12.60,0.24,0.97,0.23
4.6728516,-0.11323602,-0.025080774,-0.17970496,0.24,0.94,0.26,19653,10144.20,0,0,165,-7.35,-4.83,-12.53,0.24,0.94,0.26
5.9726562,-0.16623603,-0.022080775,-0.15770496,0.26,0.89,0.27,19668,10145.50,0,0,0,-11.06,-4.62,-10.99,0.26,0.89,0.27
5.9726562,-0.15223601,0.003919225,-0.11670496,0.27,0.9,0.27,19683,10145.50,0,0,165,-10.08,-2.80,-8.12,0.27,0.90,0.27
4.6728516,-0.19323602,0.009919222,-0.06770497,0.22,0.92,0.27,19691,10144.20,0,0,0,-12.95,-2.38,-4.69,0.22,0.92,0.27
5.6728516,-0.21723603,0.039919224,-0.04470497,0.21,0.92,0.28,19706,10145.20,0,0,165,-14.63,-0.28,-3.08,0.21,0.92,0.28
5.9726562,-0.20023601,0.09091923,-0.04070497,0.19,0.95,0.3,19713,10145.50,0,0,0,-13.44,3.29,-2.80,0.19,0.95,0.30
5.9726562,-0.039236024,0.15791923,-0.06270497,0.21,0.91,0.31,19728,10145.50,0,0,165,-2.17,7.98,-4.34,0.21,0.91,0.31
6.9726562,-0.16523601,0.16691922,-0.13270497,0.19,0.95,0.32,19743,10146.50,0,0,0,-10.99,8.61,-9.24,0.19,0.95,0.32
5.6728516,-0.19123603,0.19591923,-0.14770497,0.23,0.96,0.29,19750,10145.20,0,0,165,-12.81,10.64,-10.29,0.23,0.96,0.29
5.9726562,-0.17023602,0.21491922,-0.14470497,0.26,0.96,0.27,19766,10145.50,0,0,0,-11.34,11.97,-10.08,0.26,0.96,0.27
5.0722656,-0.15323602,0.21891922,-0.13070498,0.26,0.95,0.28,19788,10144.60,0,0,165,-10.15,12.25,-9.10,0.26,0.95,0.28
5.6728516,-0.15123603,0.2359192,-0.11570497,0.24,0.96,0.3,19789,10145.20,0,0,0,-10.01,13.44,-8.05,0.24,0.96,0.30
5.6728516,-0.14723602,0.26791924,-0.09670496,0.24,0.99,0.29,19803,10145.20,0,0,165,-9.73,15.68,-6.72,0.24,0.99,0.29
4.6728516,-0.16123602,0.31691924,-0.05370497,0.22,0.93,0.32,19818,10144.20,0,0,0,-10.71,19.11,-3.71,0.22,0.93,0.32
5.6728516,-0.267236,0.27491924,-0.10770496,0.21,0.93,0.32,19826,10145.20,0,0,165,-18.13,16.17,-7.49,0.21,0.93,0.32
6.9726562,-0.32723603,0.27591923,-0.04270497,0.21,0.94,0.33,19841,10146.50,0,0,0,-22.33,16.24,-2.94,0.21,0.94,0.33
6.9726562,-0.38223603,0.31491923,-0.07670497,0.24,0.98,0.33,19856,10146.50,0,0,165,-26.18,18.97,-5.32,0.24,0.98,0.33
6.9726562,-0.498236,0.37891924,-0.05170497,0.25,0.91,0.35,19879,10146.50,0,0,0,-34.30,23.45,-3.57,0.25,0.91,0.35
6.9726562,-0.68323606,0.47791922,0.08529504,0.26,0.92,0.34,19882,10146.50,0,0,165,-47.25,30.38,6.02,0.26,0.92,0.34
7.6728516,-0.69423604,0.47091922,0.14229503,0.25,0.93,0.34,19897,10147.20,0,0,0,-48.02,29.89,10.01,0.25,0.93,0.34
6.9726562,-0.42523602,0.38491926,0.17829502,0.25,1.0,0.35,19901,10146.50,0,0,165,-29.19,23.87,12.53,0.25,1.00,0.35
6.9726562,-0.23623602,0.35691923,0.12529503,0.24,1.02,0.36,19917,10146.50,0,0,0,-15.96,21.91,8.82,0.24,1.02,0.36
6.9726562,-0.15823603,0.35491925,0.17929503,0.22,1.02,0.38,19924,10146.50,0,0,165,-10.50,21.77,12.60,0.22,1.02,0.38
6.6728516,-0.028236024,0.32791921,0.21529503,0.2,0.96,0.39,19938,10146.20,0,0,0,-1.40,19.88,15.12,0.20,0.96,0.39
8.972656,0.05676398,0.25091922,0.17229502,0.2,0.92,0.38,19952,10148.50,0,0,165,4.55,14.49,12.11,0.20,0.92,0.38
8.972656,0.078763984,0.21291922,0.12929504,0.23,0.91,0.36,19961,10148.50,0,0,0,6.09,11.83,9.10,0.23,0.91,0.36
8.972656,0.08776397,0.14791922,0.08229503,0.21,0.6,0.32,19976,10148.50,0,0,165,6.72,7.28,5.81,0.21,0.60,0.32
8.972656,-0.026236024,0.18291922,0.47929502,0.23,0.87,0.34,19991,10148.50,0,0,0,-1.26,9.73,33.60,0.23,0.87,0.34
9.873047,-0.048236024,0.060919225,0.32929504,0.23,0.88,0.36,19999,10149.40,0,0,165,-2.80,1.19,23.10,0.23,0.88,0.36
10.272461,-0.040236026,0.075919226,0.46129504,0.28,0.9,0.29,20015,10149.80,0,0,0,-2.24,2.24,32.34,0.28,0.90,0.29
9.873047,0.0037639756,-0.039080773,0.426295,0.28,0.88,0.28,20028,10149.40,0,0,165,0.84,-5.81,29.89,0.28,0.88,0.28
9.873047,0.0047639767,-0.11908078,0.49429506,0.29,0.88,0.26,20035,10149.40,0,0,0,0.91,-11.41,34.65,0.29,0.88,0.26
10.873047,0.009763976,-0.17408079,0.5192951,0.25,0.94,0.22,20050,10150.40,0,0,165,1.26,-15.26,36.40,0.25,0.94,0.22
9.873047,0.047763977,-0.24408077,0.466295,0.21,0.97,0.27,20066,10149.40,0,0,0,3.92,-20.16,32.69,0.21,0.97,0.27
9.873047,0.07176398,-0.29108077,0.40229502,0.2,0.97,0.29,20073,10149.40,0,0,165,5.60,-23.45,28.21,0.20,0.97,0.29
10.873047,0.08176398,-0.29908076,0.31229502,0.22,0.97,0.3,20088,10150.40,0,0,0,6.30,-24.01,21.91,0.22,0.97,0.30
10.873047,0.100763984,-0.29208076,0.26629505,0.23,0.95,0.32,20103,10150.40,0,0,165,7.63,-23.52,18.69,0.23,0.95,0.32
10.873047,0.10376398,-0.26608077,0.25629503,0.25,0.93,0.34,20114,10150.40,0,0,0,7.84,-21.70,17.99,0.25,0.93,0.34
10.873047,0.10276398,-0.24708079,0.26629505,0.31,0.92,0.32,20126,10150.40,0,0,165,7.77,-20.37,18.69,0.31,0.92,0.32
10.873047,0.10976398,-0.26208076,0.30929503,0.36,0.92,0.3,20141,10150.40,0,0,0,8.26,-21.42,21.70,0.36,0.92,0.30
10.873047,0.115763985,-0.29308078,0.33329502,0.33,0.97,0.29,20156,10150.40,0,0,165,8.68,-23.59,23.38,0.33,0.97,0.29
10.873047,0.16276398,-0.3220808,0.29829502,0.33,0.98,0.29,20163,10150.40,0,0,0,11.97,-25.62,20.93,0.33,0.98,0.29
10.873047,0.19976398,-0.34908077,0.24529502,0.34,0.97,0.33,20181,10150.40,0,0,165,14.56,-27.51,17.22,0.34,0.97,0.33
10.873047,0.20576397,-0.36408076,0.18429503,0.33,0.96,0.36,20186,10150.40,0,0,0,14.98,-28.56,12.95,0.33,0.96,0.36
11.873047,0.060763974,-0.12008077,0.15629502,0.33,1.02,0.41,20200,10151.40,0,0,165,4.83,-11.48,10.99,0.33,1.02,0.41
10.873047,0.14376399,-0.24108078,0.069295034,0.28,0.94,0.39,20215,10150.40,0,0,0,10.64,-19.95,4.90,0.28,0.94,0.39
11.873047,0.15176398,-0.26408076,0.03129503,0.31,0.91,0.37,20223,10151.40,0,0,165,11.20,-21.56,2.24,0.31,0.91,0.37
12.873047,0.11876398,-0.23108079,0.020295031,0.33,0.87,0.34,20238,10152.40,0,0,0,8.89,-19.25,1.47,0.33,0.87,0.34
11.873047,0.08176398,-0.19608077,0.04529503,0.33,0.84,0.35,20253,10151.40,0,0,165,6.30,-16.80,3.22,0.33,0.84,0.35
11.873047,0.031763975,-0.20608078,0.08129503,0.34,0.81,0.32,20261,10151.40,0,0,0,2.80,-17.50,5.74,0.34,0.81,0.32
11.873047,-0.045236025,-0.20808078,0.16229503,0.36,0.79,0.32,20276,10151.40,0,0,165,-2.59,-17.64,11.41,0.36,0.79,0.32
10.873047,-0.11223602,-0.18408078,0.27129504,0.38,0.77,0.33,20290,10150.40,0,0,0,-7.28,-15.96,19.04,0.38,0.77,0.33
11.873047,-0.20523602,-0.19208078,0.408295,0.42,0.72,0.37,20298,10151.40,0,0,165,-13.79,-16.52,28.63,0.42,0.72,0.37
11.873047,-0.33823603,-0.18408078,0.62329507,0.46,0.66,0.42,20313,10151.40,0,0,0,-23.10,-15.96,43.68,0.46,0.66,0.42
11.873047,-0.49623603,-0.17408079,0.839295,0.48,0.61,0.45,20330,10151.40,0,0,165,-34.16,-15.26,58.80,0.48,0.61,0.45
11.873047,-0.69723606,-0.15508078,1.069295,0.45,0.63,0.47,20336,10151.40,0,0,0,-48.23,-13.93,74.90,0.45,0.63,0.47
10.873047,-0.8582361,-0.11408079,1.272295,0.41,0.67,0.45,20351,10150.40,0,0,165,-59.50,-11.06,89.11,0.41,0.67,0.45
11.873047,-0.97923607,-0.10908078,1.326295,0.34,0.9,0.35,20366,10151.40,0,0,0,-67.97,-10.71,92.89,0.34,0.90,0.35
11.572266,-0.9482361,-0.14808077,1.2202951,0.01,1.36,0.14,20374,10151.10,0,0,165,-65.80,-13.44,85.47,0.01,1.36,0.14
11.873047,-0.576236,0.07791923,0.654295,0.05,1.57,0.13,20389,10151.40,0,0,0,-39.76,2.38,45.85,0.05,1.57,0.13
11.873047,-0.106236026,-0.08108078,0.17929503,0.22,1.45,0.26,20404,10151.40,0,0,165,-6.86,-8.75,12.60,0.22,1.45,0.26
11.873047,0.24376398,-0.10208078,-0.28570497,0.45,1.17,0.37,20411,10151.40,0,0,0,17.64,-10.22,-19.95,0.45,1.17,0.37
12.873047,0.36976397,-0.14708078,-0.37270498,0.54,0.8,0.46,20426,10152.40,0,0,165,26.46,-13.37,-26.04,0.54,0.80,0.46
12.172852,0.34176397,-0.08808078,-0.37270498,0.55,0.72,0.48,20441,10151.70,0,0,0,24.50,-9.24,-26.04,0.55,0.72,0.48
12.172852,0.23976399,-0.12208077,-0.256705,0.55,0.66,0.43,20448,10151.70,0,0,165,17.36,-11.62,-17.92,0.55,0.66,0.43
13.172852,0.07176398,-0.13308078,-0.07270496,0.51,0.66,0.37,20463,10152.70,0,0,0,5.60,-12.39,-5.04,0.51,0.66,0.37
12.873047,-0.060236026,-0.123080775,0.088295035,0.48,0.69,0.34,20478,10152.40,0,0,165,-3.64,-11.69,6.23,0.48,0.69,0.34
13.172852,-0.14923602,-0.12508078,0.22129503,0.44,0.74,0.31,20485,10152.70,0,0,0,-9.87,-11.83,15.54,0.44,0.74,0.31
11.873047,-0.22223601,-0.13708077,0.317295,0.41,0.8,0.31,20501,10151.40,0,0,165,-14.98,-12.67,22.26,0.41,0.80,0.31
12.873047,-0.25223604,-0.14808077,0.34429502,0.41,0.82,0.31,20516,10152.40,0,0,0,-17.08,-13.44,24.15,0.41,0.82,0.31
12.873047,-0.29323602,-0.15208079,0.34329504,0.39,0.87,0.31,20531,10152.40,0,0,165,-19.95,-13.72,24.08,0.39,0.87,0.31
13.772461,-0.18323602,-0.18008079,0.250295,0.37,0.92,0.32,20538,10153.30,0,0,0,-12.25,-15.68,17.57,0.37,0.92,0.32
11.873047,-0.20123602,-0.16208078,0.18729502,0.38,0.92,0.33,20553,10151.40,0,0,165,-13.51,-14.42,13.16,0.38,0.92,0.33
13.172852,-0.18223603,-0.14808077,0.12929504,0.41,0.9,0.34,20561,10152.70,0,0,0,-12.18,-13.44,9.10,0.41,0.90,0.34
12.873047,-0.09923602,-0.14908078,0.10429503,0.43,0.84,0.35,20576,10152.40,0,0,165,-6.37,-13.51,7.35,0.43,0.84,0.35
12.873047,-0.09923602,-0.15008079,0.092295036,0.4,0.91,0.32,20590,10152.40,0,0,0,-6.37,-13.58,6.51,0.40,0.91,0.32
14.172852,-0.049236022,-0.16908078,0.05129503,0.42,0.9,0.31,20598,10153.70,0,0,165,-2.87,-14.91,3.64,0.42,0.90,0.31
13.172852,-0.06323602,-0.17408079,-0.009704969,0.43,0.97,0.31,20613,10152.70,0,0,0,-3.85,-15.26,-0.63,0.43,0.97,0.31
13.772461,0.09976398,-0.17908077,-0.073704965,0.45,0.9,0.36,20629,10153.30,0,0,165,7.56,-15.61,-5.11,0.45,0.90,0.36
13.172852,0.07276398,-0.15808079,-0.09870497,0.46,0.89,0.38,20636,10152.70,0,0,0,5.67,-14.14,-6.86,0.46,0.89,0.38
13.172852,0.061763976,-0.15408078,-0.120704964,0.48,0.86,0.39,20651,10152.70,0,0,165,4.90,-13.86,-8.40,0.48,0.86,0.39
13.172852,0.023763977,-0.14308079,-0.120704964,0.47,0.85,0.37,20673,10152.70,0,0,0,2.24,-13.09,-8.40,0.47,0.85,0.37
14.172852,0.024763975,-0.13408078,-0.11970496,0.46,0.85,0.35,20675,10153.70,0,0,165,2.31,-12.46,-8.33,0.46,0.85,0.35
13.172852,0.007763977,-0.12208077,-0.14170498,0.46,0.85,0.34,20688,10152.70,0,0,0,1.12,-11.62,-9.87,0.46,0.85,0.34
12.873047,0.23776397,-0.10208078,-0.12170497,0.43,0.87,0.37,20703,10152.40,0,0,165,17.22,-10.22,-8.47,0.43,0.87,0.37
14.172852,-0.14823602,-0.071080774,-0.09470496,0.43,0.87,0.37,20710,10153.70,0,0,0,-9.80,-8.05,-6.58,0.43,0.87,0.37
14.172852,-0.033236023,-0.044080775,-0.08770497,0.42,0.84,0.37,20726,10153.70,0,0,165,-1.75,-6.16,-6.09,0.42,0.84,0.37
14.772461,-0.005236024,0.018919224,-0.09770497,0.4,0.88,0.36,20741,10154.30,0,0,0,0.21,-1.75,-6.79,0.40,0.88,0.36
14.172852,0.027763974,0.051919226,-0.11470497,0.4,0.89,0.36,20749,10153.70,0,0,165,2.52,0.56,-7.98,0.40,0.89,0.36
14.772461,0.085763976,0.07991922,-0.13070498,0.43,0.88,0.34,20763,10154.30,0,0,0,6.58,2.52,-9.10,0.43,0.88,0.34
14.172852,0.09876397,0.07091922,-0.15570498,0.46,0.87,0.33,20781,10153.70,0,0,165,7.49,1.89,-10.85,0.46,0.87,0.33
15.072266,0.10576398,0.045919225,-0.17070498,0.48,0.84,0.32,20786,10154.60,0,0,0,7.98,0.14,-11.90,0.48,0.84,0.32
16.072266,0.09876397,-8.077547E-5,-0.15870498,0.49,0.82,0.34,20800,10155.60,0,0,165,7.49,-3.08,-11.06,0.49,0.82,0.34
15.472656,0.05976398,-0.016080774,-0.13470498,0.48,0.82,0.36,20816,10155.00,0,0,0,4.76,-4.20,-9.38,0.48,0.82,0.36
14.172852,0.043763977,-0.029080775,-0.11670496,0.46,0.83,0.35,20823,10153.70,0,0,165,3.64,-5.11,-8.12,0.46,0.83,0.35
15.072266,0.020763975,-0.029080775,-0.106704965,0.43,0.83,0.36,20838,10154.60,0,0,0,2.03,-5.11,-7.42,0.43,0.83,0.36
15.072266,0.0017639762,-0.028080773,-0.10570496,0.44,0.83,0.38,20853,10154.60,0,0,165,0.70,-5.04,-7.35,0.44,0.83,0.38
15.072266,-0.0062360233,-0.03808077,-0.069704965,0.46,0.82,0.4,20861,10154.60,0,0,0,0.14,-5.74,-4.83,0.46,0.82,0.40
15.072266,-0.041236024,-0.041080777,-0.05370497,0.45,0.87,0.35,20876,10154.60,0,0,165,-2.31,-5.95,-3.71,0.45,0.87,0.35
14.172852,-0.019236024,-0.045080777,-0.05870497,0.42,0.87,0.35,20891,10153.70,0,0,0,-0.77,-6.23,-4.06,0.42,0.87,0.35
15.072266,0.0027639763,-0.05308078,-0.080704965,0.36,0.95,0.31,20899,10154.60,0,0,165,0.77,-6.79,-5.60,0.36,0.95,0.31
15.072266,0.07576398,-0.049080778,-0.17670497,0.33,0.99,0.3,20914,10154.60,0,0,0,5.88,-6.51,-12.32,0.33,0.99,0.30
15.072266,0.15076397,-0.037080776,-0.26570496,0.32,0.98,0.3,20929,10154.60,0,0,165,11.13,-5.67,-18.55,0.32,0.98,0.30
15.472656,0.21676397,-0.02108078,-0.322705,0.35,0.94,0.31,20936,10155.00,0,0,0,15.75,-4.55,-22.54,0.35,0.94,0.31
15.072266,0.25776398,-0.0010807775,-0.33370498,0.38,0.88,0.31,20951,10154.60,0,0,165,18.62,-3.15,-23.31,0.38,0.88,0.31
14.172852,0.27276397,0.008919224,-0.27670497,0.42,0.83,0.31,20965,10153.70,0,0,0,19.67,-2.45,-19.32,0.42,0.83,0.31
15.072266,0.25776398,0.005919222,-0.19970497,0.44,0.78,0.32,20973,10154.60,0,0,165,18.62,-2.66,-13.93,0.44,0.78,0.32
15.072266,0.21876398,-0.017080776,-0.08770497,0.46,0.73,0.34,20988,10154.60,0,0,0,15.89,-4.27,-6.09,0.46,0.73,0.34
16.373047,0.15776397,-0.039080773,0.030295033,0.47,0.72,0.34,21003,10155.90,0,0,165,11.62,-5.81,2.17,0.47,0.72,0.34
16.373047,0.11776398,-0.07808077,0.15829502,0.48,0.72,0.37,21027,10155.90,0,0,0,8.82,-8.54,11.13,0.48,0.72,0.37
14.472656,0.021763977,-0.10208078,0.26729503,0.47,0.74,0.39,21028,10154.00,0,0,165,2.10,-10.22,18.76,0.47,0.74,0.39
15.472656,-0.09423602,-0.10808079,0.33229503,0.42,0.8,0.41,21040,10155.00,0,0,0,-6.02,-10.64,23.31,0.42,0.80,0.41
16.373047,-0.15823603,-0.09208079,0.35329503,0.38,0.85,0.43,21048,10155.90,0,0,165,-10.50,-9.52,24.78,0.38,0.85,0.43
16.072266,-0.19623601,-0.058080774,0.33029503,0.34,0.89,0.45,21064,10155.60,0,0,0,-13.16,-7.14,23.17,0.34,0.89,0.45
15.472656,-0.19023602,-0.023080777,0.28629503,0.33,0.89,0.47,21078,10155.00,0,0,165,-12.74,-4.69,20.09,0.33,0.89,0.47
16.072266,-0.16023603,0.012919223,0.264295,0.35,0.87,0.47,21085,10155.60,0,0,0,-10.64,-2.17,18.55,0.35,0.87,0.47
16.072266,-0.11023602,0.111919224,0.29129502,0.39,0.83,0.45,21100,10155.60,0,0,165,-7.14,4.76,20.44,0.39,0.83,0.45
15.472656,-0.0012360234,0.07691923,0.34229502,0.44,0.83,0.44,21115,10155.00,0,0,0,0.49,2.31,24.01,0.44,0.83,0.44
15.472656,0.063763976,0.10791923,0.41829503,0.46,0.84,0.43,21123,10155.00,0,0,165,5.04,4.48,29.33,0.46,0.84,0.43
16.373047,0.15376398,0.16491923,0.45929503,0.47,0.85,0.42,21138,10155.90,0,0,0,11.34,8.47,32.20,0.47,0.85,0.42
16.373047,0.19676398,0.20491923,0.47329503,0.48,0.86,0.41,21153,10155.90,0,0,165,14.35,11.27,33.18,0.48,0.86,0.41
15.472656,0.21776398,0.24191922,0.44429502,0.5,0.87,0.38,21160,10155.00,0,0,0,15.82,13.86,31.15,0.50,0.87,0.38
17.373047,0.226764,0.26891923,0.41129503,0.52,0.88,0.35,21175,10156.90,0,0,165,16.45,15.75,28.84,0.52,0.88,0.35
17.373047,0.233764,0.28091922,0.35329503,0.54,0.86,0.33,21198,10156.90,0,0,0,16.94,16.59,24.78,0.54,0.86,0.33
16.373047,0.22176398,0.26991922,0.30529502,0.55,0.87,0.29,21199,10155.90,0,0,165,16.10,15.82,21.42,0.55,0.87,0.29
16.373047,0.21276398,0.24191922,0.24329503,0.57,0.87,0.25,21213,10155.90,0,0,0,15.47,13.86,17.08,0.57,0.87,0.25
15.472656,0.21176398,0.19791922,0.18829502,0.57,0.87,0.25,21228,10155.00,0,0,165,15.40,10.78,13.23,0.57,0.87,0.25
15.472656,0.19676398,0.15591922,0.12029504,0.57,0.87,0.24,21235,10155.00,0,0,0,14.35,7.84,8.47,0.57,0.87,0.24
16.373047,0.15776397,0.12491922,0.06529503,0.57,0.88,0.2,21250,10155.90,0,0,165,11.62,5.67,4.62,0.57,0.88,0.20
17.373047,0.12776399,0.043919224,0.0022950305,0.56,0.89,0.19,21258,10156.90,0,0,0,9.52,0.00,0.21,0.56,0.89,0.19
17.373047,0.12776399,-0.014080774,-0.06770497,0.52,0.9,0.2,21274,10156.90,0,0,165,9.52,-4.06,-4.69,0.52,0.90,0.20
16.373047,0.12376398,-0.05308078,-0.15770496,0.47,0.88,0.24,21289,10155.90,0,0,0,9.24,-6.79,-10.99,0.47,0.88,0.24
17.373047,0.100763984,-0.077080786,-0.22270498,0.46,0.87,0.24,21296,10156.90,0,0,165,7.63,-8.47,-15.54,0.46,0.87,0.24
17.373047,0.07676398,-0.10908078,-0.267705,0.47,0.86,0.22,21311,10156.90,0,0,0,5.95,-10.71,-18.69,0.47,0.86,0.22
17.373047,0.049763974,-0.14708078,-0.279705,0.47,0.84,0.23,21341,10156.90,0,0,165,4.06,-13.37,-19.53,0.47,0.84,0.23
16.373047,0.017763976,-0.20208077,-0.26570496,0.47,0.81,0.25,21342,10155.90,0,0,0,1.82,-17.22,-18.55,0.47,0.81,0.25
17.373047,-0.025236025,-0.24008076,-0.23570499,0.46,0.8,0.28,21348,10156.90,0,0,165,-1.19,-19.88,-16.45,0.46,0.80,0.28
17.77246,-0.07123602,-0.27008075,-0.19370498,0.45,0.79,0.3,21364,10157.30,0,0,0,-4.41,-21.98,-13.51,0.45,0.79,0.30
17.373047,-0.10723602,-0.29808077,-0.14870498,0.45,0.8,0.31,21370,10156.90,0,0,165,-6.93,-23.94,-10.36,0.45,0.80,0.31
16.373047,-0.11423602,-0.30808076,-0.09670496,0.41,0.85,0.32,21385,10155.90,0,0,0,-7.42,-24.64,-6.72,0.41,0.85,0.32
17.77246,-0.09723602,-0.28308076,-0.07170496,0.4,0.86,0.34,21400,10157.30,0,0,165,-6.23,-22.89,-4.97,0.40,0.86,0.34
17.77246,-0.07023603,-0.20608078,-0.04070497,0.39,0.86,0.37,21407,10157.30,0,0,0,-4.34,-17.50,-2.80,0.39,0.86,0.37
17.77246,-0.039236024,-0.12808079,-0.011704969,0.4,0.86,0.37,21432,10157.30,0,0,165,-2.17,-12.04,-0.77,0.40,0.86,0.37
17.373047,-0.010236024,-0.051080775,0.018295031,0.41,0.86,0.37,21446,10156.90,0,0,0,-0.14,-6.65,1.33,0.41,0.86,0.37
17.373047,0.012763976,0.011919223,0.03829503,0.43,0.86,0.35,21448,10156.90,0,0,165,1.47,-2.24,2.73,0.43,0.86,0.35
18.672852,0.029763978,0.057919227,0.04929503,0.44,0.86,0.34,21460,10158.20,0,0,0,2.66,0.98,3.50,0.44,0.86,0.34
17.373047,0.038763974,0.08191922,0.057295028,0.45,0.87,0.31,21468,10156.90,0,0,165,3.29,2.66,4.06,0.45,0.87,0.31
17.77246,0.060763974,0.07991922,0.05029503,0.47,0.89,0.27,21483,10157.30,0,0,0,4.83,2.52,3.57,0.47,0.89,0.27
17.77246,0.09376398,0.058919225,0.026295032,0.48,0.91,0.25,21505,10157.30,0,0,165,7.14,1.05,1.89,0.48,0.91,0.25
17.77246,0.17076397,-0.094080776,0.08129503,0.51,0.9,0.25,21513,10157.30,0,0,0,12.53,-9.66,5.74,0.51,0.90,0.25
18.672852,0.17076397,-0.13508077,0.007295031,0.53,0.9,0.24,21521,10158.20,0,0,165,12.53,-12.53,0.56,0.53,0.90,0.24
17.77246,0.18576398,-0.18808077,-0.07070497,0.53,0.92,0.24,21536,10157.30,0,0,0,13.58,-16.24,-4.90,0.53,0.92,0.24
18.672852,0.22776398,-0.19008076,-0.11170497,0.5,0.88,0.24,21550,10158.20,0,0,165,16.52,-16.38,-7.77,0.50,0.88,0.24
18.672852,0.23076397,-0.22208078,-0.16570498,0.46,0.88,0.26,21566,10158.20,0,0,0,16.73,-18.62,-11.55,0.46,0.88,0.26
17.77246,0.20676398,-0.16708079,-0.16970497,0.44,0.89,0.27,21573,10157.30,0,0,165,15.05,-14.77,-11.83,0.44,0.89,0.27
18.672852,0.19176398,-0.15508078,-0.16270497,0.42,0.88,0.28,21596,10158.20,0,0,0,14.00,-13.93,-11.34,0.42,0.88,0.28
17.77246,0.15876397,-0.13008079,-0.20870498,0.41,0.87,0.29,21612,10157.30,0,0,165,11.69,-12.18,-14.56,0.41,0.87,0.29
18.672852,0.12476398,-0.056080777,-0.23470496,0.39,0.88,0.28,21613,10158.20,0,0,0,9.31,-7.00,-16.38,0.39,0.88,0.28
18.672852,0.110763974,0.028919224,-0.25370497,0.4,0.9,0.27,21618,10158.20,0,0,165,8.33,-1.05,-17.71,0.40,0.90,0.27
18.672852,0.10876397,0.08191922,-0.22870497,0.42,0.88,0.27,21648,10158.20,0,0,0,8.19,2.66,-15.96,0.42,0.88,0.27
18.672852,0.09276398,0.11791922,-0.26570496,0.43,0.9,0.26,21651,10158.20,0,0,165,7.07,5.18,-18.55,0.43,0.90,0.26
19.072266,0.07976398,0.13891922,-0.297705,0.44,0.9,0.25,21664,10158.60,0,0,0,6.16,6.65,-20.79,0.44,0.90,0.25
18.672852,0.07676398,0.14291923,-0.30970496,0.43,0.92,0.23,21679,10158.20,0,0,165,5.95,6.93,-21.63,0.43,0.92,0.23
17.77246,0.107763976,0.086919226,-0.337705,0.44,0.94,0.21,21693,10157.30,0,0,0,8.12,3.01,-23.59,0.44,0.94,0.21
18.672852,0.14276397,0.059919223,-0.38770497,0.4,0.99,0.2,21695,10158.20,0,0,165,10.57,1.12,-27.09,0.40,0.99,0.20
18.672852,0.226764,0.048919223,-0.495705,0.39,1.02,0.21,21723,10158.20,0,0,0,16.45,0.35,-34.65,0.39,1.02,0.21
19.972656,0.284764,0.054919224,-0.57870495,0.39,1.03,0.21,21724,10159.50,0,0,165,20.51,0.77,-40.46,0.39,1.03,0.21
18.672852,0.35276398,0.012919223,-0.734705,0.4,1.05,0.21,21738,10158.20,0,0,0,25.27,-2.17,-51.38,0.40,1.05,0.21
18.672852,0.44576398,-0.04608078,-0.94470495,0.4,1.04,0.2,21745,10158.20,0,0,165,31.78,-6.30,-66.08,0.40,1.04,0.20
18.072266,0.539764,-0.07608077,-1.0917051,0.4,1.1,0.18,21753,10157.60,0,0,0,38.36,-8.40,-76.37,0.40,1.10,0.18
19.072266,0.6277639,-0.123080775,-1.1907051,0.43,1.04,0.2,21776,10158.60,0,0,165,44.52,-11.69,-83.30,0.43,1.04,0.20
20.672852,0.70076394,-0.16808078,-1.343705,0.39,1.05,0.24,21783,10160.20,0,0,0,49.63,-14.84,-94.01,0.39,1.05,0.24
18.672852,0.725764,-0.13608079,-1.336705,0.35,0.98,0.27,21791,10158.20,0,0,165,51.38,-12.60,-93.52,0.35,0.98,0.27
19.972656,0.687764,-0.10308078,-1.353705,0.33,0.96,0.25,21806,10159.50,0,0,0,48.72,-10.29,-94.71,0.33,0.96,0.25
19.072266,0.688764,-0.08708078,-1.376705,0.32,0.93,0.23,21821,10158.60,0,0,165,48.79,-9.17,-96.32,0.32,0.93,0.23
18.672852,0.65376395,-0.047080774,-1.310705,0.32,0.88,0.23,21829,10158.20,0,0,0,46.34,-6.37,-91.70,0.32,0.88,0.23
18.072266,0.600764,-0.014080774,-1.234705,0.29,0.87,0.22,21843,10157.60,0,0,165,42.63,-4.06,-86.38,0.29,0.87,0.22
19.072266,0.53876394,0.008919224,-1.1617049,0.27,0.86,0.2,21865,10158.60,0,0,0,38.29,-2.45,-81.27,0.27,0.86,0.20
19.972656,0.48976398,0.020919224,-1.0347049,0.28,0.83,0.21,21866,10159.50,0,0,165,34.86,-1.61,-72.38,0.28,0.83,0.21
19.972656,0.40076396,0.036919225,-0.87570494,0.27,0.88,0.16,21881,10159.50,0,0,0,28.63,-0.49,-61.25,0.27,0.88,0.16
19.072266,0.41076398,0.032919224,-0.79970497,0.28,0.9,0.14,21896,10158.60,0,0,165,29.33,-0.77,-55.93,0.28,0.90,0.14
19.072266,0.423764,-0.0060807765,-0.71270496,0.3,0.9,0.13,21911,10158.60,0,0,0,30.24,-3.50,-49.84,0.30,0.90,0.13
19.072266,0.40376398,-0.03808077,-0.62170494,0.27,0.87,0.18,21926,10158.60,0,0,165,28.84,-5.74,-43.47,0.27,0.87,0.18
19.972656,0.34176397,-0.050080772,-0.5437049,0.23,0.87,0.2,21933,10159.50,0,0,0,24.50,-6.58,-38.01,0.23,0.87,0.20
19.072266,0.263764,-0.047080774,-0.44670495,0.2,0.88,0.21,21941,10158.60,0,0,165,19.04,-6.37,-31.22,0.20,0.88,0.21
19.972656,0.18976398,-0.026080776,-0.37370497,0.19,0.87,0.2,21956,10159.50,0,0,0,13.86,-4.90,-26.11,0.19,0.87,0.20
19.672852,0.12076397,0.019919226,-0.28370497,0.18,0.88,0.18,21964,10159.20,0,0,165,9.03,-1.68,-19.81,0.18,0.88,0.18
19.972656,0.023763977,0.058919225,-0.21470496,0.15,0.9,0.16,21985,10159.50,0,0,0,2.24,1.05,-14.98,0.15,0.90,0.16
19.972656,-0.036236025,0.09191922,-0.13470498,0.13,0.89,0.16,21993,10159.50,0,0,165,-1.96,3.36,-9.38,0.13,0.89,0.16
19.972656,-0.10323602,0.12191923,-0.02970497,0.11,0.88,0.17,22000,10159.50,0,0,0,-6.65,5.46,-2.03,0.11,0.88,0.17
19.972656,-0.20823602,0.15691923,0.06229503,0.11,0.87,0.2,22016,10159.50,0,0,165,-14.00,7.91,4.41,0.11,0.87,0.20
19.072266,-0.30623603,0.20691922,0.20029502,0.08,0.88,0.21,22031,10158.60,0,0,0,-20.86,11.41,14.07,0.08,0.88,0.21
19.972656,-0.41923603,0.29791924,0.32629502,0.04,0.92,0.22,22038,10159.50,0,0,165,-28.77,17.78,22.89,0.04,0.92,0.22
21.27246,-0.45223603,0.42891926,0.40029502,0.05,0.93,0.2,22053,10160.80,0,0,0,-31.08,26.95,28.07,0.05,0.93,0.20
19.972656,-0.476236,0.53891927,0.44829503,0.08,0.93,0.19,22068,10159.50,0,0,165,-32.76,34.65,31.43,0.08,0.93,0.19
20.972656,-0.47723603,0.52691925,0.452295,0.15,0.93,0.18,22076,10160.50,0,0,0,-32.83,33.81,31.71,0.15,0.93,0.18
21.27246,-0.488236,0.49091926,0.515295,0.22,0.92,0.13,22099,10160.80,0,0,165,-33.60,31.29,36.12,0.22,0.92,0.13
20.972656,-0.50723606,0.41191924,0.640295,0.33,0.92,0.08,22106,10160.50,0,0,0,-34.93,25.76,44.87,0.33,0.92,0.08
21.27246,-0.54523605,0.27891925,0.72629505,0.28,0.95,0.07,22114,10160.80,0,0,165,-37.59,16.45,50.89,0.28,0.95,0.07
20.972656,-0.5152361,0.12591922,0.78629506,0.23,0.99,0.08,22135,10160.50,0,0,0,-35.49,5.74,55.09,0.23,0.99,0.08
21.972656,-0.46623605,0.038919225,0.7612951,0.12,1.07,0.09,22143,10161.50,0,0,165,-32.06,-0.35,53.34,0.12,1.07,0.09
21.972656,-0.377236,0.0049192235,0.63929504,0.06,1.15,0.11,22150,10161.50,0,0,0,-25.83,-2.73,44.80,0.06,1.15,0.11
23.27246,-0.27123603,0.007919226,0.44329503,0.08,1.12,0.16,22166,10162.80,0,0,165,-18.41,-2.52,31.08,0.08,1.12,0.16
23.27246,-0.18523602,0.036919225,0.31229502,0.14,1.05,0.24,22189,10162.80,0,0,0,-12.39,-0.49,21.91,0.14,1.05,0.24
23.27246,-0.16023603,0.07691923,0.24529502,0.18,1.01,0.27,22191,10162.80,0,0,165,-10.64,2.31,17.22,0.18,1.01,0.27
22.27246,-0.14523603,0.11791922,0.21929502,0.22,0.97,0.26,22203,10161.80,0,0,0,-9.59,5.18,15.40,0.22,0.97,0.26
23.27246,-0.13023603,0.13891922,0.23429504,0.26,0.97,0.23,22226,10162.80,0,0,165,-8.54,6.65,16.45,0.26,0.97,0.23
23.27246,-0.106236026,0.11691922,0.26229504,0.28,0.96,0.2,22233,10162.80,0,0,0,-6.86,5.11,18.41,0.28,0.96,0.20
24.27246,-0.09123602,0.07991922,0.29029503,0.27,0.97,0.19,22241,10163.80,0,0,165,-5.81,2.52,20.37,0.27,0.97,0.19
24.27246,-0.07123602,0.028919224,0.32129505,0.26,0.97,0.19,22255,10163.80,0,0,0,-4.41,-1.05,22.54,0.26,0.97,0.19
25.172852,-0.05623602,-0.008080777,0.32929504,0.24,0.97,0.18,22264,10164.70,0,0,165,-3.36,-3.64,23.10,0.24,0.97,0.18
25.172852,-0.043236025,-0.03508078,0.294295,0.21,0.99,0.2,22285,10164.70,0,0,0,-2.45,-5.53,20.65,0.21,0.99,0.20
24.27246,-0.034236025,-0.03508078,0.24429502,0.2,0.99,0.21,22301,10163.80,0,0,165,-1.82,-5.53,17.15,0.20,0.99,0.21
25.172852,-0.028236024,-0.023080777,0.17929503,0.23,0.99,0.21,22302,10164.70,0,0,0,-1.40,-4.69,12.60,0.23,0.99,0.21
25.172852,-0.022236023,-0.019080777,0.10529503,0.25,0.98,0.22,22316,10164.70,0,0,165,-0.98,-4.41,7.42,0.25,0.98,0.22
25.172852,-0.0012360234,-0.023080777,0.07629503,0.27,0.98,0.21,22338,10164.70,0,0,0,0.49,-4.69,5.39,0.27,0.98,0.21
25.172852,0.011763976,-0.034080777,0.05329503,0.28,0.97,0.19,22339,10164.70,0,0,165,1.40,-5.46,3.78,0.28,0.97,0.19
23.572266,0.036763977,-0.059080776,0.03929503,0.28,0.98,0.18,22353,10163.10,0,0,0,3.15,-7.21,2.80,0.28,0.98,0.18
25.572266,0.057763975,-0.084080786,0.02329503,0.28,0.98,0.18,22361,10165.10,0,0,165,4.62,-8.96,1.68,0.28,0.98,0.18
24.572266,0.067763984,-0.10908078,0.0012950308,0.28,0.96,0.2,22384,10164.10,0,0,0,5.32,-10.71,0.14,0.28,0.96,0.20
24.572266,0.06476398,-0.123080775,0.02129503,0.28,0.95,0.21,22391,10164.10,0,0,165,5.11,-11.69,1.54,0.28,0.95,0.21
25.172852,0.05676398,-0.12908077,0.007295031,0.26,0.97,0.21,22414,10164.70,0,0,0,4.55,-12.11,0.56,0.26,0.97,0.21
25.172852,0.05576398,-0.11708079,-0.024704967,0.27,0.98,0.21,22415,10164.70,0,0,165,4.48,-11.27,-1.68,0.27,0.98,0.21
24.27246,0.05576398,-0.11008078,-0.05070497,0.28,0.98,0.22,22429,10163.80,0,0,0,4.48,-10.78,-3.50,0.28,0.98,0.22
25.172852,0.05376398,-0.099080786,-0.069704965,0.28,0.96,0.22,22443,10164.70,0,0,165,4.34,-10.01,-4.83,0.28,0.96,0.22
25.572266,0.049763974,-0.08108078,-0.07670497,0.28,0.96,0.23,22450,10165.10,0,0,0,4.06,-8.75,-5.32,0.28,0.96,0.23
25.572266,0.047763977,-0.06608078,-0.080704965,0.28,0.96,0.21,22465,10165.10,0,0,165,3.92,-7.70,-5.60,0.28,0.96,0.21
25.572266,0.060763974,-0.05308078,-0.07970497,0.27,0.97,0.2,22473,10165.10,0,0,0,4.83,-6.79,-5.53,0.27,0.97,0.20
25.572266,0.08676398,-0.036080774,-0.08270496,0.27,0.97,0.2,22497,10165.10,0,0,165,6.65,-5.60,-5.74,0.27,0.97,0.20
26.472656,0.107763976,-0.019080777,-0.08170497,0.27,0.97,0.2,22504,10166.00,0,0,0,8.12,-4.41,-5.67,0.27,0.97,0.20
25.572266,0.12076397,-0.0060807765,-0.08270496,0.26,0.98,0.19,22526,10165.10,0,0,165,9.03,-3.50,-5.74,0.26,0.98,0.19
25.572266,0.13676398,0.0049192235,-0.10770496,0.25,0.99,0.19,22527,10165.10,0,0,0,10.15,-2.73,-7.49,0.25,0.99,0.19
25.572266,0.15676399,0.007919226,-0.13970497,0.27,0.98,0.19,22541,10165.10,0,0,165,11.55,-2.52,-9.73,0.27,0.98,0.19
25.572266,0.16376399,0.013919225,-0.15870498,0.28,0.98,0.2,22549,10165.10,0,0,0,12.04,-2.10,-11.06,0.28,0.98,0.20
26.472656,0.16076398,0.023919225,-0.17970496,0.27,0.98,0.2,22563,10166.00,0,0,165,11.83,-1.40,-12.53,0.27,0.98,0.20
25.572266,0.15076397,0.041919224,-0.20570497,0.25,0.98,0.2,22579,10165.10,0,0,0,11.13,-0.14,-14.35,0.25,0.98,0.20
25.572266,0.14476398,0.063919224,-0.5117049,0.24,1.02,0.18,22586,10165.10,0,0,165,10.71,1.40,-35.77,0.24,1.02,0.18
25.572266,0.15876397,0.07991922,-0.35370496,0.26,1.04,0.18,22600,10165.10,0,0,0,11.69,2.52,-24.71,0.26,1.04,0.18
25.572266,0.17076397,0.075919226,-0.436705,0.28,1.05,0.18,22615,10165.10,0,0,165,12.53,2.24,-30.52,0.28,1.05,0.18
25.572266,0.19076398,0.049919225,-0.52770495,0.33,1.02,0.21,22622,10165.10,0,0,0,13.93,0.42,-36.89,0.33,1.02,0.21
25.572266,0.19076398,0.025919225,-0.557705,0.36,1.02,0.21,22639,10165.10,0,0,165,13.93,-1.26,-38.99,0.36,1.02,0.21
25.873047,0.20776398,-0.0040807724,-0.571705,0.36,1.0,0.21,22653,10165.40,0,0,0,15.12,-3.36,-39.97,0.36,1.00,0.21
25.572266,0.21776398,-0.036080774,-0.55170494,0.34,0.99,0.22,22661,10165.10,0,0,165,15.82,-5.60,-38.57,0.34,0.99,0.22
26.472656,0.21176398,-0.064080775,-0.52770495,0.3,1.0,0.22,22675,10166.00,0,0,0,15.40,-7.56,-36.89,0.30,1.00,0.22
26.472656,0.19476397,-0.106080785,-0.54270494,0.28,1.01,0.21,22690,10166.00,0,0,165,14.21,-10.50,-37.94,0.28,1.01,0.21
25.873047,0.17276397,-0.16608077,-0.60070497,0.26,1.02,0.19,22698,10165.40,0,0,0,12.67,-14.70,-42.00,0.26,1.02,0.19
25.572266,0.15976398,-0.23808078,-0.65270495,0.26,1.01,0.18,22713,10165.10,0,0,165,11.76,-19.74,-45.64,0.26,1.01,0.18
25.873047,0.15976398,-0.34008074,-0.71170497,0.24,1.01,0.16,22728,10165.40,0,0,0,11.76,-26.88,-49.77,0.24,1.01,0.16
26.873047,0.16476397,-0.41808078,-0.76070493,0.23,1.0,0.15,22735,10166.40,0,0,165,12.11,-32.34,-53.20,0.23,1.00,0.15
27.873047,0.19976398,-0.4900808,-0.79670495,0.2,1.02,0.14,22756,10167.40,0,0,0,14.56,-37.38,-55.72,0.20,1.02,0.14
25.572266,0.23176397,-0.5450808,-0.84370494,0.18,1.01,0.15,22765,10165.10,0,0,165,16.80,-41.23,-59.01,0.18,1.01,0.15
