Pressure_Rel,GyroX_Rel,GyroY_Rel,GyroZ_Rel,AccX_Rel,AccY_Rel,AccZ_Rel,Timestamp,Pressure_abs,HeartRate,Oxygen,Status,GyroX,GyroY,GyroZ,AccX,AccY,AccZ
0.0,0.0,0.0,0.0,0.0,0.0,0.0,1967,9958.90,0,0,165,0.98,-2.66,-0.14,0.11,1.00,-0.05
0.0,0.0,0.0,0.0,0.0,0.0,0.0,1982,9958.90,0,0,0,0.77,-2.59,0.14,0.11,1.00,-0.05
0.0,0.0,0.0,0.0,0.0,0.0,0.0,2001,9957.90,0,0,165,0.63,-2.59,0.21,0.11,1.00,-0.06
0.0,0.0,0.0,0.0,0.0,0.0,0.0,2009,9958.90,0,0,0,0.56,-2.66,0.35,0.11,1.00,-0.05
0.0,0.0,0.0,0.0,0.0,0.0,0.0,2022,9958.50,0,0,165,0.77,-2.59,0.28,0.11,1.00,-0.05
0.0,0.0,0.0,0.0,0.0,0.0,0.0,2035,9958.90,0,0,0,0.84,-2.59,-0.14,0.11,1.00,-0.05
0.0,0.0,0.0,0.0,0.0,0.0,0.0,2044,9958.90,0,0,165,1.05,-2.59,-0.28,0.11,1.00,-0.05
0.0,0.0,0.0,0.0,0.0,0.0,0.0,2057,9958.90,0,0,0,1.05,-2.59,-0.28,0.11,1.00,-0.05
0.0,0.0,0.0,0.0,0.0,0.0,0.0,2073,9958.90,0,0,165,0.84,-2.52,-0.14,0.11,1.00,-0.06
0.0,0.0,0.0,0.0,0.0,0.0,0.0,2079,9958.90,0,0,0,0.70,-2.66,0.00,0.11,1.00,-0.05
0.0,0.0,0.0,0.0,0.0,0.0,0.0,2094,9957.90,0,0,165,0.63,-2.59,0.42,0.11,1.00,-0.05
0.0,0.0,0.0,0.0,0.0,0.0,0.0,2108,9958.90,0,0,0,0.56,-2.59,0.49,0.11,1.00,-0.05
0.0,0.0,0.0,0.0,0.0,0.0,0.0,2116,9957.90,0,0,165,0.77,-2.52,0.07,0.11,1.00,-0.05
0.0,0.0,0.0,0.0,0.0,0.0,0.0,2131,9958.90,0,0,0,0.91,-2.66,0.07,0.11,1.00,-0.05
0.0,0.0,0.0,0.0,0.0,0.0,0.0,2146,9958.90,0,0,165,1.19,-2.66,-0.28,0.11,1.00,-0.05
0.0,0.0,0.0,0.0,0.0,0.0,0.0,2156,9958.90,0,0,0,1.12,-2.66,-0.56,0.11,1.00,-0.05
0.0,0.0,0.0,0.0,0.0,0.0,0.0,2170,9958.90,0,0,165,0.84,-2.59,-0.14,0.11,1.00,-0.06
0.0,0.0,0.0,0.0,0.0,0.0,0.0,2184,9957.90,0,0,0,0.77,-2.66,0.21,0.11,1.00,-0.05
0.0,0.0,0.0,0.0,0.0,0.0,0.0,2192,9957.90,0,0,165,0.70,-2.66,0.49,0.11,1.00,-0.06
0.0,0.0,0.0,0.0,0.0,0.0,0.0,2206,9958.90,0,0,0,0.63,-2.66,0.35,0.11,1.00,-0.05
0.0,0.0,0.0,0.0,0.0,0.0,0.0,2222,9959.80,0,0,165,0.77,-2.52,-0.07,0.11,1.00,-0.05
0.0,0.0,0.0,0.0,0.0,0.0,0.0,2229,9958.90,0,0,0,0.91,-2.66,-0.28,0.11,1.12,-0.05
0.0,0.0,0.0,0.0,0.0,0.0,0.0,2244,9957.90,0,0,165,1.12,-2.59,-0.28,0.11,1.00,-0.05
0.0,0.0,0.0,0.0,0.0,0.0,0.0,2259,9958.20,0,0,0,0.91,-2.66,-0.35,0.11,1.00,-0.05
0.0,0.0,0.0,0.0,0.0,0.0,0.0,2266,9958.90,0,0,165,1.05,-2.66,-0.14,0.11,1.00,-0.05
0.0,0.0,0.0,0.0,0.0,0.0,0.0,2281,9956.90,0,0,0,0.70,-2.59,0.14,0.11,1.00,-0.05
0.0,0.0,0.0,0.0,0.0,0.0,0.0,2296,9958.90,0,0,165,0.63,-2.59,0.35,0.11,1.00,-0.05
0.0,0.0,0.0,0.0,0.0,0.0,0.0,2304,9959.20,0,0,0,0.63,-2.59,0.28,0.11,1.00,-0.05
0.0,0.0,0.0,0.0,0.0,0.0,0.0,2319,9957.90,0,0,165,0.84,-2.59,0.07,0.11,1.00,-0.05
0.0,0.0,0.0,0.0,0.0,0.0,0.0,2334,9958.90,0,0,0,0.98,-2.52,-0.07,0.11,1.00,-0.05
0.0,0.0,0.0,0.0,0.0,0.0,0.0,2341,9958.20,0,0,165,1.05,-2.73,-0.42,0.11,1.00,-0.06
0.0,0.0,0.0,0.0,0.0,0.0,0.0,2357,9958.90,0,0,0,0.98,-2.59,-0.21,0.11,1.00,-0.06
0.0,0.0,0.0,0.0,0.0,0.0,0.0,2371,9958.90,0,0,165,0.84,-2.66,-0.14,0.11,1.00,-0.06
0.0,0.0,0.0,0.0,0.0,0.0,0.0,2381,9958.90,0,0,0,0.77,-2.59,0.21,0.11,1.00,-0.06
0.0,0.0,0.0,0.0,0.0,0.0,0.0,2394,9958.20,0,0,165,0.70,-2.59,0.35,0.11,1.00,-0.05
0.0,0.0,0.0,0.0,0.0,0.0,0.0,2408,9957.90,0,0,0,0.84,-2.73,0.14,0.11,1.00,-0.05
0.0,0.0,0.0,0.0,0.0,0.0,0.0,2416,9957.90,0,0,165,0.91,-2.59,-0.21,0.11,1.00,-0.06
0.0,0.0,0.0,0.0,0.0,0.0,0.0,2431,9958.90,0,0,0,0.98,-2.66,-0.28,0.11,1.00,-0.06
0.0,0.0,0.0,0.0,0.0,0.0,0.0,2446,9958.90,0,0,165,1.05,-2.66,-0.35,0.11,1.00,-0.06
0.0,0.0,0.0,0.0,0.0,0.0,0.0,2454,9958.90,0,0,0,0.98,-2.66,-0.14,0.11,1.00,-0.06
0.0,0.0,0.0,0.0,0.0,0.0,0.0,2469,9958.90,0,0,165,0.70,-2.59,0.21,0.11,1.00,-0.05
0.0,0.0,0.0,0.0,0.0,0.0,0.0,2484,9958.90,0,0,0,0.63,-2.59,0.28,0.11,1.00,-0.06
0.0,0.0,0.0,0.0,0.0,0.0,0.0,2491,9958.20,0,0,165,0.70,-2.66,0.21,0.11,1.00,-0.05
0.0,0.0,0.0,0.0,0.0,0.0,0.0,2514,9957.90,0,0,0,0.84,-2.59,0.21,0.11,1.00,-0.06
0.0,0.0,0.0,0.0,0.0,0.0,0.0,2522,9957.90,0,0,165,0.77,-2.66,0.00,0.12,1.12,-0.05
0.0,0.0,0.0,0.0,0.0,0.0,0.0,2529,9958.90,0,0,0,0.98,-2.66,-0.14,0.11,1.00,-0.05
0.0,0.0,0.0,0.0,0.0,0.0,0.0,2544,9958.90,0,0,165,0.98,-2.66,-0.21,0.11,1.00,-0.06
0.0,0.0,0.0,0.0,0.0,0.0,0.0,2560,9956.90,0,0,0,0.91,-2.73,-0.14,0.11,1.00,-0.05
0.0,0.0,0.0,0.0,0.0,0.0,0.0,2567,9957.90,0,0,165,0.63,-2.59,0.21,0.11,1.00,-0.06
0.0,0.0,0.0,0.0,0.0,0.0,0.0,2581,9958.90,0,0,0,0.70,-2.52,0.35,0.11,1.00,-0.05
0.0,0.0,0.0,0.0,0.0,0.0,0.0,2597,9957.90,0,0,165,0.56,-2.59,0.35,0.11,1.00,-0.06
0.0,0.0,0.0,0.0,0.0,0.0,0.0,2606,9958.90,0,0,0,0.63,-2.66,0.28,0.11,1.00,-0.05
0.0,0.0,0.0,0.0,0.0,0.0,0.0,2621,9958.90,0,0,165,0.77,-2.66,0.00,0.11,1.00,-0.06
0.0,0.0,0.0,0.0,0.0,0.0,0.0,2634,9959.20,0,0,0,0.98,-2.66,-0.35,0.11,1.00,-0.06
0.0,0.0,0.0,0.0,0.0,0.0,0.0,2641,9957.90,0,0,165,0.91,-2.66,0.00,0.11,1.00,-0.06
0.0,0.0,0.0,0.0,0.0,0.0,0.0,2656,9958.20,0,0,0,0.77,-2.66,0.00,0.11,1.00,-0.06
0.0,0.0,0.0,0.0,0.0,0.0,0.0,2671,9959.20,0,0,165,0.77,-2.59,0.21,0.11,1.00,-0.06
0.0,0.0,0.0,0.0,0.0,0.0,0.0,2679,9959.20,0,0,0,0.63,-2.59,0.42,0.11,1.00,-0.05
0.0,0.0,0.0,0.0,0.0,0.0,0.0,2693,9958.90,0,0,165,0.63,-2.59,0.28,0.11,1.00,-0.05
0.0,0.0,0.0,0.0,0.0,0.0,0.0,2709,9958.20,0,0,0,0.91,-2.59,0.07,0.12,1.00,-0.05
0.0,0.0,0.0,0.0,0.0,0.0,0.0,2716,9957.90,0,0,165,0.84,-2.66,-0.14,0.11,1.00,-0.05
0.0,0.0,0.0,0.0,0.0,0.0,0.0,2731,9958.90,0,0,0,0.98,-2.66,-0.35,0.11,1.00,-0.06
0.0,0.0,0.0,0.0,0.0,0.0,0.0,2746,9957.60,0,0,165,1.12,-2.73,-0.28,0.11,1.00,-0.06
0.0,0.0,0.0,0.0,0.0,0.0,0.0,2754,9958.90,0,0,0,0.91,-2.66,0.00,0.11,1.00,-0.05
0.0,0.0,0.0,0.0,0.0,0.0,0.0,2769,9958.90,0,0,165,0.70,-2.59,0.21,0.11,1.00,-0.06
0.0,0.0,0.0,0.0,0.0,0.0,0.0,2791,9957.90,0,0,0,0.70,-2.59,0.42,0.11,1.00,-0.05
0.0,0.0,0.0,0.0,0.0,0.0,0.0,2795,9957.90,0,0,165,0.63,-2.66,0.28,0.11,1.00,-0.05
0.0,0.0,0.0,0.0,0.0,0.0,0.0,2806,9958.90,0,0,0,0.84,-2.59,0.07,0.11,1.00,-0.05
0.0,0.0,0.0,0.0,0.0,0.0,0.0,2822,9958.90,0,0,165,0.84,-2.59,-0.07,0.11,1.00,-0.06
0.0,0.0,0.0,0.0,0.0,0.0,0.0,2829,9957.90,0,0,0,0.91,-2.52,-0.14,0.11,1.00,-0.05
0.0,0.0,0.0,0.0,0.0,0.0,0.0,2844,9958.20,0,0,165,0.91,-2.66,-0.28,0.11,1.00,-0.05
0.0,0.0,0.0,0.0,0.0,0.0,0.0,2858,9958.20,0,0,0,0.91,-2.66,0.00,0.11,1.00,-0.06
0.0,0.0,0.0,0.0,0.0,0.0,0.0,2866,9957.90,0,0,165,0.70,-2.59,0.28,0.11,1.00,-0.05
0.0,0.0,0.0,0.0,0.0,0.0,0.0,2881,9957.90,0,0,0,0.70,-2.73,0.28,0.11,1.00,-0.06
0.0,0.0,0.0,0.0,0.0,0.0,0.0,2896,9957.90,0,0,165,0.70,-2.38,-0.14,0.11,1.00,-0.05
0.0,0.0,0.0,0.0,0.0,0.0,0.0,2904,9958.90,0,0,0,0.77,-2.73,0.07,0.11,1.00,-0.05
0.0,0.0,0.0,0.0,0.0,0.0,0.0,2919,9958.90,0,0,165,0.84,-2.66,-0.28,0.12,1.00,-0.05
0.0,0.0,0.0,0.0,0.0,0.0,0.0,2934,9956.90,0,0,0,1.05,-2.52,-0.35,0.11,1.00,-0.06
0.0,0.0,0.0,0.0,0.0,0.0,0.0,2942,9957.90,0,0,165,1.05,-2.73,-0.07,0.11,1.00,-0.06
0.0,0.0,0.0,0.0,0.0,0.0,0.0,2957,9958.90,0,0,0,0.77,-2.38,0.07,0.11,1.00,-0.05
0.0,0.0,0.0,0.0,0.0,0.0,0.0,2971,9957.90,0,0,165,0.70,-2.59,0.21,0.11,1.00,-0.05
0.0,0.0,0.0,0.0,0.0,0.0,0.0,2979,9958.90,0,0,0,0.70,-2.52,0.49,0.11,1.00,-0.05
0.0,0.0,0.0,0.0,0.0,0.0,0.0,2993,9959.20,0,0,165,0.84,-2.59,0.14,0.11,1.00,-0.05
0.0,0.0,0.0,0.0,0.0,0.0,0.0,3008,9958.20,0,0,0,0.91,-2.45,-0.14,0.11,1.00,-0.05
0.0,0.0,0.0,0.0,0.0,0.0,0.0,3016,9958.90,0,0,165,1.12,-2.73,-0.49,0.11,1.00,-0.06
0.0,0.0,0.0,0.0,0.0,0.0,0.0,3031,9958.90,0,0,0,1.33,-2.66,-0.56,0.11,1.00,-0.06
0.0,0.0,0.0,0.0,0.0,0.0,0.0,3047,9958.20,0,0,165,1.05,-2.59,-0.49,0.11,1.00,-0.06
0.0,0.0,0.0,0.0,0.0,0.0,0.0,3055,9958.90,0,0,0,0.91,-2.73,-0.07,0.11,1.00,-0.06
0.0,0.0,0.0,0.0,0.0,0.0,0.0,3070,9957.90,0,0,165,0.49,-2.45,0.21,0.11,1.00,-0.05
0.0,0.0,0.0,0.0,0.0,0.0,0.0,3084,9958.20,0,0,0,0.35,-2.73,0.77,0.11,1.00,-0.05
0.0,0.0,0.0,0.0,0.0,0.0,0.0,3091,9958.90,0,0,165,0.35,-2.52,0.77,0.11,1.00,-0.05
0.0,0.0,0.0,0.0,0.0,0.0,0.0,3107,9957.90,0,0,0,0.70,-2.59,0.07,0.11,1.00,-0.05
0.0,0.0,0.0,0.0,0.0,0.0,0.0,3123,9958.20,0,0,165,1.05,-2.80,-0.35,0.11,1.00,-0.05
0.0,0.0,0.0,0.0,0.0,0.0,0.0,3137,9958.20,0,0,0,1.26,-2.80,-0.77,0.11,1.00,-0.05
0.0,0.0,0.0,0.0,0.0,0.0,0.0,3143,9958.90,0,0,165,1.12,-2.73,-0.63,0.11,1.00,-0.05
0.0,0.0,0.0,0.0,0.0,0.0,0.0,3159,9958.20,0,0,0,0.98,-2.59,-0.14,0.11,1.00,-0.06
0.0,0.0,0.0,0.0,0.0,0.0,0.0,3166,9957.90,0,0,165,0.84,-2.73,0.07,0.11,1.00,-0.06
0.0,0.0,0.0,0.0,0.0,0.0,0.0,3181,9959.20,0,0,0,0.63,-2.45,0.28,0.11,1.00,-0.06
0.0,0.0,0.0,0.0,0.0,0.0,0.0,3196,9959.20,0,0,165,0.77,-2.59,0.07,0.11,1.00,-0.06
0.0,0.0,0.0,0.0,0.0,0.0,0.0,3205,9958.90,0,0,0,0.70,-2.66,-0.21,0.11,1.00,-0.05
0.0,0.0,0.0,0.0,0.0,0.0,0.0,3220,9958.20,0,0,165,0.77,-2.59,0.14,0.11,1.00,-0.05
0.0,0.0,0.0,0.0,0.0,0.0,0.0,3234,9956.60,0,0,0,0.56,-2.66,0.56,0.11,1.00,-0.05
0.0,0.0,0.0,0.0,0.0,0.0,0.0,3242,9960.10,0,0,165,0.42,-2.59,0.63,0.11,1.00,-0.05
0.0,0.0,0.0,0.0,0.0,0.0,0.0,3257,9958.90,0,0,0,0.77,-2.73,0.49,0.11,1.00,-0.05
0.0,0.0,0.0,0.0,0.0,0.0,0.0,3272,9958.90,0,0,165,1.05,-2.66,0.14,0.11,1.00,-0.05
0.0,0.0,0.0,0.0,0.0,0.0,0.0,3279,9957.30,0,0,0,1.12,-2.66,-0.49,0.11,1.00,-0.06
0.0,0.0,0.0,0.0,0.0,0.0,0.0,3295,9957.90,0,0,165,1.47,-2.66,-0.77,0.11,1.00,-0.06
0.0,0.0,0.0,0.0,0.0,0.0,0.0,3309,9957.90,0,0,0,1.33,-2.59,-0.56,0.11,1.00,-0.06
0.0,0.0,0.0,0.0,0.0,0.0,0.0,3316,9958.90,0,0,165,0.98,-2.59,-0.07,0.11,1.00,-0.05
0.0,0.0,0.0,0.0,0.0,0.0,0.0,3331,9958.20,0,0,0,0.49,-2.59,0.35,0.11,1.00,-0.05
0.0,0.0,0.0,0.0,0.0,0.0,0.0,3346,9959.20,0,0,165,0.49,-2.66,0.56,0.11,1.00,-0.05
0.0,0.0,0.0,0.0,0.0,0.0,0.0,3354,9958.90,0,0,0,0.56,-2.59,0.42,0.11,1.00,-0.05
0.0,0.0,0.0,0.0,0.0,0.0,0.0,3369,9958.90,0,0,165,0.77,-2.66,0.14,0.11,1.00,-0.05
0.0,0.0,0.0,0.0,0.0,0.0,0.0,3384,9957.90,0,0,0,0.77,-2.66,-0.07,0.11,1.00,-0.05
0.0,0.0,0.0,0.0,0.0,0.0,0.0,3391,9958.90,0,0,165,0.91,-2.73,0.07,0.11,1.00,-0.05
0.0,0.0,0.0,0.0,0.0,0.0,0.0,3406,9957.90,0,0,0,0.70,-2.59,0.14,0.11,1.00,-0.05
0.0,0.0,0.0,0.0,0.0,0.0,0.0,3422,9958.90,0,0,165,0.91,-2.59,0.21,0.11,1.00,-0.06
0.0,0.0,0.0,0.0,0.0,0.0,0.0,3429,9958.20,0,0,0,0.91,-2.52,0.14,0.11,1.00,-0.06
0.0,0.0,0.0,0.0,0.0,0.0,0.0,3444,9957.90,0,0,165,0.84,-2.52,-0.07,0.11,1.00,-0.06
0.0,0.0,0.0,0.0,0.0,0.0,0.0,3459,9957.90,0,0,0,0.91,-2.52,-0.07,0.11,1.00,-0.05
0.0,0.0,0.0,0.0,0.0,0.0,0.0,3467,9958.20,0,0,165,0.98,-2.66,-0.21,0.11,1.00,-0.05
0.0,0.0,0.0,0.0,0.0,0.0,0.0,3482,9958.20,0,0,0,0.98,-2.66,-0.07,0.11,1.00,-0.05
0.0,0.0,0.0,0.0,0.0,0.0,0.0,3497,9959.20,0,0,165,0.91,-2.66,-0.14,0.11,1.00,-0.05
0.0,0.0,0.0,0.0,0.0,0.0,0.0,3504,9959.20,0,0,0,0.84,-2.80,-0.07,0.11,1.00,-0.05
0.0,0.0,0.0,0.0,0.0,0.0,0.0,3518,9959.20,0,0,165,0.84,-2.73,0.21,0.11,1.00,-0.06
0.0,0.0,0.0,0.0,0.0,0.0,0.0,3534,9958.90,0,0,0,0.70,-2.66,0.42,0.11,1.00,-0.06
0.0,0.0,0.0,0.0,0.0,0.0,0.0,3541,9958.90,0,0,165,0.56,-2.66,0.56,0.11,1.00,-0.05
0.0,0.0,0.0,0.0,0.0,0.0,0.0,3556,9959.50,0,0,0,0.49,-2.59,0.42,0.11,1.00,-0.05
0.0,0.0,0.0,0.0,0.0,0.0,0.0,3572,9958.90,0,0,165,0.63,-2.52,0.14,0.11,1.00,-0.05
0.0,0.0,0.0,0.0,0.0,0.0,0.0,3579,9959.20,0,0,0,0.98,-2.52,-0.28,0.12,1.00,-0.05
0.0,0.0,0.0,0.0,0.0,0.0,0.0,3595,9958.90,0,0,165,1.12,-2.73,-0.63,0.11,1.00,-0.06
0.0,0.0,0.0,0.0,0.0,0.0,0.0,3610,9959.20,0,0,0,1.26,-2.66,-0.70,0.11,1.00,-0.06
0.0,0.0,0.0,0.0,0.0,0.0,0.0,3616,9957.90,0,0,165,1.05,-2.66,-0.42,0.11,1.00,-0.06
0.0,0.0,0.0,0.0,0.0,0.0,0.0,3631,9958.20,0,0,0,0.70,-2.66,0.35,0.11,1.00,-0.05
0.0,0.0,0.0,0.0,0.0,0.0,0.0,3646,9960.10,0,0,165,0.35,-2.45,0.91,0.11,1.00,-0.05
0.0,0.0,0.0,0.0,0.0,0.0,0.0,3654,9959.20,0,0,0,0.21,-2.59,0.84,0.11,1.00,-0.06
0.0,0.0,0.0,0.0,0.0,0.0,0.0,3669,9958.90,0,0,165,0.49,-2.66,0.42,0.11,1.00,-0.06
0.0,0.0,0.0,0.0,0.0,0.0,0.0,3684,9957.90,0,0,0,1.05,-2.52,-0.21,0.11,1.00,-0.06
0.0,0.0,0.0,0.0,0.0,0.0,0.0,3691,9958.90,0,0,165,1.33,-2.59,-0.70,0.11,1.00,-0.06
0.0,0.0,0.0,0.0,0.0,0.0,0.0,3706,9959.20,0,0,0,1.19,-2.59,-0.42,0.11,1.01,-0.05
0.0,0.0,0.0,0.0,0.0,0.0,0.0,3722,9959.20,0,0,165,1.05,-2.59,-0.14,0.11,1.00,-0.05
0.0,0.0,0.0,0.0,0.0,0.0,0.0,3729,9958.20,0,0,0,0.77,-2.66,0.28,0.11,1.00,-0.06
0.0,0.0,0.0,0.0,0.0,0.0,0.0,3744,9958.90,0,0,165,0.77,-2.59,0.21,0.11,1.00,-0.06
0.0,0.0,0.0,0.0,0.0,0.0,0.0,3759,9957.90,0,0,0,0.91,-2.59,0.00,0.11,1.00,-0.06
0.0,0.0,0.0,0.0,0.0,0.0,0.0,3767,9958.90,0,0,165,0.84,-2.80,-0.28,0.11,1.00,-0.06
0.0,0.0,0.0,0.0,0.0,0.0,0.0,3782,9959.20,0,0,0,0.70,-2.59,-0.07,0.11,1.00,-0.06
0.0,0.0,0.0,0.0,0.0,0.0,0.0,3797,9959.20,0,0,165,0.70,-2.66,0.35,0.11,1.00,-0.05
0.0,0.0,0.0,0.0,0.0,0.0,0.0,3804,9957.90,0,0,0,0.49,-2.59,0.49,0.11,1.00,-0.05
0.0,0.0,0.0,0.0,0.0,0.0,0.0,3819,9958.90,0,0,165,0.56,-2.59,0.56,0.11,1.00,-0.05
0.0,0.0,0.0,0.0,0.0,0.0,0.0,3834,9958.20,0,0,0,0.56,-2.73,0.00,0.11,1.00,-0.05
0.0,0.0,0.0,0.0,0.0,0.0,0.0,3841,9959.80,0,0,165,0.98,-2.80,-0.49,0.11,1.00,-0.06
0.0,0.0,0.0,0.0,0.0,0.0,0.0,3856,9957.90,0,0,0,1.26,-2.73,-0.70,0.11,1.00,-0.06
0.0,0.0,0.0,0.0,0.0,0.0,0.0,3864,9958.90,0,0,165,1.40,-2.59,-0.63,0.11,1.00,-0.06
0.0,0.0,0.0,0.0,0.0,0.0,0.0,3878,9958.90,0,0,0,0.98,-2.59,-0.21,0.11,1.00,-0.05
0.0,0.0,0.0,0.0,0.0,0.0,0.0,3894,9959.20,0,0,165,0.77,-2.52,0.00,0.11,1.00,-0.05
0.0,0.0,0.0,0.0,0.0,0.0,0.0,3901,9957.20,0,0,0,0.63,-2.59,0.35,0.11,1.00,-0.06
0.0,0.0,0.0,0.0,0.0,0.0,0.0,3916,9958.90,0,0,165,0.56,-2.59,0.28,0.12,1.00,-0.06
0.0,0.0,0.0,0.0,0.0,0.0,0.0,3932,9959.20,0,0,0,0.84,-2.52,0.07,0.11,1.00,-0.06
0.0,0.0,0.0,0.0,0.0,0.0,0.0,3939,9957.90,0,0,165,0.63,-2.66,0.21,0.11,1.00,-0.05
0.0,0.0,0.0,0.0,0.0,0.0,0.0,3954,9959.20,0,0,0,0.56,-2.66,0.42,0.11,1.00,-0.05
0.0,0.0,0.0,0.0,0.0,0.0,0.0,3969,9958.90,0,0,165,0.56,-2.66,0.49,0.11,1.00,-0.05
0.0,0.0,0.0,0.0,0.0,0.0,0.0,3977,9958.90,0,0,0,0.91,-2.59,0.35,0.12,1.00,-0.05
0.0,0.0,0.0,0.0,0.0,0.0,0.0,3992,9958.90,0,0,165,1.05,-2.66,-0.28,0.11,1.00,-0.06
0.0,0.0,0.0,0.0,0.0,0.0,0.0,4007,9957.90,0,0,0,1.19,-2.66,-0.70,0.11,1.00,-0.06
0.0,0.0,0.0,0.0,0.0,0.0,0.0,4014,9958.20,0,0,165,1.33,-2.59,-0.91,0.11,1.00,-0.06
0.0,0.0,0.0,0.0,0.0,0.0,0.0,4029,9957.30,0,0,0,1.12,-2.59,-0.49,0.11,1.00,-0.06
0.0,0.0,0.0,0.0,0.0,0.0,0.0,4044,9959.20,0,0,165,0.84,-2.52,0.00,0.11,1.00,-0.05
0.0,0.0,0.0,0.0,0.0,0.0,0.0,4052,9958.90,0,0,0,0.49,-2.59,0.70,0.11,1.00,-0.06
0.0,0.0,0.0,0.0,0.0,0.0,0.0,4066,9958.90,0,0,165,0.35,-2.52,0.77,0.12,1.00,-0.05
0.0,0.0,0.0,0.0,0.0,0.0,0.0,4081,9957.90,0,0,0,0.63,-2.59,0.49,0.11,1.00,-0.05
0.0,0.0,0.0,0.0,0.0,0.0,0.0,4089,9957.90,0,0,165,0.70,-2.59,0.14,0.11,1.00,-0.06
0.0,0.0,0.0,0.0,0.0,0.0,0.0,4104,9958.90,0,0,0,0.98,-2.66,-0.14,0.11,1.00,-0.06
0.0,0.0,0.0,0.0,0.0,0.0,0.0,4119,9957.90,0,0,165,1.05,-2.59,-0.21,0.11,1.00,-0.06
0.0,0.0,0.0,0.0,0.0,0.0,0.0,4126,9959.20,0,0,0,0.84,-2.59,-0.07,0.11,1.00,-0.06
0.0,0.0,0.0,0.0,0.0,0.0,0.0,4141,9957.90,0,0,165,0.84,-2.38,-0.07,0.11,1.00,-0.06
0.0,0.0,0.0,0.0,0.0,0.0,0.0,4156,9958.90,0,0,0,0.70,-2.59,0.00,0.11,1.00,-0.06
0.0,0.0,0.0,0.0,0.0,0.0,0.0,4164,9957.90,0,0,165,0.77,-2.59,0.00,0.11,1.00,-0.06
0.0,0.0,0.0,0.0,0.0,0.0,0.0,4179,9959.20,0,0,0,0.77,-2.66,0.00,0.11,1.00,-0.05
0.0,0.0,0.0,0.0,0.0,0.0,0.0,4194,9959.20,0,0,165,0.91,-2.59,-0.21,0.11,1.00,-0.05
0.0,0.0,0.0,0.0,0.0,0.0,0.0,4201,9958.20,0,0,0,0.98,-2.66,-0.07,0.11,1.00,-0.05
0.0,0.0,0.0,0.0,0.0,0.0,0.0,4217,9958.20,0,0,165,0.91,-2.66,-0.14,0.11,1.00,-0.05
0.0,0.0,0.0,0.0,0.0,0.0,0.0,4232,9956.90,0,0,0,0.63,-2.66,0.07,0.11,1.00,-0.06
0.0,0.0,0.0,0.0,0.0,0.0,0.0,4239,9958.90,0,0,165,0.63,-2.66,0.42,0.11,1.00,-0.06
-0.21289062,0.0014022244,4.8948824E-4,0.001682441,0.11,1.0,-0.06,14281,9958.20,0,0,165,0.91,-2.59,0.14,0.11,1.00,-0.06
0.08691406,-5.977759E-4,4.8948824E-4,6.824409E-4,0.11,1.0,-0.06,14298,9958.50,0,0,0,0.77,-2.59,0.07,0.11,1.00,-0.06
-0.21289062,4.0222332E-4,-5.105138E-4,6.824409E-4,0.12,1.0,-0.06,14312,9958.20,0,0,165,0.84,-2.66,0.07,0.12,1.00,-0.06
0.08691406,4.0222332E-4,4.8948824E-4,-3.1755917E-4,0.11,1.0,-0.06,14318,9958.50,0,0,0,0.84,-2.59,0.00,0.11,1.00,-0.06
-0.21289062,4.0222332E-4,4.8948824E-4,-3.1755917E-4,0.11,1.0,-0.05,14334,9958.20,0,0,165,0.84,-2.59,0.00,0.11,1.00,-0.05
0.08691406,-5.977759E-4,4.8948824E-4,-0.0013175593,0.11,1.0,-0.06,14341,9958.50,0,0,0,0.77,-2.59,-0.07,0.11,1.00,-0.06
-0.81347656,0.0014022244,4.8948824E-4,-0.0013175593,0.11,1.0,-0.05,14356,9957.60,0,0,165,0.91,-2.59,-0.07,0.11,1.00,-0.05
-0.81347656,-0.0015977761,4.8948824E-4,6.824409E-4,0.11,1.0,-0.06,14371,9957.60,0,0,0,0.70,-2.59,0.07,0.11,1.00,-0.06
0.4873047,4.0222332E-4,4.8948824E-4,-3.1755917E-4,0.11,1.0,-0.06,14378,9958.90,0,0,165,0.84,-2.59,0.00,0.11,1.00,-0.06
-0.81347656,-5.977759E-4,4.8948824E-4,6.824409E-4,0.11,1.0,-0.06,14393,9957.60,0,0,0,0.77,-2.59,0.07,0.11,1.00,-0.06
1.0869141,-0.0015977761,-5.105138E-4,6.824409E-4,0.11,1.0,-0.05,14408,9959.50,0,0,165,0.70,-2.66,0.07,0.11,1.00,-0.05
0.08691406,4.0222332E-4,0.0014894903,6.824409E-4,0.12,1.0,-0.06,14416,9958.50,0,0,0,0.84,-2.52,0.07,0.12,1.00,-0.06
0.08691406,-5.977759E-4,4.8948824E-4,-3.1755917E-4,0.11,1.0,-0.06,14431,9958.50,0,0,165,0.77,-2.59,0.00,0.11,1.00,-0.06
-0.21289062,-5.977759E-4,4.8948824E-4,-0.0023175592,0.11,1.0,-0.06,14446,9958.20,0,0,0,0.77,-2.59,-0.14,0.11,1.00,-0.06
-0.81347656,0.0014022244,-5.105138E-4,-0.0013175593,0.11,1.0,-0.06,14454,9957.60,0,0,165,0.91,-2.66,-0.07,0.11,1.00,-0.06
0.08691406,4.0222332E-4,4.8948824E-4,6.824409E-4,0.11,1.0,-0.05,14469,9958.50,0,0,0,0.84,-2.59,0.07,0.11,1.00,-0.05
0.08691406,4.0222332E-4,4.8948824E-4,0.0026824407,0.11,1.0,-0.05,14484,9958.50,0,0,165,0.84,-2.59,0.21,0.11,1.00,-0.05
0.7871094,-0.0025977762,4.8948824E-4,0.001682441,0.11,1.0,-0.06,14491,9959.20,0,0,0,0.63,-2.59,0.14,0.11,1.00,-0.06
1.0869141,-5.977759E-4,-5.105138E-4,0.001682441,0.11,1.0,-0.06,14506,9959.50,0,0,165,0.77,-2.66,0.14,0.11,1.00,-0.06
-1.2128906,-5.977759E-4,-5.105138E-4,6.824409E-4,0.11,1.0,-0.06,14523,9957.20,0,0,0,0.77,-2.66,0.07,0.11,1.00,-0.06
0.08691406,0.0014022244,4.8948824E-4,-0.0023175592,0.11,1.0,-0.05,14529,9958.50,0,0,165,0.91,-2.59,-0.14,0.11,1.00,-0.05
0.08691406,4.0222332E-4,4.8948824E-4,-0.003317559,0.11,1.0,-0.06,14544,9958.50,0,0,0,0.84,-2.59,-0.21,0.11,1.00,-0.06
1.0869141,4.0222332E-4,-5.105138E-4,-0.0013175593,0.11,1.0,-0.06,14558,9959.50,0,0,165,0.84,-2.66,-0.07,0.11,1.00,-0.06
0.4873047,4.0222332E-4,-5.105138E-4,0.001682441,0.11,1.0,-0.05,14566,9958.90,0,0,0,0.84,-2.66,0.14,0.11,1.00,-0.05
0.08691406,4.0222332E-4,4.8948824E-4,6.824409E-4,0.11,1.0,-0.06,14580,9958.50,0,0,165,0.84,-2.59,0.07,0.11,1.00,-0.06
1.0869141,-5.977759E-4,4.8948824E-4,0.001682441,0.11,1.0,-0.06,14596,9959.50,0,0,0,0.77,-2.59,0.14,0.11,1.00,-0.06
0.08691406,-0.0015977761,-0.0015105121,-3.1755917E-4,0.11,1.0,-0.06,14606,9958.50,0,0,165,0.70,-2.73,0.00,0.11,1.00,-0.06
-0.81347656,-5.977759E-4,4.8948824E-4,-0.0013175593,0.11,1.0,-0.05,14618,9957.60,0,0,0,0.77,-2.59,-0.07,0.11,1.00,-0.05
-0.81347656,-5.977759E-4,-5.105138E-4,-0.0013175593,0.12,1.0,-0.06,14634,9957.60,0,0,165,0.77,-2.66,-0.07,0.12,1.00,-0.06
0.08691406,-5.977759E-4,-0.0015105121,-0.0023175592,0.11,1.0,-0.05,14641,9958.50,0,0,0,0.77,-2.73,-0.14,0.11,1.00,-0.05
0.08691406,0.0014022244,4.8948824E-4,6.824409E-4,0.11,1.0,-0.06,14656,9958.50,0,0,165,0.91,-2.59,0.07,0.11,1.00,-0.06
0.08691406,4.0222332E-4,-5.105138E-4,0.001682441,0.11,1.0,-0.06,14671,9958.50,0,0,0,0.84,-2.66,0.14,0.11,1.00,-0.06
0.08691406,-5.977759E-4,4.8948824E-4,0.001682441,0.11,1.0,-0.05,14678,9958.50,0,0,165,0.77,-2.59,0.14,0.11,1.00,-0.05
0.08691406,4.0222332E-4,-0.0015105121,6.824409E-4,0.11,1.0,-0.06,14693,9958.50,0,0,0,0.84,-2.73,0.07,0.11,1.00,-0.06
0.08691406,-5.977759E-4,4.8948824E-4,-0.0023175592,0.11,1.0,-0.06,14713,9958.50,0,0,165,0.77,-2.59,-0.14,0.11,1.00,-0.06
0.08691406,0.0014022244,0.0014894903,-0.0013175593,0.12,1.0,-0.06,14723,9958.50,0,0,0,0.91,-2.52,-0.07,0.12,1.00,-0.06
-0.81347656,0.0024022246,4.8948824E-4,-0.0013175593,0.11,1.0,-0.06,14731,9957.60,0,0,165,0.98,-2.59,-0.07,0.11,1.00,-0.06
1.0869141,0.0024022246,4.8948824E-4,-0.0013175593,0.11,1.0,-0.06,14746,9959.50,0,0,0,0.98,-2.59,-0.07,0.11,1.00,-0.06
-0.81347656,0.0014022244,0.0014894903,0.0026824407,0.11,1.0,-0.06,14756,9957.60,0,0,165,0.91,-2.52,0.21,0.11,1.00,-0.06
0.08691406,-0.0015977761,4.8948824E-4,0.003682441,0.11,1.0,-0.06,14769,9958.50,0,0,0,0.70,-2.59,0.28,0.11,1.00,-0.06
1.0869141,-0.0035977755,-5.105138E-4,-3.1755917E-4,0.11,1.0,-0.06,14784,9959.50,0,0,165,0.56,-2.66,0.00,0.11,1.00,-0.06
-0.81347656,-5.977759E-4,-5.105138E-4,0.001682441,0.11,1.0,-0.06,14791,9957.60,0,0,0,0.77,-2.66,0.14,0.11,1.00,-0.06
-0.5126953,-0.0015977761,4.8948824E-4,-3.1755917E-4,0.11,1.0,-0.05,14806,9957.90,0,0,165,0.70,-2.59,0.00,0.11,1.00,-0.05
-0.5126953,0.0024022246,-0.0015105121,-0.0013175593,0.11,1.0,-0.05,14823,9957.90,0,0,0,0.98,-2.73,-0.07,0.11,1.00,-0.05
-0.81347656,0.0024022246,4.8948824E-4,-0.003317559,0.11,1.0,-0.06,14827,9957.60,0,0,165,0.98,-2.59,-0.21,0.11,1.00,-0.06
0.08691406,4.0222332E-4,-0.0015105121,-0.0013175593,0.11,1.0,-0.06,14843,9958.50,0,0,0,0.84,-2.73,-0.07,0.11,1.00,-0.06
-0.21289062,4.0222332E-4,-5.105138E-4,-3.1755917E-4,0.11,1.0,-0.06,14858,9958.20,0,0,165,0.84,-2.66,0.00,0.11,1.00,-0.06
-1.2128906,-5.977759E-4,4.8948824E-4,-3.1755917E-4,0.11,1.0,-0.06,14865,9957.20,0,0,0,0.77,-2.59,0.00,0.11,1.00,-0.06
-0.81347656,-0.0015977761,-5.105138E-4,0.0026824407,0.11,1.0,-0.06,14880,9957.60,0,0,165,0.70,-2.66,0.21,0.11,1.00,-0.06
0.08691406,-0.0025977762,-5.105138E-4,0.0026824407,0.11,1.0,-0.06,14896,9958.50,0,0,0,0.63,-2.66,0.21,0.11,1.00,-0.06
0.08691406,-0.0025977762,4.8948824E-4,6.824409E-4,0.11,1.0,-0.05,14904,9958.50,0,0,165,0.63,-2.59,0.07,0.11,1.00,-0.05
0.08691406,4.0222332E-4,-0.0015105121,-0.0013175593,0.11,1.0,-0.05,14918,9958.50,0,0,0,0.84,-2.73,-0.07,0.11,1.00,-0.05
0.08691406,4.0222332E-4,-5.105138E-4,-3.1755917E-4,0.11,1.0,-0.06,14933,9958.50,0,0,165,0.84,-2.66,0.00,0.11,1.00,-0.06
-0.81347656,0.0014022244,-5.105138E-4,-0.0023175592,0.11,1.0,-0.06,14941,9957.60,0,0,0,0.91,-2.66,-0.14,0.11,1.00,-0.06
0.08691406,4.0222332E-4,0.0014894903,6.824409E-4,0.11,1.0,-0.06,14956,9958.50,0,0,165,0.84,-2.52,0.07,0.11,1.00,-0.06
-0.81347656,-5.977759E-4,-5.105138E-4,6.824409E-4,0.11,1.0,-0.05,14973,9957.60,0,0,0,0.77,-2.66,0.07,0.11,1.00,-0.05
0.08691406,-0.0015977761,-5.105138E-4,0.0026824407,0.11,1.0,-0.05,14979,9958.50,0,0,165,0.70,-2.66,0.21,0.11,1.00,-0.05
-1.2128906,-5.977759E-4,-5.105138E-4,-3.1755917E-4,0.11,1.0,-0.06,14994,9957.20,0,0,0,0.77,-2.66,0.00,0.11,1.00,-0.06
-0.81347656,0.0014022244,4.8948824E-4,6.824409E-4,0.11,1.0,-0.05,15010,9957.60,0,0,165,0.91,-2.59,0.07,0.11,1.00,-0.05
0.08691406,4.0222332E-4,4.8948824E-4,-3.1755917E-4,0.11,1.0,-0.06,15016,9958.50,0,0,0,0.84,-2.59,0.00,0.11,1.00,-0.06
0.08691406,0.0014022244,-0.0015105121,-0.0013175593,0.11,1.0,-0.06,15031,9958.50,0,0,165,0.91,-2.73,-0.07,0.11,1.00,-0.06
0.08691406,0.0014022244,0.0014894903,0.001682441,0.11,1.0,-0.06,15045,9958.50,0,0,0,0.91,-2.52,0.14,0.11,1.00,-0.06
0.08691406,-0.0015977761,-5.105138E-4,0.0026824407,0.11,1.0,-0.05,15053,9958.50,0,0,165,0.70,-2.66,0.21,0.11,1.00,-0.05
-0.81347656,-0.0015977761,4.8948824E-4,0.001682441,0.11,1.0,-0.05,15068,9957.60,0,0,0,0.70,-2.59,0.14,0.11,1.00,-0.05
0.08691406,-5.977759E-4,4.8948824E-4,0.0026824407,0.11,1.0,-0.05,15083,9958.50,0,0,165,0.77,-2.59,0.21,0.11,1.00,-0.05
0.08691406,-0.0015977761,-5.105138E-4,-0.25531757,0.11,1.0,-0.06,15090,9958.50,0,0,0,0.70,-2.66,-17.85,0.11,1.00,-0.06
1.0869141,0.0024022246,4.8948824E-4,-0.0023175592,0.11,1.0,-0.06,15105,9959.50,0,0,165,0.98,-2.59,-0.14,0.11,1.00,-0.06
0.08691406,0.0024022246,-5.105138E-4,-0.0043175593,0.11,1.0,-0.06,15121,9958.50,0,0,0,0.98,-2.66,-0.28,0.11,1.00,-0.06
0.08691406,4.0222332E-4,-0.0015105121,-0.003317559,0.11,1.0,-0.05,15128,9958.50,0,0,165,0.84,-2.73,-0.21,0.11,1.00,-0.05
0.08691406,4.0222332E-4,-5.105138E-4,-3.1755917E-4,0.11,1.0,-0.06,15143,9958.50,0,0,0,0.84,-2.66,0.00,0.11,1.00,-0.06
-0.81347656,-5.977759E-4,-5.105138E-4,0.001682441,0.11,1.0,-0.05,15158,9957.60,0,0,165,0.77,-2.66,0.14,0.11,1.00,-0.05
0.08691406,-0.0015977761,4.8948824E-4,0.0026824407,0.11,1.0,-0.05,15165,9958.50,0,0,0,0.70,-2.59,0.21,0.11,1.00,-0.05
0.08691406,-5.977759E-4,4.8948824E-4,0.001682441,0.11,1.0,-0.05,15180,9958.50,0,0,165,0.77,-2.59,0.14,0.11,1.00,-0.05
0.08691406,4.0222332E-4,4.8948824E-4,-0.0013175593,0.11,1.0,-0.06,15196,9958.50,0,0,0,0.84,-2.59,-0.07,0.11,1.00,-0.06
0.08691406,0.0024022246,4.8948824E-4,-0.0013175593,0.11,1.0,-0.06,15204,9958.50,0,0,165,0.98,-2.59,-0.07,0.11,1.00,-0.06
0.08691406,0.0024022246,4.8948824E-4,-0.0013175593,0.11,1.0,-0.06,15220,9958.50,0,0,0,0.98,-2.59,-0.07,0.11,1.00,-0.06
-0.81347656,4.0222332E-4,-5.105138E-4,-0.0013175593,0.11,1.0,-0.06,15233,9957.60,0,0,165,0.84,-2.66,-0.07,0.11,1.00,-0.06
1.0869141,-0.0015977761,4.8948824E-4,6.824409E-4,0.11,1.0,-0.06,15240,9959.50,0,0,0,0.70,-2.59,0.07,0.11,1.00,-0.06
-0.21289062,4.0222332E-4,4.8948824E-4,0.001682441,0.11,1.0,-0.05,15256,9958.20,0,0,165,0.84,-2.59,0.14,0.11,1.00,-0.05
1.0869141,-0.0035977755,4.8948824E-4,0.0026824407,0.11,1.0,-0.06,15271,9959.50,0,0,0,0.56,-2.59,0.21,0.11,1.00,-0.06
0.08691406,0.0014022244,-5.105138E-4,6.824409E-4,0.11,1.0,-0.06,15278,9958.50,0,0,165,0.91,-2.66,0.07,0.11,1.00,-0.06
-0.81347656,0.0014022244,-0.0015105121,-0.0013175593,0.12,1.0,-0.05,15294,9957.60,0,0,0,0.91,-2.73,-0.07,0.12,1.00,-0.05
0.08691406,4.0222332E-4,-0.0015105121,-0.0023175592,0.11,1.0,-0.05,15308,9958.50,0,0,165,0.84,-2.73,-0.14,0.11,1.00,-0.05
-0.81347656,4.0222332E-4,-5.105138E-4,0.001682441,0.12,1.0,-0.05,15316,9957.60,0,0,0,0.84,-2.66,0.14,0.12,1.00,-0.05
1.0869141,-0.0015977761,4.8948824E-4,6.824409E-4,0.11,1.0,-0.06,15330,9959.50,0,0,165,0.70,-2.59,0.07,0.11,1.00,-0.06
0.08691406,-0.0025977762,-5.105138E-4,0.001682441,0.11,1.0,-0.06,15346,9958.50,0,0,0,0.63,-2.66,0.14,0.11,1.00,-0.06
0.08691406,-0.0015977761,-5.105138E-4,0.001682441,0.11,1.0,-0.06,15355,9958.50,0,0,165,0.70,-2.66,0.14,0.11,1.00,-0.06
-0.81347656,-0.0015977761,4.8948824E-4,6.824409E-4,0.11,1.0,-0.05,15368,9957.60,0,0,0,0.70,-2.59,0.07,0.11,1.00,-0.05
-0.81347656,4.0222332E-4,4.8948824E-4,-3.1755917E-4,0.11,1.0,-0.06,15383,9957.60,0,0,165,0.84,-2.59,0.00,0.11,1.00,-0.06
0.08691406,4.0222332E-4,-5.105138E-4,-0.0013175593,0.11,1.0,-0.06,15390,9958.50,0,0,0,0.84,-2.66,-0.07,0.11,1.00,-0.06
0.08691406,0.0034022238,0.0014894903,-0.0013175593,0.11,1.0,-0.05,15405,9958.50,0,0,165,1.05,-2.52,-0.07,0.11,1.00,-0.05
0.08691406,0.0014022244,-5.105138E-4,-0.0013175593,0.11,1.0,-0.06,15421,9958.50,0,0,0,0.91,-2.66,-0.07,0.11,1.00,-0.06
-0.81347656,-5.977759E-4,-5.105138E-4,-3.1755917E-4,0.11,1.0,-0.06,15428,9957.60,0,0,165,0.77,-2.66,0.00,0.11,1.00,-0.06
0.08691406,-5.977759E-4,4.8948824E-4,6.824409E-4,0.11,1.0,-0.06,15443,9958.50,0,0,0,0.77,-2.59,0.07,0.11,1.00,-0.06
0.4873047,4.0222332E-4,4.8948824E-4,0.0026824407,0.11,1.0,-0.05,15458,9958.90,0,0,165,0.84,-2.59,0.21,0.11,1.00,-0.05
0.7871094,-0.0015977761,4.8948824E-4,0.001682441,0.11,1.0,-0.05,15466,9959.20,0,0,0,0.70,-2.59,0.14,0.11,1.00,-0.05
1.0869141,4.0222332E-4,4.8948824E-4,-3.1755917E-4,0.11,1.0,-0.06,15481,9959.50,0,0,165,0.84,-2.59,0.00,0.11,1.00,-0.06
-1.5126953,-0.0015977761,-5.105138E-4,-0.0013175593,0.11,1.0,-0.05,15495,9956.90,0,0,0,0.70,-2.66,-0.07,0.11,1.00,-0.05
0.08691406,0.0014022244,-5.105138E-4,-0.0013175593,0.11,1.0,-0.06,15503,9958.50,0,0,165,0.91,-2.66,-0.07,0.11,1.00,-0.06
-0.81347656,0.0034022238,4.8948824E-4,-3.1755917E-4,0.11,1.0,-0.06,15518,9957.60,0,0,0,1.05,-2.59,0.00,0.11,1.00,-0.06
-0.81347656,4.0222332E-4,-5.105138E-4,0.25468242,0.11,1.0,-0.05,15533,9957.60,0,0,165,0.84,-2.66,17.85,0.11,1.00,-0.05
0.08691406,-5.977759E-4,-5.105138E-4,0.001682441,0.11,1.0,-0.05,15541,9958.50,0,0,0,0.77,-2.66,0.14,0.11,1.00,-0.05
-0.81347656,-5.977759E-4,4.8948824E-4,0.001682441,0.11,1.0,-0.06,15556,9957.60,0,0,165,0.77,-2.59,0.14,0.11,1.00,-0.06
-0.81347656,4.0222332E-4,4.8948824E-4,-3.1755917E-4,0.11,1.0,-0.06,15572,9957.60,0,0,0,0.84,-2.59,0.00,0.11,1.00,-0.06
1.0869141,4.0222332E-4,-5.105138E-4,-0.0023175592,0.11,1.0,-0.06,15578,9959.50,0,0,165,0.84,-2.66,-0.14,0.11,1.00,-0.06
1.3867188,-5.977759E-4,-5.105138E-4,-0.0023175592,0.11,1.0,-0.06,15593,9959.80,0,0,0,0.77,-2.66,-0.14,0.11,1.00,-0.06
0.08691406,0.0014022244,4.8948824E-4,-3.1755917E-4,0.11,1.0,-0.06,15608,9958.50,0,0,165,0.91,-2.59,0.00,0.11,1.00,-0.06
1.0869141,0.0024022246,0.0014894903,6.824409E-4,0.11,1.0,-0.05,15615,9959.50,0,0,0,0.98,-2.52,0.07,0.11,1.00,-0.05
0.08691406,-5.977759E-4,4.8948824E-4,0.0026824407,0.11,1.0,-0.05,15631,9958.50,0,0,165,0.77,-2.59,0.21,0.11,1.00,-0.05
1.0869141,0.0014022244,-5.105138E-4,-3.1755917E-4,0.11,1.0,-0.06,15646,9959.50,0,0,0,0.91,-2.66,0.00,0.11,1.00,-0.06
1.0869141,-5.977759E-4,4.8948824E-4,-0.0013175593,0.11,1.0,-0.05,15653,9959.50,0,0,165,0.77,-2.59,-0.07,0.11,1.00,-0.05
-0.81347656,-5.977759E-4,-5.105138E-4,-0.2563176,0.11,1.0,-0.06,15669,9957.60,0,0,0,0.77,-2.66,-17.92,0.11,1.00,-0.06
0.08691406,4.0222332E-4,-5.105138E-4,-3.1755917E-4,0.11,1.0,-0.06,15676,9958.50,0,0,165,0.84,-2.66,0.00,0.11,1.00,-0.06
0.08691406,-5.977759E-4,-5.105138E-4,-3.1755917E-4,0.11,1.0,-0.05,15691,9958.50,0,0,0,0.77,-2.66,0.00,0.11,1.00,-0.05
-0.5126953,0.0014022244,4.8948824E-4,0.001682441,0.11,1.0,-0.05,15710,9957.90,0,0,165,0.91,-2.59,0.14,0.11,1.00,-0.05
0.08691406,-5.977759E-4,4.8948824E-4,0.001682441,0.11,1.0,-0.06,15713,9958.50,0,0,0,0.77,-2.59,0.14,0.11,1.00,-0.06
-0.81347656,0.0014022244,-5.105138E-4,6.824409E-4,0.11,1.0,-0.06,15728,9957.60,0,0,165,0.91,-2.66,0.07,0.11,1.00,-0.06
-0.81347656,4.0222332E-4,-5.105138E-4,-0.0023175592,0.11,1.0,-0.05,15743,9957.60,0,0,0,0.84,-2.66,-0.14,0.11,1.00,-0.05
0.08691406,0.0014022244,-0.0015105121,-0.0023175592,0.11,1.0,-0.06,15750,9958.50,0,0,165,0.91,-2.73,-0.14,0.11,1.00,-0.06
0.08691406,4.0222332E-4,4.8948824E-4,-3.1755917E-4,0.11,1.0,-0.05,15766,9958.50,0,0,0,0.84,-2.59,0.00,0.11,1.00,-0.05
0.4873047,4.0222332E-4,-5.105138E-4,0.001682441,0.11,1.0,-0.05,15781,9958.90,0,0,165,0.84,-2.66,0.14,0.11,1.00,-0.05
-0.81347656,-0.0015977761,4.8948824E-4,0.0026824407,0.12,1.0,-0.06,15788,9957.60,0,0,0,0.70,-2.59,0.21,0.12,1.00,-0.06
-0.21289062,0.0014022244,4.8948824E-4,-0.0013175593,0.11,1.0,-0.06,15805,9958.20,0,0,165,0.91,-2.59,-0.07,0.11,1.00,-0.06
0.08691406,0.004402225,4.8948824E-4,-0.003317559,0.11,1.0,-0.06,15818,9958.50,0,0,0,1.12,-2.59,-0.21,0.11,1.00,-0.06
-0.81347656,0.0034022238,4.8948824E-4,-0.0063175587,0.11,1.0,-0.06,15826,9957.60,0,0,165,1.05,-2.59,-0.42,0.11,1.00,-0.06
0.7871094,-5.977759E-4,0.0014894903,-0.0023175592,0.11,1.0,-0.06,15841,9959.20,0,0,0,0.77,-2.52,-0.14,0.11,1.00,-0.06
-0.21289062,-0.0015977761,-0.0015105121,0.0026824407,0.11,1.0,-0.06,15856,9958.20,0,0,165,0.70,-2.73,0.21,0.11,1.00,-0.06
0.08691406,-0.0045977756,0.0014894903,0.004682441,0.11,1.0,-0.06,15863,9958.50,0,0,0,0.49,-2.52,0.35,0.11,1.00,-0.06
0.08691406,-0.0055977763,4.8948824E-4,0.0056824405,0.11,1.0,-0.05,15878,9958.50,0,0,165,0.42,-2.59,0.42,0.11,1.00,-0.05
0.08691406,-0.0045977756,4.8948824E-4,0.0056824405,0.11,1.0,-0.05,15893,9958.50,0,0,0,0.49,-2.59,0.42,0.11,1.00,-0.05
1.0869141,-5.977759E-4,4.8948824E-4,-3.1755917E-4,0.11,1.0,-0.05,15900,9959.50,0,0,165,0.77,-2.59,0.00,0.11,1.00,-0.05
0.08691406,0.0034022238,4.8948824E-4,-0.003317559,0.11,1.0,-0.05,15915,9958.50,0,0,0,1.05,-2.59,-0.21,0.11,1.00,-0.05
0.08691406,0.004402225,-0.0015105121,-0.00831756,0.11,1.0,-0.05,15931,9958.50,0,0,165,1.12,-2.73,-0.56,0.11,1.00,-0.05
0.08691406,0.004402225,4.8948824E-4,-0.00831756,0.11,1.0,-0.06,15938,9958.50,0,0,0,1.12,-2.59,-0.56,0.11,1.00,-0.06
0.08691406,0.0014022244,4.8948824E-4,-0.0023175592,0.11,1.0,-0.06,15953,9958.50,0,0,165,0.91,-2.59,-0.14,0.11,1.00,-0.06
-0.81347656,4.0222332E-4,4.8948824E-4,0.001682441,0.11,1.0,-0.06,15968,9957.60,0,0,0,0.84,-2.59,0.14,0.11,1.00,-0.06
-0.81347656,-0.0035977755,4.8948824E-4,0.004682441,0.11,1.0,-0.05,15976,9957.60,0,0,165,0.56,-2.59,0.35,0.11,1.00,-0.05
0.08691406,-0.0035977755,0.0014894903,0.004682441,0.11,1.0,-0.05,15990,9958.50,0,0,0,0.56,-2.52,0.35,0.11,1.00,-0.05
0.08691406,-5.977759E-4,-5.105138E-4,0.0026824407,0.11,1.0,-0.06,16005,9958.50,0,0,165,0.77,-2.66,0.21,0.11,1.00,-0.06
0.08691406,0.0014022244,-0.0015105121,-0.003317559,0.11,1.0,-0.05,16021,9958.50,0,0,0,0.91,-2.73,-0.21,0.11,1.00,-0.05
0.08691406,0.0034022238,0.0014894903,-0.0023175592,0.11,1.0,-0.06,16028,9958.50,0,0,165,1.05,-2.52,-0.14,0.11,1.00,-0.06
0.08691406,0.0014022244,-5.105138E-4,-3.1755917E-4,0.11,1.0,-0.06,16044,9958.50,0,0,0,0.91,-2.66,0.00,0.11,1.00,-0.06
0.7871094,-0.0015977761,4.8948824E-4,6.824409E-4,0.11,1.0,-0.06,16052,9959.20,0,0,165,0.70,-2.59,0.07,0.11,1.00,-0.06
-0.5126953,-0.0015977761,-0.0015105121,0.0026824407,0.11,1.0,-0.05,16065,9957.90,0,0,0,0.70,-2.73,0.21,0.11,1.00,-0.05
0.08691406,-0.0035977755,4.8948824E-4,0.004682441,0.12,1.0,-0.05,16074,9958.50,0,0,165,0.56,-2.59,0.35,0.12,1.00,-0.05
0.08691406,-0.0015977761,4.8948824E-4,0.0026824407,0.11,1.0,-0.06,16089,9958.50,0,0,0,0.70,-2.59,0.21,0.11,1.00,-0.06
-0.81347656,0.0034022238,0.0014894903,-0.0013175593,0.11,1.0,-0.05,16104,9957.60,0,0,165,1.05,-2.52,-0.07,0.11,1.00,-0.05
0.08691406,0.005402225,-0.0015105121,-0.00831756,0.11,1.0,-0.06,16111,9958.50,0,0,0,1.19,-2.73,-0.56,0.11,1.00,-0.06
0.08691406,0.0064022234,0.0014894903,-0.00831756,0.11,1.0,-0.05,16126,9958.50,0,0,165,1.26,-2.52,-0.56,0.11,1.00,-0.05
0.08691406,0.0024022246,-5.105138E-4,-0.005317559,0.11,1.0,-0.06,16141,9958.50,0,0,0,0.98,-2.66,-0.35,0.11,1.00,-0.06
0.08691406,-5.977759E-4,4.8948824E-4,0.001682441,0.11,1.0,-0.06,16148,9958.50,0,0,165,0.77,-2.59,0.14,0.11,1.00,-0.06
0.08691406,-0.0045977756,-5.105138E-4,0.00868244,0.11,1.0,-0.06,16164,9958.50,0,0,0,0.49,-2.66,0.63,0.11,1.00,-0.06
0.08691406,-0.0055977763,-0.0015105121,0.00868244,0.12,1.0,-0.05,16178,9958.50,0,0,165,0.42,-2.73,0.63,0.12,1.00,-0.05
-0.21289062,-0.0025977762,4.8948824E-4,0.004682441,0.11,1.0,-0.06,16188,9958.20,0,0,0,0.63,-2.59,0.35,0.11,1.00,-0.06
0.08691406,-5.977759E-4,4.8948824E-4,6.824409E-4,0.11,1.0,-0.06,16201,9958.50,0,0,165,0.77,-2.59,0.07,0.11,1.00,-0.06
0.08691406,0.0014022244,4.8948824E-4,-0.0023175592,0.11,1.0,-0.05,16216,9958.50,0,0,0,0.91,-2.59,-0.14,0.11,1.00,-0.05
1.0869141,0.0024022246,4.8948824E-4,-0.0043175593,0.11,1.0,-0.06,16223,9959.50,0,0,165,0.98,-2.59,-0.28,0.11,1.00,-0.06
0.08691406,4.0222332E-4,-5.105138E-4,-0.003317559,0.11,1.0,-0.06,16238,9958.50,0,0,0,0.84,-2.66,-0.21,0.11,1.00,-0.06
0.08691406,0.0014022244,0.0014894903,6.824409E-4,0.11,1.0,-0.06,16253,9958.50,0,0,165,0.91,-2.52,0.07,0.11,1.00,-0.06
0.4873047,-0.0015977761,4.8948824E-4,6.824409E-4,0.11,1.0,-0.05,16261,9958.90,0,0,0,0.70,-2.59,0.07,0.11,1.00,-0.05
0.4873047,-5.977759E-4,-5.105138E-4,-3.1755917E-4,0.11,1.0,-0.06,16275,9958.90,0,0,165,0.77,-2.66,0.00,0.11,1.00,-0.06
0.08691406,0.0014022244,4.8948824E-4,-0.0023175592,0.12,1.0,-0.06,16290,9958.50,0,0,0,0.91,-2.59,-0.14,0.12,1.00,-0.06
0.08691406,0.0024022246,-5.105138E-4,-0.0043175593,0.12,1.0,-0.06,16298,9958.50,0,0,165,0.98,-2.66,-0.28,0.12,1.00,-0.06
0.4873047,0.0024022246,-0.0015105121,-0.0043175593,0.11,1.0,-0.06,16313,9958.90,0,0,0,0.98,-2.73,-0.28,0.11,1.00,-0.06
1.3867188,0.0014022244,4.8948824E-4,-3.1755917E-4,0.11,1.0,-0.06,16328,9959.80,0,0,165,0.91,-2.59,0.00,0.11,1.00,-0.06
0.08691406,-0.0035977755,4.8948824E-4,0.003682441,0.11,1.0,-0.05,16336,9958.50,0,0,0,0.56,-2.59,0.28,0.11,1.00,-0.05
-0.81347656,-0.006597776,4.8948824E-4,0.006682441,0.11,1.0,-0.05,16350,9957.60,0,0,165,0.35,-2.59,0.49,0.11,1.00,-0.05
-0.81347656,-0.0055977763,4.8948824E-4,0.00868244,0.11,1.0,-0.05,16365,9957.60,0,0,0,0.42,-2.59,0.63,0.11,1.00,-0.05
1.0869141,-0.0045977756,4.8948824E-4,0.004682441,0.11,1.0,-0.05,16373,9959.50,0,0,165,0.49,-2.59,0.35,0.11,1.00,-0.05
0.08691406,0.0014022244,0.0014894903,6.824409E-4,0.11,1.0,-0.05,16388,9958.50,0,0,0,0.91,-2.52,0.07,0.11,1.00,-0.05
-0.81347656,0.0034022238,-0.0015105121,-0.009317559,0.11,1.0,-0.05,16403,9957.60,0,0,165,1.05,-2.73,-0.63,0.11,1.00,-0.05
0.08691406,0.0074022254,4.8948824E-4,-0.012317559,0.11,1.0,-0.06,16411,9958.50,0,0,0,1.33,-2.59,-0.84,0.11,1.00,-0.06
-0.5126953,0.005402225,-5.105138E-4,-0.0063175587,0.11,1.0,-0.06,16426,9957.90,0,0,165,1.19,-2.66,-0.42,0.11,1.00,-0.06
0.08691406,4.0222332E-4,0.0024894886,6.824409E-4,0.11,1.0,-0.06,16441,9958.50,0,0,0,0.84,-2.45,0.07,0.11,1.00,-0.06
0.08691406,-0.0025977762,4.8948824E-4,0.006682441,0.11,1.0,-0.06,16448,9958.50,0,0,165,0.63,-2.59,0.49,0.11,1.00,-0.06
-0.81347656,-0.006597776,-5.105138E-4,0.006682441,0.11,1.0,-0.06,16463,9957.60,0,0,0,0.35,-2.66,0.49,0.11,1.00,-0.06
-0.81347656,-0.0015977761,0.0014894903,0.003682441,0.12,1.0,-0.05,16478,9957.60,0,0,165,0.70,-2.52,0.28,0.12,1.00,-0.05
0.08691406,-5.977759E-4,-5.105138E-4,-3.1755917E-4,0.11,1.0,-0.05,16485,9958.50,0,0,0,0.77,-2.66,0.00,0.11,1.00,-0.05
-0.81347656,0.0024022246,4.8948824E-4,-0.003317559,0.11,1.0,-0.06,16501,9957.60,0,0,165,0.98,-2.59,-0.21,0.11,1.00,-0.06
-0.81347656,4.0222332E-4,4.8948824E-4,-0.0023175592,0.11,1.0,-0.05,16515,9957.60,0,0,0,0.84,-2.59,-0.14,0.11,1.00,-0.05
0.08691406,-5.977759E-4,-0.0015105121,-3.1755917E-4,0.11,1.0,-0.06,16523,9958.50,0,0,165,0.77,-2.73,0.00,0.11,1.00,-0.06
0.08691406,-0.0015977761,-5.105138E-4,0.003682441,0.11,1.0,-0.05,16539,9958.50,0,0,0,0.70,-2.66,0.28,0.11,1.00,-0.05
1.0869141,-0.0025977762,0.0014894903,0.0056824405,0.11,1.0,-0.05,16555,9959.50,0,0,165,0.63,-2.52,0.42,0.11,1.00,-0.05
-0.81347656,-0.0015977761,-5.105138E-4,0.001682441,0.11,1.0,-0.05,16561,9957.60,0,0,0,0.70,-2.66,0.14,0.11,1.00,-0.05
0.08691406,0.0034022238,4.8948824E-4,-0.005317559,0.12,1.0,-0.05,16576,9958.50,0,0,165,1.05,-2.59,-0.35,0.12,1.00,-0.05
0.08691406,0.0064022234,-5.105138E-4,-0.010317559,0.11,1.0,-0.06,16590,9958.50,0,0,0,1.26,-2.66,-0.70,0.11,1.00,-0.06
-0.81347656,0.004402225,4.8948824E-4,-0.00831756,0.11,1.0,-0.06,16598,9957.60,0,0,165,1.12,-2.59,-0.56,0.11,1.00,-0.06
0.08691406,4.0222332E-4,-5.105138E-4,-0.0023175592,0.11,1.0,-0.06,16613,9958.50,0,0,0,0.84,-2.66,-0.14,0.11,1.00,-0.06
-0.81347656,-0.0015977761,-5.105138E-4,0.003682441,0.11,1.0,-0.06,16628,9957.60,0,0,165,0.70,-2.66,0.28,0.11,1.00,-0.06
0.08691406,-0.006597776,4.8948824E-4,0.00968244,0.11,1.0,-0.05,16636,9958.50,0,0,0,0.35,-2.59,0.70,0.11,1.00,-0.05
0.08691406,-0.0055977763,-0.0015105121,0.00868244,0.11,1.0,-0.05,16651,9958.50,0,0,165,0.42,-2.73,0.63,0.11,1.00,-0.05
0.08691406,-0.0025977762,-5.105138E-4,0.001682441,0.11,1.0,-0.06,16666,9958.50,0,0,0,0.63,-2.66,0.14,0.11,1.00,-0.06
-0.81347656,0.0014022244,4.8948824E-4,-0.0023175592,0.11,1.0,-0.06,16673,9957.60,0,0,165,0.91,-2.59,-0.14,0.11,1.00,-0.06
0.08691406,0.005402225,-5.105138E-4,-0.010317559,0.11,1.0,-0.06,16688,9958.50,0,0,0,1.19,-2.66,-0.70,0.11,1.00,-0.06
0.08691406,0.004402225,4.8948824E-4,-0.005317559,0.11,1.0,-0.06,16703,9958.50,0,0,165,1.12,-2.59,-0.35,0.11,1.00,-0.06
-0.21289062,0.0024022246,4.8948824E-4,-3.1755917E-4,0.11,1.0,-0.06,16710,9958.20,0,0,0,0.98,-2.59,0.00,0.11,1.00,-0.06
-0.81347656,-0.0015977761,-5.105138E-4,0.003682441,0.11,1.0,-0.06,16725,9957.60,0,0,165,0.70,-2.66,0.28,0.11,1.00,-0.06
-0.81347656,-0.0055977763,4.8948824E-4,0.004682441,0.11,1.0,-0.05,16740,9957.60,0,0,0,0.42,-2.59,0.35,0.11,1.00,-0.05
0.08691406,-0.0025977762,4.8948824E-4,0.003682441,0.11,1.0,-0.05,16748,9958.50,0,0,165,0.63,-2.59,0.28,0.11,1.00,-0.05
1.0869141,-0.0015977761,4.8948824E-4,6.824409E-4,0.11,1.0,-0.05,16763,9959.50,0,0,0,0.70,-2.59,0.07,0.11,1.00,-0.05
0.08691406,0.0014022244,-5.105138E-4,-0.003317559,0.11,1.0,-0.05,16778,9958.50,0,0,165,0.91,-2.66,-0.21,0.11,1.00,-0.05
-0.81347656,0.004402225,-5.105138E-4,-0.005317559,0.11,1.0,-0.06,16786,9957.60,0,0,0,1.12,-2.66,-0.35,0.11,1.00,-0.06
0.08691406,0.005402225,0.0014894903,-0.003317559,0.11,1.0,-0.06,16801,9958.50,0,0,165,1.19,-2.52,-0.21,0.11,1.00,-0.06
0.08691406,-0.0025977762,4.8948824E-4,6.824409E-4,0.11,1.0,-0.06,16816,9958.50,0,0,0,0.63,-2.59,0.07,0.11,1.00,-0.06
0.08691406,-0.0045977756,-0.0015105121,0.004682441,0.11,1.0,-0.06,16823,9958.50,0,0,165,0.49,-2.73,0.35,0.11,1.00,-0.06
0.08691406,-0.0035977755,4.8948824E-4,0.006682441,0.11,1.0,-0.06,16839,9958.50,0,0,0,0.56,-2.59,0.49,0.11,1.00,-0.06
0.08691406,-0.0025977762,-5.105138E-4,6.824409E-4,0.11,1.0,-0.06,16853,9958.50,0,0,165,0.63,-2.66,0.07,0.11,1.00,-0.06
1.0869141,0.0024022246,4.8948824E-4,-0.0013175593,0.11,1.0,-0.06,16860,9959.50,0,0,0,0.98,-2.59,-0.07,0.11,1.00,-0.06
-0.5126953,0.0024022246,-5.105138E-4,-0.0063175587,0.11,1.0,-0.06,16876,9957.90,0,0,165,0.98,-2.66,-0.42,0.11,1.00,-0.06
-0.81347656,0.0034022238,4.8948824E-4,-0.005317559,0.11,1.0,-0.06,16890,9957.60,0,0,0,1.05,-2.59,-0.35,0.11,1.00,-0.06
-0.5126953,0.0014022244,-5.105138E-4,6.824409E-4,0.11,1.0,-0.06,16898,9957.90,0,0,165,0.91,-2.66,0.07,0.11,1.00,-0.06
0.08691406,-0.0015977761,4.8948824E-4,0.004682441,0.11,1.0,-0.06,16914,9958.50,0,0,0,0.70,-2.59,0.35,0.11,1.00,-0.06
0.08691406,-0.0025977762,4.8948824E-4,0.00868244,0.11,1.0,-0.06,16928,9958.50,0,0,165,0.63,-2.59,0.63,0.11,1.00,-0.06
0.08691406,-0.0025977762,0.0014894903,0.0056824405,0.11,1.0,-0.06,16943,9958.50,0,0,0,0.63,-2.52,0.42,0.11,1.00,-0.06
0.4873047,4.0222332E-4,-5.105138E-4,-3.1755917E-4,0.11,1.0,-0.06,16951,9958.90,0,0,165,0.84,-2.66,0.00,0.11,1.00,-0.06
0.08691406,0.0034022238,4.8948824E-4,-0.0063175587,0.11,1.0,-0.06,16966,9958.50,0,0,0,1.05,-2.59,-0.42,0.11,1.00,-0.06
0.08691406,0.004402225,0.0014894903,-0.0073175593,0.11,1.0,-0.06,16973,9958.50,0,0,165,1.12,-2.52,-0.49,0.11,1.00,-0.06
0.4873047,0.0034022238,4.8948824E-4,-0.0013175593,0.11,1.0,-0.05,16988,9958.90,0,0,0,1.05,-2.59,-0.07,0.11,1.00,-0.05
0.08691406,4.0222332E-4,-0.0015105121,-3.1755917E-4,0.11,1.0,-0.06,17004,9958.50,0,0,165,0.84,-2.73,0.00,0.11,1.00,-0.06
0.08691406,-0.0015977761,-0.0015105121,6.824409E-4,0.11,1.0,-0.06,17010,9958.50,0,0,0,0.70,-2.73,0.07,0.11,1.00,-0.06
-0.81347656,-0.0015977761,4.8948824E-4,0.004682441,0.11,1.0,-0.06,17025,9957.60,0,0,165,0.70,-2.59,0.35,0.11,1.00,-0.06
-0.81347656,-0.0025977762,-0.0025105104,-3.1755917E-4,0.12,1.0,-0.06,17040,9957.60,0,0,0,0.63,-2.80,0.00,0.12,1.00,-0.06
0.08691406,-5.977759E-4,-5.105138E-4,-0.003317559,0.11,1.0,-0.06,17048,9958.50,0,0,165,0.77,-2.66,-0.21,0.11,1.00,-0.06
-0.81347656,0.0034022238,-5.105138E-4,-0.0043175593,0.11,1.0,-0.06,17062,9957.60,0,0,0,1.05,-2.66,-0.28,0.11,1.00,-0.06
-0.81347656,0.0014022244,-5.105138E-4,-0.0013175593,0.11,1.0,-0.06,17078,9957.60,0,0,165,0.91,-2.66,-0.07,0.11,1.00,-0.06
-0.81347656,-5.977759E-4,-5.105138E-4,-3.1755917E-4,0.11,1.0,-0.05,17086,9957.60,0,0,0,0.77,-2.66,0.00,0.11,1.00,-0.05
0.08691406,-0.0015977761,-5.105138E-4,0.001682441,0.11,1.0,-0.06,17101,9958.50,0,0,165,0.70,-2.66,0.14,0.11,1.00,-0.06
-0.81347656,-5.977759E-4,-5.105138E-4,6.824409E-4,0.11,1.0,-0.06,17116,9957.60,0,0,0,0.77,-2.66,0.07,0.11,1.00,-0.06
0.08691406,-5.977759E-4,0.0014894903,0.001682441,0.11,1.0,-0.05,17124,9958.50,0,0,165,0.77,-2.52,0.14,0.11,1.00,-0.05
0.08691406,0.0034022238,-5.105138E-4,-0.003317559,0.11,1.0,-0.05,17145,9958.50,0,0,0,1.05,-2.66,-0.21,0.11,1.00,-0.05
0.08691406,0.0034022238,4.8948824E-4,-0.005317559,0.11,1.0,-0.05,17153,9958.50,0,0,165,1.05,-2.59,-0.35,0.11,1.00,-0.05
1.0869141,0.0014022244,-5.105138E-4,-0.0043175593,0.11,1.0,-0.06,17160,9959.50,0,0,0,0.91,-2.66,-0.28,0.11,1.00,-0.06
-0.81347656,0.0014022244,4.8948824E-4,6.824409E-4,0.11,1.0,-0.06,17175,9957.60,0,0,165,0.91,-2.59,0.07,0.11,1.00,-0.06
-0.81347656,-0.0015977761,-5.105138E-4,0.003682441,0.11,1.0,-0.05,17191,9957.60,0,0,0,0.70,-2.66,0.28,0.11,1.00,-0.05
-0.81347656,-0.0035977755,-5.105138E-4,0.003682441,0.11,1.0,-0.05,17198,9957.60,0,0,165,0.56,-2.66,0.28,0.11,1.00,-0.05
0.08691406,-0.0025977762,0.0014894903,0.0056824405,0.11,1.0,-0.05,17213,9958.50,0,0,0,0.63,-2.52,0.42,0.11,1.00,-0.05
0.08691406,-0.0015977761,-5.105138E-4,0.0026824407,0.11,1.0,-0.05,17228,9958.50,0,0,165,0.70,-2.66,0.21,0.11,1.00,-0.05
0.08691406,4.0222332E-4,-5.105138E-4,-0.0023175592,0.11,1.0,-0.06,17236,9958.50,0,0,0,0.84,-2.66,-0.14,0.11,1.00,-0.06
-0.81347656,0.0014022244,-5.105138E-4,-0.003317559,0.11,1.0,-0.06,17250,9957.60,0,0,165,0.91,-2.66,-0.21,0.11,1.00,-0.06
-0.5126953,0.0024022246,-5.105138E-4,-0.003317559,0.11,1.0,-0.05,17266,9957.90,0,0,0,0.98,-2.66,-0.21,0.11,1.00,-0.05
0.08691406,-5.977759E-4,-5.105138E-4,-0.003317559,0.11,1.0,-0.06,17273,9958.50,0,0,165,0.77,-2.66,-0.21,0.11,1.00,-0.06
0.4873047,-0.0015977761,-5.105138E-4,-0.0013175593,0.11,1.0,-0.05,17288,9958.90,0,0,0,0.70,-2.66,-0.07,0.11,1.00,-0.05
1.0869141,4.0222332E-4,-0.0015105121,6.824409E-4,0.11,1.0,-0.05,17303,9959.50,0,0,165,0.84,-2.73,0.07,0.11,1.00,-0.05
0.4873047,-5.977759E-4,4.8948824E-4,0.001682441,0.12,1.0,-0.06,17310,9958.90,0,0,0,0.77,-2.59,0.14,0.12,1.00,-0.06
-0.81347656,-0.0015977761,-5.105138E-4,-3.1755917E-4,0.11,1.0,-0.06,17325,9957.60,0,0,165,0.70,-2.66,0.00,0.11,1.00,-0.06
0.08691406,0.0014022244,0.0014894903,-3.1755917E-4,0.11,1.0,-0.05,17341,9958.50,0,0,0,0.91,-2.52,0.00,0.11,1.00,-0.05
1.0869141,4.0222332E-4,4.8948824E-4,6.824409E-4,0.11,1.0,-0.05,17349,9959.50,0,0,165,0.84,-2.59,0.07,0.11,1.00,-0.05
-0.81347656,4.0222332E-4,4.8948824E-4,6.824409E-4,0.11,1.0,-0.06,17363,9957.60,0,0,0,0.84,-2.59,0.07,0.11,1.00,-0.06
0.08691406,-5.977759E-4,-5.105138E-4,6.824409E-4,0.11,1.0,-0.06,17378,9958.50,0,0,165,0.77,-2.66,0.07,0.11,1.00,-0.06
0.08691406,-5.977759E-4,-5.105138E-4,0.001682441,0.11,1.0,-0.05,17387,9958.50,0,0,0,0.77,-2.66,0.14,0.11,1.00,-0.05
0.08691406,-5.977759E-4,-5.105138E-4,6.824409E-4,0.11,1.0,-0.05,17402,9958.50,0,0,165,0.77,-2.66,0.07,0.11,1.00,-0.05
-0.81347656,-0.0015977761,-5.105138E-4,6.824409E-4,0.11,1.0,-0.06,17415,9957.60,0,0,0,0.70,-2.66,0.07,0.11,1.00,-0.06
0.08691406,0.0014022244,4.8948824E-4,-0.0013175593,0.11,1.0,-0.06,17423,9958.50,0,0,165,0.91,-2.59,-0.07,0.11,1.00,-0.06
0.08691406,0.0014022244,-5.105138E-4,-0.0043175593,0.11,1.0,-0.05,17439,9958.50,0,0,0,0.91,-2.66,-0.28,0.11,1.00,-0.05
1.3867188,0.0014022244,4.8948824E-4,-0.003317559,0.11,1.0,-0.06,17453,9959.80,0,0,165,0.91,-2.59,-0.21,0.11,1.00,-0.06
1.0869141,0.0014022244,-5.105138E-4,-0.0013175593,0.11,1.0,-0.05,17460,9959.50,0,0,0,0.91,-2.66,-0.07,0.11,1.00,-0.05
-0.5126953,0.0014022244,0.0014894903,0.001682441,0.11,1.0,-0.06,17476,9957.90,0,0,165,0.91,-2.52,0.14,0.11,1.00,-0.06
-0.81347656,-0.0025977762,-5.105138E-4,0.001682441,0.11,1.0,-0.05,17490,9957.60,0,0,0,0.63,-2.66,0.14,0.11,1.00,-0.05
0.08691406,-0.0025977762,4.8948824E-4,0.0026824407,0.11,1.0,-0.05,17498,9958.50,0,0,165,0.63,-2.59,0.21,0.11,1.00,-0.05
-0.81347656,4.0222332E-4,4.8948824E-4,0.0026824407,0.11,1.0,-0.05,17513,9957.60,0,0,0,0.84,-2.59,0.21,0.11,1.00,-0.05
0.08691406,-5.977759E-4,4.8948824E-4,-0.0013175593,0.12,1.0,-0.06,17528,9958.50,0,0,165,0.77,-2.59,-0.07,0.12,1.00,-0.06
0.08691406,0.0024022246,-5.105138E-4,-0.003317559,0.11,1.0,-0.06,17536,9958.50,0,0,0,0.98,-2.66,-0.21,0.11,1.00,-0.06
-0.5126953,0.0024022246,-5.105138E-4,-0.003317559,0.11,1.0,-0.06,17551,9957.90,0,0,165,0.98,-2.66,-0.21,0.11,1.00,-0.06
0.08691406,4.0222332E-4,4.8948824E-4,-0.0013175593,0.11,1.0,-0.06,17566,9958.50,0,0,0,0.84,-2.59,-0.07,0.11,1.00,-0.06
0.08691406,4.0222332E-4,4.8948824E-4,-3.1755917E-4,0.11,1.01,-0.06,17573,9958.50,0,0,165,0.84,-2.59,0.00,0.11,1.01,-0.06
0.08691406,-5.977759E-4,0.0014894903,0.003682441,0.11,1.0,-0.06,17588,9958.50,0,0,0,0.77,-2.52,0.28,0.11,1.00,-0.06
0.08691406,-0.0025977762,-5.105138E-4,0.003682441,0.11,1.0,-0.06,17604,9958.50,0,0,165,0.63,-2.66,0.28,0.11,1.00,-0.06
0.08691406,4.0222332E-4,0.0014894903,0.003682441,0.11,1.0,-0.06,17610,9958.50,0,0,0,0.84,-2.52,0.28,0.11,1.00,-0.06
-0.5126953,0.0014022244,-0.0015105121,6.824409E-4,0.11,1.0,-0.05,17625,9957.90,0,0,165,0.91,-2.73,0.07,0.11,1.00,-0.05
0.08691406,0.0034022238,4.8948824E-4,-3.1755917E-4,0.12,1.0,-0.06,17641,9958.50,0,0,0,1.05,-2.59,0.00,0.12,1.00,-0.06
0.08691406,0.0024022246,4.8948824E-4,-0.0023175592,0.11,1.0,-0.06,17648,9958.50,0,0,165,0.98,-2.59,-0.14,0.11,1.00,-0.06
-0.81347656,0.0034022238,-5.105138E-4,-0.0013175593,0.11,1.0,-0.05,17671,9957.60,0,0,0,1.05,-2.66,-0.07,0.11,1.00,-0.05
0.08691406,0.0014022244,4.8948824E-4,-0.0013175593,0.11,1.0,-0.06,17672,9958.50,0,0,165,0.91,-2.59,-0.07,0.11,1.00,-0.06
0.08691406,4.0222332E-4,0.0014894903,-3.1755917E-4,0.11,1.0,-0.06,17686,9958.50,0,0,0,0.84,-2.52,0.00,0.11,1.00,-0.06
0.08691406,-0.0015977761,4.8948824E-4,0.001682441,0.11,1.0,-0.06,17701,9958.50,0,0,165,0.70,-2.59,0.14,0.11,1.00,-0.06
-0.81347656,-5.977759E-4,-5.105138E-4,-3.1755917E-4,0.12,1.0,-0.06,17708,9957.60,0,0,0,0.77,-2.66,0.00,0.12,1.00,-0.06
0.08691406,4.0222332E-4,-5.105138E-4,0.0026824407,0.11,1.0,-0.05,17723,9958.50,0,0,165,0.84,-2.66,0.21,0.11,1.00,-0.05
0.08691406,4.0222332E-4,4.8948824E-4,-3.1755917E-4,0.11,1.0,-0.06,17738,9958.50,0,0,0,0.84,-2.59,0.00,0.11,1.00,-0.06
0.4873047,0.0014022244,-5.105138E-4,6.824409E-4,0.11,1.0,-0.05,17746,9958.90,0,0,165,0.91,-2.66,0.07,0.11,1.00,-0.05
-0.81347656,-5.977759E-4,-5.105138E-4,0.001682441,0.11,1.0,-0.06,17761,9957.60,0,0,0,0.77,-2.66,0.14,0.11,1.00,-0.06
0.08691406,4.0222332E-4,-5.105138E-4,0.001682441,0.11,1.0,-0.06,17783,9958.50,0,0,165,0.84,-2.66,0.14,0.11,1.00,-0.06
0.08691406,-5.977759E-4,-5.105138E-4,-3.1755917E-4,0.11,1.0,-0.06,17785,9958.50,0,0,0,0.77,-2.66,0.00,0.11,1.00,-0.06
0.08691406,-0.0015977761,-5.105138E-4,6.824409E-4,0.11,1.0,-0.06,17798,9958.50,0,0,165,0.70,-2.66,0.07,0.11,1.00,-0.06
-0.81347656,-5.977759E-4,-5.105138E-4,6.824409E-4,0.12,1.0,-0.06,17813,9957.60,0,0,0,0.77,-2.66,0.07,0.12,1.00,-0.06
0.08691406,0.0014022244,4.8948824E-4,-0.0013175593,0.11,1.0,-0.06,17821,9958.50,0,0,165,0.91,-2.59,-0.07,0.11,1.00,-0.06
0.08691406,0.0014022244,4.8948824E-4,-0.0023175592,0.11,1.0,-0.06,17851,9958.50,0,0,0,0.91,-2.59,-0.14,0.11,1.00,-0.06
0.08691406,4.0222332E-4,-0.0015105121,-0.0023175592,0.11,1.0,-0.06,17853,9958.50,0,0,165,0.84,-2.73,-0.14,0.11,1.00,-0.06
0.08691406,-5.977759E-4,4.8948824E-4,-0.003317559,0.11,1.0,-0.06,17858,9958.50,0,0,0,0.77,-2.59,-0.21,0.11,1.00,-0.06
0.08691406,4.0222332E-4,-5.105138E-4,-3.1755917E-4,0.11,1.0,-0.05,17873,9958.50,0,0,165,0.84,-2.66,0.00,0.11,1.00,-0.05
0.08691406,-5.977759E-4,0.0014894903,0.003682441,0.11,1.0,-0.06,17888,9958.50,0,0,0,0.77,-2.52,0.28,0.11,1.00,-0.06
0.08691406,-5.977759E-4,-5.105138E-4,0.001682441,0.11,1.0,-0.06,17895,9958.50,0,0,165,0.77,-2.66,0.14,0.11,1.00,-0.06
0.4873047,-0.0015977761,4.8948824E-4,0.001682441,0.11,1.0,-0.06,17911,9958.90,0,0,0,0.70,-2.59,0.14,0.11,1.00,-0.06
1.0869141,4.0222332E-4,0.0014894903,6.824409E-4,0.11,1.0,-0.06,17926,9959.50,0,0,165,0.84,-2.52,0.07,0.11,1.00,-0.06
0.08691406,-5.977759E-4,-5.105138E-4,-0.0013175593,0.11,1.0,-0.06,17933,9958.50,0,0,0,0.77,-2.66,-0.07,0.11,1.00,-0.06
0.08691406,-5.977759E-4,0.0014894903,-0.0013175593,0.11,1.0,-0.06,17948,9958.50,0,0,165,0.77,-2.52,-0.07,0.11,1.00,-0.06
0.08691406,-5.977759E-4,4.8948824E-4,6.824409E-4,0.11,1.0,-0.05,17963,9958.50,0,0,0,0.77,-2.59,0.07,0.11,1.00,-0.05
0.08691406,0.0014022244,4.8948824E-4,-0.0013175593,0.11,1.0,-0.05,17970,9958.50,0,0,165,0.91,-2.59,-0.07,0.11,1.00,-0.05
-2.413086,-5.977759E-4,0.0014894903,0.001682441,0.11,1.0,-0.06,17985,9956.00,0,0,0,0.77,-2.52,0.14,0.11,1.00,-0.06
0.4873047,0.0014022244,4.8948824E-4,6.824409E-4,0.11,1.0,-0.05,18001,9958.90,0,0,165,0.91,-2.59,0.07,0.11,1.00,-0.05
0.08691406,0.0014022244,4.8948824E-4,-3.1755917E-4,0.11,1.0,-0.05,18008,9958.50,0,0,0,0.91,-2.59,0.00,0.11,1.00,-0.05
-0.81347656,0.0024022246,0.0014894903,-0.0013175593,0.11,1.0,-0.05,18024,9957.60,0,0,165,0.98,-2.52,-0.07,0.11,1.00,-0.05
0.08691406,4.0222332E-4,-0.0015105121,6.824409E-4,0.11,1.0,-0.06,18039,9958.50,0,0,0,0.84,-2.73,0.07,0.11,1.00,-0.06
0.08691406,4.0222332E-4,-0.0015105121,6.824409E-4,0.11,1.0,-0.06,18046,9958.50,0,0,165,0.84,-2.73,0.07,0.11,1.00,-0.06
-0.81347656,-5.977759E-4,-5.105138E-4,0.001682441,0.11,1.0,-0.06,18061,9957.60,0,0,0,0.77,-2.66,0.14,0.11,1.00,-0.06
0.08691406,-0.0015977761,-5.105138E-4,0.001682441,0.11,1.0,-0.06,18075,9958.50,0,0,165,0.70,-2.66,0.14,0.11,1.00,-0.06
0.4873047,-0.0035977755,4.8948824E-4,0.001682441,0.11,1.0,-0.06,18083,9958.90,0,0,0,0.56,-2.59,0.14,0.11,1.00,-0.06
0.08691406,-5.977759E-4,0.0014894903,0.0026824407,0.11,1.0,-0.06,18098,9958.50,0,0,165,0.77,-2.52,0.21,0.11,1.00,-0.06
0.08691406,0.0024022246,4.8948824E-4,-3.1755917E-4,0.11,1.0,-0.06,18113,9958.50,0,0,0,0.98,-2.59,0.00,0.11,1.00,-0.06
0.08691406,0.0014022244,0.0014894903,-3.1755917E-4,0.11,1.0,-0.06,18121,9958.50,0,0,165,0.91,-2.52,0.00,0.11,1.00,-0.06
0.08691406,0.0024022246,4.8948824E-4,-3.1755917E-4,0.11,1.0,-0.06,18136,9958.50,0,0,0,0.98,-2.59,0.00,0.11,1.00,-0.06
0.08691406,-0.0015977761,-5.105138E-4,-0.0013175593,0.11,1.0,-0.05,18151,9958.50,0,0,165,0.70,-2.66,-0.07,0.11,1.00,-0.05
0.08691406,-5.977759E-4,-5.105138E-4,-3.1755917E-4,0.11,1.0,-0.06,18158,9958.50,0,0,0,0.77,-2.66,0.00,0.11,1.00,-0.06
0.08691406,4.0222332E-4,-5.105138E-4,6.824409E-4,0.11,1.0,-0.06,18173,9958.50,0,0,165,0.84,-2.66,0.07,0.11,1.00,-0.06
0.08691406,-5.977759E-4,-5.105138E-4,-0.0013175593,0.11,1.0,-0.06,18188,9958.50,0,0,0,0.77,-2.66,-0.07,0.11,1.00,-0.06
-0.81347656,-5.977759E-4,-5.105138E-4,-0.0013175593,0.11,1.0,-0.06,18195,9957.60,0,0,165,0.77,-2.66,-0.07,0.11,1.00,-0.06
0.08691406,4.0222332E-4,0.0014894903,6.824409E-4,0.11,1.0,-0.06,18210,9958.50,0,0,0,0.84,-2.52,0.07,0.11,1.00,-0.06
0.08691406,-5.977759E-4,-0.0015105121,6.824409E-4,0.11,1.0,-0.06,18225,9958.50,0,0,165,0.77,-2.73,0.07,0.11,1.00,-0.06
0.08691406,-5.977759E-4,4.8948824E-4,0.001682441,0.11,1.0,-0.05,18233,9958.50,0,0,0,0.77,-2.59,0.14,0.11,1.00,-0.05
-0.5126953,4.0222332E-4,4.8948824E-4,0.0026824407,0.11,1.0,-0.05,18248,9957.90,0,0,165,0.84,-2.59,0.21,0.11,1.00,-0.05
1.0869141,-0.0025977762,-5.105138E-4,0.001682441,0.11,1.0,-0.05,18263,9959.50,0,0,0,0.63,-2.66,0.14,0.11,1.00,-0.05
0.08691406,0.0014022244,-0.0015105121,-0.0013175593,0.11,1.0,-0.06,18271,9958.50,0,0,165,0.91,-2.73,-0.07,0.11,1.00,-0.06
0.4873047,-5.977759E-4,-5.105138E-4,-0.0013175593,0.11,1.0,-0.05,18286,9958.90,0,0,0,0.77,-2.66,-0.07,0.11,1.00,-0.05
0.08691406,4.0222332E-4,-5.105138E-4,-0.0023175592,0.11,1.0,-0.06,18300,9958.50,0,0,165,0.84,-2.66,-0.14,0.11,1.00,-0.06
0.08691406,4.0222332E-4,-5.105138E-4,0.001682441,0.11,1.0,-0.05,18308,9958.50,0,0,0,0.84,-2.66,0.14,0.11,1.00,-0.05
-0.81347656,-5.977759E-4,4.8948824E-4,-0.0013175593,0.11,1.0,-0.05,18323,9957.60,0,0,165,0.77,-2.59,-0.07,0.11,1.00,-0.05
0.08691406,0.0014022244,4.8948824E-4,-3.1755917E-4,0.11,1.0,-0.06,18338,9958.50,0,0,0,0.91,-2.59,0.00,0.11,1.00,-0.06
-0.81347656,4.0222332E-4,4.8948824E-4,-3.1755917E-4,0.11,1.0,-0.06,18346,9957.60,0,0,165,0.84,-2.59,0.00,0.11,1.00,-0.06
-0.81347656,0.0024022246,-5.105138E-4,-3.1755917E-4,0.11,1.0,-0.06,18360,9957.60,0,0,0,0.98,-2.66,0.00,0.11,1.00,-0.06
-0.5126953,-5.977759E-4,0.0014894903,-3.1755917E-4,0.11,1.0,-0.05,18375,9957.90,0,0,165,0.77,-2.52,0.00,0.11,1.00,-0.05
0.4873047,-5.977759E-4,4.8948824E-4,6.824409E-4,0.11,1.0,-0.06,18383,9958.90,0,0,0,0.77,-2.59,0.07,0.11,1.00,-0.06
1.0869141,-5.977759E-4,4.8948824E-4,-3.1755917E-4,0.11,1.0,-0.06,18398,9959.50,0,0,165,0.77,-2.59,0.00,0.11,1.00,-0.06
0.08691406,-5.977759E-4,4.8948824E-4,0.0026824407,0.11,1.0,-0.06,18413,9958.50,0,0,0,0.77,-2.59,0.21,0.11,1.00,-0.06
-1.8134766,-0.0015977761,4.8948824E-4,-0.0013175593,0.11,1.0,-0.06,18421,9956.60,0,0,165,0.70,-2.59,-0.07,0.11,1.00,-0.06
-0.5126953,-5.977759E-4,4.8948824E-4,6.824409E-4,0.11,1.0,-0.06,18435,9957.90,0,0,0,0.77,-2.59,0.07,0.11,1.00,-0.06
1.3867188,0.0014022244,-5.105138E-4,6.824409E-4,0.11,1.0,-0.06,18451,9959.80,0,0,165,0.91,-2.66,0.07,0.11,1.00,-0.06
0.08691406,4.0222332E-4,-5.105138E-4,0.001682441,0.11,1.0,-0.05,18458,9958.50,0,0,0,0.84,-2.66,0.14,0.11,1.00,-0.05
0.08691406,4.0222332E-4,4.8948824E-4,6.824409E-4,0.11,1.0,-0.05,18474,9958.50,0,0,165,0.84,-2.59,0.07,0.11,1.00,-0.05
1.0869141,-5.977759E-4,-5.105138E-4,-0.0013175593,0.11,1.0,-0.06,18489,9959.50,0,0,0,0.77,-2.66,-0.07,0.11,1.00,-0.06
0.08691406,0.0014022244,-0.0015105121,-0.003317559,0.11,1.0,-0.06,18496,9958.50,0,0,165,0.91,-2.73,-0.21,0.11,1.00,-0.06
0.4873047,4.0222332E-4,-5.105138E-4,-0.0013175593,0.11,1.0,-0.05,18511,9958.90,0,0,0,0.84,-2.66,-0.07,0.11,1.00,-0.05
0.08691406,-0.0015977761,-5.105138E-4,0.0026824407,0.11,1.0,-0.05,18530,9958.50,0,0,165,0.70,-2.66,0.21,0.11,1.00,-0.05
0.08691406,-5.977759E-4,-0.0015105121,6.824409E-4,0.11,1.0,-0.06,18533,9958.50,0,0,0,0.77,-2.73,0.07,0.11,1.00,-0.06
-1.5126953,-0.0015977761,-5.105138E-4,0.004682441,0.11,1.0,-0.06,18549,9956.90,0,0,165,0.70,-2.66,0.35,0.11,1.00,-0.06
0.4873047,-5.977759E-4,-5.105138E-4,0.0026824407,0.11,1.0,-0.06,18564,9958.90,0,0,0,0.77,-2.66,0.21,0.11,1.00,-0.06
-0.81347656,0.0014022244,4.8948824E-4,-3.1755917E-4,0.11,1.0,-0.06,18571,9957.60,0,0,165,0.91,-2.59,0.00,0.11,1.00,-0.06
0.08691406,4.0222332E-4,-5.105138E-4,-0.0023175592,0.11,1.0,-0.06,18586,9958.50,0,0,0,0.84,-2.66,-0.14,0.11,1.00,-0.06
1.3867188,4.0222332E-4,4.8948824E-4,-0.003317559,0.11,1.0,-0.06,18601,9959.80,0,0,165,0.84,-2.59,-0.21,0.11,1.00,-0.06
-0.81347656,-0.0015977761,4.8948824E-4,6.824409E-4,0.11,1.0,-0.05,18608,9957.60,0,0,0,0.70,-2.59,0.07,0.11,1.00,-0.05
0.08691406,-0.0015977761,0.0014894903,0.004682441,0.11,1.12,-0.05,18623,9958.50,0,0,165,0.70,-2.52,0.35,0.11,1.12,-0.05
0.4873047,-0.0015977761,-5.105138E-4,0.004682441,0.11,1.0,-0.05,18638,9958.90,0,0,0,0.70,-2.66,0.35,0.11,1.00,-0.05
-0.81347656,-0.0025977762,-5.105138E-4,0.003682441,0.11,1.0,-0.06,18645,9957.60,0,0,165,0.63,-2.66,0.28,0.11,1.00,-0.06
0.4873047,4.0222332E-4,4.8948824E-4,6.824409E-4,0.11,1.0,-0.06,18660,9958.90,0,0,0,0.84,-2.59,0.07,0.11,1.00,-0.06
-0.5126953,0.0014022244,-5.105138E-4,-0.003317559,0.11,1.0,-0.05,18675,9957.90,0,0,165,0.91,-2.66,-0.21,0.11,1.00,-0.05
-0.81347656,0.0014022244,-5.105138E-4,-0.0043175593,0.11,1.0,-0.05,18683,9957.60,0,0,0,0.91,-2.66,-0.28,0.11,1.00,-0.05
0.4873047,4.0222332E-4,-0.0015105121,-0.003317559,0.11,1.0,-0.05,18699,9958.90,0,0,165,0.84,-2.73,-0.21,0.11,1.00,-0.05
0.08691406,4.0222332E-4,4.8948824E-4,0.001682441,0.11,1.0,-0.05,18713,9958.50,0,0,0,0.84,-2.59,0.14,0.11,1.00,-0.05
-0.21289062,-0.0025977762,-5.105138E-4,0.0026824407,0.11,1.0,-0.06,18722,9958.20,0,0,165,0.63,-2.66,0.21,0.11,1.00,-0.06
-2.8134766,-0.0015977761,0.0014894903,0.003682441,0.11,1.0,-0.05,18737,9955.60,0,0,0,0.70,-2.52,0.28,0.11,1.00,-0.05
0.08691406,-0.0015977761,-5.105138E-4,6.824409E-4,0.11,1.0,-0.06,18751,9958.50,0,0,165,0.70,-2.66,0.07,0.11,1.00,-0.06
-0.5126953,0.0024022246,-5.105138E-4,-3.1755917E-4,0.11,1.0,-0.05,18758,9957.90,0,0,0,0.98,-2.66,0.00,0.11,1.00,-0.05
-0.5126953,0.0024022246,4.8948824E-4,-0.0023175592,0.11,1.0,-0.05,18773,9957.90,0,0,165,0.98,-2.59,-0.14,0.11,1.00,-0.05
-0.81347656,4.0222332E-4,0.0014894903,-0.0023175592,0.11,1.0,-0.06,18788,9957.60,0,0,0,0.84,-2.52,-0.14,0.11,1.00,-0.06
-0.81347656,-5.977759E-4,4.8948824E-4,-3.1755917E-4,0.11,1.0,-0.06,18796,9957.60,0,0,165,0.77,-2.59,0.00,0.11,1.00,-0.06
-0.81347656,-0.0025977762,4.8948824E-4,0.0026824407,0.11,1.0,-0.06,18811,9957.60,0,0,0,0.63,-2.59,0.21,0.11,1.00,-0.06
0.4873047,-0.0015977761,4.8948824E-4,0.004682441,0.11,1.0,-0.06,18825,9958.90,0,0,165,0.70,-2.59,0.35,0.11,1.00,-0.06
0.08691406,-0.0015977761,-5.105138E-4,0.0026824407,0.11,1.0,-0.06,18833,9958.50,0,0,0,0.70,-2.66,0.21,0.11,1.00,-0.06
0.4873047,-5.977759E-4,0.0014894903,-0.0013175593,0.11,1.0,-0.06,18848,9958.90,0,0,165,0.77,-2.52,-0.07,0.11,1.00,-0.06
1.0869141,0.0014022244,4.8948824E-4,-0.0043175593,0.11,1.0,-0.05,18862,9959.50,0,0,0,0.91,-2.59,-0.28,0.11,1.00,-0.05
0.4873047,0.0034022238,-5.105138E-4,-0.0043175593,0.11,1.0,-0.06,18871,9958.90,0,0,165,1.05,-2.66,-0.28,0.11,1.00,-0.06
-0.5126953,0.0014022244,4.8948824E-4,-0.003317559,0.11,1.0,-0.06,18885,9957.90,0,0,0,0.91,-2.59,-0.21,0.11,1.00,-0.06
0.08691406,4.0222332E-4,-5.105138E-4,-3.1755917E-4,0.11,1.0,-0.06,18900,9958.50,0,0,165,0.84,-2.66,0.00,0.11,1.00,-0.06
-0.21289062,-0.0015977761,-5.105138E-4,0.001682441,0.11,1.0,-0.06,18907,9958.20,0,0,0,0.70,-2.66,0.14,0.11,1.00,-0.06
-0.5126953,-0.0015977761,-5.105138E-4,0.001682441,0.11,1.0,-0.05,18924,9957.90,0,0,165,0.70,-2.66,0.14,0.11,1.00,-0.05
-0.5126953,-0.0025977762,-0.0015105121,0.001682441,0.11,1.0,-0.05,18938,9957.90,0,0,0,0.63,-2.73,0.14,0.11,1.00,-0.05
0.4873047,-0.0015977761,0.0014894903,0.001682441,0.11,1.0,-0.05,18946,9958.90,0,0,165,0.70,-2.52,0.14,0.11,1.00,-0.05
-0.81347656,0.0014022244,4.8948824E-4,-0.0023175592,0.12,1.0,-0.06,18960,9957.60,0,0,0,0.91,-2.59,-0.14,0.12,1.00,-0.06
-0.81347656,0.0014022244,-5.105138E-4,-0.003317559,0.11,1.0,-0.06,18975,9957.60,0,0,165,0.91,-2.66,-0.21,0.11,1.00,-0.06
1.3867188,0.0014022244,-5.105138E-4,-0.003317559,0.11,1.0,-0.05,18990,9959.80,0,0,0,0.91,-2.66,-0.21,0.11,1.00,-0.05
1.0869141,4.0222332E-4,4.8948824E-4,0.0026824407,0.11,1.0,-0.06,18997,9959.50,0,0,165,0.84,-2.59,0.21,0.11,1.00,-0.06
0.08691406,-0.0015977761,4.8948824E-4,0.0026824407,0.11,1.0,-0.05,19012,9958.50,0,0,0,0.70,-2.59,0.21,0.11,1.00,-0.05
0.08691406,-0.0025977762,-5.105138E-4,0.0026824407,0.11,1.0,-0.06,19020,9958.50,0,0,165,0.63,-2.66,0.21,0.11,1.00,-0.06
0.08691406,-5.977759E-4,4.8948824E-4,-3.1755917E-4,0.11,1.0,-0.06,19036,9958.50,0,0,0,0.77,-2.59,0.00,0.11,1.00,-0.06
1.3867188,4.0222332E-4,4.8948824E-4,-0.25531757,0.11,1.0,-0.05,19050,9959.80,0,0,165,0.84,-2.59,-17.85,0.11,1.00,-0.05
0.08691406,0.0034022238,0.0014894903,-0.0043175593,0.11,1.0,-0.06,19058,9958.50,0,0,0,1.05,-2.52,-0.28,0.11,1.00,-0.06
0.08691406,0.0014022244,4.8948824E-4,-0.0043175593,0.11,1.0,-0.05,19073,9958.50,0,0,165,0.91,-2.59,-0.28,0.11,1.00,-0.05
-0.5126953,0.0024022246,4.8948824E-4,-0.0023175592,0.11,1.0,-0.06,19088,9957.90,0,0,0,0.98,-2.59,-0.14,0.11,1.00,-0.06
0.4873047,-5.977759E-4,4.8948824E-4,0.0026824407,0.11,1.0,-0.06,19103,9958.90,0,0,165,0.77,-2.59,0.21,0.11,1.00,-0.06
-0.81347656,-0.0025977762,4.8948824E-4,0.003682441,0.11,1.0,-0.06,19110,9957.60,0,0,0,0.63,-2.59,0.28,0.11,1.00,-0.06
0.4873047,-0.0025977762,-5.105138E-4,0.003682441,0.11,1.0,-0.06,19118,9958.90,0,0,165,0.63,-2.66,0.28,0.11,1.00,-0.06
-0.81347656,-0.0015977761,4.8948824E-4,6.824409E-4,0.11,1.0,-0.06,19132,9957.60,0,0,0,0.70,-2.59,0.07,0.11,1.00,-0.06
-0.21289062,4.0222332E-4,-0.0015105121,6.824409E-4,0.11,1.0,-0.06,19148,9958.20,0,0,165,0.84,-2.73,0.07,0.11,1.00,-0.06
0.4873047,0.0014022244,4.8948824E-4,-0.0013175593,0.12,1.0,-0.06,19156,9958.90,0,0,0,0.91,-2.59,-0.07,0.12,1.00,-0.06
-0.81347656,0.004402225,-5.105138E-4,-0.0013175593,0.11,1.0,-0.06,19171,9957.60,0,0,165,1.12,-2.66,-0.07,0.11,1.00,-0.06
-0.5126953,0.0014022244,0.0014894903,-0.003317559,0.11,1.0,-0.06,19186,9957.90,0,0,0,0.91,-2.52,-0.21,0.11,1.00,-0.06
0.08691406,-0.0015977761,-0.0015105121,6.824409E-4,0.11,1.0,-0.06,19193,9958.50,0,0,165,0.70,-2.73,0.07,0.11,1.00,-0.06
1.3867188,4.0222332E-4,-5.105138E-4,6.824409E-4,0.11,1.0,-0.05,19208,9959.80,0,0,0,0.84,-2.66,0.07,0.11,1.00,-0.05
-0.81347656,-0.0015977761,4.8948824E-4,6.824409E-4,0.11,1.0,-0.06,19223,9957.60,0,0,165,0.70,-2.59,0.07,0.11,1.00,-0.06
0.4873047,-5.977759E-4,-0.0015105121,6.824409E-4,0.11,1.0,-0.06,19230,9958.90,0,0,0,0.77,-2.73,0.07,0.11,1.00,-0.06
-0.81347656,-0.0015977761,-5.105138E-4,-0.25531757,0.11,1.0,-0.06,19245,9957.60,0,0,165,0.70,-2.66,-17.85,0.11,1.00,-0.06
-0.5126953,0.0014022244,4.8948824E-4,-0.0013175593,0.11,1.0,-0.06,19260,9957.90,0,0,0,0.91,-2.59,-0.07,0.11,1.00,-0.06
0.4873047,-5.977759E-4,-5.105138E-4,6.824409E-4,0.11,1.0,-0.05,19268,9958.90,0,0,165,0.77,-2.66,0.07,0.11,1.00,-0.05
-0.81347656,-5.977759E-4,-5.105138E-4,0.0026824407,0.11,1.0,-0.05,19283,9957.60,0,0,0,0.77,-2.66,0.21,0.11,1.00,-0.05
2.086914,-5.977759E-4,4.8948824E-4,0.001682441,0.11,1.0,-0.06,19298,9960.50,0,0,165,0.77,-2.59,0.14,0.11,1.00,-0.06
0.08691406,-5.977759E-4,4.8948824E-4,6.824409E-4,0.11,1.0,-0.06,19306,9958.50,0,0,0,0.77,-2.59,0.07,0.11,1.00,-0.06
0.08691406,0.0014022244,0.0014894903,6.824409E-4,0.11,1.0,-0.05,19321,9958.50,0,0,165,0.91,-2.52,0.07,0.11,1.00,-0.05
0.08691406,4.0222332E-4,4.8948824E-4,6.824409E-4,0.11,1.0,-0.06,19336,9958.50,0,0,0,0.84,-2.59,0.07,0.11,1.00,-0.06
0.4873047,0.0014022244,4.8948824E-4,0.001682441,0.11,1.0,-0.06,19343,9958.90,0,0,165,0.91,-2.59,0.14,0.11,1.00,-0.06
0.4873047,0.0014022244,-5.105138E-4,-0.0013175593,0.11,1.0,-0.06,19361,9958.90,0,0,0,0.91,-2.66,-0.07,0.11,1.00,-0.06
0.08691406,4.0222332E-4,0.0014894903,-0.0013175593,0.11,1.0,-0.05,19373,9958.50,0,0,165,0.84,-2.52,-0.07,0.11,1.00,-0.05
0.7871094,-5.977759E-4,0.0014894903,0.001682441,0.11,1.0,-0.05,19380,9959.20,0,0,0,0.77,-2.52,0.14,0.11,1.00,-0.05
-0.81347656,-5.977759E-4,0.0014894903,0.001682441,0.11,1.0,-0.06,19396,9957.60,0,0,165,0.77,-2.52,0.14,0.11,1.00,-0.06
0.4873047,-5.977759E-4,4.8948824E-4,0.003682441,0.11,1.0,-0.05,19411,9958.90,0,0,0,0.77,-2.59,0.28,0.11,1.00,-0.05
0.4873047,-5.977759E-4,4.8948824E-4,-3.1755917E-4,0.11,1.0,-0.06,19419,9958.90,0,0,165,0.77,-2.59,0.00,0.11,1.00,-0.06
0.4873047,4.0222332E-4,-5.105138E-4,-0.0023175592,0.11,1.0,-0.06,19433,9958.90,0,0,0,0.84,-2.66,-0.14,0.11,1.00,-0.06
0.4873047,0.0014022244,4.8948824E-4,-0.0013175593,0.11,1.0,-0.06,19449,9958.90,0,0,165,0.91,-2.59,-0.07,0.11,1.00,-0.06
0.08691406,4.0222332E-4,4.8948824E-4,-3.1755917E-4,0.11,1.0,-0.06,19455,9958.50,0,0,0,0.84,-2.59,0.00,0.11,1.00,-0.06
-0.81347656,-5.977759E-4,-5.105138E-4,-3.1755917E-4,0.12,1.0,-0.06,19471,9957.60,0,0,165,0.77,-2.66,0.00,0.12,1.00,-0.06
0.08691406,-0.0015977761,-5.105138E-4,-0.0013175593,0.11,1.0,-0.06,19485,9958.50,0,0,0,0.70,-2.66,-0.07,0.11,1.00,-0.06
-0.81347656,-0.0015977761,-5.105138E-4,0.001682441,0.11,1.0,-0.06,19493,9957.60,0,0,165,0.70,-2.66,0.14,0.11,1.00,-0.06
0.08691406,-0.0025977762,-0.0015105121,-3.1755917E-4,0.11,1.0,-0.05,19508,9958.50,0,0,0,0.63,-2.73,0.00,0.11,1.00,-0.05
-0.5126953,4.0222332E-4,4.8948824E-4,-3.1755917E-4,0.11,1.0,-0.05,19523,9957.90,0,0,165,0.84,-2.59,0.00,0.11,1.00,-0.05
0.4873047,-0.0015977761,4.8948824E-4,-0.0013175593,0.11,1.0,-0.06,19530,9958.90,0,0,0,0.70,-2.59,-0.07,0.11,1.00,-0.06
-0.5126953,4.0222332E-4,-0.0015105121,-0.0013175593,0.11,1.0,-0.06,19546,9957.90,0,0,165,0.84,-2.73,-0.07,0.11,1.00,-0.06
-0.81347656,-5.977759E-4,-5.105138E-4,-3.1755917E-4,0.11,1.0,-0.05,19561,9957.60,0,0,0,0.77,-2.66,0.00,0.11,1.00,-0.05
0.08691406,-0.0015977761,4.8948824E-4,6.824409E-4,0.11,1.0,-0.05,19568,9958.50,0,0,165,0.70,-2.59,0.07,0.11,1.00,-0.05
-0.5126953,-0.0015977761,-5.105138E-4,0.0026824407,0.11,1.0,-0.05,19583,9957.90,0,0,0,0.70,-2.66,0.21,0.11,1.00,-0.05
0.4873047,4.0222332E-4,4.8948824E-4,0.001682441,0.11,1.0,-0.06,19598,9958.90,0,0,165,0.84,-2.59,0.14,0.11,1.00,-0.06
0.4873047,0.0014022244,-5.105138E-4,-0.0023175592,0.11,1.0,-0.05,19605,9958.90,0,0,0,0.91,-2.66,-0.14,0.11,1.00,-0.05
1.3867188,0.0014022244,-0.0015105121,-0.003317559,0.11,1.0,-0.06,19626,9959.80,0,0,165,0.91,-2.73,-0.21,0.11,1.00,-0.06
0.08691406,0.0024022246,4.8948824E-4,-0.0043175593,0.11,1.0,-0.06,19637,9958.50,0,0,0,0.98,-2.59,-0.28,0.11,1.00,-0.06
-0.5126953,4.0222332E-4,-5.105138E-4,-3.1755917E-4,0.11,1.0,-0.06,19643,9957.90,0,0,165,0.84,-2.66,0.00,0.11,1.00,-0.06
0.08691406,-5.977759E-4,4.8948824E-4,6.824409E-4,0.11,1.0,-0.05,19658,9958.50,0,0,0,0.77,-2.59,0.07,0.11,1.00,-0.05
-0.21289062,-5.977759E-4,4.8948824E-4,0.001682441,0.11,1.0,-0.05,19673,9958.20,0,0,165,0.77,-2.59,0.14,0.11,1.00,-0.05
0.08691406,4.0222332E-4,-5.105138E-4,0.003682441,0.11,1.0,-0.06,19680,9958.50,0,0,0,0.84,-2.66,0.28,0.11,1.00,-0.06
1.3867188,-5.977759E-4,-5.105138E-4,0.001682441,0.11,1.0,-0.05,19696,9959.80,0,0,165,0.77,-2.66,0.14,0.11,1.00,-0.05
1.3867188,4.0222332E-4,-5.105138E-4,-0.0023175592,0.11,1.0,-0.06,19711,9959.80,0,0,0,0.84,-2.66,-0.14,0.11,1.00,-0.06
0.08691406,0.0024022246,-5.105138E-4,-0.0013175593,0.11,1.0,-0.06,19720,9958.50,0,0,165,0.98,-2.66,-0.07,0.11,1.00,-0.06
0.08691406,0.0014022244,-0.0025105104,-0.003317559,0.11,1.0,-0.06,19733,9958.50,0,0,0,0.91,-2.80,-0.21,0.11,1.00,-0.06
1.0869141,4.0222332E-4,4.8948824E-4,-0.0023175592,0.11,1.0,-0.06,19748,9959.50,0,0,165,0.84,-2.59,-0.14,0.11,1.00,-0.06
0.08691406,4.0222332E-4,-5.105138E-4,0.25368243,0.11,1.0,-0.06,19755,9958.50,0,0,0,0.84,-2.66,17.78,0.11,1.00,-0.06
0.08691406,-5.977759E-4,-5.105138E-4,0.001682441,0.11,1.0,-0.06,19772,9958.50,0,0,165,0.77,-2.66,0.14,0.11,1.00,-0.06
0.08691406,-0.0025977762,4.8948824E-4,0.003682441,0.11,1.0,-0.05,19786,9958.50,0,0,0,0.63,-2.59,0.28,0.11,1.00,-0.05
0.08691406,4.0222332E-4,4.8948824E-4,6.824409E-4,0.11,1.0,-0.05,19793,9958.50,0,0,165,0.84,-2.59,0.07,0.11,1.00,-0.05
-0.5126953,-5.977759E-4,4.8948824E-4,0.001682441,0.11,1.0,-0.05,19808,9957.90,0,0,0,0.77,-2.59,0.14,0.11,1.00,-0.05
0.08691406,0.0014022244,4.8948824E-4,-0.0013175593,0.11,1.0,-0.06,19823,9958.50,0,0,165,0.91,-2.59,-0.07,0.11,1.00,-0.06
0.4873047,0.0024022246,4.8948824E-4,-0.0013175593,0.11,1.0,-0.06,19830,9958.90,0,0,0,0.98,-2.59,-0.07,0.11,1.00,-0.06
0.4873047,0.0014022244,4.8948824E-4,-0.0013175593,0.11,1.0,-0.06,19846,9958.90,0,0,165,0.91,-2.59,-0.07,0.11,1.00,-0.06
0.4873047,-5.977759E-4,-5.105138E-4,-3.1755917E-4,0.11,1.0,-0.05,19860,9958.90,0,0,0,0.77,-2.66,0.00,0.11,1.00,-0.05
-0.5126953,-0.0015977761,4.8948824E-4,0.001682441,0.11,1.0,-0.06,19872,9957.90,0,0,165,0.70,-2.59,0.14,0.11,1.00,-0.06
0.4873047,-5.977759E-4,4.8948824E-4,6.824409E-4,0.11,1.0,-0.06,19883,9958.90,0,0,0,0.77,-2.59,0.07,0.11,1.00,-0.06
0.4873047,-5.977759E-4,4.8948824E-4,-3.1755917E-4,0.11,1.0,-0.06,19891,9958.90,0,0,165,0.77,-2.59,0.00,0.11,1.00,-0.06
0.08691406,-5.977759E-4,-5.105138E-4,-0.0013175593,0.11,1.0,-0.06,19906,9958.50,0,0,0,0.77,-2.66,-0.07,0.11,1.00,-0.06
0.4873047,-5.977759E-4,4.8948824E-4,-3.1755917E-4,0.11,1.0,-0.05,19921,9958.90,0,0,165,0.77,-2.59,0.00,0.11,1.00,-0.05
0.4873047,-5.977759E-4,4.8948824E-4,6.824409E-4,0.11,1.0,-0.05,19928,9958.90,0,0,0,0.77,-2.59,0.07,0.11,1.00,-0.05
0.4873047,0.0014022244,-5.105138E-4,6.824409E-4,0.11,1.0,-0.05,19943,9958.90,0,0,165,0.91,-2.66,0.07,0.11,1.00,-0.05
0.08691406,0.0014022244,4.8948824E-4,6.824409E-4,0.11,1.0,-0.05,19958,9958.50,0,0,0,0.91,-2.59,0.07,0.11,1.00,-0.05
0.4873047,0.0034022238,4.8948824E-4,-0.0023175592,0.11,1.0,-0.05,19966,9958.90,0,0,165,1.05,-2.59,-0.14,0.11,1.00,-0.05
-0.5126953,0.0014022244,-0.0015105121,-0.0043175593,0.11,1.0,-0.06,19980,9957.90,0,0,0,0.91,-2.73,-0.28,0.11,1.00,-0.06
0.08691406,0.0014022244,4.8948824E-4,-0.0023175592,0.12,1.0,-0.06,19995,9958.50,0,0,165,0.91,-2.59,-0.14,0.12,1.00,-0.06
-0.5126953,4.0222332E-4,-5.105138E-4,-0.0023175592,0.11,1.0,-0.06,20003,9957.90,0,0,0,0.84,-2.66,-0.14,0.11,1.00,-0.06
0.08691406,-0.0015977761,4.8948824E-4,6.824409E-4,0.11,1.0,-0.06,20018,9958.50,0,0,165,0.70,-2.59,0.07,0.11,1.00,-0.06
0.08691406,-0.0035977755,0.0014894903,0.004682441,0.11,1.0,-0.05,20033,9958.50,0,0,0,0.56,-2.52,0.35,0.11,1.00,-0.05
0.08691406,-0.0025977762,-0.0015105121,0.004682441,0.11,1.0,-0.05,20040,9958.50,0,0,165,0.63,-2.73,0.35,0.11,1.00,-0.05
-1.5126953,-0.0025977762,4.8948824E-4,0.0056824405,0.11,1.0,-0.05,20055,9956.90,0,0,0,0.63,-2.59,0.42,0.11,1.00,-0.05
-0.5126953,-5.977759E-4,-0.0015105121,-3.1755917E-4,0.11,1.0,-0.05,20071,9957.90,0,0,165,0.77,-2.73,0.00,0.11,1.00,-0.05
-0.81347656,4.0222332E-4,-0.0015105121,-0.0013175593,0.11,1.0,-0.05,20078,9957.60,0,0,0,0.84,-2.73,-0.07,0.11,1.00,-0.05
-0.81347656,0.004402225,-5.105138E-4,-0.003317559,0.11,1.0,-0.06,20093,9957.60,0,0,165,1.12,-2.66,-0.21,0.11,1.00,-0.06
0.4873047,0.0034022238,-0.0015105121,-0.0023175592,0.11,1.0,-0.06,20108,9958.90,0,0,0,1.05,-2.73,-0.14,0.11,1.00,-0.06
0.4873047,0.0024022246,4.8948824E-4,-0.0023175592,0.12,1.0,-0.06,20115,9958.90,0,0,165,0.98,-2.59,-0.14,0.12,1.00,-0.06
0.4873047,0.0014022244,0.0014894903,-0.0023175592,0.11,1.0,-0.06,20130,9958.90,0,0,0,0.91,-2.52,-0.14,0.11,1.00,-0.06
-0.81347656,-5.977759E-4,0.0014894903,-3.1755917E-4,0.11,1.0,-0.06,20146,9957.60,0,0,165,0.77,-2.52,0.00,0.11,1.00,-0.06
0.4873047,-5.977759E-4,4.8948824E-4,0.0026824407,0.11,1.0,-0.06,20154,9958.90,0,0,0,0.77,-2.59,0.21,0.11,1.00,-0.06
-0.5126953,-0.0035977755,4.8948824E-4,0.003682441,0.11,1.0,-0.05,20168,9957.90,0,0,165,0.56,-2.59,0.28,0.11,1.00,-0.05
-0.5126953,-0.0035977755,4.8948824E-4,0.003682441,0.11,1.0,-0.05,20183,9957.90,0,0,0,0.56,-2.59,0.28,0.11,1.00,-0.05
-0.81347656,-0.0035977755,-5.105138E-4,0.003682441,0.11,1.0,-0.05,20190,9957.60,0,0,165,0.56,-2.66,0.28,0.11,1.00,-0.05
0.4873047,4.0222332E-4,-0.0015105121,0.001682441,0.11,1.0,-0.06,20205,9958.90,0,0,0,0.84,-2.73,0.14,0.11,1.00,-0.06
0.4873047,0.004402225,4.8948824E-4,-0.0023175592,0.11,1.0,-0.05,20221,9958.90,0,0,165,1.12,-2.59,-0.14,0.11,1.00,-0.05
0.4873047,0.0014022244,-0.0015105121,-0.005317559,0.12,1.0,-0.06,20228,9958.90,0,0,0,0.91,-2.73,-0.35,0.12,1.00,-0.06
0.4873047,0.0024022246,-5.105138E-4,-0.0023175592,0.12,1.0,-0.06,20242,9958.90,0,0,165,0.98,-2.66,-0.14,0.12,1.00,-0.06
0.4873047,4.0222332E-4,4.8948824E-4,-0.0023175592,0.11,1.0,-0.06,20258,9958.90,0,0,0,0.84,-2.59,-0.14,0.11,1.00,-0.06
0.4873047,-0.0015977761,4.8948824E-4,0.001682441,0.11,1.0,-0.06,20265,9958.90,0,0,165,0.70,-2.59,0.14,0.11,1.00,-0.06
0.4873047,-0.0035977755,0.0014894903,0.004682441,0.11,1.0,-0.05,20280,9958.90,0,0,0,0.56,-2.52,0.35,0.11,1.00,-0.05
0.4873047,-0.0025977762,4.8948824E-4,0.006682441,0.11,1.0,-0.05,20295,9958.90,0,0,165,0.63,-2.59,0.49,0.11,1.00,-0.05
0.4873047,-0.0015977761,4.8948824E-4,0.0026824407,0.11,1.0,-0.05,20303,9958.90,0,0,0,0.70,-2.59,0.21,0.11,1.00,-0.05
-0.5126953,0.0014022244,-0.0015105121,-0.003317559,0.11,1.0,-0.05,20318,9957.90,0,0,165,0.91,-2.73,-0.21,0.11,1.00,-0.05
0.4873047,0.004402225,-5.105138E-4,-0.0063175587,0.11,1.0,-0.06,20333,9958.90,0,0,0,1.12,-2.66,-0.42,0.11,1.00,-0.06
0.4873047,0.004402225,4.8948824E-4,-0.003317559,0.11,1.0,-0.06,20340,9958.90,0,0,165,1.12,-2.59,-0.21,0.11,1.00,-0.06
0.4873047,-0.0015977761,-5.105138E-4,6.824409E-4,0.11,1.0,-0.06,20355,9958.90,0,0,0,0.70,-2.66,0.07,0.11,1.00,-0.06
1.3867188,-0.0025977762,0.0024894886,0.004682441,0.11,1.0,-0.06,20371,9959.80,0,0,165,0.63,-2.45,0.35,0.11,1.00,-0.06
0.08691406,-0.0045977756,0.0014894903,0.006682441,0.11,1.0,-0.06,20378,9958.50,0,0,0,0.49,-2.52,0.49,0.11,1.00,-0.06
0.4873047,-0.0045977756,0.0014894903,0.003682441,0.11,1.0,-0.06,20393,9958.90,0,0,165,0.49,-2.52,0.28,0.11,1.00,-0.06
0.08691406,-0.0015977761,0.0014894903,6.824409E-4,0.11,1.0,-0.05,20407,9958.50,0,0,0,0.70,-2.52,0.07,0.11,1.00,-0.05
0.4873047,4.0222332E-4,-5.105138E-4,0.25368243,0.11,1.0,-0.05,20416,9958.90,0,0,165,0.84,-2.66,17.78,0.11,1.00,-0.05
0.4873047,0.004402225,4.8948824E-4,-0.003317559,0.11,1.0,-0.05,20431,9958.90,0,0,0,1.12,-2.59,-0.21,0.11,1.00,-0.05
-0.5126953,0.0024022246,-0.0015105121,-0.0023175592,0.11,1.0,-0.05,20446,9957.90,0,0,165,0.98,-2.73,-0.14,0.11,1.00,-0.05
1.0869141,0.0024022246,-0.0015105121,-0.0013175593,0.11,1.0,-0.06,20454,9959.50,0,0,0,0.98,-2.73,-0.07,0.11,1.00,-0.06
2.086914,4.0222332E-4,-0.0015105121,-3.1755917E-4,0.12,1.0,-0.06,20468,9960.50,0,0,165,0.84,-2.73,0.00,0.12,1.00,-0.06
-0.5126953,0.0014022244,4.8948824E-4,-3.1755917E-4,0.12,1.0,-0.06,20483,9957.90,0,0,0,0.91,-2.59,0.00,0.12,1.00,-0.06
0.4873047,-5.977759E-4,-5.105138E-4,-0.0023175592,0.12,1.0,-0.06,20490,9958.90,0,0,165,0.77,-2.66,-0.14,0.12,1.00,-0.06
0.4873047,4.0222332E-4,-5.105138E-4,-0.0013175593,0.11,1.0,-0.06,20505,9958.90,0,0,0,0.84,-2.66,-0.07,0.11,1.00,-0.06
0.4873047,4.0222332E-4,-5.105138E-4,-0.0023175592,0.11,1.0,-0.06,20520,9958.90,0,0,165,0.84,-2.66,-0.14,0.11,1.00,-0.06
0.08691406,-0.0025977762,0.0014894903,6.824409E-4,0.11,1.0,-0.05,20527,9958.50,0,0,0,0.63,-2.52,0.07,0.11,1.00,-0.05
-0.5126953,-0.0015977761,-5.105138E-4,0.003682441,0.11,1.0,-0.05,20543,9957.90,0,0,165,0.70,-2.66,0.28,0.11,1.00,-0.05
0.4873047,-0.0045977756,-5.105138E-4,0.0056824405,0.11,1.0,-0.05,20558,9958.90,0,0,0,0.49,-2.66,0.42,0.11,1.00,-0.05
1.0869141,-0.0015977761,-0.0025105104,0.0026824407,0.11,1.0,-0.05,20565,9959.50,0,0,165,0.70,-2.80,0.21,0.11,1.00,-0.05
0.4873047,-5.977759E-4,-5.105138E-4,6.824409E-4,0.12,1.0,-0.05,20580,9958.90,0,0,0,0.77,-2.66,0.07,0.12,1.00,-0.05
0.4873047,0.004402225,0.0014894903,-0.0023175592,0.12,1.0,-0.06,20595,9958.90,0,0,165,1.12,-2.52,-0.14,0.12,1.00,-0.06
-0.5126953,0.0034022238,0.0014894903,-0.005317559,0.12,1.0,-0.06,20603,9957.90,0,0,0,1.05,-2.52,-0.35,0.12,1.00,-0.06
-0.5126953,0.0024022246,0.0014894903,-0.0043175593,0.11,1.0,-0.06,20618,9957.90,0,0,165,0.98,-2.52,-0.28,0.11,1.00,-0.06
0.4873047,-5.977759E-4,4.8948824E-4,-0.003317559,0.11,1.0,-0.06,20633,9958.90,0,0,0,0.77,-2.59,-0.21,0.11,1.00,-0.06
0.08691406,-0.0025977762,0.0014894903,0.0026824407,0.11,1.0,-0.05,20640,9958.50,0,0,165,0.63,-2.52,0.21,0.11,1.00,-0.05
0.4873047,-0.0025977762,4.8948824E-4,0.0026824407,0.11,1.0,-0.06,20655,9958.90,0,0,0,0.63,-2.59,0.21,0.11,1.00,-0.06
0.4873047,4.0222332E-4,0.0014894903,0.0026824407,0.11,1.0,-0.05,20671,9958.90,0,0,165,0.84,-2.52,0.21,0.11,1.00,-0.05
0.4873047,-5.977759E-4,-5.105138E-4,6.824409E-4,0.11,1.0,-0.05,20678,9958.90,0,0,0,0.77,-2.66,0.07,0.11,1.00,-0.05
-0.5126953,0.0014022244,-0.0015105121,-3.1755917E-4,0.11,1.0,-0.05,20693,9957.90,0,0,165,0.91,-2.73,0.00,0.11,1.00,-0.05
0.4873047,0.0034022238,-5.105138E-4,-0.003317559,0.11,1.0,-0.05,20708,9958.90,0,0,0,1.05,-2.66,-0.21,0.11,1.00,-0.05
0.4873047,0.0014022244,-5.105138E-4,-0.0043175593,0.12,1.0,-0.06,20716,9958.90,0,0,165,0.91,-2.66,-0.28,0.12,1.00,-0.06
-0.81347656,0.0014022244,4.8948824E-4,6.824409E-4,0.11,1.0,-0.06,20731,9957.60,0,0,0,0.91,-2.59,0.07,0.11,1.00,-0.06
-0.81347656,-0.0035977755,-5.105138E-4,0.004682441,0.11,1.0,-0.06,20745,9957.60,0,0,165,0.56,-2.66,0.35,0.11,1.00,-0.06
0.4873047,-0.0045977756,4.8948824E-4,0.004682441,0.11,1.0,-0.06,20753,9958.90,0,0,0,0.49,-2.59,0.35,0.11,1.00,-0.06
0.4873047,-0.0035977755,4.8948824E-4,0.003682441,0.11,1.0,-0.05,20768,9958.90,0,0,165,0.56,-2.59,0.28,0.11,1.00,-0.05
0.4873047,0.0014022244,0.0014894903,0.001682441,0.11,1.0,-0.05,20782,9958.90,0,0,0,0.91,-2.52,0.14,0.11,1.00,-0.05
0.4873047,0.0034022238,4.8948824E-4,-0.0023175592,0.11,1.0,-0.05,20790,9958.90,0,0,165,1.05,-2.59,-0.14,0.11,1.00,-0.05
0.08691406,0.0064022234,-0.0015105121,-0.005317559,0.11,1.0,-0.06,20805,9958.50,0,0,0,1.26,-2.73,-0.35,0.11,1.00,-0.06
-0.81347656,0.0034022238,-0.0015105121,-0.0063175587,0.11,1.0,-0.05,20820,9957.60,0,0,165,1.05,-2.73,-0.42,0.11,1.00,-0.05
0.4873047,4.0222332E-4,-0.0015105121,-0.003317559,0.11,1.0,-0.06,20827,9958.90,0,0,0,0.84,-2.73,-0.21,0.11,1.00,-0.06
0.4873047,-0.0015977761,-5.105138E-4,0.0026824407,0.11,1.0,-0.06,20843,9958.90,0,0,165,0.70,-2.66,0.21,0.11,1.00,-0.06
0.4873047,-0.0025977762,0.0014894903,0.0056824405,0.11,1.0,-0.06,20858,9958.90,0,0,0,0.63,-2.52,0.42,0.11,1.00,-0.06
-0.5126953,-0.0035977755,0.0014894903,0.004682441,0.12,1.0,-0.06,20865,9957.90,0,0,165,0.56,-2.52,0.35,0.12,1.00,-0.06
1.0869141,-0.0015977761,-5.105138E-4,6.824409E-4,0.11,1.0,-0.05,20880,9959.50,0,0,0,0.70,-2.66,0.07,0.11,1.00,-0.05
0.4873047,-5.977759E-4,0.0014894903,-0.0013175593,0.11,1.0,-0.05,20895,9958.90,0,0,165,0.77,-2.52,-0.07,0.11,1.00,-0.05
-0.5126953,0.0014022244,-5.105138E-4,-0.0043175593,0.11,1.0,-0.06,20903,9957.90,0,0,0,0.91,-2.66,-0.28,0.11,1.00,-0.06
0.4873047,0.0034022238,-5.105138E-4,-0.003317559,0.11,1.0,-0.05,20919,9958.90,0,0,165,1.05,-2.66,-0.21,0.11,1.00,-0.05
0.4873047,4.0222332E-4,4.8948824E-4,-3.1755917E-4,0.11,1.0,-0.05,20933,9958.90,0,0,0,0.84,-2.59,0.00,0.11,1.00,-0.05
-0.5126953,-5.977759E-4,-0.0015105121,0.001682441,0.11,1.0,-0.06,20940,9957.90,0,0,165,0.77,-2.73,0.14,0.11,1.00,-0.06
0.08691406,-0.0025977762,4.8948824E-4,0.003682441,0.11,1.0,-0.06,20955,9958.50,0,0,0,0.63,-2.59,0.28,0.11,1.00,-0.06
0.08691406,-0.0015977761,-5.105138E-4,0.0026824407,0.12,1.0,-0.06,20970,9958.50,0,0,165,0.70,-2.66,0.21,0.12,1.00,-0.06
0.4873047,4.0222332E-4,4.8948824E-4,-0.0013175593,0.11,1.0,-0.06,20978,9958.90,0,0,0,0.84,-2.59,-0.07,0.11,1.00,-0.06
-0.5126953,0.0034022238,4.8948824E-4,-0.0023175592,0.11,1.0,-0.06,20993,9957.90,0,0,165,1.05,-2.59,-0.14,0.11,1.00,-0.06
-0.5126953,0.0014022244,4.8948824E-4,-0.0043175593,0.11,1.0,-0.06,21008,9957.90,0,0,0,0.91,-2.59,-0.28,0.11,1.00,-0.06
0.08691406,4.0222332E-4,-5.105138E-4,-0.003317559,0.11,1.0,-0.06,21015,9958.50,0,0,165,0.84,-2.66,-0.21,0.11,1.00,-0.06
-0.5126953,4.0222332E-4,4.8948824E-4,0.003682441,0.11,1.0,-0.05,21030,9957.90,0,0,0,0.84,-2.59,0.28,0.11,1.00,-0.05
0.08691406,-5.977759E-4,-5.105138E-4,0.0026824407,0.11,1.0,-0.05,21045,9958.50,0,0,165,0.77,-2.66,0.21,0.11,1.00,-0.05
0.4873047,-0.0035977755,-0.0015105121,0.003682441,0.11,1.0,-0.05,21053,9958.90,0,0,0,0.56,-2.73,0.28,0.11,1.00,-0.05
-0.5126953,-5.977759E-4,-0.0015105121,-3.1755917E-4,0.11,1.0,-0.06,21068,9957.90,0,0,165,0.77,-2.73,0.00,0.11,1.00,-0.06
0.4873047,0.0014022244,-5.105138E-4,-0.0023175592,0.11,1.0,-0.06,21083,9958.90,0,0,0,0.91,-2.66,-0.14,0.11,1.00,-0.06
0.4873047,0.0014022244,-5.105138E-4,-0.0063175587,0.11,1.0,-0.06,21090,9958.90,0,0,165,0.91,-2.66,-0.42,0.11,1.00,-0.06
0.4873047,4.0222332E-4,0.0014894903,-0.003317559,0.12,1.0,-0.06,21106,9958.90,0,0,0,0.84,-2.52,-0.21,0.12,1.00,-0.06
-0.5126953,-0.0025977762,0.0014894903,6.824409E-4,0.11,1.0,-0.06,21120,9957.90,0,0,165,0.63,-2.52,0.07,0.11,1.00,-0.06
0.4873047,-0.0045977756,0.0014894903,0.0076824413,0.11,1.0,-0.06,21127,9958.90,0,0,0,0.49,-2.52,0.56,0.11,1.00,-0.06
1.3867188,-0.0035977755,0.0014894903,0.0076824413,0.11,1.0,-0.05,21142,9959.80,0,0,165,0.56,-2.52,0.56,0.11,1.00,-0.05
0.4873047,-5.977759E-4,-5.105138E-4,0.0026824407,0.12,1.0,-0.05,21158,9958.90,0,0,0,0.77,-2.66,0.21,0.12,1.00,-0.05
-0.81347656,0.0024022246,-5.105138E-4,-0.003317559,0.11,1.0,-0.06,21165,9957.60,0,0,165,0.98,-2.66,-0.21,0.11,1.00,-0.06
-0.5126953,0.004402225,-0.0015105121,-0.0073175593,0.11,1.0,-0.06,21180,9957.90,0,0,0,1.12,-2.73,-0.49,0.11,1.00,-0.06
-0.5126953,0.004402225,-5.105138E-4,-0.0073175593,0.11,1.0,-0.06,21195,9957.90,0,0,165,1.12,-2.66,-0.49,0.11,1.00,-0.06
0.08691406,0.0034022238,4.8948824E-4,-0.0043175593,0.11,1.0,-0.06,21203,9958.50,0,0,0,1.05,-2.59,-0.28,0.11,1.00,-0.06
-0.5126953,-0.0015977761,4.8948824E-4,0.001682441,0.11,1.0,-0.06,21218,9957.90,0,0,165,0.70,-2.59,0.14,0.11,1.00,-0.06
-0.5126953,-0.0045977756,4.8948824E-4,0.0056824405,0.11,1.0,-0.06,21233,9957.90,0,0,0,0.49,-2.59,0.42,0.11,1.00,-0.06
-0.81347656,-0.0055977763,0.0014894903,0.0056824405,0.11,1.0,-0.06,21240,9957.60,0,0,165,0.42,-2.52,0.42,0.11,1.00,-0.06
1.3867188,-0.0015977761,-0.0015105121,0.001682441,0.11,1.0,-0.05,21256,9959.80,0,0,0,0.70,-2.73,0.14,0.11,1.00,-0.05
-0.81347656,4.0222332E-4,4.8948824E-4,-0.0023175592,0.11,1.0,-0.05,21270,9957.60,0,0,165,0.84,-2.59,-0.14,0.11,1.00,-0.05
1.0869141,0.0024022246,0.0014894903,-0.003317559,0.11,1.0,-0.05,21277,9959.50,0,0,0,0.98,-2.52,-0.21,0.11,1.00,-0.05
-0.81347656,0.0014022244,-5.105138E-4,-0.003317559,0.11,1.0,-0.05,21292,9957.60,0,0,165,0.91,-2.66,-0.21,0.11,1.00,-0.05
0.4873047,0.0024022246,-5.105138E-4,-0.0013175593,0.11,1.0,-0.05,21307,9958.90,0,0,0,0.98,-2.66,-0.07,0.11,1.00,-0.05
2.3867188,4.0222332E-4,-0.0015105121,-3.1755917E-4,0.11,1.0,-0.06,21315,9960.80,0,0,165,0.84,-2.73,0.00,0.11,1.00,-0.06
-0.5126953,-5.977759E-4,4.8948824E-4,0.001682441,0.11,1.0,-0.06,21330,9957.90,0,0,0,0.77,-2.59,0.14,0.11,1.00,-0.06
0.4873047,-0.0015977761,-5.105138E-4,-0.0013175593,0.11,1.0,-0.06,21345,9958.90,0,0,165,0.70,-2.66,-0.07,0.11,1.00,-0.06
0.4873047,4.0222332E-4,0.0024894886,0.001682441,0.11,1.0,-0.05,21356,9958.90,0,0,0,0.84,-2.45,0.14,0.11,1.00,-0.05
0.4873047,-0.0025977762,0.0014894903,0.0026824407,0.11,1.0,-0.05,21369,9958.90,0,0,165,0.63,-2.52,0.21,0.11,1.00,-0.05
0.4873047,-0.0015977761,4.8948824E-4,0.003682441,0.11,1.0,-0.05,21383,9958.90,0,0,0,0.70,-2.59,0.28,0.11,1.00,-0.05
-0.5126953,0.0014022244,-0.0015105121,-3.1755917E-4,0.11,1.0,-0.05,21391,9957.90,0,0,165,0.91,-2.73,0.00,0.11,1.00,-0.05
0.4873047,0.0024022246,-5.105138E-4,-0.0013175593,0.11,1.0,-0.06,21405,9958.90,0,0,0,0.98,-2.66,-0.07,0.11,1.00,-0.06
0.4873047,0.0014022244,-5.105138E-4,-0.0043175593,0.11,1.0,-0.05,21421,9958.90,0,0,165,0.91,-2.66,-0.28,0.11,1.00,-0.05
0.4873047,4.0222332E-4,-0.0025105104,-0.0043175593,0.11,1.0,-0.06,21428,9958.90,0,0,0,0.84,-2.80,-0.28,0.11,1.00,-0.06
-0.5126953,4.0222332E-4,4.8948824E-4,-3.1755917E-4,0.11,1.0,-0.06,21443,9957.90,0,0,165,0.84,-2.59,0.00,0.11,1.00,-0.06
0.4873047,-0.0015977761,-5.105138E-4,0.0026824407,0.11,1.0,-0.06,21458,9958.90,0,0,0,0.70,-2.66,0.21,0.11,1.00,-0.06
-0.5126953,-0.0015977761,-5.105138E-4,0.0056824405,0.11,1.0,-0.06,21465,9957.90,0,0,165,0.70,-2.66,0.42,0.11,1.00,-0.06
-0.21289062,4.0222332E-4,-5.105138E-4,0.003682441,0.11,1.0,-0.06,21480,9958.20,0,0,0,0.84,-2.66,0.28,0.11,1.00,-0.06
0.4873047,-5.977759E-4,-5.105138E-4,6.824409E-4,0.11,1.0,-0.05,21495,9958.90,0,0,165,0.77,-2.66,0.07,0.11,1.00,-0.05
0.4873047,-5.977759E-4,-0.0015105121,-0.0013175593,0.11,1.0,-0.05,21503,9958.90,0,0,0,0.77,-2.73,-0.07,0.11,1.00,-0.05
-0.21289062,0.0024022246,4.8948824E-4,-0.0023175592,0.11,1.0,-0.05,21519,9958.20,0,0,165,0.98,-2.59,-0.14,0.11,1.00,-0.05
0.4873047,0.0034022238,-5.105138E-4,-0.0013175593,0.11,1.0,-0.05,21534,9958.90,0,0,0,1.05,-2.66,-0.07,0.11,1.00,-0.05
-0.5126953,0.0024022246,-5.105138E-4,6.824409E-4,0.11,1.0,-0.06,21540,9957.90,0,0,165,0.98,-2.66,0.07,0.11,1.00,-0.06
0.4873047,0.0024022246,-0.0015105121,6.824409E-4,0.11,1.0,-0.06,21556,9958.90,0,0,0,0.98,-2.73,0.07,0.11,1.00,-0.06
-0.5126953,0.0014022244,-5.105138E-4,-0.0013175593,0.11,1.0,-0.06,21572,9957.90,0,0,165,0.91,-2.66,-0.07,0.11,1.00,-0.06
0.4873047,-5.977759E-4,0.0014894903,6.824409E-4,0.11,1.0,-0.06,21578,9958.90,0,0,0,0.77,-2.52,0.07,0.11,1.00,-0.06
0.4873047,-5.977759E-4,-5.105138E-4,-0.0013175593,0.11,1.0,-0.06,21593,9958.90,0,0,165,0.77,-2.66,-0.07,0.11,1.00,-0.06
0.4873047,-0.0015977761,-5.105138E-4,-3.1755917E-4,0.11,1.0,-0.05,21608,9958.90,0,0,0,0.70,-2.66,0.00,0.11,1.00,-0.05
0.4873047,-0.0015977761,-5.105138E-4,0.0026824407,0.11,1.0,-0.05,21615,9958.90,0,0,165,0.70,-2.66,0.21,0.11,1.00,-0.05
0.4873047,-0.0035977755,4.8948824E-4,6.824409E-4,0.11,1.0,-0.05,21630,9958.90,0,0,0,0.56,-2.59,0.07,0.11,1.00,-0.05
0.4873047,4.0222332E-4,-5.105138E-4,0.0026824407,0.11,1.0,-0.05,21652,9958.90,0,0,165,0.84,-2.66,0.21,0.11,1.00,-0.05
-0.5126953,-5.977759E-4,-5.105138E-4,-0.0013175593,0.11,1.0,-0.05,21653,9957.90,0,0,0,0.77,-2.66,-0.07,0.11,1.00,-0.05
0.08691406,0.0034022238,-0.0015105121,-0.003317559,0.11,1.0,-0.06,21668,9958.50,0,0,165,1.05,-2.73,-0.21,0.11,1.00,-0.06
-1.5126953,0.0014022244,-5.105138E-4,-0.0043175593,0.11,1.0,-0.06,21683,9956.90,0,0,0,0.91,-2.66,-0.28,0.11,1.00,-0.06
0.4873047,0.0014022244,-0.0015105121,0.25468242,0.11,1.0,-0.06,21690,9958.90,0,0,165,0.91,-2.73,17.85,0.11,1.00,-0.06
0.08691406,-5.977759E-4,4.8948824E-4,0.0026824407,0.12,1.0,-0.06,21710,9958.50,0,0,0,0.77,-2.59,0.21,0.12,1.00,-0.06
-0.5126953,-0.0025977762,-5.105138E-4,0.001682441,0.11,1.0,-0.06,21721,9957.90,0,0,165,0.63,-2.66,0.14,0.11,1.00,-0.06
-0.5126953,-0.0035977755,-5.105138E-4,0.0026824407,0.11,1.0,-0.05,21728,9957.90,0,0,0,0.56,-2.66,0.21,0.11,1.00,-0.05
-0.5126953,-5.977759E-4,0.0014894903,6.824409E-4,0.11,1.0,-0.06,21743,9957.90,0,0,165,0.77,-2.52,0.07,0.11,1.00,-0.06
-0.5126953,0.0014022244,-5.105138E-4,-0.0013175593,0.11,1.0,-0.05,21758,9957.90,0,0,0,0.91,-2.66,-0.07,0.11,1.00,-0.05
-0.5126953,4.0222332E-4,-5.105138E-4,-0.0013175593,0.11,1.0,-0.05,21766,9957.90,0,0,165,0.84,-2.66,-0.07,0.11,1.00,-0.05
0.4873047,0.0024022246,4.8948824E-4,-3.1755917E-4,0.11,1.0,-0.05,21780,9958.90,0,0,0,0.98,-2.59,0.00,0.11,1.00,-0.05
0.4873047,0.0024022246,-5.105138E-4,-3.1755917E-4,0.11,1.0,-0.05,21796,9958.90,0,0,165,0.98,-2.66,0.00,0.11,1.00,-0.05
0.4873047,4.0222332E-4,-5.105138E-4,-0.0013175593,0.11,1.0,-0.06,21804,9958.90,0,0,0,0.84,-2.66,-0.07,0.11,1.00,-0.06
0.4873047,4.0222332E-4,4.8948824E-4,-3.1755917E-4,0.11,1.0,-0.06,21821,9958.90,0,0,165,0.84,-2.59,0.00,0.11,1.00,-0.06
1.3867188,0.0014022244,4.8948824E-4,-3.1755917E-4,0.11,1.0,-0.06,21833,9959.80,0,0,0,0.91,-2.59,0.00,0.11,1.00,-0.06
-0.5126953,-0.0015977761,4.8948824E-4,0.001682441,0.11,1.0,-0.06,21840,9957.90,0,0,165,0.70,-2.59,0.14,0.11,1.00,-0.06
-0.5126953,-0.0025977762,4.8948824E-4,0.001682441,0.11,1.0,-0.05,21860,9957.90,0,0,0,0.63,-2.59,0.14,0.11,1.00,-0.05
0.4873047,-0.0025977762,-5.105138E-4,0.001682441,0.11,1.0,-0.05,21871,9958.90,0,0,165,0.63,-2.66,0.14,0.11,1.00,-0.05
1.3867188,4.0222332E-4,-0.0025105104,6.824409E-4,0.11,1.0,-0.05,21878,9959.80,0,0,0,0.84,-2.80,0.07,0.11,1.00,-0.05
0.4873047,4.0222332E-4,-5.105138E-4,-3.1755917E-4,0.11,1.0,-0.05,21893,9958.90,0,0,165,0.84,-2.66,0.00,0.11,1.00,-0.05
0.4873047,0.0024022246,-5.105138E-4,-0.003317559,0.11,1.0,-0.06,21908,9958.90,0,0,0,0.98,-2.66,-0.21,0.11,1.00,-0.06
-0.5126953,0.0014022244,-5.105138E-4,-0.0023175592,0.11,1.0,-0.06,21915,9957.90,0,0,165,0.91,-2.66,-0.14,0.11,1.00,-0.06
0.4873047,0.0014022244,0.0014894903,-0.0023175592,0.11,1.0,-0.05,21930,9958.90,0,0,0,0.91,-2.52,-0.14,0.11,1.00,-0.05
0.4873047,-0.0035977755,-5.105138E-4,0.001682441,0.11,1.0,-0.05,21945,9958.90,0,0,165,0.56,-2.66,0.14,0.11,1.00,-0.05
-0.5126953,-5.977759E-4,4.8948824E-4,0.0026824407,0.11,1.0,-0.06,21960,9957.90,0,0,0,0.77,-2.59,0.21,0.11,1.00,-0.06
1.3867188,-0.0015977761,4.8948824E-4,6.824409E-4,0.11,1.0,-0.06,21969,9959.80,0,0,165,0.70,-2.59,0.07,0.11,1.00,-0.06
0.4873047,0.0024022246,4.8948824E-4,-0.003317559,0.11,1.0,-0.06,21983,9958.90,0,0,0,0.98,-2.59,-0.21,0.11,1.00,-0.06
-0.5126953,0.0024022246,4.8948824E-4,-0.003317559,0.11,1.0,-0.06,21991,9957.90,0,0,165,0.98,-2.59,-0.21,0.11,1.00,-0.06
-0.5126953,4.0222332E-4,-5.105138E-4,-3.1755917E-4,0.11,1.0,-0.05,22006,9957.90,0,0,0,0.84,-2.66,0.00,0.11,1.00,-0.05
0.4873047,-5.977759E-4,-5.105138E-4,0.001682441,0.11,1.0,-0.05,22021,9958.90,0,0,165,0.77,-2.66,0.14,0.11,1.00,-0.05
0.4873047,-0.0015977761,4.8948824E-4,0.003682441,0.11,1.0,-0.05,22028,9958.90,0,0,0,0.70,-2.59,0.28,0.11,1.00,-0.05
-0.5126953,-0.0015977761,-0.0015105121,0.0026824407,0.11,1.0,-0.06,22043,9957.90,0,0,165,0.70,-2.73,0.21,0.11,1.00,-0.06
-0.5126953,-0.0015977761,4.8948824E-4,6.824409E-4,0.11,1.0,-0.06,22058,9957.90,0,0,0,0.70,-2.59,0.07,0.11,1.00,-0.06
-0.5126953,0.0034022238,4.8948824E-4,-0.0043175593,0.12,1.0,-0.06,22074,9957.90,0,0,165,1.05,-2.59,-0.28,0.12,1.00,-0.06
-0.5126953,0.0024022246,0.0014894903,-0.005317559,0.11,1.0,-0.06,22081,9957.90,0,0,0,0.98,-2.52,-0.35,0.11,1.00,-0.06
-0.5126953,4.0222332E-4,4.8948824E-4,-0.0023175592,0.11,1.0,-0.06,22096,9957.90,0,0,165,0.84,-2.59,-0.14,0.11,1.00,-0.06
-0.5126953,-0.0015977761,4.8948824E-4,-0.0013175593,0.11,1.0,-0.05,22104,9957.90,0,0,0,0.70,-2.59,-0.07,0.11,1.00,-0.05
0.4873047,-5.977759E-4,0.0014894903,0.004682441,0.11,1.0,-0.06,22119,9958.90,0,0,165,0.77,-2.52,0.35,0.11,1.00,-0.06
-0.5126953,-0.0025977762,-5.105138E-4,0.0026824407,0.11,1.0,-0.05,22133,9957.90,0,0,0,0.63,-2.66,0.21,0.11,1.00,-0.05
-0.5126953,-5.977759E-4,4.8948824E-4,0.0026824407,0.11,1.0,-0.05,22141,9957.90,0,0,165,0.77,-2.59,0.21,0.11,1.00,-0.05
0.4873047,0.0014022244,-0.0015105121,-0.0013175593,0.11,1.0,-0.06,22155,9958.90,0,0,0,0.91,-2.73,-0.07,0.11,1.00,-0.06
0.4873047,0.0024022246,4.8948824E-4,-0.003317559,0.11,1.0,-0.06,22171,9958.90,0,0,165,0.98,-2.59,-0.21,0.11,1.00,-0.06
-0.5126953,0.0014022244,4.8948824E-4,-0.0043175593,0.11,1.0,-0.06,22178,9957.90,0,0,0,0.91,-2.59,-0.28,0.11,1.00,-0.06
0.4873047,4.0222332E-4,-5.105138E-4,0.001682441,0.11,1.0,-0.05,22193,9958.90,0,0,165,0.84,-2.66,0.14,0.11,1.00,-0.05
0.4873047,-0.0015977761,4.8948824E-4,0.003682441,0.11,1.0,-0.06,22208,9958.90,0,0,0,0.70,-2.59,0.28,0.11,1.00,-0.06
0.4873047,-0.0015977761,0.0014894903,0.003682441,0.11,1.0,-0.06,22216,9958.90,0,0,165,0.70,-2.52,0.28,0.11,1.00,-0.06
-0.5126953,-0.0015977761,4.8948824E-4,6.824409E-4,0.11,1.0,-0.05,22230,9957.90,0,0,0,0.70,-2.59,0.07,0.11,1.00,-0.05
0.08691406,0.0014022244,-5.105138E-4,-0.003317559,0.11,1.0,-0.05,22246,9958.50,0,0,165,0.91,-2.66,-0.21,0.11,1.00,-0.05
0.4873047,0.0024022246,-5.105138E-4,-0.003317559,0.11,1.0,-0.06,22253,9958.90,0,0,0,0.98,-2.66,-0.21,0.11,1.00,-0.06
0.4873047,4.0222332E-4,-5.105138E-4,-0.003317559,0.12,1.0,-0.05,22268,9958.90,0,0,165,0.84,-2.66,-0.21,0.12,1.00,-0.05
-0.81347656,0.0014022244,-0.0015105121,-0.0023175592,0.11,1.0,-0.06,22284,9957.60,0,0,0,0.91,-2.73,-0.14,0.11,1.00,-0.06
-0.5126953,-5.977759E-4,4.8948824E-4,-3.1755917E-4,0.11,1.0,-0.06,22291,9957.90,0,0,165,0.77,-2.59,0.00,0.11,1.00,-0.06
0.4873047,-5.977759E-4,4.8948824E-4,-3.1755917E-4,0.11,1.0,-0.06,22306,9958.90,0,0,0,0.77,-2.59,0.00,0.11,1.00,-0.06
0.7871094,4.0222332E-4,4.8948824E-4,6.824409E-4,0.11,1.0,-0.06,22321,9959.20,0,0,165,0.84,-2.59,0.07,0.11,1.00,-0.06
1.3867188,-0.0025977762,4.8948824E-4,0.0026824407,0.11,1.0,-0.06,22327,9959.80,0,0,0,0.63,-2.59,0.21,0.11,1.00,-0.06
0.08691406,-0.006597776,4.8948824E-4,0.0076824413,0.11,1.0,-0.05,22343,9958.50,0,0,165,0.35,-2.59,0.56,0.11,1.00,-0.05
0.4873047,-0.0075977757,0.0014894903,0.0076824413,0.11,1.0,-0.05,22358,9958.90,0,0,0,0.28,-2.52,0.56,0.11,1.00,-0.05
-0.5126953,-0.0075977757,-5.105138E-4,0.0076824413,0.11,1.0,-0.05,22365,9957.90,0,0,165,0.28,-2.66,0.56,0.11,1.00,-0.05
-0.5126953,-0.0035977755,-0.0015105121,0.0026824407,0.11,1.0,-0.05,22380,9957.90,0,0,0,0.56,-2.73,0.21,0.11,1.00,-0.05
1.3867188,-5.977759E-4,-0.0015105121,-0.003317559,0.11,1.0,-0.05,22395,9959.80,0,0,165,0.77,-2.73,-0.21,0.11,1.00,-0.05
-0.5126953,0.004402225,0.0024894886,-0.0063175587,0.11,1.0,-0.05,22403,9957.90,0,0,0,1.12,-2.45,-0.42,0.11,1.00,-0.05
-1.5126953,0.0064022234,4.8948824E-4,-0.009317559,0.12,1.0,-0.06,22418,9956.90,0,0,165,1.26,-2.59,-0.63,0.12,1.00,-0.06
0.4873047,0.0074022254,0.0034894869,-0.0073175593,0.11,1.0,-0.06,22433,9958.90,0,0,0,1.33,-2.38,-0.49,0.11,1.00,-0.06
0.4873047,0.0034022238,0.0034894869,-0.0023175592,0.11,1.0,-0.06,22440,9958.90,0,0,165,1.05,-2.38,-0.14,0.11,1.00,-0.06
-1.5126953,-5.977759E-4,-5.105138E-4,0.004682441,0.11,1.0,-0.06,22455,9956.90,0,0,0,0.77,-2.66,0.35,0.11,1.00,-0.06
0.4873047,-0.006597776,0.0024894886,0.012682441,0.11,1.0,-0.06,22470,9958.90,0,0,165,0.35,-2.45,0.91,0.11,1.00,-0.06
0.4873047,-0.008597776,0.0024894886,0.01468244,0.11,1.0,-0.05,22478,9958.90,0,0,0,0.21,-2.45,1.05,0.11,1.00,-0.05
0.08691406,-0.0035977755,-5.105138E-4,0.012682441,0.11,1.0,-0.05,22493,9958.50,0,0,165,0.56,-2.66,0.91,0.11,1.00,-0.05
0.4873047,-0.0045977756,4.8948824E-4,6.824409E-4,0.11,1.0,-0.05,22507,9958.90,0,0,0,0.49,-2.59,0.07,0.11,1.00,-0.05
-0.5126953,0.0024022246,0.0014894903,-0.003317559,0.11,1.0,-0.05,22515,9957.90,0,0,165,0.98,-2.52,-0.21,0.11,1.00,-0.05
1.6865234,0.0074022254,-0.0015105121,-0.0043175593,0.11,1.0,-0.06,22531,9960.10,0,0,0,1.33,-2.73,-0.28,0.11,1.00,-0.06
0.7871094,0.0024022246,-0.0015105121,-0.0043175593,0.11,1.0,-0.06,22545,9959.20,0,0,165,0.98,-2.73,-0.28,0.11,1.00,-0.06
0.4873047,-5.977759E-4,-0.0015105121,-3.1755917E-4,0.11,1.0,-0.06,22553,9958.90,0,0,0,0.77,-2.73,0.00,0.11,1.00,-0.06
-0.5126953,-0.0015977761,-5.105138E-4,0.001682441,0.12,1.0,-0.06,22567,9957.90,0,0,165,0.70,-2.66,0.14,0.12,1.00,-0.06
0.4873047,-5.977759E-4,4.8948824E-4,-0.0043175593,0.12,1.0,-0.06,22582,9958.90,0,0,0,0.77,-2.59,-0.28,0.12,1.00,-0.06
0.4873047,0.0034022238,-5.105138E-4,-0.0063175587,0.12,1.0,-0.06,22590,9958.90,0,0,165,1.05,-2.66,-0.42,0.12,1.00,-0.06
-0.5126953,0.0024022246,0.0014894903,-0.003317559,0.11,1.0,-0.06,22605,9957.90,0,0,0,0.98,-2.52,-0.21,0.11,1.00,-0.06
1.3867188,0.0024022246,4.8948824E-4,-0.0023175592,0.11,1.0,-0.06,22620,9959.80,0,0,165,0.98,-2.59,-0.14,0.11,1.00,-0.06
0.4873047,-5.977759E-4,-5.105138E-4,0.0026824407,0.11,1.0,-0.05,22627,9958.90,0,0,0,0.77,-2.66,0.21,0.11,1.00,-0.05
1.3867188,-0.0055977763,4.8948824E-4,0.00968244,0.11,1.0,-0.05,22643,9959.80,0,0,165,0.42,-2.59,0.70,0.11,1.00,-0.05
0.4873047,-0.006597776,4.8948824E-4,0.01068244,0.11,1.0,-0.05,22657,9958.90,0,0,0,0.35,-2.59,0.77,0.11,1.00,-0.05
0.4873047,-0.0045977756,4.8948824E-4,0.006682441,0.11,1.0,-0.06,22665,9958.90,0,0,165,0.49,-2.59,0.49,0.11,1.00,-0.06
-0.21289062,-5.977759E-4,-0.0015105121,6.824409E-4,0.12,1.0,-0.06,22687,9958.20,0,0,0,0.77,-2.73,0.07,0.12,1.00,-0.06
-0.5126953,0.0034022238,4.8948824E-4,-0.00831756,0.12,1.0,-0.05,22695,9957.90,0,0,165,1.05,-2.59,-0.56,0.12,1.00,-0.05
0.4873047,0.005402225,4.8948824E-4,-0.009317559,0.11,1.0,-0.06,22703,9958.90,0,0,0,1.19,-2.59,-0.63,0.11,1.00,-0.06
0.4873047,0.0034022238,4.8948824E-4,-0.009317559,0.11,1.0,-0.05,22718,9958.90,0,0,165,1.05,-2.59,-0.63,0.11,1.00,-0.05
0.4873047,0.004402225,0.0014894903,-0.003317559,0.11,1.0,-0.06,22733,9958.90,0,0,0,1.12,-2.52,-0.21,0.11,1.00,-0.06
0.4873047,4.0222332E-4,-5.105138E-4,-3.1755917E-4,0.11,1.0,-0.05,22741,9958.90,0,0,165,0.84,-2.66,0.00,0.11,1.00,-0.05
-2.1132812,-0.0025977762,4.8948824E-4,0.0026824407,0.11,1.0,-0.05,22756,9956.30,0,0,0,0.63,-2.59,0.21,0.11,1.00,-0.05
0.4873047,-0.0025977762,-0.0015105121,0.003682441,0.11,1.0,-0.05,22771,9958.90,0,0,165,0.63,-2.73,0.28,0.11,1.00,-0.05
0.4873047,-0.0045977756,-5.105138E-4,0.004682441,0.11,1.12,-0.05,22778,9958.90,0,0,0,0.49,-2.66,0.35,0.11,1.12,-0.05
0.4873047,4.0222332E-4,-0.0015105121,0.0026824407,0.12,1.0,-0.06,22792,9958.90,0,0,165,0.84,-2.73,0.21,0.12,1.00,-0.06
0.4873047,-0.0015977761,-0.0015105121,-0.0023175592,0.12,1.0,-0.06,22808,9958.90,0,0,0,0.70,-2.73,-0.14,0.12,1.00,-0.06
-0.5126953,4.0222332E-4,0.0014894903,-0.0013175593,0.11,1.0,-0.06,22815,9957.90,0,0,165,0.84,-2.52,-0.07,0.11,1.00,-0.06
0.4873047,4.0222332E-4,0.0014894903,-0.003317559,0.11,1.0,-0.06,22830,9958.90,0,0,0,0.84,-2.52,-0.21,0.11,1.00,-0.06
0.4873047,-0.0015977761,0.0014894903,6.824409E-4,0.11,1.0,-0.06,22845,9958.90,0,0,165,0.70,-2.52,0.07,0.11,1.00,-0.06
-0.5126953,-0.0035977755,0.0014894903,0.003682441,0.11,1.0,-0.05,22853,9957.90,0,0,0,0.56,-2.52,0.28,0.11,1.00,-0.05
0.4873047,-0.0035977755,4.8948824E-4,0.0056824405,0.11,1.0,-0.05,22870,9958.90,0,0,165,0.56,-2.59,0.42,0.11,1.00,-0.05
-0.5126953,-0.0025977762,4.8948824E-4,0.003682441,0.11,1.0,-0.05,22882,9957.90,0,0,0,0.63,-2.59,0.28,0.11,1.00,-0.05
0.4873047,-0.0075977757,-0.006510511,0.013682441,0.15,0.99,-0.05,22890,9958.90,0,0,165,0.28,-3.08,0.98,0.15,0.99,-0.05
0.4873047,0.0024022246,0.0064894874,-0.020317558,0.09,1.0,-0.05,22905,9958.90,0,0,0,0.98,-2.17,-1.40,0.09,1.00,-0.05
-0.5126953,0.035402223,-0.0015105121,-0.05431756,0.07,1.0,-0.06,22920,9957.90,0,0,165,3.29,-2.73,-3.78,0.07,1.00,-0.06
-0.81347656,0.019402225,4.8948824E-4,-0.03531756,0.08,1.0,-0.08,22928,9957.60,0,0,0,2.17,-2.59,-2.45,0.08,1.00,-0.08
-0.81347656,-0.0055977763,0.004489489,0.00968244,0.1,1.01,-0.08,22944,9957.60,0,0,165,0.42,-2.31,0.70,0.10,1.01,-0.08
-0.5126953,-0.030597776,-5.105138E-4,0.051682442,0.14,1.0,-0.06,22958,9957.90,0,0,0,-1.33,-2.66,3.64,0.14,1.00,-0.06
-0.5126953,-0.051597774,-0.0035105087,0.085682444,0.15,1.0,-0.04,22965,9957.90,0,0,165,-2.80,-2.87,6.02,0.15,1.00,-0.04
0.4873047,-0.039597776,0.0074894894,0.051682442,0.14,1.0,-0.02,22980,9958.90,0,0,0,-1.96,-2.10,3.64,0.14,1.00,-0.02
-0.5126953,-5.977759E-4,0.0034894869,-0.018317558,0.12,1.0,-0.02,22996,9957.90,0,0,165,0.77,-2.38,-1.26,0.12,1.00,-0.02
-0.5126953,0.054402225,-0.0045105107,-0.08031756,0.09,1.0,-0.05,23005,9957.90,0,0,0,4.62,-2.94,-5.60,0.09,1.00,-0.05
-0.5126953,0.06840222,-0.0045105107,-0.10331756,0.07,1.0,-0.08,23018,9957.90,0,0,165,5.60,-2.94,-7.21,0.07,1.00,-0.08
0.4873047,0.043402225,-0.0025105104,-0.07331756,0.08,1.0,-0.1,23033,9958.90,0,0,0,3.85,-2.80,-5.11,0.08,1.00,-0.10
-0.5126953,0.0024022246,-0.0035105087,0.0056824405,0.11,1.0,-0.08,23040,9957.90,0,0,165,0.98,-2.87,0.42,0.11,1.00,-0.08
0.4873047,-0.055597775,0.0014894903,0.08268244,0.13,1.0,-0.04,23055,9958.90,0,0,0,-3.08,-2.52,5.81,0.13,1.00,-0.04
-0.81347656,-0.08759778,0.0074894894,0.13668245,0.15,1.0,-0.02,23070,9957.60,0,0,165,-5.32,-2.10,9.59,0.15,1.00,-0.02
-0.81347656,-0.07259778,0.00848949,0.10568244,0.14,1.0,-0.02,23078,9957.60,0,0,0,-4.27,-2.03,7.42,0.14,1.00,-0.02
0.08691406,-0.0035977755,0.004489489,0.0076824413,0.12,0.99,-0.05,23093,9958.50,0,0,165,0.56,-2.31,0.56,0.12,0.99,-0.05
0.4873047,0.062402226,-0.0055105127,-0.11131756,0.1,0.99,-0.08,23108,9958.90,0,0,0,5.18,-3.01,-7.77,0.10,0.99,-0.08
0.4873047,0.087402225,-0.0055105127,-0.14431755,0.08,1.0,-0.09,23116,9958.90,0,0,165,6.93,-3.01,-10.08,0.08,1.00,-0.09
-0.5126953,0.055402227,-0.0055105127,-0.09531756,0.08,1.01,-0.08,23130,9957.90,0,0,0,4.69,-3.01,-6.65,0.08,1.01,-0.08
-0.5126953,-0.0095977755,-0.0025105104,0.013682441,0.1,1.01,-0.05,23145,9957.90,0,0,165,0.14,-2.80,0.98,0.10,1.01,-0.05
0.4873047,-0.07159778,0.0014894903,0.13368244,0.13,1.01,-0.03,23153,9958.90,0,0,0,-4.20,-2.52,9.38,0.13,1.01,-0.03
0.4873047,-0.092597775,0.011489488,0.15168245,0.15,1.0,-0.03,23168,9958.90,0,0,165,-5.67,-1.82,10.64,0.15,1.00,-0.03
1.3867188,-0.055597775,0.011489488,0.07168244,0.15,0.99,-0.04,23182,9959.80,0,0,0,-3.08,-1.82,5.04,0.15,0.99,-0.04
0.7871094,0.011402224,0.0014894903,-0.03831756,0.13,0.99,-0.06,23190,9959.20,0,0,165,1.61,-2.52,-2.66,0.13,0.99,-0.06
0.4873047,0.06840222,-0.0035105087,-0.12731756,0.1,1.0,-0.08,23205,9958.90,0,0,0,5.60,-2.87,-8.89,0.10,1.00,-0.08
1.3867188,0.08940223,-0.011510514,-0.14131756,0.08,1.0,-0.08,23221,9959.80,0,0,165,7.07,-3.43,-9.87,0.08,1.00,-0.08
-0.5126953,0.05940222,-0.00951051,-0.09331756,0.08,1.01,-0.06,23228,9957.90,0,0,0,4.97,-3.29,-6.51,0.08,1.01,-0.06
-0.5126953,0.0014022244,-0.0035105087,6.824409E-4,0.1,1.01,-0.05,23244,9957.90,0,0,165,0.91,-2.87,0.07,0.10,1.01,-0.05
-0.21289062,-0.06859778,0.0074894894,0.12168244,0.12,1.0,-0.04,23258,9958.20,0,0,0,-3.99,-2.10,8.54,0.12,1.00,-0.04
0.4873047,-0.09359777,0.01348949,0.14968245,0.15,1.0,-0.04,23265,9958.90,0,0,165,-5.74,-1.68,10.50,0.15,1.00,-0.04
-0.5126953,-0.058597773,0.0064894874,0.09168244,0.14,0.99,-0.05,23281,9957.90,0,0,0,-3.29,-2.17,6.44,0.14,0.99,-0.05
-0.5126953,0.0034022238,4.8948824E-4,-0.003317559,0.0,0.99,-0.05,23296,9957.90,0,0,165,1.05,-2.59,-0.21,0.00,0.99,-0.05
-0.5126953,0.061402224,-0.00951051,-0.105317555,0.1,1.0,-0.06,23305,9957.90,0,0,0,5.11,-3.29,-7.35,0.10,1.00,-0.06
-0.5126953,0.07840223,-0.0035105087,-0.12631756,0.09,1.0,-0.06,23318,9957.90,0,0,165,6.30,-2.87,-8.82,0.09,1.00,-0.06
0.4873047,0.05640223,-0.006510511,-0.09131756,0.09,1.01,-0.07,23333,9958.90,0,0,0,4.76,-3.08,-6.37,0.09,1.01,-0.07
-0.5126953,4.0222332E-4,-0.0015105121,0.01968244,0.11,1.01,-0.06,23341,9957.90,0,0,165,0.84,-2.73,1.40,0.11,1.01,-0.06
0.08691406,-0.063597776,0.0064894874,0.10268244,0.13,1.0,-0.05,23357,9958.50,0,0,0,-3.64,-2.17,7.21,0.13,1.00,-0.05
0.4873047,-0.07859778,0.00848949,0.12468244,0.14,1.0,-0.04,23372,9958.90,0,0,165,-4.69,-2.03,8.75,0.14,1.00,-0.04
1.6865234,-0.045597777,0.0024894886,0.06268244,0.14,0.99,-0.04,23378,9960.10,0,0,0,-2.38,-2.45,4.41,0.14,0.99,-0.04
-0.5126953,0.0134022245,0.0014894903,-0.022317559,0.12,0.99,-0.04,23393,9957.90,0,0,165,1.75,-2.52,-1.54,0.12,0.99,-0.04
0.4873047,0.06340223,-0.0015105121,-0.10931756,0.1,1.0,-0.06,23408,9958.90,0,0,0,5.25,-2.73,-7.63,0.10,1.00,-0.06
-0.5126953,0.07840223,-0.007510513,-0.121317565,0.09,1.01,-0.07,23416,9957.90,0,0,165,6.30,-3.15,-8.47,0.09,1.01,-0.07
-0.5126953,0.043402225,-0.0035105087,-0.05231756,0.09,1.01,-0.07,23431,9957.90,0,0,0,3.85,-2.87,-3.64,0.09,1.01,-0.07
-0.5126953,-0.023597775,0.0024894886,0.03668244,0.11,1.01,-0.07,23445,9957.90,0,0,165,-0.84,-2.45,2.59,0.11,1.01,-0.07
-0.5126953,-0.06759778,0.0034894869,0.10468244,0.13,1.0,-0.05,23454,9957.90,0,0,0,-3.92,-2.38,7.35,0.13,1.00,-0.05
-0.5126953,-0.081597775,0.0074894894,0.12468244,0.14,1.0,-0.03,23468,9957.90,0,0,165,-4.90,-2.10,8.75,0.14,1.00,-0.03
-0.5126953,-0.043597776,0.0034894869,0.06968244,0.13,1.0,-0.03,23483,9957.90,0,0,0,-2.24,-2.38,4.90,0.13,1.00,-0.03
1.6865234,0.011402224,0.0014894903,-0.018317558,0.12,1.0,-0.05,23490,9960.10,0,0,165,1.61,-2.52,-1.26,0.12,1.00,-0.05
-0.5126953,0.060402222,-0.0025105104,-0.11031756,0.1,1.0,-0.07,23505,9957.90,0,0,0,5.04,-2.80,-7.70,0.10,1.00,-0.07
-0.21289062,0.08140223,-0.00951051,-0.12931755,0.09,1.0,-0.08,23520,9958.20,0,0,165,6.51,-3.29,-9.03,0.09,1.00,-0.08
0.7871094,0.042402226,-0.0045105107,-0.072317556,0.1,1.0,-0.07,23527,9959.20,0,0,0,3.78,-2.94,-5.04,0.10,1.00,-0.07
2.3867188,-0.011597776,-0.0025105104,0.033682443,0.11,1.01,-0.06,23543,9960.80,0,0,165,0.00,-2.80,2.38,0.11,1.01,-0.06
0.4873047,-0.06959777,0.004489489,0.10968244,0.13,1.0,-0.04,23559,9958.90,0,0,0,-4.06,-2.31,7.70,0.13,1.00,-0.04
0.4873047,-0.07359778,0.0074894894,0.11768244,0.14,1.0,-0.03,23571,9958.90,0,0,165,-4.34,-2.10,8.26,0.14,1.00,-0.03
-0.5126953,-0.037597775,0.004489489,0.049682442,0.13,1.0,-0.04,23580,9957.90,0,0,0,-1.82,-2.31,3.50,0.13,1.00,-0.04
0.4873047,0.014402225,-5.105138E-4,-0.04431756,0.12,0.99,-0.05,23595,9958.90,0,0,165,1.82,-2.66,-3.08,0.12,0.99,-0.05
-0.5126953,0.06840222,-0.006510511,-0.11031756,0.1,1.0,-0.07,23603,9957.90,0,0,0,5.60,-3.08,-7.70,0.10,1.00,-0.07
-0.21289062,0.07040222,-0.00951051,-0.11531756,0.09,1.0,-0.07,23618,9958.20,0,0,165,5.74,-3.29,-8.05,0.09,1.00,-0.07
-0.5126953,0.034402225,-0.0055105127,-0.04531756,0.09,1.01,-0.06,23633,9957.90,0,0,0,3.22,-3.01,-3.15,0.09,1.01,-0.06
-0.5126953,-0.025597777,4.8948824E-4,0.03968244,0.11,1.01,-0.05,23640,9957.90,0,0,165,-0.98,-2.59,2.80,0.11,1.01,-0.05
0.4873047,-0.06859778,0.0064894874,0.11568244,0.13,1.0,-0.04,23655,9958.90,0,0,0,-3.99,-2.17,8.12,0.13,1.00,-0.04
0.4873047,-0.070597775,0.00848949,0.10968244,0.14,1.0,-0.04,23670,9958.90,0,0,165,-4.13,-2.03,7.70,0.14,1.00,-0.04
-0.5126953,-0.032597777,0.005489487,0.05068244,0.13,1.0,-0.04,23677,9957.90,0,0,0,-1.47,-2.24,3.57,0.13,1.00,-0.04
0.4873047,0.024402224,-0.0015105121,-0.03831756,0.11,1.0,-0.05,23692,9958.90,0,0,165,2.52,-2.73,-2.66,0.11,1.00,-0.05
-0.5126953,0.06440223,-0.008510511,-0.11231756,0.1,1.0,-0.07,23708,9957.90,0,0,0,5.32,-3.22,-7.84,0.10,1.00,-0.07
0.4873047,0.060402222,-0.007510513,-0.10131756,0.09,1.01,-0.07,23716,9958.90,0,0,165,5.04,-3.15,-7.07,0.09,1.01,-0.07
-0.5126953,0.018402223,-0.0035105087,-0.031317562,0.1,1.01,-0.06,23731,9957.90,0,0,0,2.10,-2.87,-2.17,0.10,1.01,-0.06
0.4873047,-0.027597778,4.8948824E-4,0.044682443,0.12,1.01,-0.05,23746,9958.90,0,0,165,-1.12,-2.59,3.15,0.12,1.01,-0.05
0.08691406,-0.060597777,0.005489487,0.10168244,0.13,1.0,-0.05,23753,9958.50,0,0,0,-3.43,-2.24,7.14,0.13,1.00,-0.05
0.4873047,-0.060597777,0.0064894874,0.08768244,0.14,1.0,-0.04,23768,9958.90,0,0,165,-3.43,-2.17,6.16,0.14,1.00,-0.04
-0.5126953,-0.014597775,0.0024894886,0.02368244,0.13,1.0,-0.04,23783,9957.90,0,0,0,-0.21,-2.45,1.68,0.13,1.00,-0.04
0.4873047,0.031402227,-0.0015105121,-0.06531756,0.11,1.0,-0.05,23791,9958.90,0,0,165,3.01,-2.73,-4.55,0.11,1.00,-0.05
0.4873047,0.061402224,-0.0055105127,-0.09831756,0.09,1.0,-0.06,23806,9958.90,0,0,0,5.11,-3.01,-6.86,0.09,1.00,-0.06
-0.5126953,0.049402226,-0.0045105107,-0.06831756,0.09,1.0,-0.07,23821,9957.90,0,0,165,4.27,-2.94,-4.76,0.09,1.00,-0.07
-0.81347656,4.0222332E-4,-0.0015105121,-0.0013175593,0.1,1.01,-0.06,23828,9957.60,0,0,0,0.84,-2.73,-0.07,0.10,1.01,-0.06
0.4873047,-0.039597776,4.8948824E-4,0.07568245,0.12,1.0,-0.06,23843,9958.90,0,0,165,-1.96,-2.59,5.32,0.12,1.00,-0.06
0.4873047,-0.062597774,0.0034894869,0.097682446,0.13,1.0,-0.04,23858,9958.90,0,0,0,-3.57,-2.38,6.86,0.13,1.00,-0.04
0.4873047,-0.046597775,0.0064894874,0.07168244,0.13,1.0,-0.04,23866,9958.90,0,0,165,-2.45,-2.17,5.04,0.13,1.00,-0.04
0.4873047,-0.0025977762,0.0024894886,-0.010317559,0.12,0.99,-0.05,23880,9958.90,0,0,0,0.63,-2.45,-0.70,0.12,0.99,-0.05
-0.5126953,0.041402224,-0.0015105121,-0.07431756,0.11,0.99,-0.06,23895,9957.90,0,0,165,3.71,-2.73,-5.18,0.11,0.99,-0.06
0.4873047,0.058402225,-0.0045105107,-0.09531756,0.1,1.0,-0.07,23903,9958.90,0,0,0,4.90,-2.94,-6.65,0.10,1.00,-0.07
-0.5126953,0.037402228,-0.0055105127,-0.06231756,0.1,1.01,-0.07,23925,9957.90,0,0,165,3.43,-3.01,-4.34,0.10,1.01,-0.07
-0.5126953,-0.0055977763,-0.0035105087,0.00968244,0.11,1.01,-0.06,23933,9957.90,0,0,0,0.42,-2.87,0.70,0.11,1.01,-0.06
0.4873047,-0.045597777,0.0034894869,0.06968244,0.12,1.0,-0.05,23941,9958.90,0,0,165,-2.38,-2.38,4.90,0.12,1.00,-0.05
0.4873047,-0.057597775,0.004489489,0.089682445,0.13,1.0,-0.04,23955,9958.90,0,0,0,-3.22,-2.31,6.30,0.13,1.00,-0.04
-1.2128906,-0.038597777,0.0024894886,0.05068244,0.13,1.0,-0.05,23970,9957.20,0,0,165,-1.89,-2.45,3.57,0.13,1.00,-0.05
-0.5126953,0.008402224,4.8948824E-4,-0.015317559,0.12,0.99,-0.05,23977,9957.90,0,0,0,1.40,-2.59,-1.05,0.12,0.99,-0.05
-0.5126953,0.045402225,-0.0035105087,-0.08031756,0.11,1.0,-0.06,23993,9957.90,0,0,165,3.99,-2.87,-5.60,0.11,1.00,-0.06
-0.5126953,0.051402226,-0.006510511,-0.08531756,0.1,1.0,-0.07,24008,9957.90,0,0,0,4.41,-3.08,-5.95,0.10,1.00,-0.07
0.4873047,0.023402225,-0.0015105121,-0.04531756,0.1,1.0,-0.06,24016,9958.90,0,0,165,2.45,-2.73,-3.15,0.10,1.00,-0.06
0.4873047,-0.010597776,-0.0015105121,0.02868244,0.11,1.01,-0.06,24031,9958.90,0,0,0,0.07,-2.73,2.03,0.11,1.01,-0.06
0.4873047,-0.044597775,0.0034894869,0.07768244,0.12,1.0,-0.05,24045,9958.90,0,0,165,-2.31,-2.38,5.46,0.12,1.00,-0.05
0.4873047,-0.051597774,0.0064894874,0.08668245,0.13,1.0,-0.04,24053,9958.90,0,0,0,-2.80,-2.17,6.09,0.13,1.00,-0.04
-0.5126953,-0.024597775,0.0024894886,0.031682443,0.13,1.0,-0.04,24067,9957.90,0,0,165,-0.91,-2.45,2.24,0.13,1.00,-0.04
-0.5126953,0.021402225,-0.0025105104,-0.03331756,0.12,1.0,-0.05,24082,9957.90,0,0,0,2.31,-2.80,-2.31,0.12,1.00,-0.05
0.4873047,0.050402228,-0.0045105107,-0.07831756,0.11,1.0,-0.06,24090,9958.90,0,0,165,4.34,-2.94,-5.46,0.11,1.00,-0.06
1.3867188,0.050402228,-0.0045105107,-0.072317556,0.1,1.0,-0.07,24106,9959.80,0,0,0,4.34,-2.94,-5.04,0.10,1.00,-0.07
1.0869141,0.022402227,-5.105138E-4,-0.025317559,0.1,1.0,-0.06,24122,9959.50,0,0,165,2.38,-2.66,-1.75,0.10,1.00,-0.06
0.4873047,-0.017597776,-5.105138E-4,0.030682443,0.11,1.01,-0.06,24128,9958.90,0,0,0,-0.42,-2.66,2.17,0.11,1.01,-0.06
0.4873047,-0.045597777,0.0024894886,0.078682445,0.12,1.0,-0.05,24143,9958.90,0,0,165,-2.38,-2.45,5.53,0.12,1.00,-0.05
0.4873047,-0.045597777,0.005489487,0.070682436,0.13,1.0,-0.05,24158,9958.90,0,0,0,-2.38,-2.24,4.97,0.13,1.00,-0.05
0.4873047,-0.013597776,0.0014894903,0.021682441,0.13,1.0,-0.05,24166,9958.90,0,0,165,-0.14,-2.52,1.54,0.13,1.00,-0.05
1.3867188,0.029402222,-0.0025105104,-0.048317555,0.12,1.0,-0.05,24181,9959.80,0,0,0,2.87,-2.80,-3.36,0.12,1.00,-0.05
0.7871094,0.048402224,-0.0045105107,-0.07631756,0.1,1.0,-0.06,24196,9959.20,0,0,165,4.20,-2.94,-5.32,0.10,1.00,-0.06
0.4873047,0.038402226,-0.0025105104,-0.05631756,0.1,1.0,-0.06,24204,9958.90,0,0,0,3.50,-2.80,-3.92,0.10,1.00,-0.06
0.7871094,0.0034022238,4.8948824E-4,-0.0063175587,0.1,1.0,-0.06,24218,9959.20,0,0,165,1.05,-2.59,-0.42,0.10,1.00,-0.06
0.4873047,-0.028597776,0.0034894869,0.05668244,0.11,1.0,-0.05,24233,9958.90,0,0,0,-1.19,-2.38,3.99,0.11,1.00,-0.05
0.4873047,-0.046597775,0.0024894886,0.07568245,0.12,1.0,-0.05,24240,9958.90,0,0,165,-2.45,-2.45,5.32,0.12,1.00,-0.05
0.08691406,-0.033597775,0.0034894869,0.053682443,0.13,1.0,-0.05,24255,9958.50,0,0,0,-1.54,-2.38,3.78,0.13,1.00,-0.05
0.4873047,-0.0015977761,0.0014894903,0.001682441,0.12,1.0,-0.05,24271,9958.90,0,0,165,0.70,-2.52,0.14,0.12,1.00,-0.05
-0.5126953,0.032402225,-0.0015105121,-0.060317557,0.12,1.0,-0.05,24278,9957.90,0,0,0,3.08,-2.73,-4.20,0.12,1.00,-0.05
-0.5126953,0.047402225,-0.0045105107,-0.07731756,0.1,1.0,-0.06,24292,9957.90,0,0,165,4.13,-2.94,-5.39,0.10,1.00,-0.06
-0.5126953,0.031402227,-0.0025105104,-0.05231756,0.1,1.01,-0.06,24308,9957.90,0,0,0,3.01,-2.80,-3.64,0.10,1.01,-0.06
0.4873047,-0.0025977762,4.8948824E-4,0.013682441,0.1,1.01,-0.06,24315,9958.90,0,0,165,0.63,-2.59,0.98,0.10,1.01,-0.06
-0.5126953,-0.033597775,0.0034894869,0.061682444,0.11,1.0,-0.05,24331,9957.90,0,0,0,-1.54,-2.38,4.34,0.11,1.00,-0.05
0.4873047,-0.045597777,0.0034894869,0.07568245,0.12,1.0,-0.05,24346,9958.90,0,0,165,-2.38,-2.38,5.32,0.12,1.00,-0.05
1.3867188,-0.029597774,0.0034894869,0.048682444,0.13,1.0,-0.05,24355,9959.80,0,0,0,-1.26,-2.38,3.43,0.13,1.00,-0.05
-0.5126953,0.0024022246,4.8948824E-4,-0.003317559,0.12,1.0,-0.05,24368,9957.90,0,0,165,0.98,-2.59,-0.21,0.12,1.00,-0.05
-0.21289062,0.032402225,-0.0035105087,-0.060317557,0.12,1.0,-0.06,24382,9958.20,0,0,0,3.08,-2.87,-4.20,0.12,1.00,-0.06
-0.21289062,0.044402227,-0.0035105087,-0.06831756,0.11,1.0,-0.06,24390,9958.20,0,0,165,3.92,-2.87,-4.76,0.11,1.00,-0.06
-0.5126953,0.019402225,-0.0015105121,-0.031317562,0.1,1.01,-0.06,24405,9957.90,0,0,0,2.17,-2.73,-2.17,0.10,1.01,-0.06
0.4873047,-0.013597776,4.8948824E-4,0.020682441,0.1,1.0,-0.06,24427,9958.90,0,0,165,-0.14,-2.59,1.47,0.10,1.00,-0.06
0.4873047,-0.036597777,0.0014894903,0.06468245,0.12,1.0,-0.05,24429,9958.90,0,0,0,-1.75,-2.52,4.55,0.12,1.00,-0.05
-0.5126953,-0.036597777,0.0034894869,0.061682444,0.12,1.0,-0.04,24443,9957.90,0,0,165,-1.75,-2.38,4.34,0.12,1.00,-0.04
-0.5126953,-0.015597776,4.8948824E-4,0.024682442,0.12,1.0,-0.05,24458,9957.90,0,0,0,-0.28,-2.59,1.75,0.12,1.00,-0.05
0.4873047,0.016402226,4.8948824E-4,-0.03731756,0.12,1.0,-0.05,24465,9958.90,0,0,165,1.96,-2.59,-2.59,0.12,1.00,-0.05
-0.21289062,0.043402225,-0.0035105087,-0.06931756,0.11,1.0,-0.06,24481,9958.20,0,0,0,3.85,-2.87,-4.83,0.11,1.00,-0.06
0.4873047,0.038402226,-0.0035105087,-0.06131756,0.1,1.0,-0.06,24496,9958.90,0,0,165,3.50,-2.87,-4.27,0.10,1.00,-0.06
-0.5126953,0.0124022225,4.8948824E-4,-0.0113175595,0.1,1.0,-0.06,24503,9957.90,0,0,0,1.68,-2.59,-0.77,0.10,1.00,-0.06
-1.5126953,-0.026597776,0.0024894886,0.03968244,0.11,1.0,-0.06,24518,9956.90,0,0,165,-1.05,-2.45,2.80,0.11,1.00,-0.06
0.4873047,-0.04259778,0.0024894886,0.06968244,0.12,1.0,-0.05,24533,9958.90,0,0,0,-2.17,-2.45,4.90,0.12,1.00,-0.05
0.08691406,-0.033597775,0.0024894886,0.055682443,0.12,1.0,-0.05,24540,9958.50,0,0,165,-1.54,-2.45,3.92,0.12,1.00,-0.05
0.4873047,-0.006597776,-5.105138E-4,0.001682441,0.12,1.0,-0.05,24556,9958.90,0,0,0,0.35,-2.66,0.14,0.12,1.00,-0.05
0.4873047,0.029402222,-5.105138E-4,-0.04431756,0.12,1.0,-0.05,24571,9958.90,0,0,165,2.87,-2.66,-3.08,0.12,1.00,-0.05
0.4873047,0.042402226,-0.0035105087,-0.06631756,0.11,1.0,-0.06,24577,9958.90,0,0,0,3.78,-2.87,-4.62,0.11,1.00,-0.06
-0.81347656,0.029402222,-0.0025105104,-0.042317558,0.1,1.0,-0.06,24593,9957.60,0,0,165,2.87,-2.80,-2.94,0.10,1.00,-0.06
-0.5126953,-0.0025977762,-5.105138E-4,6.824409E-4,0.1,1.0,-0.06,24608,9957.90,0,0,0,0.63,-2.66,0.07,0.10,1.00,-0.06
-0.5126953,-0.027597778,0.0024894886,0.04368244,0.11,1.0,-0.06,24615,9957.90,0,0,165,-1.12,-2.45,3.08,0.11,1.00,-0.06
-0.5126953,-0.035597775,0.0024894886,0.05968244,0.12,1.0,-0.05,24631,9957.90,0,0,0,-1.68,-2.45,4.20,0.12,1.00,-0.05
-0.5126953,-0.025597777,0.0024894886,0.03568244,0.12,1.0,-0.05,24645,9957.90,0,0,165,-0.98,-2.45,2.52,0.12,1.00,-0.05
-0.5126953,0.004402225,-5.105138E-4,-0.009317559,0.12,1.0,-0.05,24653,9957.90,0,0,0,1.12,-2.66,-0.63,0.12,1.00,-0.05
-0.5126953,0.029402222,-0.0035105087,-0.05031756,0.11,1.0,-0.05,24668,9957.90,0,0,165,2.87,-2.87,-3.50,0.11,1.00,-0.05
0.4873047,0.033402227,-0.0025105104,-0.05731756,0.11,1.0,-0.06,24683,9958.90,0,0,0,3.15,-2.80,-3.99,0.11,1.00,-0.06
-0.5126953,0.017402224,-0.0015105121,-0.02731756,0.1,1.0,-0.06,24690,9957.90,0,0,165,2.03,-2.73,-1.89,0.10,1.00,-0.06
-0.5126953,-0.008597776,0.0014894903,0.022682441,0.11,1.0,-0.06,24705,9957.90,0,0,0,0.21,-2.52,1.61,0.11,1.00,-0.06
0.4873047,-0.030597776,0.0024894886,0.051682442,0.11,1.0,-0.05,24721,9958.90,0,0,165,-1.33,-2.45,3.64,0.11,1.00,-0.05
0.4873047,-0.030597776,0.0034894869,0.05268244,0.12,1.0,-0.05,24728,9958.90,0,0,0,-1.33,-2.38,3.71,0.12,1.00,-0.05
-0.5126953,-0.014597775,4.8948824E-4,0.024682442,0.12,1.0,-0.05,24743,9957.90,0,0,165,-0.21,-2.59,1.75,0.12,1.00,-0.05
-0.5126953,0.010402224,-0.0015105121,-0.02731756,0.12,1.0,-0.05,24758,9957.90,0,0,0,1.54,-2.73,-1.89,0.12,1.00,-0.05
0.4873047,0.030402225,-0.0015105121,-0.053317558,0.12,1.0,-0.06,24765,9958.90,0,0,165,2.94,-2.73,-3.71,0.12,1.00,-0.06
0.4873047,0.031402227,-0.0015105121,-0.04431756,0.11,1.0,-0.06,24781,9958.90,0,0,0,3.01,-2.73,-3.08,0.11,1.00,-0.06
-0.5126953,0.0124022225,4.8948824E-4,-0.0113175595,0.1,1.0,-0.06,24795,9957.90,0,0,165,1.68,-2.59,-0.77,0.10,1.00,-0.06
0.08691406,-0.016597776,0.0014894903,0.027682442,0.11,1.0,-0.06,24804,9958.50,0,0,0,-0.35,-2.52,1.96,0.11,1.00,-0.06
-0.21289062,-0.029597774,0.0014894903,0.048682444,0.11,1.0,-0.05,24818,9958.20,0,0,165,-1.26,-2.52,3.43,0.11,1.00,-0.05
0.4873047,-0.026597776,4.8948824E-4,0.038682442,0.12,1.0,-0.05,24833,9958.90,0,0,0,-1.05,-2.59,2.73,0.12,1.00,-0.05
0.4873047,-0.0035977755,0.0014894903,0.00968244,0.12,1.0,-0.05,24841,9958.90,0,0,165,0.56,-2.52,0.70,0.12,1.00,-0.05
0.4873047,0.022402227,-5.105138E-4,-0.03431756,0.12,1.0,-0.05,24855,9958.90,0,0,0,2.38,-2.66,-2.38,0.12,1.00,-0.05
0.4873047,0.028402224,-0.0025105104,-0.048317555,0.11,1.0,-0.06,24871,9958.90,0,0,165,2.80,-2.80,-3.36,0.11,1.00,-0.06
0.4873047,0.020402227,4.8948824E-4,-0.03331756,0.11,1.0,-0.06,24878,9958.90,0,0,0,2.24,-2.59,-2.31,0.11,1.00,-0.06
1.3867188,4.0222332E-4,4.8948824E-4,0.004682441,0.11,1.0,-0.06,24893,9959.80,0,0,165,0.84,-2.59,0.35,0.11,1.00,-0.06
0.4873047,-0.021597777,0.0014894903,0.033682443,0.11,1.0,-0.06,24907,9958.90,0,0,0,-0.70,-2.52,2.38,0.11,1.00,-0.06
0.4873047,-0.027597778,0.0024894886,0.04168244,0.12,1.0,-0.05,24915,9958.90,0,0,165,-1.12,-2.45,2.94,0.12,1.00,-0.05
-0.5126953,-0.014597775,0.0024894886,0.02368244,0.12,1.0,-0.05,24930,9957.90,0,0,0,-0.21,-2.45,1.68,0.12,1.00,-0.05
-0.5126953,0.005402225,-0.0015105121,-0.015317559,0.12,1.0,-0.05,24946,9957.90,0,0,165,1.19,-2.73,-1.05,0.12,1.00,-0.05
-0.21289062,0.024402224,4.8948824E-4,-0.036317557,0.11,1.0,-0.05,24953,9958.20,0,0,0,2.52,-2.59,-2.52,0.11,1.00,-0.05
0.4873047,0.025402226,-0.0025105104,-0.03531756,0.11,1.0,-0.06,24968,9958.90,0,0,165,2.59,-2.80,-2.45,0.11,1.00,-0.06
0.4873047,0.0074022254,4.8948824E-4,-0.01331756,0.11,1.0,-0.06,24982,9958.90,0,0,0,1.33,-2.59,-0.91,0.11,1.00,-0.06
-0.5126953,-0.010597776,4.8948824E-4,0.016682442,0.11,1.0,-0.06,24990,9957.90,0,0,165,0.07,-2.59,1.19,0.11,1.00,-0.06
-0.5126953,-0.020597775,0.0014894903,0.037682444,0.12,1.0,-0.06,25006,9957.90,0,0,0,-0.63,-2.52,2.66,0.12,1.00,-0.06
-0.5126953,-0.021597777,0.0024894886,0.03668244,0.12,1.0,-0.05,25020,9957.90,0,0,165,-0.70,-2.45,2.59,0.12,1.00,-0.05
0.4873047,-0.011597776,0.0014894903,0.01168244,0.12,1.0,-0.05,25027,9958.90,0,0,0,0.00,-2.52,0.84,0.12,1.00,-0.05
-0.5126953,0.010402224,4.8948824E-4,-0.01631756,0.12,1.0,-0.05,25043,9957.90,0,0,165,1.54,-2.59,-1.12,0.12,1.00,-0.05
0.4873047,0.021402225,-0.0015105121,-0.036317557,0.11,1.0,-0.05,25058,9958.90,0,0,0,2.31,-2.73,-2.52,0.11,1.00,-0.05
0.08691406,0.018402223,-0.0015105121,-0.02731756,0.11,1.0,-0.05,25066,9958.50,0,0,165,2.10,-2.73,-1.89,0.11,1.00,-0.05
-0.5126953,0.0034022238,4.8948824E-4,-0.0073175593,0.11,1.0,-0.06,25080,9957.90,0,0,0,1.05,-2.59,-0.49,0.11,1.00,-0.06
0.4873047,-0.011597776,4.8948824E-4,0.01768244,0.11,1.0,-0.06,25095,9958.90,0,0,165,0.00,-2.59,1.26,0.11,1.00,-0.06
0.4873047,-0.020597775,4.8948824E-4,0.03268244,0.12,1.0,-0.05,25103,9958.90,0,0,0,-0.63,-2.59,2.31,0.12,1.00,-0.05
0.4873047,-0.017597776,0.0014894903,0.027682442,0.12,1.0,-0.05,25118,9958.90,0,0,165,-0.42,-2.52,1.96,0.12,1.00,-0.05
-0.21289062,-0.0015977761,4.8948824E-4,0.0056824405,0.12,1.0,-0.05,25133,9958.20,0,0,0,0.70,-2.59,0.42,0.12,1.00,-0.05
0.4873047,0.011402224,-5.105138E-4,-0.022317559,0.12,1.0,-0.05,25140,9958.90,0,0,165,1.61,-2.66,-1.54,0.12,1.00,-0.05
0.4873047,0.019402225,-5.105138E-4,-0.02831756,0.11,1.0,-0.06,25156,9958.90,0,0,0,2.17,-2.66,-1.96,0.11,1.00,-0.06
0.4873047,0.0134022245,-5.105138E-4,-0.021317558,0.11,1.0,-0.05,25170,9958.90,0,0,165,1.75,-2.66,-1.47,0.11,1.00,-0.05
0.4873047,4.0222332E-4,4.8948824E-4,6.824409E-4,0.11,1.0,-0.06,25177,9958.90,0,0,0,0.84,-2.59,0.07,0.11,1.00,-0.06
-0.5126953,-0.0095977755,4.8948824E-4,0.01768244,0.11,1.0,-0.06,25193,9957.90,0,0,165,0.14,-2.59,1.26,0.11,1.00,-0.06
0.4873047,-0.015597776,0.0014894903,0.027682442,0.12,1.0,-0.06,25208,9958.90,0,0,0,-0.28,-2.52,1.96,0.12,1.00,-0.06
1.3867188,-0.010597776,4.8948824E-4,0.015682442,0.12,1.0,-0.05,25215,9959.80,0,0,165,0.07,-2.59,1.12,0.12,1.00,-0.05
0.4873047,0.004402225,-5.105138E-4,-0.00831756,0.12,1.0,-0.05,25230,9958.90,0,0,0,1.12,-2.66,-0.56,0.12,1.00,-0.05
0.4873047,0.0124022225,-0.0015105121,-0.021317558,0.12,1.0,-0.05,25245,9958.90,0,0,165,1.68,-2.73,-1.47,0.12,1.00,-0.05
-0.5126953,0.0134022245,-5.105138E-4,-0.023317559,0.11,1.0,-0.05,25253,9957.90,0,0,0,1.75,-2.66,-1.61,0.11,1.00,-0.05
-0.5126953,0.0074022254,-5.105138E-4,-0.005317559,0.11,1.0,-0.06,25268,9957.90,0,0,165,1.33,-2.66,-0.35,0.11,1.00,-0.06
0.4873047,-0.0075977757,4.8948824E-4,0.01068244,0.11,1.0,-0.06,25283,9958.90,0,0,0,0.28,-2.59,0.77,0.11,1.00,-0.06
1.3867188,-0.011597776,4.8948824E-4,0.022682441,0.11,1.0,-0.05,25290,9959.80,0,0,165,0.00,-2.59,1.61,0.11,1.00,-0.05
-0.5126953,-0.011597776,0.0014894903,0.01968244,0.12,1.0,-0.05,25305,9957.90,0,0,0,0.00,-2.52,1.40,0.12,1.00,-0.05
0.4873047,-0.0045977756,0.0014894903,0.004682441,0.12,1.0,-0.05,25320,9958.90,0,0,165,0.49,-2.52,0.35,0.12,1.00,-0.05
-0.5126953,0.0074022254,-5.105138E-4,-0.012317559,0.12,1.0,-0.05,25327,9957.90,0,0,0,1.33,-2.66,-0.84,0.12,1.00,-0.05
0.4873047,0.0134022245,-0.0015105121,-0.022317559,0.11,1.0,-0.05,25343,9958.90,0,0,165,1.75,-2.73,-1.54,0.11,1.00,-0.05
0.4873047,0.009402224,-0.0015105121,-0.01931756,0.11,1.0,-0.06,25360,9958.90,0,0,0,1.47,-2.73,-1.33,0.11,1.00,-0.06
