Pressure_Rel,GyroX_Rel,GyroY_Rel,GyroZ_Rel,AccX_Rel,AccY_Rel,AccZ_Rel,Timestamp,Pressure_abs,HeartRate,Oxygen,Status,GyroX,GyroY,GyroZ,AccX,AccY,AccZ
0.0,0.0,0.0,0.0,0.0,0.0,0.0,1609,9936.20,0,0,165,0.49,-2.87,0.56,0.14,1.00,-0.04
0.0,0.0,0.0,0.0,0.0,0.0,0.0,1624,9935.30,0,0,0,0.28,-2.80,0.70,0.14,1.00,-0.04
0.0,0.0,0.0,0.0,0.0,0.0,0.0,1640,9935.90,0,0,165,0.28,-2.80,0.63,0.14,1.00,-0.04
0.0,0.0,0.0,0.0,0.0,0.0,0.0,1646,9935.30,0,0,0,0.49,-2.87,0.14,0.14,1.00,-0.04
0.0,0.0,0.0,0.0,0.0,0.0,0.0,1662,9936.20,0,0,165,0.91,-2.80,-0.28,0.14,1.00,-0.05
0.0,0.0,0.0,0.0,0.0,0.0,0.0,1676,9935.30,0,0,0,0.91,-2.80,-0.35,0.14,1.00,-0.05
0.0,0.0,0.0,0.0,0.0,0.0,0.0,1683,9935.30,0,0,165,0.84,-2.94,-0.21,0.14,1.00,-0.05
0.0,0.0,0.0,0.0,0.0,0.0,0.0,1699,9934.30,0,0,0,0.49,-2.73,0.42,0.14,1.00,-0.04
0.0,0.0,0.0,0.0,0.0,0.0,0.0,1714,9935.30,0,0,165,0.14,-2.87,0.98,0.14,1.00,-0.04
0.0,0.0,0.0,0.0,0.0,0.0,0.0,1721,9936.20,0,0,0,0.07,-2.80,0.98,0.14,1.00,-0.04
0.0,0.0,0.0,0.0,0.0,0.0,0.0,1736,9935.30,0,0,165,0.42,-2.80,0.49,0.14,1.00,-0.04
0.0,0.0,0.0,0.0,0.0,0.0,0.0,1751,9936.50,0,0,0,0.84,-2.94,-0.42,0.14,1.00,-0.05
0.0,0.0,0.0,0.0,0.0,0.0,0.0,1759,9936.50,0,0,165,1.12,-2.94,-0.98,0.14,1.00,-0.05
0.0,0.0,0.0,0.0,0.0,0.0,0.0,1774,9936.20,0,0,0,1.33,-2.94,-1.33,0.13,1.00,-0.06
0.0,0.0,0.0,0.0,0.0,0.0,0.0,1789,9935.30,0,0,165,1.19,-2.45,0.42,0.15,1.02,-0.03
0.0,0.0,0.0,0.0,0.0,0.0,0.0,1796,9935.30,0,0,0,0.35,-3.15,0.91,0.15,1.00,-0.04
0.0,0.0,0.0,0.0,0.0,0.0,0.0,1812,9935.30,0,0,165,0.14,-2.45,1.26,0.14,1.00,-0.05
0.0,0.0,0.0,0.0,0.0,0.0,0.0,1826,9935.30,0,0,0,0.35,-2.80,0.63,0.14,1.00,-0.05
0.0,0.0,0.0,0.0,0.0,0.0,0.0,1836,9935.60,0,0,165,1.05,-3.01,-0.63,0.13,1.00,-0.06
0.0,0.0,0.0,0.0,0.0,0.0,0.0,1848,9935.60,0,0,0,1.05,-3.29,-0.28,0.13,1.00,-0.05
0.0,0.0,0.0,0.0,0.0,0.0,0.0,1864,9934.60,0,0,165,0.42,-3.08,0.49,0.13,1.00,-0.04
0.0,0.0,0.0,0.0,0.0,0.0,0.0,1870,9935.30,0,0,0,0.14,-3.43,1.05,0.14,1.00,-0.04
0.0,0.0,0.0,0.0,0.0,0.0,0.0,1886,9935.60,0,0,165,-0.28,-2.66,1.33,0.14,1.00,-0.04
0.0,0.0,0.0,0.0,0.0,0.0,0.0,1902,9936.20,0,0,0,0.42,-2.87,0.70,0.14,1.00,-0.05
0.0,0.0,0.0,0.0,0.0,0.0,0.0,1911,9935.60,0,0,165,0.84,-2.94,-0.91,0.14,0.99,-0.05
0.0,0.0,0.0,0.0,0.0,0.0,0.0,1923,9935.30,0,0,0,1.54,-2.87,-1.54,0.14,1.00,-0.05
0.0,0.0,0.0,0.0,0.0,0.0,0.0,1939,9935.30,0,0,165,1.40,-3.08,-1.19,0.13,1.00,-0.05
0.0,0.0,0.0,0.0,0.0,0.0,0.0,1946,9935.90,0,0,0,0.98,-2.73,-0.49,0.13,1.00,-0.04
0.0,0.0,0.0,0.0,0.0,0.0,0.0,1961,9935.60,0,0,165,0.63,-2.94,0.35,0.13,1.00,-0.04
0.0,0.0,0.0,0.0,0.0,0.0,0.0,1976,9936.50,0,0,0,0.00,-2.52,1.19,0.14,1.00,-0.04
0.0,0.0,0.0,0.0,0.0,0.0,0.0,1983,9935.60,0,0,165,0.14,-2.73,1.19,0.14,1.00,-0.04
0.0,0.0,0.0,0.0,0.0,0.0,0.0,1998,9934.60,0,0,0,0.35,-2.73,0.77,0.14,1.00,-0.04
0.0,0.0,0.0,0.0,0.0,0.0,0.0,2013,9935.60,0,0,165,0.63,-2.87,0.00,0.14,1.00,-0.04
0.0,0.0,0.0,0.0,0.0,0.0,0.0,2021,9935.60,0,0,0,0.98,-2.94,-0.63,0.14,1.00,-0.05
0.0,0.0,0.0,0.0,0.0,0.0,0.0,2036,9934.60,0,0,165,1.05,-2.80,-0.56,0.13,1.00,-0.05
0.0,0.0,0.0,0.0,0.0,0.0,0.0,2051,9935.90,0,0,0,0.63,-2.94,0.00,0.14,1.00,-0.05
0.0,0.0,0.0,0.0,0.0,0.0,0.0,2058,9935.60,0,0,165,0.00,-2.66,0.91,0.14,1.00,-0.05
0.0,0.0,0.0,0.0,0.0,0.0,0.0,2073,9934.90,0,0,0,-0.14,-2.73,1.26,0.14,1.00,-0.05
0.0,0.0,0.0,0.0,0.0,0.0,0.0,2088,9935.60,0,0,165,0.21,-2.87,0.91,0.14,1.00,-0.04
0.0,0.0,0.0,0.0,0.0,0.0,0.0,2096,9935.60,0,0,0,0.77,-2.94,-0.35,0.14,1.00,-0.04
0.0,0.0,0.0,0.0,0.0,0.0,0.0,2111,9936.50,0,0,165,1.47,-2.87,-1.26,0.14,1.00,-0.04
0.0,0.0,0.0,0.0,0.0,0.0,0.0,2126,9935.90,0,0,0,1.33,-2.94,-1.19,0.14,1.12,-0.05
0.0,0.0,0.0,0.0,0.0,0.0,0.0,2133,9935.60,0,0,165,1.12,-3.01,-0.42,0.14,1.00,-0.05
0.0,0.0,0.0,0.0,0.0,0.0,0.0,2148,9934.60,0,0,0,0.42,-2.87,0.49,0.14,1.00,-0.05
0.0,0.0,0.0,0.0,0.0,0.0,0.0,2163,9935.60,0,0,165,-0.21,-2.80,1.33,0.14,1.00,-0.04
0.0,0.0,0.0,0.0,0.0,0.0,0.0,2171,9935.60,0,0,0,-0.21,-2.80,1.61,0.14,1.00,-0.04
0.0,0.0,0.0,0.0,0.0,0.0,0.0,2187,9935.90,0,0,165,0.14,-2.80,0.98,0.14,1.00,-0.04
0.0,0.0,0.0,0.0,0.0,0.0,0.0,2202,9935.90,0,0,0,0.84,-2.87,-0.21,0.14,1.00,-0.04
0.0,0.0,0.0,0.0,0.0,0.0,0.0,2209,9935.00,0,0,165,1.26,-2.94,-1.12,0.14,1.00,-0.05
0.0,0.0,0.0,0.0,0.0,0.0,0.0,2224,9934.60,0,0,0,1.47,-3.08,-1.54,0.14,1.00,-0.05
0.0,0.0,0.0,0.0,0.0,0.0,0.0,2238,9934.60,0,0,165,1.12,-2.94,-0.91,0.14,1.00,-0.05
0.0,0.0,0.0,0.0,0.0,0.0,0.0,2246,9935.60,0,0,0,0.42,-2.87,0.56,0.14,1.00,-0.05
0.0,0.0,0.0,0.0,0.0,0.0,0.0,2261,9935.60,0,0,165,-0.14,-2.73,1.47,0.14,1.00,-0.04
0.0,0.0,0.0,0.0,0.0,0.0,0.0,2276,9935.60,0,0,0,-0.35,-2.80,1.75,0.14,1.00,-0.04
0.0,0.0,0.0,0.0,0.0,0.0,0.0,2283,9935.00,0,0,165,0.14,-2.80,0.70,0.14,1.00,-0.04
0.0,0.0,0.0,0.0,0.0,0.0,0.0,2298,9935.30,0,0,0,18.62,-21.42,-10.78,0.14,1.00,-0.08
0.0,0.0,0.0,0.0,0.0,0.0,0.0,2314,9935.60,0,0,165,0.63,-21.42,-4.06,0.26,0.98,0.13
0.0,0.0,0.0,0.0,0.0,0.0,0.0,2321,9935.60,0,0,0,-4.20,-100.87,-0.07,0.36,1.00,0.18
0.0,0.0,0.0,0.0,0.0,0.0,0.0,2336,9935.00,0,0,165,-13.16,-161.21,-4.41,0.29,0.95,0.13
0.0,0.0,0.0,0.0,0.0,0.0,0.0,2351,9935.90,0,0,0,-7.56,-191.73,-22.96,0.14,0.95,-0.02
0.0,0.0,0.0,0.0,0.0,0.0,0.0,2359,9934.60,0,0,165,8.40,-176.68,-33.60,0.04,0.99,-0.12
0.0,0.0,0.0,0.0,0.0,0.0,0.0,2373,9935.90,0,0,0,15.54,-138.74,-33.32,0.01,0.99,-0.17
0.0,0.0,0.0,0.0,0.0,0.0,0.0,2389,9935.90,0,0,165,13.23,-93.66,-25.55,-0.04,1.02,-0.17
0.0,0.0,0.0,0.0,0.0,0.0,0.0,2396,9935.00,0,0,0,5.46,-74.83,-11.76,0.00,1.02,-0.16
0.0,0.0,0.0,0.0,0.0,0.0,0.0,2411,9935.90,0,0,165,1.75,-53.48,0.63,0.03,1.01,-0.13
0.0,0.0,0.0,0.0,0.0,0.0,0.0,2426,9934.60,0,0,0,-3.08,-37.80,8.12,0.05,1.02,-0.10
0.0,0.0,0.0,0.0,0.0,0.0,0.0,2434,9935.90,0,0,165,-9.73,-30.59,17.78,0.07,1.01,-0.08
0.0,0.0,0.0,0.0,0.0,0.0,0.0,2449,9935.90,0,0,0,-15.61,-30.17,24.78,0.09,1.01,-0.06
0.0,0.0,0.0,0.0,0.0,0.0,0.0,2464,9938.50,0,0,165,-14.28,-30.10,18.34,0.12,0.98,-0.05
0.0,0.0,0.0,0.0,0.0,0.0,0.0,2471,9938.50,0,0,0,-15.96,-14.00,23.31,0.01,1.03,-0.14
0.0,0.0,0.0,0.0,0.0,0.0,0.0,2486,9937.90,0,0,165,-31.01,6.51,52.01,0.08,1.04,-0.08
0.0,0.0,0.0,0.0,0.0,0.0,0.0,2503,9937.90,0,0,0,-34.23,12.60,58.52,-0.01,1.00,-0.24
0.0,0.0,0.0,0.0,0.0,0.0,0.0,2513,9941.70,0,0,165,-33.53,57.40,68.67,0.05,1.01,-0.17
0.0,0.0,0.0,0.0,0.0,0.0,0.0,2523,9943.90,0,0,0,-42.21,62.86,85.12,0.00,1.01,-0.18
0.0,0.0,0.0,0.0,0.0,0.0,0.0,2546,9940.10,0,0,165,-57.89,62.16,107.59,0.02,1.00,-0.15
0.0,0.0,0.0,0.0,0.0,0.0,0.0,2547,9941.70,0,0,0,38.71,93.24,103.67,0.01,1.00,-0.05
0.0,0.0,0.0,0.0,0.0,0.0,0.0,2561,9936.30,0,0,165,51.94,108.01,124.88,0.32,1.23,-0.19
0.0,0.0,0.0,0.0,0.0,0.0,0.0,2576,9936.30,0,0,0,54.60,102.62,154.28,0.26,1.10,-0.05
0.0,0.0,0.0,0.0,0.0,0.0,0.0,2584,9936.30,0,0,165,50.82,97.44,188.72,0.23,0.98,0.07
0.0,0.0,0.0,0.0,0.0,0.0,0.0,2598,9937.20,0,0,0,6.02,93.03,215.39,0.47,0.51,0.12
0.0,0.0,0.0,0.0,0.0,0.0,0.0,2614,9939.80,0,0,165,-85.40,56.42,181.09,0.36,0.68,0.07
0.0,0.0,0.0,0.0,0.0,0.0,0.0,2621,9940.70,0,0,0,-81.41,60.90,134.82,0.39,0.80,-0.02
0.0,0.0,0.0,0.0,0.0,0.0,0.0,2637,9938.80,0,0,165,-87.92,76.37,117.39,0.51,0.85,0.00
0.0,0.0,0.0,0.0,0.0,0.0,0.0,2652,9938.50,0,0,0,-95.13,57.40,83.37,0.60,0.71,0.15
0.0,0.0,0.0,0.0,0.0,0.0,0.0,2659,9939.80,0,0,165,-87.43,31.50,31.71,0.59,0.75,0.20
0.0,0.0,0.0,0.0,0.0,0.0,0.0,2674,9939.80,0,0,0,-65.24,19.60,-22.75,0.39,1.02,0.23
0.0,0.0,0.0,0.0,0.0,0.0,0.0,2689,9938.80,0,0,165,-23.24,25.41,-30.17,0.53,0.95,0.26
0.0,0.0,0.0,0.0,0.0,0.0,0.0,2696,9938.80,0,0,0,-5.95,5.46,-24.15,0.53,0.99,0.26
0.0,0.0,0.0,0.0,0.0,0.0,0.0,2712,9938.80,0,0,165,-0.77,-20.58,-9.94,0.50,0.95,0.17
0.0,0.0,0.0,0.0,0.0,0.0,0.0,2726,9938.80,0,0,0,-1.33,-31.71,2.38,0.45,0.92,0.11
0.0,0.0,0.0,0.0,0.0,0.0,0.0,2735,9938.80,0,0,165,-0.84,-32.06,1.40,0.43,0.89,0.08
0.0,0.0,0.0,0.0,0.0,0.0,0.0,2748,9938.80,0,0,0,0.14,-26.60,-6.86,0.45,0.86,0.10
0.0,0.0,0.0,0.0,0.0,0.0,0.0,2763,9938.80,0,0,165,1.89,-30.38,-21.35,0.47,0.88,0.11
0.0,0.0,0.0,0.0,0.0,0.0,0.0,2771,9937.90,0,0,0,2.80,-34.37,-26.81,0.45,0.91,0.10
0.0,0.0,0.0,0.0,0.0,0.0,0.0,2786,9937.90,0,0,165,2.66,-36.33,-22.05,0.42,0.95,0.08
0.0,0.0,0.0,0.0,0.0,0.0,0.0,2801,9937.90,0,0,0,1.68,-31.08,0.28,0.38,0.99,0.03
0.0,0.0,0.0,0.0,0.0,0.0,0.0,2809,9938.80,0,0,165,-0.63,-16.31,25.62,0.37,0.98,0.02
0.0,0.0,0.0,0.0,0.0,0.0,0.0,2824,9938.80,0,0,0,-2.66,-2.87,42.42,0.43,0.93,0.10
0.0,0.0,0.0,0.0,0.0,0.0,0.0,2839,9937.90,0,0,165,-1.68,-3.57,37.24,0.42,0.88,0.05
0.0,0.0,0.0,0.0,0.0,0.0,0.0,2846,9938.50,0,0,0,-1.05,14.56,21.98,0.40,0.83,0.02
0.0,0.0,0.0,0.0,0.0,0.0,0.0,2862,9939.40,0,0,165,0.35,31.15,2.31,0.45,0.88,0.07
0.0,0.0,0.0,0.0,0.0,0.0,0.0,2876,9937.90,0,0,0,0.00,32.13,-2.17,0.47,0.89,0.12
0.0,0.0,0.0,0.0,0.0,0.0,0.0,2884,9937.90,0,0,165,-0.28,26.39,-4.41,0.48,0.88,0.13
0.0,0.0,0.0,0.0,0.0,0.0,0.0,2899,9938.80,0,0,0,-0.70,17.64,-13.79,0.48,0.87,0.12
0.0,0.0,0.0,0.0,0.0,0.0,0.0,2914,9937.90,0,0,165,0.42,11.48,-23.59,0.47,0.87,0.12
0.0,0.0,0.0,0.0,0.0,0.0,0.0,2921,9937.50,0,0,0,2.59,4.48,-30.52,0.47,0.91,0.13
0.0,0.0,0.0,0.0,0.0,0.0,0.0,2936,9938.80,0,0,165,2.52,-1.61,-19.04,0.44,0.96,0.10
0.0,0.0,0.0,0.0,0.0,0.0,0.0,2950,9937.90,0,0,0,0.28,-2.10,5.95,0.44,0.99,0.12
0.0,0.0,0.0,0.0,0.0,0.0,0.0,2958,9937.90,0,0,165,-2.31,-1.75,29.33,0.40,0.96,0.06
0.0,0.0,0.0,0.0,0.0,0.0,0.0,2973,9937.90,0,0,0,-2.87,7.98,39.27,0.40,0.90,0.05
0.0,0.0,0.0,0.0,0.0,0.0,0.0,2988,9937.50,0,0,165,-3.43,16.03,37.45,0.44,0.90,0.10
0.0,0.0,0.0,0.0,0.0,0.0,0.0,2996,9937.50,0,0,0,-2.66,9.45,30.10,0.51,0.86,0.16
0.0,0.0,0.0,0.0,0.0,0.0,0.0,3011,9937.90,0,0,165,-1.89,-6.51,17.43,0.49,0.84,0.11
0.0,0.0,0.0,0.0,0.0,0.0,0.0,3028,9937.90,0,0,0,-0.21,-7.98,-0.84,0.48,0.87,0.09
0.0,0.0,0.0,0.0,0.0,0.0,0.0,3033,9937.90,0,0,165,1.68,-9.10,-11.27,0.47,0.90,0.11
0.0,0.0,0.0,0.0,0.0,0.0,0.0,3049,9938.80,0,0,0,1.33,-4.97,-3.92,0.42,0.94,0.07
0.0,0.0,0.0,0.0,0.0,0.0,0.0,3064,9937.90,0,0,165,-0.84,-3.50,11.48,0.46,0.94,0.12
0.0,0.0,0.0,0.0,0.0,0.0,0.0,3071,9937.90,0,0,0,-0.63,-4.41,13.72,0.47,0.90,0.10
0.0,0.0,0.0,0.0,0.0,0.0,0.0,3086,9937.90,0,0,165,0.49,-3.92,3.99,0.47,0.85,0.10
0.0,0.0,0.0,0.0,0.0,0.0,0.0,3101,9938.80,0,0,0,2.10,-0.77,-6.51,0.47,0.85,0.11
0.0,0.0,0.0,0.0,0.0,0.0,0.0,3119,9937.90,0,0,165,2.52,-1.40,-13.02,0.47,0.89,0.11
0.0,0.0,0.0,0.0,0.0,0.0,0.0,3133,9937.90,0,0,0,1.26,1.54,-9.80,0.41,0.93,0.04
0.0,0.0,0.0,0.0,0.0,0.0,0.0,3138,9937.90,0,0,165,1.47,16.94,1.68,0.38,0.92,0.02
0.0,0.0,0.0,0.0,0.0,0.0,0.0,3145,9937.90,0,0,0,-3.01,44.66,29.40,0.39,0.96,0.04
0.0,0.0,0.0,0.0,0.0,0.0,0.0,3161,9937.90,0,0,165,-6.44,61.67,46.97,0.45,0.93,0.11
0.0,0.0,0.0,0.0,0.0,0.0,0.0,3180,9937.90,0,0,0,-10.99,60.69,59.85,0.50,0.90,0.16
0.0,0.0,0.0,0.0,0.0,0.0,0.0,3184,9940.10,0,0,165,-13.93,48.72,67.97,0.54,0.89,0.19
0.0,0.0,0.0,0.0,0.0,0.0,0.0,3199,9953.80,0,0,0,-19.95,29.47,65.24,0.51,0.82,0.14
0.0,0.0,0.0,0.0,0.0,0.0,0.0,3214,9970.10,0,0,165,-17.57,33.88,64.33,0.55,0.95,0.24
0.0,0.0,0.0,0.0,0.0,0.0,0.0,3221,9965.00,0,0,0,-15.61,21.21,78.54,0.54,0.88,0.19
0.0,0.0,0.0,0.0,0.0,0.0,0.0,3236,9965.00,0,0,165,-19.39,15.05,94.92,0.52,0.82,0.14
0.0,0.0,0.0,0.0,0.0,0.0,0.0,3251,9963.70,0,0,0,-19.60,18.41,88.13,0.56,0.79,0.17
0.0,0.0,0.0,0.0,0.0,0.0,0.0,3258,9964.70,0,0,165,-5.04,15.82,65.66,0.59,0.76,0.19
0.0,0.0,0.0,0.0,0.0,0.0,0.0,3273,9965.60,0,0,0,7.00,12.60,33.67,0.60,0.71,0.18
0.0,0.0,0.0,0.0,0.0,0.0,0.0,3288,9959.90,0,0,165,6.58,9.94,-5.32,0.62,0.71,0.21
0.0,0.0,0.0,0.0,0.0,0.0,0.0,3296,9957.70,0,0,0,-1.19,-4.41,-19.18,0.63,0.80,0.23
0.0,0.0,0.0,0.0,0.0,0.0,0.0,3311,9957.30,0,0,165,0.70,-17.99,-0.28,0.59,0.80,0.20
0.0,0.0,0.0,0.0,0.0,0.0,0.0,3326,9958.30,0,0,0,-4.76,-24.85,-25.62,0.58,0.76,0.19
0.0,0.0,0.0,0.0,0.0,0.0,0.0,3333,9957.70,0,0,165,-6.86,-29.12,-40.67,0.59,0.77,0.19
0.0,0.0,0.0,0.0,0.0,0.0,0.0,3349,9959.60,0,0,0,-3.85,-31.43,-55.72,0.56,0.80,0.17
0.0,0.0,0.0,0.0,0.0,0.0,0.0,3363,9959.90,0,0,165,4.83,-29.19,-69.37,0.54,0.84,0.14
0.0,0.0,0.0,0.0,0.0,0.0,0.0,3371,9960.90,0,0,0,16.52,-23.80,-86.73,0.55,0.80,0.17
0.0,0.0,0.0,0.0,0.0,0.0,0.0,3386,9961.20,0,0,165,19.39,-27.44,-100.03,0.53,0.82,0.16
0.0,0.0,0.0,0.0,0.0,0.0,0.0,3401,9962.50,0,0,0,19.25,-26.88,-104.58,0.49,0.87,0.13
0.0,0.0,0.0,0.0,0.0,0.0,0.0,3408,9964.00,0,0,165,17.92,-21.91,-101.01,0.45,0.90,0.11
0.0,0.0,0.0,0.0,0.0,0.0,0.0,3423,9966.00,0,0,0,15.26,-11.06,-90.51,0.42,0.92,0.10
0.0,0.0,0.0,0.0,0.0,0.0,0.0,3439,9959.30,0,0,165,11.76,0.28,-79.10,0.42,0.96,0.10
0.0,0.0,0.0,0.0,0.0,0.0,0.0,3446,9945.90,0,0,0,7.98,2.66,-61.39,0.43,0.97,0.15
0.0,0.0,0.0,0.0,0.0,0.0,0.0,3461,9940.80,0,0,165,12.60,-6.02,-41.93,0.42,0.93,0.13
0.0,0.0,0.0,0.0,0.0,0.0,0.0,3476,9938.20,0,0,0,8.40,-3.99,-22.75,0.40,0.97,0.11
0.0,0.0,0.0,0.0,0.0,0.0,0.0,3483,9937.90,0,0,165,7.07,-0.77,-8.89,0.41,0.93,0.14
0.0,0.0,0.0,0.0,0.0,0.0,0.0,3498,9939.10,0,0,0,1.33,-2.73,3.36,0.41,0.93,0.13
0.0,0.0,0.0,0.0,0.0,0.0,0.0,3513,9938.20,0,0,165,-0.21,-1.75,5.88,0.42,0.92,0.13
0.0,0.0,0.0,0.0,0.0,0.0,0.0,3520,9938.20,0,0,0,0.63,-0.42,4.13,0.41,0.90,0.13
0.0,0.0,0.0,0.0,0.0,0.0,0.0,3536,9937.20,0,0,165,-0.35,-1.96,-1.75,0.42,0.89,0.13
0.0,0.0,0.0,0.0,0.0,0.0,0.0,3551,9938.80,0,0,0,0.21,-0.77,-4.97,0.42,0.92,0.13
0.0,0.0,0.0,0.0,0.0,0.0,0.0,3559,9937.90,0,0,165,0.14,-2.10,-3.78,0.42,0.92,0.13
0.0,0.0,0.0,0.0,0.0,0.0,0.0,3573,9937.90,0,0,0,-0.21,-4.20,-0.07,0.42,0.92,0.13
0.0,0.0,0.0,0.0,0.0,0.0,0.0,3589,9936.90,0,0,165,-2.24,-3.85,4.83,0.41,0.94,0.12
0.0,0.0,0.0,0.0,0.0,0.0,0.0,3596,9937.90,0,0,0,-4.41,-2.17,11.27,0.41,0.93,0.13
0.0,0.0,0.0,0.0,0.0,0.0,0.0,3611,9936.90,0,0,165,-4.48,-1.89,14.84,0.42,0.92,0.14
0.0,0.0,0.0,0.0,0.0,0.0,0.0,3627,9937.90,0,0,0,-4.55,-3.43,13.79,0.42,0.91,0.14
0.0,0.0,0.0,0.0,0.0,0.0,0.0,3634,9936.60,0,0,165,-3.57,-3.29,11.97,0.42,0.90,0.13
0.0,0.0,0.0,0.0,0.0,0.0,0.0,3649,9936.90,0,0,0,-1.26,-2.45,7.70,0.43,0.90,0.14
0.0,0.0,0.0,0.0,0.0,0.0,0.0,3663,9936.90,0,0,165,-0.07,-3.29,1.68,0.43,0.90,0.14
0.0,0.0,0.0,0.0,0.0,0.0,0.0,3671,9937.90,0,0,0,1.75,-3.57,-4.55,0.43,0.90,0.13
0.0,0.0,0.0,0.0,0.0,0.0,0.0,3686,9936.90,0,0,165,2.80,-2.94,-6.65,0.42,0.91,0.13
0.0,0.0,0.0,0.0,0.0,0.0,0.0,3701,9936.60,0,0,0,2.80,-2.17,-6.51,0.42,0.91,0.13
0.0,0.0,0.0,0.0,0.0,0.0,0.0,3709,9937.90,0,0,165,3.08,-2.24,-4.62,0.42,0.92,0.14
0.0,0.0,0.0,0.0,0.0,0.0,0.0,3724,9936.90,0,0,0,2.38,-3.22,-2.66,0.42,0.92,0.13
0.0,0.0,0.0,0.0,0.0,0.0,0.0,3739,9937.50,0,0,165,2.31,-3.08,-1.54,0.42,0.91,0.13
0.0,0.0,0.0,0.0,0.0,0.0,0.0,3746,9936.90,0,0,0,1.75,-2.45,-1.82,0.42,0.91,0.13
0.0,0.0,0.0,0.0,0.0,0.0,0.0,3761,9935.60,0,0,165,1.54,-2.03,-2.24,0.42,0.91,0.13
0.0,0.0,0.0,0.0,0.0,0.0,0.0,3776,9936.90,0,0,0,1.61,-2.87,-2.66,0.42,0.91,0.13
0.0,0.0,0.0,0.0,0.0,0.0,0.0,3783,9936.90,0,0,165,0.77,-3.22,-1.89,0.42,0.92,0.13
0.0,0.0,0.0,0.0,0.0,0.0,0.0,3799,9936.90,0,0,0,-0.14,-2.66,0.77,0.42,0.92,0.13
0.0,0.0,0.0,0.0,0.0,0.0,0.0,3814,9936.90,0,0,165,-1.05,-2.59,3.43,0.42,0.92,0.13
0.0,0.0,0.0,0.0,0.0,0.0,0.0,3821,9936.60,0,0,0,-1.61,-3.15,5.39,0.42,0.91,0.13
0.0,0.0,0.0,0.0,0.0,0.0,0.0,3835,9936.90,0,0,165,-1.82,-3.15,5.81,0.42,0.91,0.13
0.0,0.0,0.0,0.0,0.0,0.0,0.0,3852,9936.90,0,0,0,-1.47,-2.66,4.97,0.42,0.91,0.14
0.0,0.0,0.0,0.0,0.0,0.0,0.0,3858,9936.00,0,0,165,-0.98,-2.73,3.01,0.43,0.91,0.13
0.0,0.0,0.0,0.0,0.0,0.0,0.0,3873,9936.90,0,0,0,0.28,-2.94,0.00,0.43,0.91,0.14
0.0,0.0,0.0,0.0,0.0,0.0,0.0,3888,9936.90,0,0,165,0.91,-3.01,-1.54,0.43,0.91,0.13
0.0,0.0,0.0,0.0,0.0,0.0,0.0,3896,9936.00,0,0,0,1.33,-2.80,-2.66,0.42,0.91,0.13
0.0,0.0,0.0,0.0,0.0,0.0,0.0,3911,9936.00,0,0,165,1.75,-2.52,-2.73,0.42,0.91,0.13
0.0,0.0,0.0,0.0,0.0,0.0,0.0,3927,9936.00,0,0,0,1.89,-2.66,-2.38,0.42,0.91,0.14
0.0,0.0,0.0,0.0,0.0,0.0,0.0,3933,9936.90,0,0,165,1.89,-2.94,-1.96,0.42,0.91,0.13
0.0,0.0,0.0,0.0,0.0,0.0,0.0,3948,9936.60,0,0,0,1.96,-2.80,-2.24,0.42,0.91,0.13
0.0,0.0,0.0,0.0,0.0,0.0,0.0,3963,9936.00,0,0,165,1.89,-2.80,-2.38,0.42,0.91,0.13
0.0,0.0,0.0,0.0,0.0,0.0,0.0,3978,9936.60,0,0,0,1.47,-2.80,-2.45,0.42,0.91,0.13
0.0,0.0,0.0,0.0,0.0,0.0,0.0,3985,9936.00,0,0,165,1.19,-2.87,-1.68,0.42,0.91,0.13
0.0,0.0,0.0,0.0,0.0,0.0,0.0,4001,9936.90,0,0,0,0.77,-3.01,-0.21,0.42,0.92,0.13
0.0,0.0,0.0,0.0,0.0,0.0,0.0,4008,9936.90,0,0,165,0.21,-2.87,1.47,0.42,0.92,0.13
0.0,0.0,0.0,0.0,0.0,0.0,0.0,4023,9936.00,0,0,0,-0.49,-2.87,3.01,0.42,0.91,0.13
0.0,0.0,0.0,0.0,0.0,0.0,0.0,4038,9936.90,0,0,165,-0.91,-3.08,3.78,0.42,0.91,0.13
0.0,0.0,0.0,0.0,0.0,0.0,0.0,4046,9936.00,0,0,0,-0.98,-3.01,3.85,0.42,0.91,0.13
0.0,0.0,0.0,0.0,0.0,0.0,0.0,4062,9935.60,0,0,165,-0.77,-2.94,3.22,0.42,0.91,0.13
0.0,0.0,0.0,0.0,0.0,0.0,0.0,4076,9936.00,0,0,0,-0.63,-2.80,2.24,0.42,0.91,0.13
0.0,0.0,0.0,0.0,0.0,0.0,0.0,4084,9936.90,0,0,165,-0.14,-2.73,0.91,0.43,0.91,0.13
0.0,0.0,0.0,0.0,0.0,0.0,0.0,4099,9936.90,0,0,0,0.42,-2.80,-0.14,0.43,0.91,0.14
0.0,0.0,0.0,0.0,0.0,0.0,0.0,4114,9937.60,0,0,165,0.63,-2.80,-0.56,0.43,0.91,0.14
0.0,0.0,0.0,0.0,0.0,0.0,0.0,4120,9937.90,0,0,0,0.91,-2.80,-0.91,0.42,0.91,0.13
0.0,0.0,0.0,0.0,0.0,0.0,0.0,4136,9936.90,0,0,165,1.26,-2.87,-1.40,0.43,0.91,0.13
0.0,0.0,0.0,0.0,0.0,0.0,0.0,4151,9936.90,0,0,0,1.75,-2.87,-1.96,0.43,0.91,0.13
0.0,0.0,0.0,0.0,0.0,0.0,0.0,4160,9936.90,0,0,165,1.75,-2.73,-2.66,0.42,0.91,0.13
0.0,0.0,0.0,0.0,0.0,0.0,0.0,4174,9936.00,0,0,0,2.17,-2.80,-2.87,0.42,0.91,0.14
0.0,0.0,0.0,0.0,0.0,0.0,0.0,4188,9937.20,0,0,165,1.89,-2.87,-2.73,0.42,0.91,0.14
0.0,0.0,0.0,0.0,0.0,0.0,0.0,4196,9936.00,0,0,0,1.47,-2.87,-1.96,0.42,0.91,0.13
0.0,0.0,0.0,0.0,0.0,0.0,0.0,4211,9936.90,0,0,165,0.98,-2.87,-0.49,0.42,0.91,0.13
0.0,0.0,0.0,0.0,0.0,0.0,0.0,4228,9936.90,0,0,0,0.28,-2.87,0.56,0.42,0.91,0.13
0.0,0.0,0.0,0.0,0.0,0.0,0.0,4234,9936.90,0,0,165,0.00,-2.87,1.40,0.42,0.91,0.13
0.0,0.0,0.0,0.0,0.0,0.0,0.0,4248,9937.60,0,0,0,-0.42,-2.87,2.17,0.42,0.91,0.13
0.0,0.0,0.0,0.0,0.0,0.0,0.0,4263,9936.00,0,0,165,-0.49,-2.94,2.45,0.42,0.92,0.13
0.0,0.0,0.0,0.0,0.0,0.0,0.0,4270,9936.90,0,0,0,-0.56,-2.94,2.66,0.42,0.91,0.13
0.0,0.0,0.0,0.0,0.0,0.0,0.0,4285,9936.90,0,0,165,-0.63,-3.01,2.66,0.42,0.91,0.13
0.0,0.0,0.0,0.0,0.0,0.0,0.0,4301,9936.00,0,0,0,-0.42,-3.01,2.45,0.43,0.91,0.13
0.0,0.0,0.0,0.0,0.0,0.0,0.0,4309,9936.90,0,0,165,-0.28,-3.01,1.96,0.43,0.91,0.13
0.0,0.0,0.0,0.0,0.0,0.0,0.0,4323,9936.90,0,0,0,-0.07,-2.87,0.91,0.42,0.91,0.14
0.0,0.0,0.0,0.0,0.0,0.0,0.0,4338,9936.00,0,0,165,0.77,-2.80,0.00,0.42,0.91,0.13
0.0,0.0,0.0,0.0,0.0,0.0,0.0,4346,9937.90,0,0,0,1.05,-2.73,-1.19,0.42,0.91,0.13
0.0,0.0,0.0,0.0,0.0,0.0,0.0,4362,9936.00,0,0,165,1.47,-2.80,-2.10,0.43,0.91,0.13
0.0,0.0,0.0,0.0,0.0,0.0,0.0,4376,9936.00,0,0,0,1.96,-2.73,-2.38,0.42,0.91,0.13
0.0,0.0,0.0,0.0,0.0,0.0,0.0,4383,9936.00,0,0,165,1.61,-2.87,-2.38,0.42,0.90,0.13
0.0,0.0,0.0,0.0,0.0,0.0,0.0,4398,9936.90,0,0,0,1.47,-2.24,-2.66,0.42,0.94,0.14
0.0,0.0,0.0,0.0,0.0,0.0,0.0,4413,9936.90,0,0,165,1.89,-3.29,-1.54,0.42,0.90,0.14
0.0,0.0,0.0,0.0,0.0,0.0,0.0,4421,9936.00,0,0,0,0.91,-2.87,-0.70,0.42,0.91,0.12
0.0,0.0,0.0,0.0,0.0,0.0,0.0,4436,9937.20,0,0,165,0.98,-1.75,-0.77,0.43,0.92,0.14
0.0,0.0,0.0,0.0,0.0,0.0,0.0,4451,9936.90,0,0,0,0.91,-3.78,0.63,0.42,0.91,0.13
0.0,0.0,0.0,0.0,0.0,0.0,0.0,4459,9936.90,0,0,165,-0.56,-3.01,1.33,0.42,0.92,0.13
0.0,0.0,0.0,0.0,0.0,0.0,0.0,4473,9936.90,0,0,0,0.35,-1.40,1.47,0.42,0.91,0.14
0.0,0.0,0.0,0.0,0.0,0.0,0.0,4488,9936.00,0,0,165,-0.56,-3.78,1.89,0.42,0.91,0.14
0.0,0.0,0.0,0.0,0.0,0.0,0.0,4496,9936.90,0,0,0,-0.21,-3.22,2.38,0.42,0.92,0.13
0.0,0.0,0.0,0.0,0.0,0.0,0.0,4511,9937.20,0,0,165,-0.35,-2.17,2.03,0.42,0.91,0.14
0.0,0.0,0.0,0.0,0.0,0.0,0.0,4526,9936.90,0,0,0,-0.07,-3.22,1.96,0.43,0.91,0.14
0.0,0.0,0.0,0.0,0.0,0.0,0.0,4533,9936.00,0,0,165,-0.07,-3.36,1.33,0.42,0.91,0.13
0.0,0.0,0.0,0.0,0.0,0.0,0.0,4548,9937.20,0,0,0,0.56,-2.59,0.28,0.43,0.91,0.13
0.0,0.0,0.0,0.0,0.0,0.0,0.0,4564,9937.20,0,0,165,0.42,-3.22,-0.07,0.43,0.91,0.13
0.0,0.0,0.0,0.0,0.0,0.0,0.0,4571,9936.90,0,0,0,0.84,-2.73,-0.91,0.43,0.91,0.13
0.0,0.0,0.0,0.0,0.0,0.0,0.0,4586,9936.00,0,0,165,1.19,-2.38,-2.10,0.43,0.91,0.13
0.0,0.0,0.0,0.0,0.0,0.0,0.0,4601,9936.00,0,0,0,1.19,-2.73,-2.17,0.42,0.91,0.13
0.0,0.0,0.0,0.0,0.0,0.0,0.0,4608,9936.00,0,0,165,1.47,-2.59,-1.96,0.42,0.91,0.14
0.0,0.0,0.0,0.0,0.0,0.0,0.0,4623,9936.90,0,0,0,1.33,-2.73,-1.40,0.42,0.92,0.14
0.0,0.0,0.0,0.0,0.0,0.0,0.0,4638,9936.90,0,0,165,1.33,-3.15,-0.42,0.42,0.92,0.14
0.0,0.0,0.0,0.0,0.0,0.0,0.0,4646,9936.00,0,0,0,1.05,-3.22,0.49,0.42,0.91,0.14
0.0,0.0,0.0,0.0,0.0,0.0,0.0,4662,9937.90,0,0,165,0.70,-3.08,0.63,0.42,0.91,0.13
0.0,0.0,0.0,0.0,0.0,0.0,0.0,4679,9936.30,0,0,0,0.63,-2.94,0.70,0.42,0.91,0.13
0.0,0.0,0.0,0.0,0.0,0.0,0.0,4687,9936.30,0,0,165,0.21,-2.80,0.42,0.43,0.91,0.13
0.0,0.0,0.0,0.0,0.0,0.0,0.0,4707,9935.60,0,0,0,0.35,-2.66,-0.07,0.43,0.91,0.13
0.0,0.0,0.0,0.0,0.0,0.0,0.0,4713,9937.20,0,0,165,0.28,-2.80,0.00,0.42,0.91,0.13
0.0,0.0,0.0,0.0,0.0,0.0,0.0,4721,9936.90,0,0,0,0.00,-2.59,0.42,0.42,0.91,0.13
0.0,0.0,0.0,0.0,0.0,0.0,0.0,4737,9936.00,0,0,165,-0.07,-2.52,1.19,0.42,0.92,0.14
0.0,0.0,0.0,0.0,0.0,0.0,0.0,4751,9936.30,0,0,0,-0.14,-3.08,1.68,0.42,0.91,0.14
0.0,0.0,0.0,0.0,0.0,0.0,0.0,4759,9937.20,0,0,165,-0.07,-2.87,2.10,0.42,0.91,0.14
0.0,0.0,0.0,0.0,0.0,0.0,0.0,4773,9936.00,0,0,0,0.14,-3.15,1.68,0.43,0.91,0.14
0.0,0.0,0.0,0.0,0.0,0.0,0.0,4788,9936.30,0,0,165,0.49,-3.29,0.91,0.42,0.91,0.13
0.0,0.0,0.0,0.0,0.0,0.0,0.0,4801,9936.30,0,0,0,0.91,-3.01,-0.56,0.43,0.91,0.13
0.0,0.0,0.0,0.0,0.0,0.0,0.0,4811,9937.20,0,0,165,1.12,-2.87,-1.47,0.43,0.91,0.13
0.0,0.0,0.0,0.0,0.0,0.0,0.0,4829,9937.20,0,0,0,1.12,-2.66,-1.82,0.43,0.91,0.13
0.0,0.0,0.0,0.0,0.0,0.0,0.0,4833,9937.20,0,0,165,1.33,-2.45,-1.68,0.42,0.91,0.14
0.0,0.0,0.0,0.0,0.0,0.0,0.0,4849,9938.20,0,0,0,1.12,-2.66,-1.47,0.42,0.91,0.14
0.0,0.0,0.0,0.0,0.0,0.0,0.0,4863,9936.90,0,0,165,1.05,-2.87,-0.98,0.42,0.91,0.14
0.0,0.0,0.0,0.0,0.0,0.0,0.0,4871,9936.30,0,0,0,1.05,-2.73,-0.63,0.42,0.91,0.13
0.0,0.0,0.0,0.0,0.0,0.0,0.0,4886,9936.30,0,0,165,0.63,-3.01,0.00,0.42,0.91,0.13
0.0,0.0,0.0,0.0,0.0,0.0,0.0,4902,9936.00,0,0,0,0.70,-3.01,0.35,0.42,0.91,0.13
0.0,0.0,0.0,0.0,0.0,0.0,0.0,4909,9936.30,0,0,165,0.42,-2.87,0.77,0.42,0.91,0.14
0.0,0.0,0.0,0.0,0.0,0.0,0.0,4923,9937.20,0,0,0,0.35,-3.08,0.84,0.42,0.91,0.13
0.0,0.0,0.0,0.0,0.0,0.0,0.0,4939,9937.20,0,0,165,0.14,-3.01,1.26,0.42,0.91,0.13
0.0,0.0,0.0,0.0,0.0,0.0,0.0,4946,9936.30,0,0,0,-0.14,-2.87,1.47,0.42,0.91,0.13
0.0,0.0,0.0,0.0,0.0,0.0,0.0,4963,9936.30,0,0,165,0.07,-2.87,1.26,0.43,0.91,0.13
0.0,0.0,0.0,0.0,0.0,0.0,0.0,4976,9936.00,0,0,0,0.21,-2.94,0.63,0.42,0.91,0.13
0.0,0.0,0.0,0.0,0.0,0.0,0.0,4983,9936.30,0,0,165,0.49,-2.66,0.00,0.42,0.91,0.13
0.0,0.0,0.0,0.0,0.0,0.0,0.0,4998,9936.00,0,0,0,0.49,-2.73,-0.70,0.42,0.91,0.14
0.0,0.0,0.0,0.0,0.0,0.0,0.0,5013,9937.20,0,0,165,0.84,-2.94,-0.42,0.42,0.91,0.13
0.0,0.0,0.0,0.0,0.0,0.0,0.0,5021,9937.20,0,0,0,0.84,-2.87,0.00,0.42,0.91,0.14
0.0,0.0,0.0,0.0,0.0,0.0,0.0,5036,9936.30,0,0,165,0.77,-2.80,0.28,0.42,0.91,0.14
0.0,0.0,0.0,0.0,0.0,0.0,0.0,5051,9937.20,0,0,0,0.77,-2.87,0.28,0.43,0.91,0.13
0.0,0.0,0.0,0.0,0.0,0.0,0.0,5058,9937.20,0,0,165,0.84,-2.94,-0.28,0.42,0.91,0.14
0.0,0.0,0.0,0.0,0.0,0.0,0.0,5074,9937.20,0,0,0,0.91,-2.94,-1.05,0.42,0.91,0.13
0.0,0.0,0.0,0.0,0.0,0.0,0.0,5088,9937.20,0,0,165,1.26,-2.66,-1.33,0.42,0.91,0.13
0.0,0.0,0.0,0.0,0.0,0.0,0.0,5096,9936.30,0,0,0,0.98,-2.80,-1.19,0.42,0.91,0.13
0.0,0.0,0.0,0.0,0.0,0.0,0.0,5112,9937.20,0,0,165,0.84,-2.87,-0.35,0.42,0.91,0.13
0.0,0.0,0.0,0.0,0.0,0.0,0.0,5128,9936.30,0,0,0,0.56,-2.80,0.35,0.42,0.91,0.13
0.0,0.0,0.0,0.0,0.0,0.0,0.0,5133,9937.20,0,0,165,0.28,-2.87,0.84,0.42,0.91,0.14
0.0,0.0,0.0,0.0,0.0,0.0,0.0,5149,9936.30,0,0,0,0.07,-2.94,1.26,0.42,0.91,0.13
0.0,0.0,0.0,0.0,0.0,0.0,0.0,5163,9937.20,0,0,165,0.14,-2.94,1.19,0.42,0.91,0.13
0.0,0.0,0.0,0.0,0.0,0.0,0.0,5171,9936.30,0,0,0,0.21,-2.94,0.91,0.42,0.91,0.13
0.0,0.0,0.0,0.0,0.0,0.0,0.0,5186,9937.20,0,0,165,0.35,-2.94,0.70,0.42,0.91,0.13
0.0,0.0,0.0,0.0,0.0,0.0,0.0,5201,9937.20,0,0,0,0.42,-2.94,0.42,0.42,0.91,0.13
0.0,0.0,0.0,0.0,0.0,0.0,0.0,5209,9936.30,0,0,165,0.35,-2.80,0.28,0.42,0.91,0.13
0.0,0.0,0.0,0.0,0.0,0.0,0.0,5223,9936.30,0,0,0,0.49,-2.80,0.42,0.42,0.91,0.13
0.0,0.0,0.0,0.0,0.0,0.0,0.0,5238,9936.30,0,0,165,0.35,-2.73,0.28,0.42,0.91,0.13
0.0,0.0,0.0,0.0,0.0,0.0,0.0,5252,9936.30,0,0,0,0.77,-2.73,0.07,0.42,0.91,0.13
0.0,0.0,0.0,0.0,0.0,0.0,0.0,5262,9936.30,0,0,165,0.77,-2.87,-0.49,0.43,0.91,0.13
0.0,0.0,0.0,0.0,0.0,0.0,0.0,5277,9936.30,0,0,0,0.98,-2.80,-0.91,0.42,0.91,0.13
0.0,0.0,0.0,0.0,0.0,0.0,0.0,5283,9936.00,0,0,165,1.12,-2.73,-1.19,0.42,0.91,0.13
0.0,0.0,0.0,0.0,0.0,0.0,0.0,5299,9936.30,0,0,0,1.12,-2.87,-1.19,0.42,0.91,0.13
0.0,0.0,0.0,0.0,0.0,0.0,0.0,5314,9936.30,0,0,165,0.98,-2.73,-0.63,0.42,0.91,0.13
0.0,0.0,0.0,0.0,0.0,0.0,0.0,5324,9937.20,0,0,0,0.63,-2.80,0.00,0.42,0.91,0.13
0.0,0.0,0.0,0.0,0.0,0.0,0.0,5336,9936.30,0,0,165,0.63,-2.87,0.77,0.42,0.91,0.13
0.0,0.0,0.0,0.0,0.0,0.0,0.0,5350,9937.20,0,0,0,0.35,-2.94,0.91,0.42,0.91,0.13
0.0,0.0,0.0,0.0,0.0,0.0,0.0,5358,9936.60,0,0,165,0.35,-2.87,0.70,0.42,0.91,0.13
0.0,0.0,0.0,0.0,0.0,0.0,0.0,5373,9937.20,0,0,0,0.49,-2.80,0.42,0.42,0.91,0.13
0.0,0.0,0.0,0.0,0.0,0.0,0.0,5388,9936.30,0,0,165,0.42,-2.80,0.14,0.42,0.91,0.13
0.0,0.0,0.0,0.0,0.0,0.0,0.0,5395,9936.00,0,0,0,0.42,-2.94,0.28,0.42,0.91,0.13
0.0,0.0,0.0,0.0,0.0,0.0,0.0,5410,9937.20,0,0,165,0.35,-2.87,0.49,0.42,0.91,0.13
0.0,0.0,0.0,0.0,0.0,0.0,0.0,5425,9936.30,0,0,0,0.28,-2.80,0.70,0.42,0.91,0.13
0.0,0.0,0.0,0.0,0.0,0.0,0.0,5433,9937.20,0,0,165,0.35,-2.80,0.84,0.42,0.91,0.14
0.0,0.0,0.0,0.0,0.0,0.0,0.0,5448,9936.30,0,0,0,0.49,-2.94,0.70,0.42,0.91,0.14
0.0,0.0,0.0,0.0,0.0,0.0,0.0,5463,9936.30,0,0,165,0.56,-2.87,0.35,0.42,0.91,0.14
0.0,0.0,0.0,0.0,0.0,0.0,0.0,5471,9937.20,0,0,0,0.77,-2.94,-0.42,0.42,0.91,0.13
0.0,0.0,0.0,0.0,0.0,0.0,0.0,5486,9936.30,0,0,165,0.98,-2.94,-0.98,0.42,0.91,0.13
0.0,0.0,0.0,0.0,0.0,0.0,0.0,5501,9936.30,0,0,0,0.98,-2.94,-1.05,0.42,0.91,0.13
0.0,0.0,0.0,0.0,0.0,0.0,0.0,5509,9936.30,0,0,165,1.05,-2.73,-0.84,0.42,0.91,0.13
0.0,0.0,0.0,0.0,0.0,0.0,0.0,5524,9936.60,0,0,0,0.70,-2.80,-0.28,0.42,0.91,0.13
0.0,0.0,0.0,0.0,0.0,0.0,0.0,5539,9937.20,0,0,165,0.77,-2.80,0.14,0.42,0.91,0.13
0.0,0.0,0.0,0.0,0.0,0.0,0.0,5545,9936.30,0,0,0,0.49,-2.80,0.35,0.42,0.91,0.14
0.0,0.0,0.0,0.0,0.0,0.0,0.0,5561,9936.30,0,0,165,0.56,-2.87,0.35,0.42,0.91,0.13
0.0,0.0,0.0,0.0,0.0,0.0,0.0,5576,9936.30,0,0,0,0.42,-2.87,0.35,0.42,0.91,0.13
0.0,0.0,0.0,0.0,0.0,0.0,0.0,5584,9936.30,0,0,165,0.49,-2.87,0.21,0.42,0.91,0.14
0.0,0.0,0.0,0.0,0.0,0.0,0.0,5599,9936.30,0,0,0,0.42,-2.94,0.28,0.42,0.91,0.13
0.0,0.0,0.0,0.0,0.0,0.0,0.0,5612,9936.60,0,0,165,0.42,-2.94,0.56,0.42,0.91,0.13
0.0,0.0,0.0,0.0,0.0,0.0,0.0,5620,9936.60,0,0,0,0.35,-2.87,0.70,0.42,0.91,0.13
0.0,0.0,0.0,0.0,0.0,0.0,0.0,5636,9935.30,0,0,165,0.21,-2.94,0.77,0.42,0.91,0.13
0.0,0.0,0.0,0.0,0.0,0.0,0.0,5651,9936.30,0,0,0,0.35,-2.87,0.63,0.42,0.91,0.13
0.0,0.0,0.0,0.0,0.0,0.0,0.0,5658,9936.30,0,0,165,0.49,-2.80,0.28,0.42,0.91,0.14
0.0,0.0,0.0,0.0,0.0,0.0,0.0,5673,9936.60,0,0,0,0.70,-2.87,-0.14,0.42,0.91,0.13
0.0,0.0,0.0,0.0,0.0,0.0,0.0,5688,9936.30,0,0,165,0.91,-2.80,-0.56,0.42,0.91,0.13
0.0,0.0,0.0,0.0,0.0,0.0,0.0,5695,9936.60,0,0,0,0.84,-2.94,-0.63,0.42,0.91,0.13
0.0,0.0,0.0,0.0,0.0,0.0,0.0,5710,9936.60,0,0,165,0.91,-2.87,-0.49,0.42,0.91,0.13
0.0,0.0,0.0,0.0,0.0,0.0,0.0,5725,9936.30,0,0,0,0.84,-2.80,-0.14,0.42,0.91,0.13
0.0,0.0,0.0,0.0,0.0,0.0,0.0,5733,9937.20,0,0,165,0.77,-2.87,-0.21,0.42,0.91,0.13
0.0,0.0,0.0,0.0,0.0,0.0,0.0,5748,9936.60,0,0,0,0.63,-2.80,0.07,0.42,0.91,0.13
0.0,0.0,0.0,0.0,0.0,0.0,0.0,5764,9937.60,0,0,165,0.63,-2.80,-0.14,0.42,0.91,0.13
0.0,0.0,0.0,0.0,0.0,0.0,0.0,5771,9936.60,0,0,0,0.56,-2.80,-0.28,0.42,0.91,0.14
0.0,0.0,0.0,0.0,0.0,0.0,0.0,5786,9936.60,0,0,165,0.56,-2.80,-0.07,0.42,0.91,0.13
0.0,0.0,0.0,0.0,0.0,0.0,0.0,5801,9935.30,0,0,0,0.56,-2.80,0.28,0.42,0.91,0.14
0.0,0.0,0.0,0.0,0.0,0.0,0.0,5808,9936.60,0,0,165,0.49,-2.87,0.42,0.42,0.91,0.14
0.0,0.0,0.0,0.0,0.0,0.0,0.0,5824,9936.60,0,0,0,0.42,-2.80,0.84,0.42,0.92,0.14
0.0,0.0,0.0,0.0,0.0,0.0,0.0,5839,9937.60,0,0,165,0.35,-2.94,0.77,0.42,0.91,0.13
0.0,0.0,0.0,0.0,0.0,0.0,0.0,5846,9936.60,0,0,0,0.35,-2.94,0.70,0.42,0.91,0.13
0.0,0.0,0.0,0.0,0.0,0.0,0.0,5861,9936.30,0,0,165,0.42,-2.94,0.42,0.42,0.91,0.13
0.0,0.0,0.0,0.0,0.0,0.0,0.0,5876,9936.30,0,0,0,0.56,-2.94,0.14,0.42,0.91,0.13
0.0,0.0,0.0,0.0,0.0,0.0,0.0,5884,9936.60,0,0,165,0.63,-2.80,-0.14,0.42,0.91,0.13
0.0,0.0,0.0,0.0,0.0,0.0,0.0,5899,9936.30,0,0,0,0.63,-2.80,-0.14,0.42,0.91,0.13
0.0,0.0,0.0,0.0,0.0,0.0,0.0,5914,9936.60,0,0,165,0.56,-2.87,-0.14,0.42,0.91,0.13
0.0,0.0,0.0,0.0,0.0,0.0,0.0,5925,9937.60,0,0,0,0.70,-2.87,-0.14,0.42,0.91,0.14
0.0,0.0,0.0,0.0,0.0,0.0,0.0,5936,9937.60,0,0,165,0.63,-2.94,-0.07,0.42,0.91,0.13
0.0,0.0,0.0,0.0,0.0,0.0,0.0,5951,9936.60,0,0,0,0.84,-2.94,-0.28,0.42,0.91,0.13
-0.5175781,0.0013046442,8.3168224E-4,0.0012222215,0.42,0.91,0.13,15978,9936.10,0,0,0,0.70,-2.80,0.21,0.42,0.91,0.13
0.48242188,-6.9535524E-4,8.3168224E-4,0.0022222218,0.42,0.91,0.13,15995,9937.10,0,0,165,0.56,-2.80,0.28,0.42,0.91,0.13
0.48242188,-0.0016953554,0.0018316805,0.0022222218,0.42,0.91,0.13,16023,9937.10,0,0,0,0.49,-2.73,0.28,0.42,0.91,0.13
-0.5175781,-0.0016953554,8.3168224E-4,0.0022222218,0.42,0.91,0.13,16024,9936.10,0,0,165,0.49,-2.80,0.28,0.42,0.91,0.13
0.48242188,-6.9535524E-4,-0.0021683201,0.0012222215,0.42,0.91,0.13,16025,9937.10,0,0,0,0.56,-3.01,0.21,0.42,0.91,0.13
-2.4169922,-6.9535524E-4,-0.0011683181,-0.0017777783,0.42,0.91,0.13,16042,9934.20,0,0,165,0.56,-2.94,0.00,0.42,0.91,0.13
-0.5175781,-6.9535524E-4,0.0018316805,0.0012222215,0.42,0.91,0.13,16057,9936.10,0,0,0,0.56,-2.73,0.21,0.42,0.91,0.13
-0.5175781,-6.9535524E-4,-0.0011683181,-7.777782E-4,0.42,0.91,0.13,16060,9936.10,0,0,165,0.56,-2.94,0.07,0.42,0.91,0.13
0.48242188,-6.9535524E-4,0.0018316805,0.0012222215,0.42,0.91,0.13,16075,9937.10,0,0,0,0.56,-2.73,0.21,0.42,0.91,0.13
0.48242188,-6.9535524E-4,-0.0011683181,2.2222183E-4,0.42,0.91,0.14,16090,9937.10,0,0,165,0.56,-2.94,0.14,0.42,0.91,0.14
0.48242188,-0.0016953554,-1.6831607E-4,0.0022222218,0.42,0.91,0.13,16097,9937.10,0,0,0,0.49,-2.87,0.28,0.42,0.91,0.13
-0.5175781,3.04644E-4,8.3168224E-4,-0.0017777783,0.42,0.91,0.14,16120,9936.10,0,0,165,0.63,-2.80,0.00,0.42,0.91,0.14
0.48242188,-6.9535524E-4,8.3168224E-4,-7.777782E-4,0.42,0.91,0.13,16128,9937.10,0,0,0,0.56,-2.80,0.07,0.42,0.91,0.13
0.7832031,-6.9535524E-4,-1.6831607E-4,-0.0037777782,0.42,0.91,0.13,16135,9937.40,0,0,165,0.56,-2.87,-0.14,0.42,0.91,0.13
-0.5175781,0.0033046436,8.3168224E-4,-0.004777778,0.42,0.91,0.13,16150,9936.10,0,0,0,0.84,-2.80,-0.21,0.42,0.91,0.13
0.48242188,3.04644E-4,-0.0011683181,-0.0027777783,0.42,0.91,0.13,16165,9937.10,0,0,165,0.63,-2.94,-0.07,0.42,0.91,0.13
0.7832031,3.04644E-4,-1.6831607E-4,-7.777782E-4,0.42,0.91,0.13,16173,9937.40,0,0,0,0.63,-2.87,0.07,0.42,0.91,0.13
-0.5175781,-6.9535524E-4,-0.0011683181,0.004222221,0.42,0.91,0.14,16188,9936.10,0,0,165,0.56,-2.94,0.42,0.42,0.91,0.14
0.48242188,-0.0016953554,8.3168224E-4,0.0032222215,0.42,0.91,0.13,16203,9937.10,0,0,0,0.49,-2.80,0.35,0.42,0.91,0.13
-0.5175781,-0.0016953554,-1.6831607E-4,2.2222183E-4,0.42,0.91,0.13,16210,9936.10,0,0,165,0.49,-2.87,0.14,0.42,0.91,0.13
-0.5175781,-6.9535524E-4,-1.6831607E-4,2.2222183E-4,0.42,0.91,0.13,16228,9936.10,0,0,0,0.56,-2.87,0.14,0.42,0.91,0.13
0.7832031,0.0023046443,-1.6831607E-4,-0.0027777783,0.42,0.91,0.13,16240,9937.40,0,0,165,0.77,-2.87,-0.07,0.42,0.91,0.13
-0.5175781,3.04644E-4,-1.6831607E-4,-0.0027777783,0.42,0.91,0.13,16248,9936.10,0,0,0,0.63,-2.87,-0.07,0.42,0.91,0.13
0.48242188,0.0013046442,8.3168224E-4,2.2222183E-4,0.42,0.91,0.14,16264,9937.10,0,0,165,0.70,-2.80,0.14,0.42,0.91,0.14
0.48242188,3.04644E-4,0.0018316805,0.0012222215,0.42,0.91,0.13,16279,9937.10,0,0,0,0.63,-2.73,0.21,0.42,0.91,0.13
0.7832031,-0.0016953554,-1.6831607E-4,0.0022222218,0.42,0.91,0.13,16285,9937.40,0,0,165,0.49,-2.87,0.28,0.42,0.91,0.13
1.6826172,-6.9535524E-4,-0.0011683181,2.2222183E-4,0.42,0.91,0.13,16300,9938.30,0,0,0,0.56,-2.94,0.14,0.42,0.91,0.13
0.48242188,-6.9535524E-4,8.3168224E-4,-0.0017777783,0.42,0.91,0.13,16316,9937.10,0,0,165,0.56,-2.80,0.00,0.42,0.91,0.13
-0.21679688,0.0023046443,-1.6831607E-4,-0.0017777783,0.42,0.91,0.13,16323,9936.40,0,0,0,0.77,-2.87,0.00,0.42,0.91,0.13
-1.4169922,0.0013046442,-1.6831607E-4,-0.0037777782,0.42,0.91,0.13,16338,9935.20,0,0,165,0.70,-2.87,-0.14,0.42,0.91,0.13
0.7832031,3.04644E-4,-1.6831607E-4,-0.0037777782,0.42,0.91,0.13,16353,9937.40,0,0,0,0.63,-2.87,-0.14,0.42,0.91,0.13
-0.5175781,3.04644E-4,-1.6831607E-4,-7.777782E-4,0.42,0.91,0.13,16362,9936.10,0,0,165,0.63,-2.87,0.07,0.42,0.91,0.13
0.48242188,0.0013046442,8.3168224E-4,0.0012222215,0.42,0.91,0.14,16378,9937.10,0,0,0,0.70,-2.80,0.21,0.42,0.91,0.14
-0.5175781,-6.9535524E-4,-1.6831607E-4,0.0022222218,0.42,0.91,0.13,16390,9936.10,0,0,165,0.56,-2.87,0.28,0.42,0.91,0.13
0.7832031,0.0023046443,-1.6831607E-4,0.0032222215,0.42,0.91,0.13,16400,9937.40,0,0,0,0.77,-2.87,0.35,0.42,0.91,0.13
-1.4169922,-6.9535524E-4,8.3168224E-4,0.0022222218,0.42,0.91,0.13,16412,9935.20,0,0,165,0.56,-2.80,0.28,0.42,0.91,0.13
0.7832031,3.04644E-4,8.3168224E-4,0.0012222215,0.42,0.91,0.13,16428,9937.40,0,0,0,0.63,-2.80,0.21,0.42,0.91,0.13
0.7832031,0.0013046442,8.3168224E-4,-0.0017777783,0.42,0.91,0.13,16435,9937.40,0,0,165,0.70,-2.80,0.00,0.42,0.91,0.13
0.7832031,-6.9535524E-4,8.3168224E-4,-0.0037777782,0.42,0.91,0.14,16450,9937.40,0,0,0,0.56,-2.80,-0.14,0.42,0.91,0.14
0.7832031,-6.9535524E-4,8.3168224E-4,-7.777782E-4,0.42,0.91,0.13,16465,9937.40,0,0,165,0.56,-2.80,0.07,0.42,0.91,0.13
0.48242188,3.04644E-4,-1.6831607E-4,2.2222183E-4,0.42,0.91,0.13,16473,9937.10,0,0,0,0.63,-2.87,0.14,0.42,0.91,0.13
-0.5175781,3.04644E-4,-1.6831607E-4,0.0012222215,0.42,0.91,0.13,16488,9936.10,0,0,165,0.63,-2.87,0.21,0.42,0.91,0.13
0.48242188,-6.9535524E-4,-1.6831607E-4,0.0012222215,0.42,0.91,0.13,16503,9937.10,0,0,0,0.56,-2.87,0.21,0.42,0.91,0.13
0.48242188,3.04644E-4,-1.6831607E-4,-7.777782E-4,0.42,0.91,0.13,16510,9937.10,0,0,165,0.63,-2.87,0.07,0.42,0.91,0.13
-0.21679688,0.0023046443,-1.6831607E-4,-7.777782E-4,0.42,0.91,0.13,16526,9936.40,0,0,0,0.77,-2.87,0.07,0.42,0.91,0.13
0.7832031,3.04644E-4,-1.6831607E-4,-7.777782E-4,0.42,0.91,0.13,16540,9937.40,0,0,165,0.63,-2.87,0.07,0.42,0.91,0.13
0.7832031,3.04644E-4,-0.0011683181,-0.0027777783,0.42,0.91,0.13,16549,9937.40,0,0,0,0.63,-2.94,-0.07,0.42,0.91,0.13
-0.5175781,3.04644E-4,-1.6831607E-4,0.0012222215,0.42,0.91,0.13,16563,9936.10,0,0,165,0.63,-2.87,0.21,0.42,0.91,0.13
0.7832031,0.0013046442,8.3168224E-4,0.0012222215,0.42,0.91,0.13,16578,9937.40,0,0,0,0.70,-2.80,0.21,0.42,0.91,0.13
0.7832031,-6.9535524E-4,-1.6831607E-4,2.2222183E-4,0.43,0.91,0.14,16585,9937.40,0,0,165,0.56,-2.87,0.14,0.43,0.91,0.14
0.48242188,0.0013046442,-1.6831607E-4,-7.777782E-4,0.42,0.91,0.14,16600,9937.10,0,0,0,0.70,-2.87,0.07,0.42,0.91,0.14
-0.21679688,0.0023046443,8.3168224E-4,2.2222183E-4,0.42,0.91,0.14,16615,9936.40,0,0,165,0.77,-2.80,0.14,0.42,0.91,0.14
0.7832031,0.0013046442,8.3168224E-4,-0.0017777783,0.42,0.91,0.13,16623,9937.40,0,0,0,0.70,-2.80,0.00,0.42,0.91,0.13
0.7832031,0.0023046443,8.3168224E-4,2.2222183E-4,0.42,0.91,0.13,16638,9937.40,0,0,165,0.77,-2.80,0.14,0.42,0.91,0.13
-0.5175781,3.04644E-4,-1.6831607E-4,-7.777782E-4,0.42,0.91,0.13,16653,9936.10,0,0,0,0.63,-2.87,0.07,0.42,0.91,0.13
-0.21679688,-6.9535524E-4,-0.0011683181,2.2222183E-4,0.42,0.91,0.13,16660,9936.40,0,0,165,0.56,-2.94,0.14,0.42,0.91,0.13
-0.21679688,-6.9535524E-4,-1.6831607E-4,2.2222183E-4,0.42,0.91,0.14,16676,9936.40,0,0,0,0.56,-2.87,0.14,0.42,0.91,0.14
0.7832031,3.04644E-4,-1.6831607E-4,0.0012222215,0.42,0.91,0.14,16691,9937.40,0,0,165,0.63,-2.87,0.21,0.42,0.91,0.14
0.7832031,-6.9535524E-4,-0.0011683181,-0.0017777783,0.43,0.91,0.13,16698,9937.40,0,0,0,0.56,-2.94,0.00,0.43,0.91,0.13
-0.21679688,3.04644E-4,8.3168224E-4,-0.0017777783,0.42,0.91,0.13,16713,9936.40,0,0,165,0.63,-2.80,0.00,0.42,0.91,0.13
0.7832031,0.0013046442,-1.6831607E-4,-0.0027777783,0.42,0.91,0.13,16728,9937.40,0,0,0,0.70,-2.87,-0.07,0.42,0.91,0.13
0.7832031,-0.0016953554,-1.6831607E-4,-0.0017777783,0.42,0.91,0.13,16735,9937.40,0,0,165,0.49,-2.87,0.00,0.42,0.91,0.13
-1.1171875,0.0013046442,0.0038316809,-0.0037777782,0.42,0.91,0.14,16750,9935.50,0,0,0,0.70,-2.59,-0.14,0.42,0.91,0.14
-0.21679688,3.04644E-4,-0.0011683181,-0.0027777783,0.42,0.91,0.14,16765,9936.40,0,0,165,0.63,-2.94,-0.07,0.42,0.91,0.14
0.7832031,3.04644E-4,-1.6831607E-4,2.2222183E-4,0.42,0.91,0.14,16772,9937.40,0,0,0,0.63,-2.87,0.14,0.42,0.91,0.14
-0.21679688,0.0043046447,-1.6831607E-4,0.0012222215,0.42,0.91,0.13,16788,9936.40,0,0,165,0.91,-2.87,0.21,0.42,0.91,0.13
-0.21679688,3.04644E-4,-0.0021683201,0.0012222215,0.42,0.91,0.13,16803,9936.40,0,0,0,0.63,-3.01,0.21,0.42,0.91,0.13
-0.21679688,0.0013046442,0.0018316805,0.0032222215,0.42,0.91,0.13,16810,9936.40,0,0,165,0.70,-2.73,0.35,0.42,0.91,0.13
0.7832031,-6.9535524E-4,0.0028316788,0.0012222215,0.42,0.91,0.13,16826,9937.40,0,0,0,0.56,-2.66,0.21,0.42,0.91,0.13
-1.1171875,-6.9535524E-4,8.3168224E-4,-0.0027777783,0.42,0.91,0.13,16841,9935.50,0,0,165,0.56,-2.80,-0.07,0.42,0.91,0.13
-0.21679688,3.04644E-4,8.3168224E-4,-0.0037777782,0.42,0.91,0.13,16848,9936.40,0,0,0,0.63,-2.80,-0.14,0.42,0.91,0.13
-0.21679688,-6.9535524E-4,0.0018316805,-0.0027777783,0.42,0.91,0.13,16863,9936.40,0,0,165,0.56,-2.73,-0.07,0.42,0.91,0.13
-0.21679688,3.04644E-4,-0.0011683181,-7.777782E-4,0.42,0.91,0.13,16878,9936.40,0,0,0,0.63,-2.94,0.07,0.42,0.91,0.13
-0.21679688,-0.002695356,-0.0011683181,0.0022222218,0.42,0.91,0.13,16885,9936.40,0,0,165,0.42,-2.94,0.28,0.42,0.91,0.13
1.6826172,3.04644E-4,8.3168224E-4,0.006222222,0.42,0.91,0.14,16900,9938.30,0,0,0,0.63,-2.80,0.56,0.42,0.91,0.14
-0.21679688,3.04644E-4,-1.6831607E-4,0.006222222,0.42,0.91,0.14,16915,9936.40,0,0,165,0.63,-2.87,0.56,0.42,0.91,0.14
-0.21679688,0.0013046442,-0.0031683184,0.004222221,0.42,0.91,0.14,16923,9936.40,0,0,0,0.70,-3.08,0.42,0.42,0.91,0.14
-0.21679688,0.0013046442,-0.0011683181,0.0012222215,0.42,0.91,0.13,16937,9936.40,0,0,165,0.70,-2.94,0.21,0.42,0.91,0.13
0.7832031,0.0033046436,-1.6831607E-4,-0.0027777783,0.43,0.91,0.13,16953,9937.40,0,0,0,0.84,-2.87,-0.07,0.43,0.91,0.13
0.7832031,0.0033046436,0.0028316788,-0.007777778,0.42,0.91,0.13,16960,9937.40,0,0,165,0.84,-2.66,-0.42,0.42,0.91,0.13
-0.21679688,-6.9535524E-4,0.0038316809,-0.009777779,0.42,0.91,0.13,16976,9936.40,0,0,0,0.56,-2.59,-0.56,0.42,0.91,0.13
0.7832031,0.0023046443,0.0028316788,-0.009777779,0.42,0.91,0.13,16990,9937.40,0,0,165,0.77,-2.66,-0.56,0.42,0.91,0.13
-0.21679688,3.04644E-4,8.3168224E-4,-0.004777778,0.42,0.91,0.14,16998,9936.40,0,0,0,0.63,-2.80,-0.21,0.42,0.91,0.14
0.7832031,3.04644E-4,-0.0011683181,0.005222222,0.42,0.91,0.14,17013,9937.40,0,0,165,0.63,-2.94,0.49,0.42,0.91,0.14
-0.21679688,-0.002695356,-0.0031683184,0.009222222,0.42,0.92,0.14,17027,9936.40,0,0,0,0.42,-3.08,0.77,0.42,0.92,0.14
-0.21679688,-0.0016953554,-0.0031683184,0.014222222,0.42,0.91,0.13,17035,9936.40,0,0,165,0.49,-3.08,1.12,0.42,0.91,0.13
-0.21679688,-6.9535524E-4,-0.0021683201,0.015222223,0.43,0.91,0.13,17050,9936.40,0,0,0,0.56,-3.01,1.19,0.43,0.91,0.13
0.7832031,-6.9535524E-4,-0.0011683181,0.008222221,0.43,0.91,0.13,17065,9937.40,0,0,165,0.56,-2.94,0.70,0.43,0.91,0.13
0.7832031,-0.0016953554,-1.6831607E-4,-0.0017777783,0.43,0.91,0.13,17073,9937.40,0,0,0,0.49,-2.87,0.00,0.43,0.91,0.13
0.7832031,0.0013046442,0.0028316788,-0.010777778,0.42,0.91,0.13,17088,9937.40,0,0,165,0.70,-2.66,-0.63,0.42,0.91,0.13
-0.21679688,0.0043046447,0.0028316788,-0.015777778,0.42,0.91,0.13,17103,9936.40,0,0,0,0.91,-2.66,-0.98,0.42,0.91,0.13
-1.1171875,0.0023046443,0.0038316809,-0.012777778,0.42,0.91,0.13,17110,9935.50,0,0,165,0.77,-2.59,-0.77,0.42,0.91,0.13
-0.21679688,0.0023046443,0.0028316788,-0.0027777783,0.42,0.91,0.13,17126,9936.40,0,0,0,0.77,-2.66,-0.07,0.42,0.91,0.13
-0.5175781,-0.002695356,8.3168224E-4,0.006222222,0.42,0.91,0.14,17140,9936.10,0,0,165,0.42,-2.80,0.56,0.42,0.91,0.14
-0.21679688,-0.0016953554,-1.6831607E-4,0.011222222,0.42,0.91,0.14,17147,9936.40,0,0,0,0.49,-2.87,0.91,0.42,0.91,0.14
-0.21679688,-6.9535524E-4,-0.0031683184,0.010222221,0.42,0.91,0.14,17163,9936.40,0,0,165,0.56,-3.08,0.84,0.42,0.91,0.14
-0.21679688,0.0023046443,-0.0041683204,0.006222222,0.43,0.91,0.13,17178,9936.40,0,0,0,0.77,-3.15,0.56,0.43,0.91,0.13
0.7832031,3.04644E-4,-0.0031683184,-7.777782E-4,0.43,0.91,0.13,17186,9937.40,0,0,165,0.63,-3.08,0.07,0.43,0.91,0.13
-0.21679688,0.0013046442,-1.6831607E-4,-0.0017777783,0.43,0.91,0.13,17200,9936.40,0,0,0,0.70,-2.87,0.00,0.43,0.91,0.13
-0.21679688,3.04644E-4,0.0028316788,-0.004777778,0.43,0.91,0.13,17215,9936.40,0,0,165,0.63,-2.66,-0.21,0.43,0.91,0.13
-0.21679688,-0.0016953554,0.0038316809,-0.0037777782,0.42,0.91,0.13,17222,9936.40,0,0,0,0.49,-2.59,-0.14,0.42,0.91,0.13
-0.21679688,-0.0016953554,0.0028316788,-0.0057777786,0.42,0.91,0.13,17238,9936.40,0,0,165,0.49,-2.66,-0.28,0.42,0.91,0.13
-0.21679688,3.04644E-4,0.0038316809,-7.777782E-4,0.42,0.91,0.14,17252,9936.40,0,0,0,0.63,-2.59,0.07,0.42,0.91,0.14
-1.1171875,0.0013046442,-1.6831607E-4,2.2222183E-4,0.42,0.91,0.14,17261,9935.50,0,0,165,0.70,-2.87,0.14,0.42,0.91,0.14
-0.21679688,0.0013046442,-0.0031683184,0.0022222218,0.42,0.91,0.13,17277,9936.40,0,0,0,0.70,-3.08,0.28,0.42,0.91,0.13
-0.8173828,0.0013046442,-0.0031683184,2.2222183E-4,0.42,0.91,0.13,17291,9935.80,0,0,165,0.70,-3.08,0.14,0.42,0.91,0.13
0.18261719,0.0013046442,-0.0031683184,0.004222221,0.42,0.91,0.13,17298,9936.80,0,0,0,0.70,-3.08,0.42,0.42,0.91,0.13
-0.21679688,0.0013046442,8.3168224E-4,0.0022222218,0.42,0.91,0.13,17313,9936.40,0,0,165,0.70,-2.80,0.28,0.42,0.91,0.13
-0.21679688,3.04644E-4,8.3168224E-4,0.0012222215,0.42,0.91,0.13,17328,9936.40,0,0,0,0.63,-2.80,0.21,0.42,0.91,0.13
-0.21679688,-0.0016953554,0.0018316805,-7.777782E-4,0.42,0.91,0.13,17335,9936.40,0,0,165,0.49,-2.73,0.07,0.42,0.91,0.13
-0.21679688,0.0013046442,0.0028316788,-0.004777778,0.42,0.91,0.13,17351,9936.40,0,0,0,0.70,-2.66,-0.21,0.42,0.91,0.13
0.18261719,-6.9535524E-4,0.0028316788,-0.0067777783,0.42,0.91,0.13,17365,9936.80,0,0,165,0.56,-2.66,-0.35,0.42,0.91,0.13
-0.21679688,-6.9535524E-4,0.0018316805,-0.0057777786,0.42,0.91,0.14,17373,9936.40,0,0,0,0.56,-2.73,-0.28,0.42,0.91,0.14
0.18261719,-6.9535524E-4,8.3168224E-4,2.2222183E-4,0.42,0.91,0.14,17387,9936.80,0,0,165,0.56,-2.80,0.14,0.42,0.91,0.14
-0.21679688,0.0013046442,-0.0021683201,0.005222222,0.42,0.91,0.13,17403,9936.40,0,0,0,0.70,-3.01,0.49,0.42,0.91,0.13
-0.21679688,0.0013046442,-0.0021683201,0.009222222,0.42,0.91,0.14,17410,9936.40,0,0,165,0.70,-3.01,0.77,0.42,0.91,0.14
-0.21679688,-6.9535524E-4,-0.0021683201,0.009222222,0.43,0.91,0.13,17425,9936.40,0,0,0,0.56,-3.01,0.77,0.43,0.91,0.13
0.18261719,3.04644E-4,-0.0011683181,0.006222222,0.43,0.91,0.13,17440,9936.80,0,0,165,0.63,-2.94,0.56,0.43,0.91,0.13
-0.21679688,-6.9535524E-4,-1.6831607E-4,-0.0037777782,0.42,0.91,0.13,17447,9936.40,0,0,0,0.56,-2.87,-0.14,0.42,0.91,0.13
0.7832031,0.0013046442,0.0028316788,-0.010777778,0.42,0.91,0.13,17463,9937.40,0,0,165,0.70,-2.66,-0.63,0.42,0.91,0.13
-0.21679688,0.0023046443,8.3168224E-4,-0.015777778,0.42,0.91,0.13,17478,9936.40,0,0,0,0.77,-2.80,-0.98,0.42,0.91,0.13
-0.21679688,3.04644E-4,8.3168224E-4,-0.011777778,0.42,0.91,0.14,17485,9936.40,0,0,165,0.63,-2.80,-0.70,0.42,0.91,0.14
0.18261719,0.0013046442,-1.6831607E-4,-0.0037777782,0.42,0.91,0.14,17500,9936.80,0,0,0,0.70,-2.87,-0.14,0.42,0.91,0.14
-0.8173828,-6.9535524E-4,-0.0011683181,0.0072222212,0.42,0.91,0.14,17515,9935.80,0,0,165,0.56,-2.94,0.63,0.42,0.91,0.14
0.7832031,-0.002695356,-0.0011683181,0.012222222,0.42,0.91,0.13,17523,9937.40,0,0,0,0.42,-2.94,0.98,0.42,0.91,0.13
-0.21679688,-0.0016953554,-0.0011683181,0.011222222,0.42,0.91,0.14,17538,9936.40,0,0,165,0.49,-2.94,0.91,0.42,0.91,0.14
0.7832031,3.04644E-4,-0.0021683201,0.005222222,0.42,0.91,0.13,17553,9937.40,0,0,0,0.63,-3.01,0.49,0.42,0.91,0.13
0.18261719,0.0013046442,-0.0011683181,-0.0067777783,0.43,0.91,0.13,17561,9936.80,0,0,165,0.70,-2.94,-0.35,0.43,0.91,0.13
-0.21679688,0.0043046447,8.3168224E-4,-0.009777779,0.42,0.91,0.13,17575,9936.40,0,0,0,0.91,-2.80,-0.56,0.42,0.91,0.13
0.18261719,0.0013046442,0.0028316788,-0.012777778,0.42,0.91,0.13,17598,9936.80,0,0,165,0.70,-2.66,-0.77,0.42,0.91,0.13
0.18261719,3.04644E-4,0.0018316805,-0.0057777786,0.42,0.91,0.14,17599,9936.80,0,0,0,0.63,-2.73,-0.28,0.42,0.91,0.14
-0.21679688,3.04644E-4,0.0028316788,-7.777782E-4,0.42,0.92,0.13,17613,9936.40,0,0,165,0.63,-2.66,0.07,0.42,0.92,0.13
1.0830078,-6.9535524E-4,-0.0011683181,0.005222222,0.42,0.91,0.14,17628,9937.70,0,0,0,0.56,-2.94,0.49,0.42,0.91,0.14
0.18261719,3.04644E-4,-0.0021683201,0.011222222,0.42,0.91,0.13,17636,9936.80,0,0,165,0.63,-3.01,0.91,0.42,0.91,0.13
-0.21679688,-6.9535524E-4,-0.0011683181,0.009222222,0.42,0.91,0.13,17650,9936.40,0,0,0,0.56,-2.94,0.77,0.42,0.91,0.13
0.18261719,-6.9535524E-4,-0.0011683181,0.0012222215,0.42,0.91,0.13,17665,9936.80,0,0,165,0.56,-2.94,0.21,0.42,0.91,0.13
0.18261719,0.0023046443,-0.0021683201,-0.0067777783,0.42,0.91,0.13,17673,9936.80,0,0,0,0.77,-3.01,-0.35,0.42,0.91,0.13
1.0830078,0.0013046442,8.3168224E-4,-0.008777779,0.43,0.91,0.13,17688,9937.70,0,0,165,0.70,-2.80,-0.49,0.43,0.91,0.13
-0.8173828,-6.9535524E-4,0.0028316788,-0.008777779,0.42,0.91,0.13,17703,9935.80,0,0,0,0.56,-2.66,-0.49,0.42,0.91,0.13
0.18261719,-6.9535524E-4,0.0018316805,-0.0027777783,0.42,0.91,0.14,17711,9936.80,0,0,165,0.56,-2.73,-0.07,0.42,0.91,0.14
0.18261719,-6.9535524E-4,-1.6831607E-4,0.0032222215,0.42,0.91,0.13,17725,9936.80,0,0,0,0.56,-2.87,0.35,0.42,0.91,0.13
-0.21679688,-6.9535524E-4,8.3168224E-4,0.008222221,0.42,0.91,0.14,17740,9936.40,0,0,165,0.56,-2.80,0.70,0.42,0.91,0.14
0.18261719,3.04644E-4,-1.6831607E-4,0.005222222,0.42,0.91,0.14,17748,9936.80,0,0,0,0.63,-2.87,0.49,0.42,0.91,0.14
0.18261719,3.04644E-4,-0.0021683201,2.2222183E-4,0.42,0.91,0.14,17762,9936.80,0,0,165,0.63,-3.01,0.14,0.42,0.91,0.14
0.18261719,0.0013046442,-0.0021683201,-0.0027777783,0.42,0.91,0.13,17777,9936.80,0,0,0,0.70,-3.01,-0.07,0.42,0.91,0.13
0.18261719,0.0023046443,-0.0021683201,-0.0027777783,0.42,0.91,0.13,17786,9936.80,0,0,165,0.77,-3.01,-0.07,0.42,0.91,0.13
-0.21679688,0.0013046442,8.3168224E-4,-0.0017777783,0.42,0.91,0.13,17801,9936.40,0,0,0,0.70,-2.80,0.00,0.42,0.91,0.13
0.18261719,-0.0016953554,0.0018316805,-0.0017777783,0.42,0.91,0.13,17815,9936.80,0,0,165,0.49,-2.73,0.00,0.42,0.91,0.13
0.18261719,-0.0016953554,0.0028316788,2.2222183E-4,0.42,0.91,0.13,17822,9936.80,0,0,0,0.49,-2.66,0.14,0.42,0.91,0.13
-0.8173828,3.04644E-4,0.0028316788,2.2222183E-4,0.42,0.91,0.13,17838,9935.80,0,0,165,0.63,-2.66,0.14,0.42,0.91,0.13
0.7832031,3.04644E-4,8.3168224E-4,-7.777782E-4,0.42,0.91,0.14,17853,9937.40,0,0,0,0.63,-2.80,0.07,0.42,0.91,0.14
-0.21679688,-6.9535524E-4,-0.0011683181,-7.777782E-4,0.42,0.91,0.13,17861,9936.40,0,0,165,0.56,-2.94,0.07,0.42,0.91,0.13
-1.7167969,0.0013046442,-0.0021683201,-7.777782E-4,0.42,0.91,0.13,17875,9934.90,0,0,0,0.70,-3.01,0.07,0.42,0.91,0.13
1.0830078,0.0013046442,-1.6831607E-4,-7.777782E-4,0.42,0.91,0.13,17891,9937.70,0,0,165,0.70,-2.87,0.07,0.42,0.91,0.13
-0.8173828,-6.9535524E-4,-0.0011683181,0.004222221,0.42,0.91,0.13,17899,9935.80,0,0,0,0.56,-2.94,0.42,0.42,0.91,0.13
-0.21679688,3.04644E-4,-0.0011683181,0.004222221,0.43,0.91,0.13,17912,9936.40,0,0,165,0.63,-2.94,0.42,0.43,0.91,0.13
-0.8173828,-0.0016953554,8.3168224E-4,0.0022222218,0.42,0.91,0.13,17927,9935.80,0,0,0,0.49,-2.80,0.28,0.42,0.91,0.13
1.0830078,-6.9535524E-4,8.3168224E-4,0.0012222215,0.43,0.91,0.13,17935,9937.70,0,0,165,0.56,-2.80,0.21,0.43,0.91,0.13
-1.1171875,-6.9535524E-4,0.0018316805,-0.0027777783,0.42,0.91,0.13,17951,9935.50,0,0,0,0.56,-2.73,-0.07,0.42,0.91,0.13
0.18261719,-6.9535524E-4,0.0018316805,-0.0067777783,0.42,0.91,0.13,17965,9936.80,0,0,165,0.56,-2.73,-0.35,0.42,0.91,0.13
0.18261719,0.0013046442,8.3168224E-4,-0.004777778,0.42,0.91,0.14,17974,9936.80,0,0,0,0.70,-2.80,-0.21,0.42,0.91,0.14
0.18261719,0.0023046443,8.3168224E-4,-0.0037777782,0.42,0.91,0.14,17988,9936.80,0,0,165,0.77,-2.80,-0.14,0.42,0.91,0.14
0.18261719,3.04644E-4,-1.6831607E-4,0.0032222215,0.42,0.91,0.14,18003,9936.80,0,0,0,0.63,-2.87,0.35,0.42,0.91,0.14
0.18261719,-6.9535524E-4,-0.0011683181,0.006222222,0.42,0.91,0.13,18010,9936.80,0,0,165,0.56,-2.94,0.56,0.42,0.91,0.13
0.18261719,3.04644E-4,-0.0011683181,0.0072222212,0.42,0.91,0.13,18026,9936.80,0,0,0,0.63,-2.94,0.63,0.42,0.91,0.13
0.18261719,0.0013046442,-1.6831607E-4,0.005222222,0.42,0.91,0.13,18040,9936.80,0,0,165,0.70,-2.87,0.49,0.42,0.91,0.13
0.18261719,3.04644E-4,8.3168224E-4,-0.0027777783,0.43,0.91,0.13,18047,9936.80,0,0,0,0.63,-2.80,-0.07,0.43,0.91,0.13
0.18261719,0.0013046442,0.0018316805,-0.0057777786,0.42,0.91,0.13,18063,9936.80,0,0,165,0.70,-2.73,-0.28,0.42,0.91,0.13
0.18261719,0.0023046443,0.0018316805,-0.008777779,0.42,0.91,0.13,18077,9936.80,0,0,0,0.77,-2.73,-0.49,0.42,0.91,0.13
0.18261719,0.0013046442,0.0018316805,-0.0057777786,0.42,0.91,0.13,18085,9936.80,0,0,165,0.70,-2.73,-0.28,0.42,0.91,0.13
0.18261719,-6.9535524E-4,8.3168224E-4,2.2222183E-4,0.42,0.91,0.14,18101,9936.80,0,0,0,0.56,-2.80,0.14,0.42,0.91,0.14
0.18261719,0.0013046442,8.3168224E-4,0.006222222,0.42,0.91,0.14,18115,9936.80,0,0,165,0.70,-2.80,0.56,0.42,0.91,0.14
0.18261719,-0.0016953554,-0.0011683181,0.009222222,0.42,0.91,0.13,18123,9936.80,0,0,0,0.49,-2.94,0.77,0.42,0.91,0.13
0.18261719,-0.0016953554,-0.0021683201,0.0072222212,0.42,0.91,0.13,18138,9936.80,0,0,165,0.49,-3.01,0.63,0.42,0.91,0.13
0.18261719,3.04644E-4,-0.0021683201,0.0012222215,0.42,0.91,0.13,18153,9936.80,0,0,0,0.63,-3.01,0.21,0.42,0.91,0.13
0.18261719,0.0023046443,-1.6831607E-4,-0.004777778,0.43,0.91,0.13,18160,9936.80,0,0,165,0.77,-2.87,-0.21,0.43,0.91,0.13
-0.8173828,0.0033046436,8.3168224E-4,-0.0067777783,0.42,0.91,0.13,18177,9935.80,0,0,0,0.84,-2.80,-0.35,0.42,0.91,0.13
0.18261719,0.0023046443,8.3168224E-4,-0.008777779,0.42,0.91,0.13,18191,9936.80,0,0,165,0.77,-2.80,-0.49,0.42,0.91,0.13
-1.1171875,0.0013046442,0.0018316805,-0.0027777783,0.42,0.91,0.13,18197,9935.50,0,0,0,0.70,-2.73,-0.07,0.42,0.91,0.13
0.18261719,-0.0016953554,0.0018316805,0.0022222218,0.42,0.92,0.14,18212,9936.80,0,0,165,0.49,-2.73,0.28,0.42,0.92,0.14
0.18261719,-0.002695356,0.0018316805,0.0032222215,0.42,0.91,0.13,18228,9936.80,0,0,0,0.42,-2.73,0.35,0.42,0.91,0.13
0.18261719,-6.9535524E-4,-1.6831607E-4,0.005222222,0.42,0.91,0.14,18235,9936.80,0,0,165,0.56,-2.87,0.49,0.42,0.91,0.14
0.18261719,0.0013046442,-0.0011683181,0.0032222215,0.42,0.91,0.13,18250,9936.80,0,0,0,0.70,-2.94,0.35,0.42,0.91,0.13
0.18261719,0.0023046443,-0.0011683181,-7.777782E-4,0.42,0.91,0.13,18266,9936.80,0,0,165,0.77,-2.94,0.07,0.42,0.91,0.13
-0.8173828,0.0013046442,-0.0021683201,-0.0037777782,0.42,0.91,0.13,18273,9935.80,0,0,0,0.70,-3.01,-0.14,0.42,0.91,0.13
0.18261719,0.0023046443,8.3168224E-4,-0.0017777783,0.42,0.91,0.13,18289,9936.80,0,0,165,0.77,-2.80,0.00,0.42,0.91,0.13
0.18261719,0.0023046443,-1.6831607E-4,2.2222183E-4,0.42,0.91,0.13,18303,9936.80,0,0,0,0.77,-2.87,0.14,0.42,0.91,0.13
0.18261719,3.04644E-4,0.0018316805,0.0012222215,0.42,0.91,0.13,18312,9936.80,0,0,165,0.63,-2.73,0.21,0.42,0.91,0.13
0.18261719,3.04644E-4,8.3168224E-4,0.0022222218,0.42,0.91,0.14,18330,9936.80,0,0,0,0.63,-2.80,0.28,0.42,0.91,0.14
1.0830078,3.04644E-4,8.3168224E-4,2.2222183E-4,0.42,0.91,0.13,18341,9937.70,0,0,165,0.63,-2.80,0.14,0.42,0.91,0.13
1.3828125,0.0013046442,-1.6831607E-4,-7.777782E-4,0.42,0.91,0.13,18347,9938.00,0,0,0,0.70,-2.87,0.07,0.42,0.91,0.13
-0.21679688,0.0013046442,-1.6831607E-4,-0.004777778,0.42,0.91,0.13,18368,9936.40,0,0,165,0.70,-2.87,-0.21,0.42,0.91,0.13
0.18261719,3.04644E-4,-0.0011683181,-0.0057777786,0.42,0.91,0.13,18388,9936.80,0,0,0,0.63,-2.94,-0.28,0.42,0.91,0.13
0.48242188,3.04644E-4,-0.0011683181,-0.0017777783,0.42,0.91,0.13,18389,9937.10,0,0,165,0.63,-2.94,0.00,0.42,0.91,0.13
-0.8173828,-0.0016953554,-1.6831607E-4,0.0032222215,0.42,0.91,0.13,18401,9935.80,0,0,0,0.49,-2.87,0.35,0.42,0.91,0.13
0.18261719,-0.0016953554,-1.6831607E-4,0.0032222215,0.43,0.91,0.14,18415,9936.80,0,0,165,0.49,-2.87,0.35,0.43,0.91,0.14
0.18261719,-6.9535524E-4,-1.6831607E-4,0.0032222215,0.42,0.91,0.13,18423,9936.80,0,0,0,0.56,-2.87,0.35,0.42,0.91,0.13
0.18261719,-0.002695356,8.3168224E-4,2.2222183E-4,0.42,0.91,0.13,18438,9936.80,0,0,165,0.42,-2.80,0.14,0.42,0.91,0.13
0.18261719,0.0033046436,8.3168224E-4,-0.0037777782,0.42,0.91,0.14,18453,9936.80,0,0,0,0.84,-2.80,-0.14,0.42,0.91,0.14
0.18261719,0.0013046442,-0.0011683181,-0.0067777783,0.42,0.91,0.13,18461,9936.80,0,0,165,0.70,-2.94,-0.35,0.42,0.91,0.13
0.18261719,-6.9535524E-4,-1.6831607E-4,-0.0027777783,0.42,0.91,0.13,18475,9936.80,0,0,0,0.56,-2.87,-0.07,0.42,0.91,0.13
0.18261719,0.0013046442,8.3168224E-4,2.2222183E-4,0.42,0.91,0.13,18490,9936.80,0,0,165,0.70,-2.80,0.14,0.42,0.91,0.13
-0.8173828,-0.0016953554,-0.0011683181,0.004222221,0.42,0.91,0.13,18497,9935.80,0,0,0,0.49,-2.94,0.42,0.42,0.91,0.13
0.18261719,3.04644E-4,8.3168224E-4,0.005222222,0.42,0.91,0.13,18513,9936.80,0,0,165,0.63,-2.80,0.49,0.42,0.91,0.13
0.18261719,3.04644E-4,8.3168224E-4,0.004222221,0.42,0.91,0.13,18529,9936.80,0,0,0,0.63,-2.80,0.42,0.42,0.91,0.13
0.18261719,3.04644E-4,-1.6831607E-4,-7.777782E-4,0.42,0.91,0.13,18535,9936.80,0,0,165,0.63,-2.87,0.07,0.42,0.91,0.13
1.0830078,3.04644E-4,8.3168224E-4,-0.004777778,0.42,0.91,0.13,18551,9937.70,0,0,0,0.63,-2.80,-0.21,0.42,0.91,0.13
0.48242188,0.0013046442,8.3168224E-4,-0.0057777786,0.42,0.91,0.14,18565,9937.10,0,0,165,0.70,-2.80,-0.28,0.42,0.91,0.14
0.48242188,-6.9535524E-4,8.3168224E-4,-0.004777778,0.42,0.91,0.13,18573,9937.10,0,0,0,0.56,-2.80,-0.21,0.42,0.91,0.13
1.0830078,3.04644E-4,8.3168224E-4,-0.0017777783,0.42,0.91,0.14,18588,9937.70,0,0,165,0.63,-2.80,0.00,0.42,0.91,0.14
0.48242188,-6.9535524E-4,-0.0011683181,-7.777782E-4,0.42,0.91,0.13,18603,9937.10,0,0,0,0.56,-2.94,0.07,0.42,0.91,0.13
0.48242188,-0.0016953554,-0.0011683181,0.006222222,0.42,0.91,0.13,18611,9937.10,0,0,165,0.49,-2.94,0.56,0.42,0.91,0.13
0.48242188,0.0013046442,0.0018316805,0.005222222,0.42,0.91,0.14,18626,9937.10,0,0,0,0.70,-2.73,0.49,0.42,0.91,0.14
1.3828125,-6.9535524E-4,-1.6831607E-4,0.0022222218,0.43,0.91,0.13,18640,9938.00,0,0,165,0.56,-2.87,0.28,0.43,0.91,0.13
-0.8173828,0.0033046436,-1.6831607E-4,-0.0017777783,0.42,0.91,0.13,18648,9935.80,0,0,0,0.84,-2.87,0.00,0.42,0.91,0.13
1.0830078,0.0023046443,-1.6831607E-4,-0.0037777782,0.42,0.91,0.13,18663,9937.70,0,0,165,0.77,-2.87,-0.14,0.42,0.91,0.13
0.18261719,3.04644E-4,-1.6831607E-4,-0.0057777786,0.42,0.91,0.13,18678,9936.80,0,0,0,0.63,-2.87,-0.28,0.42,0.91,0.13
0.48242188,3.04644E-4,8.3168224E-4,-0.0017777783,0.42,0.91,0.13,18686,9937.10,0,0,165,0.63,-2.80,0.00,0.42,0.91,0.13
-0.5175781,-6.9535524E-4,-1.6831607E-4,2.2222183E-4,0.42,0.91,0.13,18700,9936.10,0,0,0,0.56,-2.87,0.14,0.42,0.91,0.13
0.18261719,3.04644E-4,-0.0011683181,0.0012222215,0.42,0.91,0.13,18716,9936.80,0,0,165,0.63,-2.94,0.21,0.42,0.91,0.13
0.18261719,0.0023046443,8.3168224E-4,0.0032222215,0.42,0.91,0.13,18723,9936.80,0,0,0,0.77,-2.80,0.35,0.42,0.91,0.13
-0.5175781,3.04644E-4,-1.6831607E-4,-7.777782E-4,0.42,0.91,0.13,18738,9936.10,0,0,165,0.63,-2.87,0.07,0.42,0.91,0.13
-0.8173828,3.04644E-4,8.3168224E-4,2.2222183E-4,0.42,0.91,0.13,18753,9935.80,0,0,0,0.63,-2.80,0.14,0.42,0.91,0.13
0.18261719,3.04644E-4,8.3168224E-4,-7.777782E-4,0.43,0.91,0.13,18761,9936.80,0,0,165,0.63,-2.80,0.07,0.43,0.91,0.13
0.48242188,-6.9535524E-4,-1.6831607E-4,-0.0017777783,0.42,0.91,0.14,18776,9937.10,0,0,0,0.56,-2.87,0.00,0.42,0.91,0.14
0.48242188,-6.9535524E-4,-1.6831607E-4,-0.0017777783,0.42,0.91,0.13,18790,9937.10,0,0,165,0.56,-2.87,0.00,0.42,0.91,0.13
0.18261719,-0.0016953554,-1.6831607E-4,-0.0017777783,0.43,0.91,0.13,18797,9936.80,0,0,0,0.49,-2.87,0.00,0.43,0.91,0.13
0.48242188,-0.002695356,8.3168224E-4,0.0012222215,0.42,0.91,0.13,18813,9937.10,0,0,165,0.42,-2.80,0.21,0.42,0.91,0.13
0.48242188,-6.9535524E-4,-1.6831607E-4,2.2222183E-4,0.42,0.91,0.14,18827,9937.10,0,0,0,0.56,-2.87,0.14,0.42,0.91,0.14
-0.5175781,-6.9535524E-4,-1.6831607E-4,2.2222183E-4,0.42,0.91,0.13,18835,9936.10,0,0,165,0.56,-2.87,0.14,0.42,0.91,0.13
0.48242188,-6.9535524E-4,-1.6831607E-4,0.0012222215,0.42,0.91,0.13,18850,9937.10,0,0,0,0.56,-2.87,0.21,0.42,0.91,0.13
0.18261719,0.0013046442,-1.6831607E-4,2.2222183E-4,0.42,0.91,0.13,18865,9936.80,0,0,165,0.70,-2.87,0.14,0.42,0.91,0.13
0.18261719,0.0013046442,-1.6831607E-4,-0.0017777783,0.42,0.91,0.13,18872,9936.80,0,0,0,0.70,-2.87,0.00,0.42,0.91,0.13
0.48242188,-6.9535524E-4,-1.6831607E-4,-7.777782E-4,0.42,0.91,0.13,18887,9937.10,0,0,165,0.56,-2.87,0.07,0.42,0.91,0.13
0.48242188,3.04644E-4,8.3168224E-4,0.0012222215,0.42,0.91,0.13,18902,9937.10,0,0,0,0.63,-2.80,0.21,0.42,0.91,0.13
0.48242188,-0.0016953554,0.0018316805,2.2222183E-4,0.43,0.91,0.13,18910,9937.10,0,0,165,0.49,-2.73,0.14,0.43,0.91,0.13
0.18261719,-6.9535524E-4,-0.0011683181,-7.777782E-4,0.42,0.91,0.13,18925,9936.80,0,0,0,0.56,-2.94,0.07,0.42,0.91,0.13
0.48242188,-6.9535524E-4,8.3168224E-4,-0.0017777783,0.43,0.91,0.13,18940,9937.10,0,0,165,0.56,-2.80,0.00,0.43,0.91,0.13
0.18261719,3.04644E-4,-1.6831607E-4,-0.0027777783,0.42,0.91,0.13,18948,9936.80,0,0,0,0.63,-2.87,-0.07,0.42,0.91,0.13
-0.8173828,0.0013046442,-1.6831607E-4,2.2222183E-4,0.42,0.91,0.13,18962,9935.80,0,0,165,0.70,-2.87,0.14,0.42,0.91,0.13
0.48242188,0.0023046443,-1.6831607E-4,0.0012222215,0.42,0.91,0.14,18977,9937.10,0,0,0,0.77,-2.87,0.21,0.42,0.91,0.14
-0.8173828,-0.0016953554,-1.6831607E-4,0.0032222215,0.42,0.91,0.13,18985,9935.80,0,0,165,0.49,-2.87,0.35,0.42,0.91,0.13
0.48242188,-0.0016953554,-0.0011683181,0.0012222215,0.42,0.91,0.13,19000,9937.10,0,0,0,0.49,-2.94,0.21,0.42,0.91,0.13
0.48242188,-0.002695356,-1.6831607E-4,0.0012222215,0.42,0.91,0.13,19015,9937.10,0,0,165,0.42,-2.87,0.21,0.42,0.91,0.13
-0.5175781,-6.9535524E-4,-1.6831607E-4,2.2222183E-4,0.42,0.91,0.13,19022,9936.10,0,0,0,0.56,-2.87,0.14,0.42,0.91,0.13
-0.5175781,0.0013046442,-1.6831607E-4,-0.0027777783,0.42,0.91,0.13,19038,9936.10,0,0,165,0.70,-2.87,-0.07,0.42,0.91,0.13
0.48242188,-6.9535524E-4,0.0018316805,-0.0027777783,0.43,0.91,0.13,19052,9937.10,0,0,0,0.56,-2.73,-0.07,0.43,0.91,0.13
0.7832031,0.0023046443,0.0018316805,-0.0027777783,0.42,0.91,0.13,19060,9937.40,0,0,165,0.77,-2.73,-0.07,0.42,0.91,0.13
0.48242188,3.04644E-4,8.3168224E-4,-0.0027777783,0.42,0.91,0.13,19079,9937.10,0,0,0,0.63,-2.80,-0.07,0.42,0.91,0.13
0.48242188,0.0013046442,8.3168224E-4,-0.0017777783,0.42,0.91,0.14,19091,9937.10,0,0,165,0.70,-2.80,0.00,0.42,0.91,0.14
1.0830078,0.0023046443,-1.6831607E-4,2.2222183E-4,0.42,0.91,0.13,19097,9937.70,0,0,0,0.77,-2.87,0.14,0.42,0.91,0.13
0.48242188,0.0013046442,-1.6831607E-4,0.0032222215,0.42,0.91,0.13,19113,9937.10,0,0,165,0.70,-2.87,0.35,0.42,0.91,0.13
-0.5175781,-6.9535524E-4,8.3168224E-4,0.004222221,0.43,0.91,0.13,19127,9936.10,0,0,0,0.56,-2.80,0.42,0.43,0.91,0.13
-0.5175781,3.04644E-4,-1.6831607E-4,0.0012222215,0.42,0.91,0.13,19135,9936.10,0,0,165,0.63,-2.87,0.21,0.42,0.91,0.13
-0.5175781,0.0013046442,-1.6831607E-4,-7.777782E-4,0.42,0.91,0.13,19151,9936.10,0,0,0,0.70,-2.87,0.07,0.42,0.91,0.13
0.48242188,-0.0016953554,-0.0011683181,-0.004777778,0.42,0.91,0.13,19166,9937.10,0,0,165,0.49,-2.94,-0.21,0.42,0.91,0.13
-0.5175781,0.0013046442,-0.0011683181,-0.0057777786,0.42,0.91,0.13,19173,9936.10,0,0,0,0.70,-2.94,-0.28,0.42,0.91,0.13
1.3828125,3.04644E-4,-0.0011683181,-0.0037777782,0.42,0.91,0.13,19188,9938.00,0,0,165,0.63,-2.94,-0.14,0.42,0.91,0.13
-0.5175781,-6.9535524E-4,-1.6831607E-4,2.2222183E-4,0.42,0.91,0.13,19203,9936.10,0,0,0,0.56,-2.87,0.14,0.42,0.91,0.13
0.48242188,3.04644E-4,-0.0011683181,0.0012222215,0.42,0.91,0.13,19210,9937.10,0,0,165,0.63,-2.94,0.21,0.42,0.91,0.13
1.3828125,-0.0016953554,0.0018316805,0.0022222218,0.42,0.91,0.13,19226,9938.00,0,0,0,0.49,-2.73,0.28,0.42,0.91,0.13
-0.5175781,3.04644E-4,-1.6831607E-4,0.0022222218,0.42,0.91,0.14,19241,9936.10,0,0,165,0.63,-2.87,0.28,0.42,0.91,0.14
0.48242188,3.04644E-4,-1.6831607E-4,2.2222183E-4,0.42,0.91,0.14,19248,9937.10,0,0,0,0.63,-2.87,0.14,0.42,0.91,0.14
-0.5175781,0.0013046442,-0.0011683181,-7.777782E-4,0.42,0.91,0.13,19262,9936.10,0,0,165,0.70,-2.94,0.07,0.42,0.91,0.13
0.48242188,0.0013046442,8.3168224E-4,-0.0027777783,0.42,0.91,0.13,19277,9937.10,0,0,0,0.70,-2.80,-0.07,0.42,0.91,0.13
0.48242188,-6.9535524E-4,-1.6831607E-4,-7.777782E-4,0.42,0.91,0.13,19285,9937.10,0,0,165,0.56,-2.87,0.07,0.42,0.91,0.13
-0.5175781,-6.9535524E-4,8.3168224E-4,-7.777782E-4,0.42,0.91,0.13,19300,9936.10,0,0,0,0.56,-2.80,0.07,0.42,0.91,0.13
0.48242188,0.0013046442,8.3168224E-4,2.2222183E-4,0.42,0.91,0.13,19315,9937.10,0,0,165,0.70,-2.80,0.14,0.42,0.91,0.13
0.48242188,3.04644E-4,-1.6831607E-4,-7.777782E-4,0.42,0.91,0.13,19323,9937.10,0,0,0,0.63,-2.87,0.07,0.42,0.91,0.13
0.7832031,0.0013046442,-1.6831607E-4,2.2222183E-4,0.42,0.91,0.13,19338,9937.40,0,0,165,0.70,-2.87,0.14,0.42,0.91,0.13
-0.5175781,3.04644E-4,-1.6831607E-4,-7.777782E-4,0.42,0.91,0.13,19355,9936.10,0,0,0,0.63,-2.87,0.07,0.42,0.91,0.13
0.7832031,-6.9535524E-4,0.0028316788,-0.0027777783,0.42,0.91,0.13,19361,9937.40,0,0,165,0.56,-2.66,-0.07,0.42,0.91,0.13
0.48242188,3.04644E-4,8.3168224E-4,-0.0037777782,0.42,0.91,0.13,19376,9937.10,0,0,0,0.63,-2.80,-0.14,0.42,0.91,0.13
0.48242188,0.0013046442,-1.6831607E-4,-0.0027777783,0.42,0.91,0.14,19390,9937.10,0,0,165,0.70,-2.87,-0.07,0.42,0.91,0.14
0.48242188,-6.9535524E-4,8.3168224E-4,-0.0017777783,0.42,0.91,0.13,19397,9937.10,0,0,0,0.56,-2.80,0.00,0.42,0.91,0.13
0.48242188,3.04644E-4,8.3168224E-4,2.2222183E-4,0.42,0.91,0.13,19413,9937.10,0,0,165,0.63,-2.80,0.14,0.42,0.91,0.13
0.7832031,-6.9535524E-4,-0.0011683181,0.0022222218,0.42,0.91,0.13,19427,9937.40,0,0,0,0.56,-2.94,0.28,0.42,0.91,0.13
-0.5175781,-6.9535524E-4,8.3168224E-4,2.2222183E-4,0.42,0.91,0.14,19435,9936.10,0,0,165,0.56,-2.80,0.14,0.42,0.91,0.14
-0.5175781,3.04644E-4,8.3168224E-4,-7.777782E-4,0.42,0.91,0.14,19450,9936.10,0,0,0,0.63,-2.80,0.07,0.42,0.91,0.14
-0.5175781,-6.9535524E-4,-0.0021683201,-0.0017777783,0.42,0.91,0.14,19465,9936.10,0,0,165,0.56,-3.01,0.00,0.42,0.91,0.14
0.48242188,-6.9535524E-4,-1.6831607E-4,-7.777782E-4,0.42,0.91,0.13,19473,9937.10,0,0,0,0.56,-2.87,0.07,0.42,0.91,0.13
0.48242188,3.04644E-4,8.3168224E-4,0.0012222215,0.42,0.91,0.13,19488,9937.10,0,0,165,0.63,-2.80,0.21,0.42,0.91,0.13
0.48242188,3.04644E-4,0.0018316805,-7.777782E-4,0.42,0.91,0.13,19502,9937.10,0,0,0,0.63,-2.73,0.07,0.42,0.91,0.13
0.48242188,0.0013046442,0.0018316805,2.2222183E-4,0.42,0.91,0.13,19510,9937.10,0,0,165,0.70,-2.73,0.14,0.42,0.91,0.13
-0.1171875,-6.9535524E-4,8.3168224E-4,-0.0017777783,0.42,0.91,0.13,19525,9936.50,0,0,0,0.56,-2.80,0.00,0.42,0.91,0.13
0.48242188,3.04644E-4,8.3168224E-4,-0.0017777783,0.42,0.91,0.13,19540,9937.10,0,0,165,0.63,-2.80,0.00,0.42,0.91,0.13
0.48242188,-6.9535524E-4,-0.0011683181,-7.777782E-4,0.42,0.91,0.13,19547,9937.10,0,0,0,0.56,-2.94,0.07,0.42,0.91,0.13
0.48242188,-6.9535524E-4,-0.0011683181,-0.0017777783,0.42,0.91,0.13,19563,9937.10,0,0,165,0.56,-2.94,0.00,0.42,0.91,0.13
-0.5175781,3.04644E-4,8.3168224E-4,-7.777782E-4,0.42,0.91,0.13,19578,9936.10,0,0,0,0.63,-2.80,0.07,0.42,0.91,0.13
-0.5175781,0.0013046442,8.3168224E-4,0.0012222215,0.42,0.91,0.13,19585,9936.10,0,0,165,0.70,-2.80,0.21,0.42,0.91,0.13
-0.1171875,-6.9535524E-4,8.3168224E-4,-7.777782E-4,0.42,0.91,0.13,19600,9936.50,0,0,0,0.56,-2.80,0.07,0.42,0.91,0.13
0.48242188,0.0013046442,8.3168224E-4,0.0022222218,0.42,0.91,0.13,19615,9937.10,0,0,165,0.70,-2.80,0.28,0.42,0.91,0.13
0.48242188,0.0013046442,8.3168224E-4,2.2222183E-4,0.42,0.91,0.13,19623,9937.10,0,0,0,0.70,-2.80,0.14,0.42,0.91,0.13
-0.5175781,3.04644E-4,-1.6831607E-4,-0.0017777783,0.42,0.91,0.13,19638,9936.10,0,0,165,0.63,-2.87,0.00,0.42,0.91,0.13
-0.5175781,-6.9535524E-4,8.3168224E-4,2.2222183E-4,0.42,0.91,0.13,19653,9936.10,0,0,0,0.56,-2.80,0.14,0.42,0.91,0.13
-0.5175781,0.0023046443,0.0018316805,-0.0027777783,0.42,0.91,0.13,19660,9936.10,0,0,165,0.77,-2.73,-0.07,0.42,0.91,0.13
-0.1171875,0.0013046442,8.3168224E-4,-0.0017777783,0.42,0.91,0.13,19676,9936.50,0,0,0,0.70,-2.80,0.00,0.42,0.91,0.13
-1.1171875,3.04644E-4,-0.0011683181,2.2222183E-4,0.42,0.91,0.13,19690,9935.50,0,0,165,0.63,-2.94,0.14,0.42,0.91,0.13
0.7832031,0.0013046442,8.3168224E-4,2.2222183E-4,0.42,0.91,0.13,19697,9937.40,0,0,0,0.70,-2.80,0.14,0.42,0.91,0.13
-0.5175781,3.04644E-4,-1.6831607E-4,0.0022222218,0.42,0.91,0.13,19713,9936.10,0,0,165,0.63,-2.87,0.28,0.42,0.91,0.13
-0.1171875,3.04644E-4,-0.0011683181,0.0022222218,0.42,0.91,0.13,19728,9936.50,0,0,0,0.63,-2.94,0.28,0.42,0.91,0.13
-0.5175781,3.04644E-4,-1.6831607E-4,0.0012222215,0.42,0.91,0.13,19735,9936.10,0,0,165,0.63,-2.87,0.21,0.42,0.91,0.13
0.7832031,0.0013046442,-0.0011683181,-0.25777778,0.42,0.91,0.13,19750,9937.40,0,0,0,0.70,-2.94,-17.92,0.42,0.91,0.13
0.7832031,-6.9535524E-4,-1.6831607E-4,0.0012222215,0.42,0.91,0.13,19765,9937.40,0,0,165,0.56,-2.87,0.21,0.42,0.91,0.13
-0.1171875,0.0013046442,-1.6831607E-4,-7.777782E-4,0.42,0.91,0.13,19773,9936.50,0,0,0,0.70,-2.87,0.07,0.42,0.91,0.13
0.48242188,-6.9535524E-4,-1.6831607E-4,-0.0017777783,0.42,0.91,0.13,19788,9937.10,0,0,165,0.56,-2.87,0.00,0.42,0.91,0.13
0.48242188,3.04644E-4,0.0018316805,2.2222183E-4,0.42,0.91,0.13,19803,9937.10,0,0,0,0.63,-2.73,0.14,0.42,0.91,0.13
0.7832031,-6.9535524E-4,-1.6831607E-4,2.2222183E-4,0.42,0.91,0.13,19810,9937.40,0,0,165,0.56,-2.87,0.14,0.42,0.91,0.13
-0.1171875,3.04644E-4,8.3168224E-4,-0.0017777783,0.42,0.91,0.13,19825,9936.50,0,0,0,0.63,-2.80,0.00,0.42,0.91,0.13
0.48242188,3.04644E-4,-1.6831607E-4,-7.777782E-4,0.42,0.91,0.13,19840,9937.10,0,0,165,0.63,-2.87,0.07,0.42,0.91,0.13
-0.5175781,3.04644E-4,-1.6831607E-4,-7.777782E-4,0.42,0.91,0.14,19848,9936.10,0,0,0,0.63,-2.87,0.07,0.42,0.91,0.14
-0.1171875,3.04644E-4,-1.6831607E-4,0.0012222215,0.42,0.91,0.13,19863,9936.50,0,0,165,0.63,-2.87,0.21,0.42,0.91,0.13
-0.1171875,3.04644E-4,-1.6831607E-4,2.2222183E-4,0.42,0.91,0.13,19877,9936.50,0,0,0,0.63,-2.87,0.14,0.42,0.91,0.13
1.7832031,3.04644E-4,-1.6831607E-4,2.2222183E-4,0.42,0.91,0.13,19885,9938.40,0,0,165,0.63,-2.87,0.14,0.42,0.91,0.13
1.7832031,-6.9535524E-4,8.3168224E-4,2.2222183E-4,0.42,0.91,0.13,19900,9938.40,0,0,0,0.56,-2.80,0.14,0.42,0.91,0.13
0.7832031,3.04644E-4,8.3168224E-4,0.0012222215,0.42,0.91,0.13,19915,9937.40,0,0,165,0.63,-2.80,0.21,0.42,0.91,0.13
0.7832031,3.04644E-4,-1.6831607E-4,-0.0017777783,0.42,0.91,0.13,19923,9937.40,0,0,0,0.63,-2.87,0.00,0.42,0.91,0.13
-0.1171875,-6.9535524E-4,8.3168224E-4,-0.0017777783,0.42,0.91,0.13,19938,9936.50,0,0,165,0.56,-2.80,0.00,0.42,0.91,0.13
-0.1171875,3.04644E-4,-0.0011683181,-0.0027777783,0.42,0.91,0.13,19953,9936.50,0,0,0,0.63,-2.94,-0.07,0.42,0.91,0.13
-0.1171875,-6.9535524E-4,-1.6831607E-4,2.2222183E-4,0.43,0.91,0.14,19961,9936.50,0,0,165,0.56,-2.87,0.14,0.43,0.91,0.14
0.48242188,3.04644E-4,-0.0011683181,2.2222183E-4,0.42,0.91,0.13,19977,9937.10,0,0,0,0.63,-2.94,0.14,0.42,0.91,0.13
-0.1171875,-0.0016953554,-0.0011683181,0.0012222215,0.42,0.91,0.13,19990,9936.50,0,0,165,0.49,-2.94,0.21,0.42,0.91,0.13
-0.1171875,3.04644E-4,8.3168224E-4,-0.0017777783,0.42,0.91,0.13,19997,9936.50,0,0,0,0.63,-2.80,0.00,0.42,0.91,0.13
-0.1171875,-6.9535524E-4,-0.0011683181,-7.777782E-4,0.42,0.91,0.13,20017,9936.50,0,0,165,0.56,-2.94,0.07,0.42,0.91,0.13
-0.5175781,3.04644E-4,-1.6831607E-4,-7.777782E-4,0.42,0.91,0.13,20027,9936.10,0,0,0,0.63,-2.87,0.07,0.42,0.91,0.13
0.7832031,-6.9535524E-4,-1.6831607E-4,-0.0017777783,0.42,0.91,0.14,20035,9937.40,0,0,165,0.56,-2.87,0.00,0.42,0.91,0.14
0.7832031,3.04644E-4,8.3168224E-4,-7.777782E-4,0.42,0.91,0.13,20050,9937.40,0,0,0,0.63,-2.80,0.07,0.42,0.91,0.13
1.7832031,0.0013046442,-1.6831607E-4,2.2222183E-4,0.42,0.91,0.13,20065,9938.40,0,0,165,0.70,-2.87,0.14,0.42,0.91,0.13
-0.1171875,3.04644E-4,8.3168224E-4,0.0022222218,0.42,0.91,0.13,20073,9936.50,0,0,0,0.63,-2.80,0.28,0.42,0.91,0.13
-1.4169922,-6.9535524E-4,8.3168224E-4,0.0012222215,0.42,0.91,0.14,20088,9935.20,0,0,165,0.56,-2.80,0.21,0.42,0.91,0.14
0.48242188,0.0013046442,-1.6831607E-4,2.2222183E-4,0.42,0.91,0.13,20103,9937.10,0,0,0,0.70,-2.87,0.14,0.42,0.91,0.13
0.7832031,3.04644E-4,-1.6831607E-4,-0.0027777783,0.43,0.91,0.13,20110,9937.40,0,0,165,0.63,-2.87,-0.07,0.43,0.91,0.13
0.7832031,0.0013046442,-1.6831607E-4,-0.004777778,0.42,0.91,0.13,20127,9937.40,0,0,0,0.70,-2.87,-0.21,0.42,0.91,0.13
0.7832031,3.04644E-4,8.3168224E-4,-0.0027777783,0.42,0.91,0.13,20140,9937.40,0,0,165,0.63,-2.80,-0.07,0.42,0.91,0.13
0.48242188,-6.9535524E-4,-0.0011683181,-0.0017777783,0.42,0.91,0.13,20148,9937.10,0,0,0,0.56,-2.94,0.00,0.42,0.91,0.13
-0.1171875,3.04644E-4,-1.6831607E-4,0.0022222218,0.42,0.91,0.13,20162,9936.50,0,0,165,0.63,-2.87,0.28,0.42,0.91,0.13
-0.1171875,3.04644E-4,-0.0011683181,0.0032222215,0.42,0.91,0.14,20178,9936.50,0,0,0,0.63,-2.94,0.35,0.42,0.91,0.14
0.7832031,-6.9535524E-4,-0.0011683181,0.0022222218,0.42,0.91,0.14,20185,9937.40,0,0,165,0.56,-2.94,0.28,0.42,0.91,0.14
0.7832031,-6.9535524E-4,-1.6831607E-4,-7.777782E-4,0.42,0.91,0.14,20200,9937.40,0,0,0,0.56,-2.87,0.07,0.42,0.91,0.14
0.7832031,0.0023046443,-1.6831607E-4,-7.777782E-4,0.42,0.91,0.13,20215,9937.40,0,0,165,0.77,-2.87,0.07,0.42,0.91,0.13
-0.1171875,-6.9535524E-4,-1.6831607E-4,-0.0037777782,0.42,0.91,0.13,20223,9936.50,0,0,0,0.56,-2.87,-0.14,0.42,0.91,0.13
-0.1171875,0.0013046442,8.3168224E-4,-0.004777778,0.42,0.91,0.13,20238,9936.50,0,0,165,0.70,-2.80,-0.21,0.42,0.91,0.13
-0.1171875,-6.9535524E-4,8.3168224E-4,-7.777782E-4,0.42,0.91,0.13,20253,9936.50,0,0,0,0.56,-2.80,0.07,0.42,0.91,0.13
0.7832031,3.04644E-4,-1.6831607E-4,0.0012222215,0.42,0.91,0.13,20261,9937.40,0,0,165,0.63,-2.87,0.21,0.42,0.91,0.13
0.7832031,-6.9535524E-4,8.3168224E-4,0.0012222215,0.42,0.91,0.13,20276,9937.40,0,0,0,0.56,-2.80,0.21,0.42,0.91,0.13
-0.1171875,-6.9535524E-4,-1.6831607E-4,0.0022222218,0.42,0.91,0.14,20290,9936.50,0,0,165,0.56,-2.87,0.28,0.42,0.91,0.14
0.7832031,3.04644E-4,-0.0011683181,2.2222183E-4,0.43,0.91,0.14,20297,9937.40,0,0,0,0.63,-2.94,0.14,0.43,0.91,0.14
-0.1171875,0.0013046442,-0.0011683181,-7.777782E-4,0.42,0.91,0.13,20312,9936.50,0,0,165,0.70,-2.94,0.07,0.42,0.91,0.13
-0.1171875,-6.9535524E-4,-0.0021683201,2.2222183E-4,0.42,0.91,0.13,20327,9936.50,0,0,0,0.56,-3.01,0.14,0.42,0.91,0.13
-0.1171875,3.04644E-4,8.3168224E-4,-0.0017777783,0.42,0.91,0.13,20335,9936.50,0,0,165,0.63,-2.80,0.00,0.42,0.91,0.13
-0.1171875,-0.0016953554,8.3168224E-4,2.2222183E-4,0.42,0.91,0.13,20350,9936.50,0,0,0,0.49,-2.80,0.14,0.42,0.91,0.13
-0.1171875,3.04644E-4,8.3168224E-4,2.2222183E-4,0.42,0.91,0.14,20365,9936.50,0,0,165,0.63,-2.80,0.14,0.42,0.91,0.14
-0.1171875,-6.9535524E-4,-1.6831607E-4,0.0012222215,0.42,0.91,0.13,20373,9936.50,0,0,0,0.56,-2.87,0.21,0.42,0.91,0.13
-0.1171875,3.04644E-4,8.3168224E-4,2.2222183E-4,0.42,0.91,0.13,20388,9936.50,0,0,165,0.63,-2.80,0.14,0.42,0.91,0.13
-0.1171875,0.0013046442,-1.6831607E-4,-0.0017777783,0.42,0.91,0.14,20403,9936.50,0,0,0,0.70,-2.87,0.00,0.42,0.91,0.14
0.7832031,-6.9535524E-4,-1.6831607E-4,-0.0017777783,0.42,0.91,0.13,20411,9937.40,0,0,165,0.56,-2.87,0.00,0.42,0.91,0.13
-0.1171875,3.04644E-4,-1.6831607E-4,-0.0017777783,0.42,0.91,0.13,20425,9936.50,0,0,0,0.63,-2.87,0.00,0.42,0.91,0.13
-0.1171875,0.0013046442,-1.6831607E-4,-7.777782E-4,0.42,0.91,0.13,20440,9936.50,0,0,165,0.70,-2.87,0.07,0.42,0.91,0.13
-0.1171875,3.04644E-4,8.3168224E-4,0.0012222215,0.42,0.91,0.13,20448,9936.50,0,0,0,0.63,-2.80,0.21,0.42,0.91,0.13
-0.1171875,-6.9535524E-4,-1.6831607E-4,0.0022222218,0.42,0.91,0.13,20462,9936.50,0,0,165,0.56,-2.87,0.28,0.42,0.91,0.13
-0.1171875,-6.9535524E-4,-1.6831607E-4,0.0022222218,0.42,0.91,0.13,20478,9936.50,0,0,0,0.56,-2.87,0.28,0.42,0.91,0.13
-0.1171875,3.04644E-4,8.3168224E-4,0.0032222215,0.42,0.91,0.14,20485,9936.50,0,0,165,0.63,-2.80,0.35,0.42,0.91,0.14
0.7832031,-0.0016953554,-1.6831607E-4,2.2222183E-4,0.42,0.91,0.13,20500,9937.40,0,0,0,0.49,-2.87,0.14,0.42,0.91,0.13
-0.1171875,-6.9535524E-4,-1.6831607E-4,-0.0017777783,0.42,0.91,0.13,20515,9936.50,0,0,165,0.56,-2.87,0.00,0.42,0.91,0.13
-0.1171875,0.0013046442,-0.0011683181,-0.0027777783,0.42,0.91,0.14,20523,9936.50,0,0,0,0.70,-2.94,-0.07,0.42,0.91,0.14
-0.1171875,0.0013046442,-1.6831607E-4,-0.0017777783,0.42,0.91,0.13,20537,9936.50,0,0,165,0.70,-2.87,0.00,0.42,0.91,0.13
-0.1171875,3.04644E-4,-1.6831607E-4,-0.0017777783,0.42,0.91,0.13,20553,9936.50,0,0,0,0.63,-2.87,0.00,0.42,0.91,0.13
-0.1171875,3.04644E-4,-1.6831607E-4,2.2222183E-4,0.42,0.91,0.13,20567,9936.50,0,0,165,0.63,-2.87,0.14,0.42,0.91,0.13
-0.1171875,0.0013046442,-1.6831607E-4,0.0012222215,0.43,0.91,0.13,20575,9936.50,0,0,0,0.70,-2.87,0.21,0.43,0.91,0.13
0.18261719,-6.9535524E-4,8.3168224E-4,-7.777782E-4,0.42,0.91,0.13,20582,9936.80,0,0,165,0.56,-2.80,0.07,0.42,0.91,0.13
0.18261719,-0.0016953554,-1.6831607E-4,-0.0027777783,0.42,0.91,0.13,20597,9936.80,0,0,0,0.49,-2.87,-0.07,0.42,0.91,0.13
0.7832031,3.04644E-4,-0.0011683181,-0.0037777782,0.42,0.91,0.13,20612,9937.40,0,0,165,0.63,-2.94,-0.14,0.42,0.91,0.13
0.18261719,0.0013046442,-1.6831607E-4,-0.0017777783,0.42,0.91,0.13,20620,9936.80,0,0,0,0.70,-2.87,0.00,0.42,0.91,0.13
-0.8173828,3.04644E-4,8.3168224E-4,-0.0017777783,0.42,0.91,0.13,20635,9935.80,0,0,165,0.63,-2.80,0.00,0.42,0.91,0.13
-0.1171875,0.0013046442,-1.6831607E-4,2.2222183E-4,0.42,0.91,0.13,20650,9936.50,0,0,0,0.70,-2.87,0.14,0.42,0.91,0.13
0.18261719,-6.9535524E-4,8.3168224E-4,0.004222221,0.42,0.91,0.13,20658,9936.80,0,0,165,0.56,-2.80,0.42,0.42,0.91,0.13
-0.1171875,3.04644E-4,-1.6831607E-4,0.0012222215,0.42,0.91,0.13,20673,9936.50,0,0,0,0.63,-2.87,0.21,0.42,0.91,0.13
0.18261719,-6.9535524E-4,-1.6831607E-4,0.0012222215,0.42,0.91,0.13,20688,9936.80,0,0,165,0.56,-2.87,0.21,0.42,0.91,0.13
-0.1171875,-6.9535524E-4,-1.6831607E-4,-7.777782E-4,0.42,0.91,0.13,20696,9936.50,0,0,0,0.56,-2.87,0.07,0.42,0.91,0.13
-0.1171875,3.04644E-4,8.3168224E-4,-7.777782E-4,0.42,0.91,0.13,20710,9936.50,0,0,165,0.63,-2.80,0.07,0.42,0.91,0.13
1.0830078,3.04644E-4,-1.6831607E-4,-0.0037777782,0.42,0.91,0.13,20729,9937.70,0,0,0,0.63,-2.87,-0.14,0.42,0.91,0.13
0.18261719,0.0013046442,8.3168224E-4,2.2222183E-4,0.42,0.91,0.13,20733,9936.80,0,0,165,0.70,-2.80,0.14,0.42,0.91,0.13
1.0830078,3.04644E-4,8.3168224E-4,2.2222183E-4,0.42,0.91,0.13,20747,9937.70,0,0,0,0.63,-2.80,0.14,0.42,0.91,0.13
0.7832031,3.04644E-4,8.3168224E-4,0.0012222215,0.42,0.91,0.13,20763,9937.40,0,0,165,0.63,-2.80,0.21,0.42,0.91,0.13
0.18261719,-6.9535524E-4,-1.6831607E-4,0.0012222215,0.42,0.91,0.13,20770,9936.80,0,0,0,0.56,-2.87,0.21,0.42,0.91,0.13
-1.1171875,0.0013046442,8.3168224E-4,0.0032222215,0.42,0.91,0.13,20785,9935.50,0,0,165,0.70,-2.80,0.35,0.42,0.91,0.13
-0.8173828,0.0023046443,8.3168224E-4,2.2222183E-4,0.42,0.91,0.13,20800,9935.80,0,0,0,0.77,-2.80,0.14,0.42,0.91,0.13
0.18261719,3.04644E-4,-1.6831607E-4,-7.777782E-4,0.42,0.91,0.13,20808,9936.80,0,0,165,0.63,-2.87,0.07,0.42,0.91,0.13
0.18261719,-6.9535524E-4,8.3168224E-4,-0.0017777783,0.42,0.91,0.14,20822,9936.80,0,0,0,0.56,-2.80,0.00,0.42,0.91,0.14
-0.1171875,0.0023046443,-1.6831607E-4,2.2222183E-4,0.42,0.91,0.14,20838,9936.50,0,0,165,0.77,-2.87,0.14,0.42,0.91,0.14
0.18261719,-6.9535524E-4,-0.0011683181,-7.777782E-4,0.42,0.91,0.13,20845,9936.80,0,0,0,0.56,-2.94,0.07,0.42,0.91,0.13
0.18261719,-6.9535524E-4,8.3168224E-4,2.2222183E-4,0.42,0.91,0.14,20860,9936.80,0,0,165,0.56,-2.80,0.14,0.42,0.91,0.14
0.18261719,0.0013046442,-1.6831607E-4,0.0012222215,0.42,0.91,0.13,20876,9936.80,0,0,0,0.70,-2.87,0.21,0.42,0.91,0.13
-0.1171875,3.04644E-4,-1.6831607E-4,-7.777782E-4,0.42,0.91,0.13,20883,9936.50,0,0,165,0.63,-2.87,0.07,0.42,0.91,0.13
-0.8173828,0.0013046442,8.3168224E-4,-0.0027777783,0.42,0.91,0.14,20898,9935.80,0,0,0,0.70,-2.80,-0.07,0.42,0.91,0.14
0.7832031,3.04644E-4,-1.6831607E-4,-7.777782E-4,0.42,0.91,0.13,20913,9937.40,0,0,165,0.63,-2.87,0.07,0.42,0.91,0.13
-0.1171875,-6.9535524E-4,-1.6831607E-4,-7.777782E-4,0.42,0.91,0.13,20920,9936.50,0,0,0,0.56,-2.87,0.07,0.42,0.91,0.13
-0.8173828,3.04644E-4,-0.0011683181,2.2222183E-4,0.42,0.91,0.13,20935,9935.80,0,0,165,0.63,-2.94,0.14,0.42,0.91,0.13
-0.8173828,3.04644E-4,0.0018316805,0.0012222215,0.42,0.91,0.13,20950,9935.80,0,0,0,0.63,-2.73,0.21,0.42,0.91,0.13
1.0830078,3.04644E-4,-1.6831607E-4,0.0012222215,0.42,0.91,0.14,20957,9937.70,0,0,165,0.63,-2.87,0.21,0.42,0.91,0.14
1.0830078,0.0013046442,8.3168224E-4,-0.0017777783,0.42,0.91,0.13,20973,9937.70,0,0,0,0.70,-2.80,0.00,0.42,0.91,0.13
0.18261719,-6.9535524E-4,-0.0011683181,-7.777782E-4,0.42,0.91,0.13,20987,9936.80,0,0,165,0.56,-2.94,0.07,0.42,0.91,0.13
0.18261719,0.0023046443,8.3168224E-4,-7.777782E-4,0.42,0.91,0.13,20995,9936.80,0,0,0,0.77,-2.80,0.07,0.42,0.91,0.13
-1.1171875,3.04644E-4,8.3168224E-4,-0.0017777783,0.42,0.91,0.13,21010,9935.50,0,0,165,0.63,-2.80,0.00,0.42,0.91,0.13
1.0830078,-6.9535524E-4,-1.6831607E-4,-0.0017777783,0.42,0.91,0.13,21025,9937.70,0,0,0,0.56,-2.87,0.00,0.42,0.91,0.13
0.18261719,3.04644E-4,-1.6831607E-4,0.0012222215,0.42,0.91,0.13,21032,9936.80,0,0,165,0.63,-2.87,0.21,0.42,0.91,0.13
0.18261719,-6.9535524E-4,-1.6831607E-4,0.0012222215,0.43,0.91,0.14,21047,9936.80,0,0,0,0.56,-2.87,0.21,0.43,0.91,0.14
0.18261719,3.04644E-4,-0.0011683181,2.2222183E-4,0.42,0.91,0.13,21062,9936.80,0,0,165,0.63,-2.94,0.14,0.42,0.91,0.13
0.18261719,-0.0016953554,8.3168224E-4,0.0012222215,0.42,0.91,0.13,21070,9936.80,0,0,0,0.49,-2.80,0.21,0.42,0.91,0.13
0.18261719,3.04644E-4,8.3168224E-4,0.0022222218,0.42,0.91,0.13,21085,9936.80,0,0,165,0.63,-2.80,0.28,0.42,0.91,0.13
1.0830078,3.04644E-4,8.3168224E-4,-0.0017777783,0.42,0.91,0.13,21100,9937.70,0,0,0,0.63,-2.80,0.00,0.42,0.91,0.13
0.18261719,3.04644E-4,8.3168224E-4,2.2222183E-4,0.42,0.91,0.13,21108,9936.80,0,0,165,0.63,-2.80,0.14,0.42,0.91,0.13
0.18261719,3.04644E-4,8.3168224E-4,2.2222183E-4,0.42,0.91,0.13,21122,9936.80,0,0,0,0.63,-2.80,0.14,0.42,0.91,0.13
0.18261719,-6.9535524E-4,-0.0011683181,-0.0017777783,0.42,0.91,0.14,21138,9936.80,0,0,165,0.56,-2.94,0.00,0.42,0.91,0.14
0.18261719,-6.9535524E-4,-1.6831607E-4,2.2222183E-4,0.43,0.91,0.13,21145,9936.80,0,0,0,0.56,-2.87,0.14,0.43,0.91,0.13
0.18261719,-0.0016953554,8.3168224E-4,0.0012222215,0.42,0.91,0.13,21160,9936.80,0,0,165,0.49,-2.80,0.21,0.42,0.91,0.13
0.18261719,-6.9535524E-4,8.3168224E-4,-7.777782E-4,0.42,0.91,0.13,21175,9936.80,0,0,0,0.56,-2.80,0.07,0.42,0.91,0.13
0.18261719,0.0013046442,8.3168224E-4,-0.0017777783,0.42,0.91,0.13,21182,9936.80,0,0,165,0.70,-2.80,0.00,0.42,0.91,0.13
0.18261719,3.04644E-4,0.0018316805,-0.0027777783,0.42,0.91,0.13,21197,9936.80,0,0,0,0.63,-2.73,-0.07,0.42,0.91,0.13
0.18261719,3.04644E-4,-1.6831607E-4,-7.777782E-4,0.42,0.91,0.13,21212,9936.80,0,0,165,0.63,-2.87,0.07,0.42,0.91,0.13
0.18261719,3.04644E-4,0.0018316805,0.0012222215,0.42,0.91,0.13,21220,9936.80,0,0,0,0.63,-2.73,0.21,0.42,0.91,0.13
0.18261719,3.04644E-4,8.3168224E-4,0.004222221,0.42,0.91,0.13,21235,9936.80,0,0,165,0.63,-2.80,0.42,0.42,0.91,0.13
0.18261719,3.04644E-4,-1.6831607E-4,0.0032222215,0.42,0.91,0.13,21250,9936.80,0,0,0,0.63,-2.87,0.35,0.42,0.91,0.13
0.18261719,-6.9535524E-4,8.3168224E-4,-0.0017777783,0.42,0.91,0.14,21258,9936.80,0,0,165,0.56,-2.80,0.00,0.42,0.91,0.14
-0.8173828,3.04644E-4,8.3168224E-4,-0.0017777783,0.42,0.91,0.13,21273,9935.80,0,0,0,0.63,-2.80,0.00,0.42,0.91,0.13
0.18261719,0.0013046442,-1.6831607E-4,-0.004777778,0.42,0.91,0.14,21288,9936.80,0,0,165,0.70,-2.87,-0.21,0.42,0.91,0.14
0.18261719,0.0023046443,-1.6831607E-4,-0.0027777783,0.42,0.91,0.13,21295,9936.80,0,0,0,0.77,-2.87,-0.07,0.42,0.91,0.13
-0.8173828,-6.9535524E-4,-1.6831607E-4,-0.0017777783,0.42,0.91,0.13,21310,9935.80,0,0,165,0.56,-2.87,0.00,0.42,0.91,0.13
0.18261719,3.04644E-4,0.0028316788,2.2222183E-4,0.42,0.91,0.13,21325,9936.80,0,0,0,0.63,-2.66,0.14,0.42,0.91,0.13
0.18261719,-0.0016953554,8.3168224E-4,0.0022222218,0.42,0.91,0.14,21333,9936.80,0,0,165,0.49,-2.80,0.28,0.42,0.91,0.14
0.18261719,0.0013046442,-1.6831607E-4,2.2222183E-4,0.42,0.91,0.14,21347,9936.80,0,0,0,0.70,-2.87,0.14,0.42,0.91,0.14
0.18261719,0.0013046442,-1.6831607E-4,0.0012222215,0.42,0.91,0.14,21363,9936.80,0,0,165,0.70,-2.87,0.21,0.42,0.91,0.14
0.18261719,0.0013046442,-1.6831607E-4,2.2222183E-4,0.42,0.91,0.13,21370,9936.80,0,0,0,0.70,-2.87,0.14,0.42,0.91,0.13
-0.1171875,-6.9535524E-4,-1.6831607E-4,-7.777782E-4,0.43,0.91,0.14,21385,9936.50,0,0,165,0.56,-2.87,0.07,0.43,0.91,0.14
0.18261719,3.04644E-4,-1.6831607E-4,-7.777782E-4,0.42,0.91,0.13,21400,9936.80,0,0,0,0.63,-2.87,0.07,0.42,0.91,0.13
0.18261719,-6.9535524E-4,8.3168224E-4,2.2222183E-4,0.42,0.91,0.13,21408,9936.80,0,0,165,0.56,-2.80,0.14,0.42,0.91,0.13
0.18261719,-0.0016953554,8.3168224E-4,-7.777782E-4,0.42,0.91,0.14,21422,9936.80,0,0,0,0.49,-2.80,0.07,0.42,0.91,0.14
0.18261719,-6.9535524E-4,-0.0011683181,0.0012222215,0.42,0.91,0.13,21437,9936.80,0,0,165,0.56,-2.94,0.21,0.42,0.91,0.13
0.18261719,3.04644E-4,-1.6831607E-4,-7.777782E-4,0.42,0.91,0.13,21445,9936.80,0,0,0,0.63,-2.87,0.07,0.42,0.91,0.13
0.18261719,0.0013046442,-0.0011683181,-0.0017777783,0.42,0.91,0.14,21461,9936.80,0,0,165,0.70,-2.94,0.00,0.42,0.91,0.14
1.0830078,3.04644E-4,8.3168224E-4,-0.004777778,0.42,0.91,0.13,21475,9937.70,0,0,0,0.63,-2.80,-0.21,0.42,0.91,0.13
0.48242188,0.0023046443,-1.6831607E-4,-0.0027777783,0.42,0.91,0.13,21482,9937.10,0,0,165,0.77,-2.87,-0.07,0.42,0.91,0.13
-0.8173828,0.0013046442,-0.0011683181,-7.777782E-4,0.42,0.91,0.13,21498,9935.80,0,0,0,0.70,-2.94,0.07,0.42,0.91,0.13
0.18261719,-6.9535524E-4,8.3168224E-4,0.0022222218,0.42,0.91,0.14,21513,9936.80,0,0,165,0.56,-2.80,0.28,0.42,0.91,0.14
0.18261719,-6.9535524E-4,8.3168224E-4,0.004222221,0.42,0.91,0.13,21520,9936.80,0,0,0,0.56,-2.80,0.42,0.42,0.91,0.13
0.18261719,-0.0016953554,8.3168224E-4,0.004222221,0.42,0.91,0.13,21535,9936.80,0,0,165,0.49,-2.80,0.42,0.42,0.91,0.13
0.18261719,0.0013046442,8.3168224E-4,0.0022222218,0.42,0.91,0.13,21550,9936.80,0,0,0,0.70,-2.80,0.28,0.42,0.91,0.13
-0.8173828,0.0023046443,8.3168224E-4,-0.0017777783,0.42,0.91,0.13,21558,9935.80,0,0,165,0.77,-2.80,0.00,0.42,0.91,0.13
-0.8173828,3.04644E-4,-1.6831607E-4,-0.0037777782,0.42,0.91,0.13,21572,9935.80,0,0,0,0.63,-2.87,-0.14,0.42,0.91,0.13
0.18261719,0.0013046442,0.0018316805,-0.0037777782,0.42,0.91,0.13,21588,9936.80,0,0,165,0.70,-2.73,-0.14,0.42,0.91,0.13
0.18261719,0.0013046442,-1.6831607E-4,-7.777782E-4,0.42,0.91,0.14,21595,9936.80,0,0,0,0.70,-2.87,0.07,0.42,0.91,0.14
0.18261719,0.0013046442,-1.6831607E-4,0.0032222215,0.42,0.91,0.14,21610,9936.80,0,0,165,0.70,-2.87,0.35,0.42,0.91,0.14
-0.8173828,-6.9535524E-4,8.3168224E-4,0.004222221,0.42,0.91,0.14,21625,9935.80,0,0,0,0.56,-2.80,0.42,0.42,0.91,0.14
0.18261719,3.04644E-4,-1.6831607E-4,0.0032222215,0.42,0.91,0.14,21632,9936.80,0,0,165,0.63,-2.87,0.35,0.42,0.91,0.14
0.18261719,3.04644E-4,-0.0011683181,0.0022222218,0.42,0.91,0.13,21648,9936.80,0,0,0,0.63,-2.94,0.28,0.42,0.91,0.13
0.18261719,-0.0016953554,8.3168224E-4,-0.0017777783,0.42,0.91,0.13,21663,9936.80,0,0,165,0.49,-2.80,0.00,0.42,0.91,0.13
-0.8173828,0.0033046436,8.3168224E-4,-0.0017777783,0.42,0.91,0.13,21670,9935.80,0,0,0,0.84,-2.80,0.00,0.42,0.91,0.13
-0.4169922,0.0013046442,-1.6831607E-4,-0.0037777782,0.42,0.91,0.13,21685,9936.20,0,0,165,0.70,-2.87,-0.14,0.42,0.91,0.13
-0.8173828,3.04644E-4,8.3168224E-4,-0.0037777782,0.42,0.91,0.13,21700,9935.80,0,0,0,0.63,-2.80,-0.14,0.42,0.91,0.13
-0.8173828,3.04644E-4,-1.6831607E-4,2.2222183E-4,0.42,0.91,0.13,21708,9935.80,0,0,165,0.63,-2.87,0.14,0.42,0.91,0.13
0.18261719,-0.0016953554,-1.6831607E-4,0.0012222215,0.42,0.91,0.13,21722,9936.80,0,0,0,0.49,-2.87,0.21,0.42,0.91,0.13
0.18261719,-6.9535524E-4,0.0018316805,0.0012222215,0.43,0.91,0.14,21737,9936.80,0,0,165,0.56,-2.73,0.21,0.43,0.91,0.14
-0.8173828,-0.0016953554,-1.6831607E-4,2.2222183E-4,0.42,0.91,0.13,21745,9935.80,0,0,0,0.49,-2.87,0.14,0.42,0.91,0.13
0.18261719,0.0013046442,0.0018316805,-7.777782E-4,0.42,0.91,0.13,21760,9936.80,0,0,165,0.70,-2.73,0.07,0.42,0.91,0.13
0.18261719,3.04644E-4,-0.0011683181,-0.0027777783,0.42,0.91,0.13,21775,9936.80,0,0,0,0.63,-2.94,-0.07,0.42,0.91,0.13
-0.8173828,3.04644E-4,-1.6831607E-4,-0.0037777782,0.42,0.91,0.13,21783,9935.80,0,0,165,0.63,-2.87,-0.14,0.42,0.91,0.13
0.18261719,-0.0016953554,8.3168224E-4,-7.777782E-4,0.42,0.91,0.13,21798,9936.80,0,0,0,0.49,-2.80,0.07,0.42,0.91,0.13
0.18261719,-6.9535524E-4,0.0018316805,2.2222183E-4,0.42,0.91,0.13,21812,9936.80,0,0,165,0.56,-2.73,0.14,0.42,0.91,0.13
0.48242188,3.04644E-4,0.0018316805,0.0022222218,0.43,0.91,0.13,21820,9937.10,0,0,0,0.63,-2.73,0.28,0.43,0.91,0.13
2.3828125,3.04644E-4,-1.6831607E-4,0.0022222218,0.42,0.91,0.13,21835,9939.00,0,0,165,0.63,-2.87,0.28,0.42,0.91,0.13
0.18261719,0.0013046442,0.0018316805,0.0022222218,0.43,0.91,0.13,21850,9936.80,0,0,0,0.70,-2.73,0.28,0.43,0.91,0.13
0.18261719,3.04644E-4,-1.6831607E-4,-0.0017777783,0.42,0.91,0.13,21858,9936.80,0,0,165,0.63,-2.87,0.00,0.42,0.91,0.13
2.0830078,0.0013046442,-1.6831607E-4,-0.0037777782,0.42,0.91,0.13,21872,9938.70,0,0,0,0.70,-2.87,-0.14,0.42,0.91,0.13
0.18261719,0.0013046442,8.3168224E-4,-0.0017777783,0.42,0.91,0.13,21887,9936.80,0,0,165,0.70,-2.80,0.00,0.42,0.91,0.13
0.18261719,0.0013046442,-1.6831607E-4,-0.0027777783,0.42,0.91,0.13,21895,9936.80,0,0,0,0.70,-2.87,-0.07,0.42,0.91,0.13
0.48242188,3.04644E-4,8.3168224E-4,2.2222183E-4,0.42,0.91,0.13,21910,9937.10,0,0,165,0.63,-2.80,0.14,0.42,0.91,0.13
0.18261719,3.04644E-4,-1.6831607E-4,0.0022222218,0.42,0.91,0.14,21929,9936.80,0,0,0,0.63,-2.87,0.28,0.42,0.91,0.14
0.18261719,-6.9535524E-4,0.0018316805,0.0032222215,0.42,0.91,0.14,21933,9936.80,0,0,165,0.56,-2.73,0.35,0.42,0.91,0.14
-0.8173828,-0.0016953554,-0.0011683181,2.2222183E-4,0.42,0.91,0.14,21948,9935.80,0,0,0,0.49,-2.94,0.14,0.42,0.91,0.14
0.18261719,-6.9535524E-4,8.3168224E-4,-7.777782E-4,0.42,0.91,0.13,21964,9936.80,0,0,165,0.56,-2.80,0.07,0.42,0.91,0.13
-0.4169922,3.04644E-4,8.3168224E-4,-0.0027777783,0.42,0.91,0.13,21970,9936.20,0,0,0,0.63,-2.80,-0.07,0.42,0.91,0.13
0.48242188,3.04644E-4,8.3168224E-4,-0.0037777782,0.42,0.91,0.13,21985,9937.10,0,0,165,0.63,-2.80,-0.14,0.42,0.91,0.13
-0.8173828,3.04644E-4,-1.6831607E-4,-7.777782E-4,0.42,0.91,0.14,22000,9935.80,0,0,0,0.63,-2.87,0.07,0.42,0.91,0.14
0.18261719,-6.9535524E-4,-1.6831607E-4,0.0022222218,0.42,0.91,0.14,22007,9936.80,0,0,165,0.56,-2.87,0.28,0.42,0.91,0.14
-0.4169922,-0.0016953554,-0.0011683181,-7.777782E-4,0.42,0.91,0.13,22022,9936.20,0,0,0,0.49,-2.94,0.07,0.42,0.91,0.13
-1.4169922,3.04644E-4,-1.6831607E-4,0.0022222218,0.42,0.91,0.13,22037,9935.20,0,0,165,0.63,-2.87,0.28,0.42,0.91,0.13
0.48242188,0.0013046442,8.3168224E-4,2.2222183E-4,0.42,0.91,0.13,22045,9937.10,0,0,0,0.70,-2.80,0.14,0.42,0.91,0.13
-0.4169922,0.0013046442,8.3168224E-4,-7.777782E-4,0.42,0.91,0.13,22060,9936.20,0,0,165,0.70,-2.80,0.07,0.42,0.91,0.13
0.48242188,0.0013046442,8.3168224E-4,-0.0037777782,0.42,0.91,0.13,22075,9937.10,0,0,0,0.70,-2.80,-0.14,0.42,0.91,0.13
-0.8173828,-6.9535524E-4,8.3168224E-4,2.2222183E-4,0.42,0.91,0.14,22082,9935.80,0,0,165,0.56,-2.80,0.14,0.42,0.91,0.14
0.48242188,3.04644E-4,-1.6831607E-4,-0.0017777783,0.42,0.91,0.13,22098,9937.10,0,0,0,0.63,-2.87,0.00,0.42,0.91,0.13
-0.4169922,0.0013046442,8.3168224E-4,-7.777782E-4,0.42,0.91,0.13,22113,9936.20,0,0,165,0.70,-2.80,0.07,0.42,0.91,0.13
0.48242188,-6.9535524E-4,8.3168224E-4,-7.777782E-4,0.42,0.91,0.13,22120,9937.10,0,0,0,0.56,-2.80,0.07,0.42,0.91,0.13
0.18261719,-6.9535524E-4,-1.6831607E-4,0.0022222218,0.43,0.91,0.14,22135,9936.80,0,0,165,0.56,-2.87,0.28,0.43,0.91,0.14
1.4824219,-6.9535524E-4,-0.0011683181,0.0012222215,0.42,0.91,0.13,22150,9938.10,0,0,0,0.56,-2.94,0.21,0.42,0.91,0.13
-0.4169922,-6.9535524E-4,8.3168224E-4,2.2222183E-4,0.42,0.91,0.14,22158,9936.20,0,0,165,0.56,-2.80,0.14,0.42,0.91,0.14
-0.4169922,-6.9535524E-4,8.3168224E-4,2.2222183E-4,0.42,0.91,0.13,22172,9936.20,0,0,0,0.56,-2.80,0.14,0.42,0.91,0.13
0.18261719,0.0013046442,8.3168224E-4,-7.777782E-4,0.43,0.91,0.13,22188,9936.80,0,0,165,0.70,-2.80,0.07,0.43,0.91,0.13
-0.4169922,3.04644E-4,0.0018316805,-0.0027777783,0.42,0.91,0.13,22195,9936.20,0,0,0,0.63,-2.73,-0.07,0.42,0.91,0.13
0.48242188,3.04644E-4,-1.6831607E-4,0.0012222215,0.42,0.91,0.13,22210,9937.10,0,0,165,0.63,-2.87,0.21,0.42,0.91,0.13
0.48242188,0.0023046443,-1.6831607E-4,0.0022222218,0.42,0.91,0.13,22225,9937.10,0,0,0,0.77,-2.87,0.28,0.42,0.91,0.13
-0.4169922,-6.9535524E-4,8.3168224E-4,2.2222183E-4,0.42,0.91,0.13,22233,9936.20,0,0,165,0.56,-2.80,0.14,0.42,0.91,0.13
0.48242188,-0.0016953554,0.0018316805,0.0022222218,0.42,0.91,0.13,22247,9937.10,0,0,0,0.49,-2.73,0.28,0.42,0.91,0.13
0.48242188,-6.9535524E-4,-1.6831607E-4,2.2222183E-4,0.42,0.91,0.13,22263,9937.10,0,0,165,0.56,-2.87,0.14,0.42,0.91,0.13
-0.4169922,-6.9535524E-4,-1.6831607E-4,-0.0017777783,0.42,0.91,0.14,22270,9936.20,0,0,0,0.56,-2.87,0.00,0.42,0.91,0.14
0.48242188,3.04644E-4,8.3168224E-4,-7.777782E-4,0.42,0.91,0.13,22285,9937.10,0,0,165,0.63,-2.80,0.07,0.42,0.91,0.13
-0.4169922,-0.0016953554,-0.0021683201,-7.777782E-4,0.42,0.91,0.14,22307,9936.20,0,0,0,0.49,-3.01,0.07,0.42,0.91,0.14
0.48242188,0.0023046443,-1.6831607E-4,-7.777782E-4,0.42,0.91,0.13,22309,9937.10,0,0,165,0.77,-2.87,0.07,0.42,0.91,0.13
0.18261719,3.04644E-4,-0.0011683181,-7.777782E-4,0.42,0.91,0.13,22322,9936.80,0,0,0,0.63,-2.94,0.07,0.42,0.91,0.13
-0.8173828,0.0013046442,0.0018316805,2.2222183E-4,0.42,0.91,0.13,22337,9935.80,0,0,165,0.70,-2.73,0.14,0.42,0.91,0.13
0.8828125,3.04644E-4,-1.6831607E-4,2.2222183E-4,0.42,0.91,0.13,22345,9937.50,0,0,0,0.63,-2.87,0.14,0.42,0.91,0.13
0.48242188,3.04644E-4,8.3168224E-4,2.2222183E-4,0.42,0.91,0.13,22361,9937.10,0,0,165,0.63,-2.80,0.14,0.42,0.91,0.13
0.48242188,-6.9535524E-4,8.3168224E-4,2.2222183E-4,0.43,0.91,0.13,22367,9937.10,0,0,0,0.56,-2.80,0.14,0.43,0.91,0.13
0.48242188,3.04644E-4,8.3168224E-4,-0.0017777783,0.42,0.91,0.13,22382,9937.10,0,0,165,0.63,-2.80,0.00,0.42,0.91,0.13
-0.4169922,3.04644E-4,8.3168224E-4,-0.0017777783,0.42,0.91,0.13,22398,9936.20,0,0,0,0.63,-2.80,0.00,0.42,0.91,0.13
0.48242188,-6.9535524E-4,-1.6831607E-4,-0.0017777783,0.42,0.91,0.13,22405,9937.10,0,0,165,0.56,-2.87,0.00,0.42,0.91,0.13
0.48242188,0.0013046442,-1.6831607E-4,-7.777782E-4,0.42,0.91,0.13,22420,9937.10,0,0,0,0.70,-2.87,0.07,0.42,0.91,0.13
0.48242188,3.04644E-4,8.3168224E-4,2.2222183E-4,0.42,0.91,0.13,22435,9937.10,0,0,165,0.63,-2.80,0.14,0.42,0.91,0.13
-0.4169922,0.0013046442,8.3168224E-4,0.0032222215,0.42,0.91,0.13,22443,9936.20,0,0,0,0.70,-2.80,0.35,0.42,0.91,0.13
-0.4169922,-0.0016953554,-1.6831607E-4,0.0022222218,0.42,0.91,0.13,22461,9936.20,0,0,165,0.49,-2.87,0.28,0.42,0.91,0.13
0.8828125,3.04644E-4,-0.0011683181,0.0012222215,0.42,0.91,0.13,22473,9937.50,0,0,0,0.63,-2.94,0.21,0.42,0.91,0.13
-0.4169922,-6.9535524E-4,-1.6831607E-4,-7.777782E-4,0.42,0.91,0.13,22480,9936.20,0,0,165,0.56,-2.87,0.07,0.42,0.91,0.13
0.48242188,0.0013046442,-0.0011683181,-7.777782E-4,0.42,0.91,0.13,22496,9937.10,0,0,0,0.70,-2.94,0.07,0.42,0.91,0.13
0.48242188,-6.9535524E-4,8.3168224E-4,-0.0027777783,0.42,0.91,0.13,22510,9937.10,0,0,165,0.56,-2.80,-0.07,0.42,0.91,0.13
-0.4169922,-0.002695356,-0.0011683181,-0.0027777783,0.42,0.91,0.13,22517,9936.20,0,0,0,0.42,-2.94,-0.07,0.42,0.91,0.13
0.48242188,3.04644E-4,0.0018316805,0.0012222215,0.42,0.91,0.13,22532,9937.10,0,0,165,0.63,-2.73,0.21,0.42,0.91,0.13
0.48242188,-6.9535524E-4,8.3168224E-4,0.0012222215,0.42,0.91,0.13,22548,9937.10,0,0,0,0.56,-2.80,0.21,0.42,0.91,0.13
-0.4169922,-0.0016953554,0.0018316805,0.0032222215,0.42,0.91,0.14,22555,9936.20,0,0,165,0.49,-2.73,0.35,0.42,0.91,0.14
-0.4169922,-6.9535524E-4,8.3168224E-4,0.0022222218,0.42,0.91,0.13,22570,9936.20,0,0,0,0.56,-2.80,0.28,0.42,0.91,0.13
0.48242188,3.04644E-4,8.3168224E-4,0.0022222218,0.42,0.91,0.13,22586,9937.10,0,0,165,0.63,-2.80,0.28,0.42,0.91,0.13
-0.4169922,3.04644E-4,8.3168224E-4,-0.0017777783,0.42,0.91,0.13,22593,9936.20,0,0,0,0.63,-2.80,0.00,0.42,0.91,0.13
-0.4169922,3.04644E-4,-1.6831607E-4,-0.0017777783,0.42,0.91,0.14,22608,9936.20,0,0,165,0.63,-2.87,0.00,0.42,0.91,0.14
0.48242188,3.04644E-4,-1.6831607E-4,-7.777782E-4,0.42,0.91,0.13,22625,9937.10,0,0,0,0.63,-2.87,0.07,0.42,0.91,0.13
1.7832031,3.04644E-4,-1.6831607E-4,-7.777782E-4,0.42,0.91,0.13,22630,9938.40,0,0,165,0.63,-2.87,0.07,0.42,0.91,0.13
-0.4169922,0.0023046443,-1.6831607E-4,-7.777782E-4,0.42,0.91,0.13,22645,9936.20,0,0,0,0.77,-2.87,0.07,0.42,0.91,0.13
0.48242188,0.0013046442,-1.6831607E-4,2.2222183E-4,0.42,0.91,0.14,22661,9937.10,0,0,165,0.70,-2.87,0.14,0.42,0.91,0.14
1.4824219,3.04644E-4,8.3168224E-4,2.2222183E-4,0.42,0.91,0.13,22667,9938.10,0,0,0,0.63,-2.80,0.14,0.42,0.91,0.13
0.48242188,3.04644E-4,8.3168224E-4,2.2222183E-4,0.42,0.91,0.13,22683,9937.10,0,0,165,0.63,-2.80,0.14,0.42,0.91,0.13
-0.4169922,0.0023046443,8.3168224E-4,-0.0027777783,0.42,0.91,0.13,22698,9936.20,0,0,0,0.77,-2.80,-0.07,0.42,0.91,0.13
-0.4169922,3.04644E-4,-1.6831607E-4,-0.0017777783,0.42,0.91,0.13,22705,9936.20,0,0,165,0.63,-2.87,0.00,0.42,0.91,0.13
-0.4169922,3.04644E-4,-0.0011683181,-0.0017777783,0.42,0.91,0.13,22720,9936.20,0,0,0,0.63,-2.94,0.00,0.42,0.91,0.13
-0.4169922,-0.0016953554,-1.6831607E-4,2.2222183E-4,0.42,0.91,0.13,22735,9936.20,0,0,165,0.49,-2.87,0.14,0.42,0.91,0.13
-0.4169922,-6.9535524E-4,8.3168224E-4,0.0032222215,0.42,0.91,0.13,22743,9936.20,0,0,0,0.56,-2.80,0.35,0.42,0.91,0.13
0.8828125,-6.9535524E-4,-1.6831607E-4,0.0012222215,0.42,0.91,0.14,22758,9937.50,0,0,165,0.56,-2.87,0.21,0.42,0.91,0.14
-0.1171875,-0.0016953554,8.3168224E-4,2.2222183E-4,0.42,0.91,0.14,22774,9936.50,0,0,0,0.49,-2.80,0.14,0.42,0.91,0.14
0.8828125,3.04644E-4,8.3168224E-4,-7.777782E-4,0.42,0.91,0.13,22780,9937.50,0,0,165,0.63,-2.80,0.07,0.42,0.91,0.13
0.48242188,3.04644E-4,-0.0011683181,-7.777782E-4,0.42,0.91,0.13,22796,9937.10,0,0,0,0.63,-2.94,0.07,0.42,0.91,0.13
0.48242188,0.0013046442,-0.0011683181,2.2222183E-4,0.43,0.91,0.13,22811,9937.10,0,0,165,0.70,-2.94,0.14,0.43,0.91,0.13
-0.4169922,-6.9535524E-4,-1.6831607E-4,-7.777782E-4,0.42,0.91,0.13,22818,9936.20,0,0,0,0.56,-2.87,0.07,0.42,0.91,0.13
-1.4169922,0.0023046443,8.3168224E-4,-0.0017777783,0.42,0.91,0.13,22833,9935.20,0,0,165,0.77,-2.80,0.00,0.42,0.91,0.13
-0.1171875,-6.9535524E-4,8.3168224E-4,2.2222183E-4,0.42,0.91,0.13,22848,9936.50,0,0,0,0.56,-2.80,0.14,0.42,0.91,0.13
0.48242188,3.04644E-4,-1.6831607E-4,2.2222183E-4,0.42,0.91,0.13,22855,9937.10,0,0,165,0.63,-2.87,0.14,0.42,0.91,0.13
-0.4169922,0.0013046442,-1.6831607E-4,-7.777782E-4,0.42,0.91,0.13,22870,9936.20,0,0,0,0.70,-2.87,0.07,0.42,0.91,0.13
0.48242188,3.04644E-4,-1.6831607E-4,-0.0017777783,0.42,0.91,0.13,22885,9937.10,0,0,165,0.63,-2.87,0.00,0.42,0.91,0.13
-0.4169922,0.0013046442,-0.0011683181,-0.0017777783,0.42,0.91,0.13,22893,9936.20,0,0,0,0.70,-2.94,0.00,0.42,0.91,0.13
0.48242188,-6.9535524E-4,-1.6831607E-4,-0.0017777783,0.42,0.91,0.13,22908,9937.10,0,0,165,0.56,-2.87,0.00,0.42,0.91,0.13
0.48242188,-0.0016953554,8.3168224E-4,-0.0017777783,0.42,0.91,0.13,22923,9937.10,0,0,0,0.49,-2.80,0.00,0.42,0.91,0.13
0.48242188,0.0013046442,-0.0011683181,-7.777782E-4,0.42,0.91,0.13,22930,9937.10,0,0,165,0.70,-2.94,0.07,0.42,0.91,0.13
-0.1171875,0.0013046442,0.0018316805,0.0022222218,0.42,0.91,0.14,22945,9936.50,0,0,0,0.70,-2.73,0.28,0.42,0.91,0.14
-0.1171875,-6.9535524E-4,-1.6831607E-4,2.2222183E-4,0.42,0.91,0.13,22952,9936.50,0,0,165,0.56,-2.87,0.14,0.42,0.91,0.13
-0.4169922,3.04644E-4,-0.0011683181,2.2222183E-4,0.42,0.91,0.13,22967,9936.20,0,0,0,0.63,-2.94,0.14,0.42,0.91,0.13
0.8828125,3.04644E-4,8.3168224E-4,-0.0017777783,0.42,0.91,0.13,22983,9937.50,0,0,165,0.63,-2.80,0.00,0.42,0.91,0.13
-0.4169922,0.0013046442,0.0018316805,-7.777782E-4,0.42,0.91,0.13,22990,9936.20,0,0,0,0.70,-2.73,0.07,0.42,0.91,0.13
-0.4169922,3.04644E-4,8.3168224E-4,-0.0027777783,0.43,0.91,0.13,23005,9936.20,0,0,165,0.63,-2.80,-0.07,0.43,0.91,0.13
0.18261719,3.04644E-4,-1.6831607E-4,0.0012222215,0.42,0.91,0.13,23020,9936.80,0,0,0,0.63,-2.87,0.21,0.42,0.91,0.13
0.48242188,-0.0016953554,-1.6831607E-4,-0.0017777783,0.42,0.91,0.13,23028,9937.10,0,0,165,0.49,-2.87,0.00,0.42,0.91,0.13
-0.1171875,-6.9535524E-4,8.3168224E-4,0.0012222215,0.42,0.91,0.13,23042,9936.50,0,0,0,0.56,-2.80,0.21,0.42,0.91,0.13
0.48242188,0.0013046442,8.3168224E-4,2.2222183E-4,0.42,0.91,0.13,23057,9937.10,0,0,165,0.70,-2.80,0.14,0.42,0.91,0.13
-0.1171875,0.0023046443,-0.0011683181,0.0012222215,0.42,0.91,0.14,23065,9936.50,0,0,0,0.77,-2.94,0.21,0.42,0.91,0.14
0.8828125,0.0013046442,8.3168224E-4,2.2222183E-4,0.42,0.91,0.13,23080,9937.50,0,0,165,0.70,-2.80,0.14,0.42,0.91,0.13
-0.1171875,-6.9535524E-4,-1.6831607E-4,0.0012222215,0.42,0.91,0.13,23095,9936.50,0,0,0,0.56,-2.87,0.21,0.42,0.91,0.13
-0.4169922,0.0013046442,-0.0011683181,-0.0017777783,0.42,0.91,0.14,23102,9936.20,0,0,165,0.70,-2.94,0.00,0.42,0.91,0.14
-0.1171875,3.04644E-4,8.3168224E-4,-0.0017777783,0.42,0.91,0.13,23117,9936.50,0,0,0,0.63,-2.80,0.00,0.42,0.91,0.13
0.8828125,0.0023046443,-1.6831607E-4,-7.777782E-4,0.42,0.91,0.13,23132,9937.50,0,0,165,0.77,-2.87,0.07,0.42,0.91,0.13
-0.1171875,3.04644E-4,0.0018316805,-0.0017777783,0.42,0.91,0.13,23140,9936.50,0,0,0,0.63,-2.73,0.00,0.42,0.91,0.13
-0.1171875,-6.9535524E-4,8.3168224E-4,-7.777782E-4,0.42,0.91,0.13,23155,9936.50,0,0,165,0.56,-2.80,0.07,0.42,0.91,0.13
0.8828125,3.04644E-4,8.3168224E-4,2.2222183E-4,0.42,0.91,0.14,23170,9937.50,0,0,0,0.63,-2.80,0.14,0.42,0.91,0.14
0.8828125,3.04644E-4,0.0018316805,2.2222183E-4,0.42,0.91,0.13,23178,9937.50,0,0,165,0.63,-2.73,0.14,0.42,0.91,0.13
0.48242188,3.04644E-4,-1.6831607E-4,-7.777782E-4,0.42,0.91,0.13,23194,9937.10,0,0,0,0.63,-2.87,0.07,0.42,0.91,0.13
-0.1171875,-6.9535524E-4,-0.0021683201,-7.777782E-4,0.42,0.91,0.13,23208,9936.50,0,0,165,0.56,-3.01,0.07,0.42,0.91,0.13
0.8828125,3.04644E-4,-1.6831607E-4,-0.0017777783,0.42,0.91,0.14,23215,9937.50,0,0,0,0.63,-2.87,0.00,0.42,0.91,0.14
-0.1171875,3.04644E-4,-0.0011683181,2.2222183E-4,0.42,0.91,0.13,23230,9936.50,0,0,165,0.63,-2.94,0.14,0.42,0.91,0.13
-0.1171875,-6.9535524E-4,0.0018316805,-0.0017777783,0.42,0.91,0.13,23245,9936.50,0,0,0,0.56,-2.73,0.00,0.42,0.91,0.13
-0.1171875,-6.9535524E-4,8.3168224E-4,-0.0017777783,0.42,0.91,0.13,23252,9936.50,0,0,165,0.56,-2.80,0.00,0.42,0.91,0.13
-0.1171875,-6.9535524E-4,-1.6831607E-4,-0.0017777783,0.42,0.91,0.13,23268,9936.50,0,0,0,0.56,-2.87,0.00,0.42,0.91,0.13
-0.1171875,3.04644E-4,0.0018316805,2.2222183E-4,0.42,0.91,0.13,23275,9936.50,0,0,165,0.63,-2.73,0.14,0.42,0.91,0.13
0.48242188,3.04644E-4,-0.0011683181,-7.777782E-4,0.42,0.91,0.13,23294,9937.10,0,0,0,0.63,-2.94,0.07,0.42,0.91,0.13
0.8828125,0.0013046442,-1.6831607E-4,-0.0017777783,0.42,0.91,0.13,23305,9937.50,0,0,165,0.70,-2.87,0.00,0.42,0.91,0.13
-0.1171875,0.0023046443,8.3168224E-4,-0.0017777783,0.42,0.91,0.14,23313,9936.50,0,0,0,0.77,-2.80,0.00,0.42,0.91,0.14
-0.1171875,3.04644E-4,0.0018316805,-7.777782E-4,0.42,0.91,0.14,23327,9936.50,0,0,165,0.63,-2.73,0.07,0.42,0.91,0.14
0.8828125,3.04644E-4,8.3168224E-4,2.2222183E-4,0.42,0.91,0.14,23343,9937.50,0,0,0,0.63,-2.80,0.14,0.42,0.91,0.14
0.8828125,0.0013046442,-1.6831607E-4,-7.777782E-4,0.42,0.91,0.13,23350,9937.50,0,0,165,0.70,-2.87,0.07,0.42,0.91,0.13
0.8828125,3.04644E-4,8.3168224E-4,-0.0017777783,0.42,0.91,0.14,23365,9937.50,0,0,0,0.63,-2.80,0.00,0.42,0.91,0.14
-0.1171875,3.04644E-4,-1.6831607E-4,-7.777782E-4,0.42,0.91,0.13,23380,9936.50,0,0,165,0.63,-2.87,0.07,0.42,0.91,0.13
0.8828125,-6.9535524E-4,-1.6831607E-4,0.0012222215,0.42,0.91,0.13,23387,9937.50,0,0,0,0.56,-2.87,0.21,0.42,0.91,0.13
0.8828125,3.04644E-4,8.3168224E-4,0.0012222215,0.42,0.91,0.13,23402,9937.50,0,0,165,0.63,-2.80,0.21,0.42,0.91,0.13
-0.1171875,3.04644E-4,8.3168224E-4,0.0012222215,0.42,0.91,0.13,23418,9936.50,0,0,0,0.63,-2.80,0.21,0.42,0.91,0.13
-0.1171875,3.04644E-4,-1.6831607E-4,-0.0027777783,0.42,0.91,0.13,23426,9936.50,0,0,165,0.63,-2.87,-0.07,0.42,0.91,0.13
-0.1171875,0.0023046443,-1.6831607E-4,-0.0017777783,0.42,0.91,0.13,23440,9936.50,0,0,0,0.77,-2.87,0.00,0.42,0.91,0.13
-0.1171875,3.04644E-4,-1.6831607E-4,-0.0017777783,0.42,0.91,0.13,23455,9936.50,0,0,165,0.63,-2.87,0.00,0.42,0.91,0.13
-0.1171875,0.0013046442,0.0018316805,-7.777782E-4,0.43,0.91,0.14,23462,9936.50,0,0,0,0.70,-2.73,0.07,0.43,0.91,0.14
-0.1171875,3.04644E-4,-1.6831607E-4,2.2222183E-4,0.42,0.91,0.13,23478,9936.50,0,0,165,0.63,-2.87,0.14,0.42,0.91,0.13
-0.1171875,3.04644E-4,8.3168224E-4,2.2222183E-4,0.42,0.91,0.13,23493,9936.50,0,0,0,0.63,-2.80,0.14,0.42,0.91,0.13
0.8828125,3.04644E-4,-1.6831607E-4,-0.0017777783,0.42,0.91,0.14,23501,9937.50,0,0,165,0.63,-2.87,0.00,0.42,0.91,0.14
-0.1171875,0.0023046443,-1.6831607E-4,-7.777782E-4,0.42,0.91,0.13,23516,9936.50,0,0,0,0.77,-2.87,0.07,0.42,0.91,0.13
-0.1171875,-6.9535524E-4,-1.6831607E-4,-7.777782E-4,0.42,0.91,0.13,23530,9936.50,0,0,165,0.56,-2.87,0.07,0.42,0.91,0.13
-0.1171875,0.0013046442,-1.6831607E-4,0.0022222218,0.42,0.91,0.13,23538,9936.50,0,0,0,0.70,-2.87,0.28,0.42,0.91,0.13
0.8828125,-6.9535524E-4,-1.6831607E-4,0.0012222215,0.42,0.91,0.13,23556,9937.50,0,0,165,0.56,-2.87,0.21,0.42,0.91,0.13
0.8828125,0.0013046442,-1.6831607E-4,0.0012222215,0.42,0.91,0.14,23567,9937.50,0,0,0,0.70,-2.87,0.21,0.42,0.91,0.14
0.8828125,-6.9535524E-4,-1.6831607E-4,2.2222183E-4,0.42,0.91,0.13,23575,9937.50,0,0,165,0.56,-2.87,0.14,0.42,0.91,0.13
-1.0175781,3.04644E-4,0.0028316788,0.0012222215,0.42,0.91,0.13,23590,9935.60,0,0,0,0.63,-2.66,0.21,0.42,0.91,0.13
-0.1171875,3.04644E-4,8.3168224E-4,-0.0017777783,0.42,0.91,0.14,23605,9936.50,0,0,165,0.63,-2.80,0.00,0.42,0.91,0.14
-0.1171875,-6.9535524E-4,8.3168224E-4,-0.0027777783,0.42,0.91,0.13,23612,9936.50,0,0,0,0.56,-2.80,-0.07,0.42,0.91,0.13
-0.1171875,3.04644E-4,-1.6831607E-4,-0.0017777783,0.42,0.91,0.13,23627,9936.50,0,0,165,0.63,-2.87,0.00,0.42,0.91,0.13
-0.1171875,0.0013046442,8.3168224E-4,-7.777782E-4,0.42,0.91,0.14,23643,9936.50,0,0,0,0.70,-2.80,0.07,0.42,0.91,0.14
-0.1171875,3.04644E-4,8.3168224E-4,2.2222183E-4,0.42,0.91,0.13,23650,9936.50,0,0,165,0.63,-2.80,0.14,0.42,0.91,0.13
-0.1171875,0.0023046443,8.3168224E-4,2.2222183E-4,0.42,0.91,0.13,23665,9936.50,0,0,0,0.77,-2.80,0.14,0.42,0.91,0.13
-0.1171875,-0.0016953554,-1.6831607E-4,0.0012222215,0.42,0.91,0.13,23680,9936.50,0,0,165,0.49,-2.87,0.21,0.42,0.91,0.13
-0.1171875,-6.9535524E-4,-1.6831607E-4,0.004222221,0.43,0.91,0.13,23687,9936.50,0,0,0,0.56,-2.87,0.42,0.43,0.91,0.13
-0.1171875,-6.9535524E-4,0.0018316805,0.0012222215,0.42,0.91,0.13,23703,9936.50,0,0,165,0.56,-2.73,0.21,0.42,0.91,0.13
-0.1171875,3.04644E-4,8.3168224E-4,-7.777782E-4,0.42,0.91,0.13,23718,9936.50,0,0,0,0.63,-2.80,0.07,0.42,0.91,0.13
-1.0175781,0.0013046442,8.3168224E-4,-7.777782E-4,0.42,0.91,0.13,23726,9935.60,0,0,165,0.70,-2.80,0.07,0.42,0.91,0.13
0.8828125,0.0013046442,-1.6831607E-4,-7.777782E-4,0.42,0.91,0.13,23740,9937.50,0,0,0,0.70,-2.87,0.07,0.42,0.91,0.13
-0.1171875,3.04644E-4,0.0018316805,2.2222183E-4,0.42,0.91,0.13,23755,9936.50,0,0,165,0.63,-2.73,0.14,0.42,0.91,0.13
-0.1171875,3.04644E-4,8.3168224E-4,2.2222183E-4,0.42,0.91,0.13,23763,9936.50,0,0,0,0.63,-2.80,0.14,0.42,0.91,0.13
-1.0175781,-6.9535524E-4,-1.6831607E-4,0.0012222215,0.42,0.91,0.14,23777,9935.60,0,0,165,0.56,-2.87,0.21,0.42,0.91,0.14
-0.1171875,3.04644E-4,-0.0011683181,2.2222183E-4,0.42,0.91,0.13,23793,9936.50,0,0,0,0.63,-2.94,0.14,0.42,0.91,0.13
0.18261719,-6.9535524E-4,-1.6831607E-4,0.0012222215,0.42,0.91,0.13,23800,9936.80,0,0,165,0.56,-2.87,0.21,0.42,0.91,0.13
0.8828125,-6.9535524E-4,0.0018316805,2.2222183E-4,0.42,0.91,0.13,23815,9937.50,0,0,0,0.56,-2.73,0.14,0.42,0.91,0.13
-0.1171875,3.04644E-4,0.0018316805,-7.777782E-4,0.42,0.91,0.14,23830,9936.50,0,0,165,0.63,-2.73,0.07,0.42,0.91,0.14
-0.1171875,-6.9535524E-4,-1.6831607E-4,-0.0017777783,0.42,0.91,0.13,23838,9936.50,0,0,0,0.56,-2.87,0.00,0.42,0.91,0.13
-0.1171875,3.04644E-4,8.3168224E-4,-0.0027777783,0.42,0.91,0.14,23852,9936.50,0,0,165,0.63,-2.80,-0.07,0.42,0.91,0.14
-0.1171875,-6.9535524E-4,-0.0011683181,-0.0027777783,0.42,0.91,0.13,23867,9936.50,0,0,0,0.56,-2.94,-0.07,0.42,0.91,0.13
0.18261719,-6.9535524E-4,8.3168224E-4,2.2222183E-4,0.42,0.91,0.13,23875,9936.80,0,0,165,0.56,-2.80,0.14,0.42,0.91,0.13
-0.1171875,0.0013046442,-1.6831607E-4,2.2222183E-4,0.42,0.91,0.13,23890,9936.50,0,0,0,0.70,-2.87,0.14,0.42,0.91,0.13
-0.1171875,-6.9535524E-4,8.3168224E-4,0.0022222218,0.42,0.91,0.13,23905,9936.50,0,0,165,0.56,-2.80,0.28,0.42,0.91,0.13
-0.4169922,3.04644E-4,8.3168224E-4,0.0012222215,0.42,0.91,0.13,23912,9936.20,0,0,0,0.63,-2.80,0.21,0.42,0.91,0.13
1.1826172,3.04644E-4,-0.0011683181,0.0012222215,0.42,0.91,0.13,23928,9937.80,0,0,165,0.63,-2.94,0.21,0.42,0.91,0.13
0.8828125,0.0023046443,-0.0021683201,-0.0027777783,0.42,0.91,0.13,23942,9937.50,0,0,0,0.77,-3.01,-0.07,0.42,0.91,0.13
0.18261719,3.04644E-4,-0.0011683181,-0.0017777783,0.42,0.91,0.13,23950,9936.80,0,0,165,0.63,-2.94,0.00,0.42,0.91,0.13
-0.1171875,3.04644E-4,-1.6831607E-4,-0.004777778,0.42,0.91,0.13,23965,9936.50,0,0,0,0.63,-2.87,-0.21,0.42,0.91,0.13
0.18261719,-6.9535524E-4,-1.6831607E-4,-0.0037777782,0.42,0.91,0.13,23980,9936.80,0,0,165,0.56,-2.87,-0.14,0.42,0.91,0.13
-0.1171875,0.0013046442,8.3168224E-4,2.2222183E-4,0.42,0.91,0.13,23987,9936.50,0,0,0,0.70,-2.80,0.14,0.42,0.91,0.13
-0.1171875,-6.9535524E-4,-1.6831607E-4,-7.777782E-4,0.42,0.91,0.13,24002,9936.50,0,0,165,0.56,-2.87,0.07,0.42,0.91,0.13
-1.0175781,0.0013046442,-0.0011683181,0.0032222215,0.42,0.91,0.14,24018,9935.60,0,0,0,0.70,-2.94,0.35,0.42,0.91,0.14
-0.1171875,0.0013046442,-1.6831607E-4,0.0022222218,0.42,0.91,0.14,24025,9936.50,0,0,165,0.70,-2.87,0.28,0.42,0.91,0.14
-0.7167969,-0.0016953554,-0.0011683181,-7.777782E-4,0.42,0.91,0.13,24040,9935.90,0,0,0,0.49,-2.94,0.07,0.42,0.91,0.13
-0.1171875,0.0013046442,-1.6831607E-4,-7.777782E-4,0.42,0.91,0.13,24055,9936.50,0,0,165,0.70,-2.87,0.07,0.42,0.91,0.13
-0.1171875,0.0013046442,-1.6831607E-4,-0.0017777783,0.42,0.91,0.13,24062,9936.50,0,0,0,0.70,-2.87,0.00,0.42,0.91,0.13
0.18261719,0.0023046443,8.3168224E-4,-0.0027777783,0.43,0.91,0.13,24077,9936.80,0,0,165,0.77,-2.80,-0.07,0.43,0.91,0.13
-0.1171875,0.0013046442,0.0018316805,-7.777782E-4,0.42,0.91,0.13,24093,9936.50,0,0,0,0.70,-2.73,0.07,0.42,0.91,0.13
-0.1171875,-6.9535524E-4,0.0028316788,-0.0017777783,0.42,0.91,0.13,24100,9936.50,0,0,165,0.56,-2.66,0.00,0.42,0.91,0.13
-0.7167969,3.04644E-4,8.3168224E-4,-7.777782E-4,0.42,0.91,0.13,24115,9935.90,0,0,0,0.63,-2.80,0.07,0.42,0.91,0.13
0.18261719,-6.9535524E-4,-0.0011683181,0.0012222215,0.42,0.91,0.13,24130,9936.80,0,0,165,0.56,-2.94,0.21,0.42,0.91,0.13
-0.1171875,-6.9535524E-4,-1.6831607E-4,0.0022222218,0.42,0.91,0.13,24137,9936.50,0,0,0,0.56,-2.87,0.28,0.42,0.91,0.13
0.18261719,3.04644E-4,-1.6831607E-4,0.004222221,0.43,0.91,0.13,24153,9936.80,0,0,165,0.63,-2.87,0.42,0.43,0.91,0.13
-0.1171875,3.04644E-4,8.3168224E-4,0.004222221,0.42,0.91,0.13,24167,9936.50,0,0,0,0.63,-2.80,0.42,0.42,0.91,0.13
-0.4169922,-0.0016953554,-1.6831607E-4,0.0022222218,0.42,0.91,0.13,24175,9936.20,0,0,165,0.49,-2.87,0.28,0.42,0.91,0.13
0.18261719,-0.0016953554,-1.6831607E-4,-7.777782E-4,0.43,0.91,0.13,24190,9936.80,0,0,0,0.49,-2.87,0.07,0.43,0.91,0.13
0.18261719,-6.9535524E-4,-1.6831607E-4,-7.777782E-4,0.42,0.91,0.14,24205,9936.80,0,0,165,0.56,-2.87,0.07,0.42,0.91,0.14
1.1826172,0.0023046443,0.0018316805,-0.0037777782,0.42,0.91,0.13,24213,9937.80,0,0,0,0.77,-2.73,-0.14,0.42,0.91,0.13
-0.1171875,-6.9535524E-4,-1.6831607E-4,-0.0057777786,0.42,0.91,0.13,24227,9936.50,0,0,165,0.56,-2.87,-0.28,0.42,0.91,0.13
0.18261719,0.0023046443,0.0038316809,-0.008777779,0.42,0.92,0.14,24242,9936.80,0,0,0,0.77,-2.59,-0.49,0.42,0.92,0.14
0.18261719,0.0023046443,-0.0011683181,-0.0027777783,0.42,0.91,0.14,24250,9936.80,0,0,165,0.77,-2.94,-0.07,0.42,0.91,0.14
-0.1171875,0.0033046436,8.3168224E-4,-7.777782E-4,0.42,0.92,0.14,24265,9936.50,0,0,0,0.84,-2.80,0.07,0.42,0.92,0.14
0.18261719,-6.9535524E-4,-1.6831607E-4,0.004222221,0.42,0.91,0.14,24279,9936.80,0,0,165,0.56,-2.87,0.42,0.42,0.91,0.14
0.18261719,0.0033046436,-0.0041683204,0.006222222,0.43,0.91,0.13,24287,9936.80,0,0,0,0.84,-3.15,0.56,0.43,0.91,0.13
-0.1171875,-0.0016953554,-1.6831607E-4,0.005222222,0.43,0.91,0.13,24302,9936.50,0,0,165,0.49,-2.87,0.49,0.43,0.91,0.13
0.18261719,-0.0016953554,0.0038316809,0.0022222218,0.43,0.91,0.13,24317,9936.80,0,0,0,0.49,-2.59,0.28,0.43,0.91,0.13
0.8828125,-6.9535524E-4,0.0028316788,-0.0027777783,0.43,0.91,0.13,24325,9937.50,0,0,165,0.56,-2.66,-0.07,0.43,0.91,0.13
0.18261719,-0.002695356,0.0028316788,-0.0057777786,0.42,0.91,0.13,24340,9936.80,0,0,0,0.42,-2.66,-0.28,0.42,0.91,0.13
0.18261719,3.04644E-4,0.0038316809,-7.777782E-4,0.43,0.91,0.14,24354,9936.80,0,0,165,0.63,-2.59,0.07,0.43,0.91,0.14
0.18261719,-6.9535524E-4,-0.0011683181,0.0032222215,0.42,0.91,0.14,24362,9936.80,0,0,0,0.56,-2.94,0.35,0.42,0.91,0.14
0.18261719,-0.0046953554,-0.0021683201,0.006222222,0.42,0.92,0.13,24377,9936.80,0,0,165,0.28,-3.01,0.56,0.42,0.92,0.13
0.18261719,0.0023046443,-1.6831607E-4,0.008222221,0.41,0.91,0.14,24392,9936.80,0,0,0,0.77,-2.87,0.70,0.41,0.91,0.14
-0.7167969,-0.0016953554,0.013831681,0.010222221,0.42,0.92,0.15,24400,9935.90,0,0,165,0.49,-1.89,0.84,0.42,0.92,0.15
0.18261719,-0.0076953555,-0.021168321,0.0012222215,0.42,0.91,0.14,24416,9936.80,0,0,0,0.07,-4.34,0.21,0.42,0.91,0.14
-0.7167969,3.04644E-4,-0.010168318,-0.0057777786,0.42,0.91,0.12,24430,9935.90,0,0,165,0.63,-3.57,-0.28,0.42,0.91,0.12
-0.1171875,0.005304645,0.00883168,-0.025777776,0.43,0.91,0.12,24445,9936.50,0,0,0,0.98,-2.24,-1.68,0.43,0.91,0.12
-0.7167969,0.005304645,0.004831683,-0.029777778,0.43,0.91,0.12,24453,9935.90,0,0,165,0.98,-2.52,-1.96,0.43,0.91,0.12
0.18261719,-0.0016953554,0.019831682,-0.016777778,0.42,0.92,0.13,24468,9936.80,0,0,0,0.49,-1.47,-1.05,0.42,0.92,0.13
0.18261719,0.008304645,0.02183168,-7.777782E-4,0.43,0.91,0.15,24475,9936.80,0,0,165,1.19,-1.33,0.07,0.43,0.91,0.15
-0.1171875,-0.008695356,-0.01516832,0.011222222,0.43,0.91,0.15,24489,9936.50,0,0,0,0.00,-3.92,0.91,0.43,0.91,0.15
0.18261719,-6.9535524E-4,-0.0011683181,0.025222223,0.42,0.91,0.14,24505,9936.80,0,0,165,0.56,-2.94,1.89,0.42,0.91,0.14
0.18261719,-6.9535524E-4,0.0028316788,0.015222223,0.43,0.91,0.14,24512,9936.80,0,0,0,0.56,-2.66,1.19,0.43,0.91,0.14
0.18261719,0.0023046443,-0.010168318,-0.0017777783,0.42,0.91,0.13,24527,9936.80,0,0,165,0.77,-3.57,0.00,0.42,0.91,0.13
-0.7167969,0.0013046442,0.0018316805,-0.0057777786,0.41,0.92,0.13,24542,9935.90,0,0,0,0.70,-2.73,-0.28,0.41,0.92,0.13
0.18261719,0.0033046436,0.005831681,0.0012222215,0.42,0.91,0.14,24550,9936.80,0,0,165,0.84,-2.45,0.21,0.42,0.91,0.14
0.18261719,0.005304645,-1.6831607E-4,0.011222222,0.42,0.91,0.13,24565,9936.80,0,0,0,0.98,-2.87,0.91,0.42,0.91,0.13
-0.7167969,-6.9535524E-4,0.0018316805,0.017222224,0.43,0.91,0.13,24580,9935.90,0,0,165,0.56,-2.73,1.33,0.43,0.91,0.13
0.18261719,-0.002695356,8.3168224E-4,0.010222221,0.43,0.9,0.13,24588,9936.80,0,0,0,0.42,-2.80,0.84,0.43,0.90,0.13
-0.1171875,-0.0036953557,0.0028316788,-0.0037777782,0.43,0.91,0.13,24603,9936.50,0,0,165,0.35,-2.66,-0.14,0.43,0.91,0.13
0.5830078,0.0013046442,0.004831683,-0.020777779,0.42,0.91,0.14,24618,9937.20,0,0,0,0.70,-2.52,-1.33,0.42,0.91,0.14
-0.1171875,0.006304644,-1.6831607E-4,-0.03377778,0.41,0.92,0.14,24625,9936.50,0,0,165,1.05,-2.87,-2.24,0.41,0.92,0.14
-0.7167969,0.007304645,-0.0041683204,-0.025777776,0.41,0.92,0.13,24640,9935.90,0,0,0,1.12,-3.15,-1.68,0.41,0.92,0.13
0.18261719,0.007304645,-1.6831607E-4,-0.008777779,0.42,0.92,0.13,24655,9936.80,0,0,165,1.12,-2.87,-0.49,0.42,0.92,0.13
0.18261719,-0.002695356,-0.0011683181,0.017222224,0.42,0.91,0.13,24662,9936.80,0,0,0,0.42,-2.94,1.33,0.42,0.91,0.13
1.1826172,-0.0036953557,-0.0011683181,0.039222218,0.43,0.91,0.13,24677,9937.80,0,0,165,0.35,-2.94,2.87,0.43,0.91,0.13
0.18261719,-0.009695356,8.3168224E-4,0.03522222,0.43,0.91,0.13,24692,9936.80,0,0,0,-0.07,-2.80,2.59,0.43,0.91,0.13
0.18261719,-0.0036953557,0.0028316788,0.012222222,0.43,0.9,0.14,24699,9936.80,0,0,165,0.35,-2.66,0.98,0.43,0.90,0.14
-0.1171875,0.0013046442,8.3168224E-4,-0.023777777,0.42,0.91,0.14,24715,9936.50,0,0,0,0.70,-2.80,-1.54,0.42,0.91,0.14
0.18261719,0.008304645,-0.0011683181,-0.042777777,0.42,0.91,0.13,24730,9936.80,0,0,165,1.19,-2.94,-2.87,0.42,0.91,0.13
0.18261719,0.008304645,-0.0011683181,-0.04077778,0.42,0.92,0.13,24737,9936.80,0,0,0,1.19,-2.94,-2.73,0.42,0.92,0.13
0.18261719,0.0023046443,0.0018316805,-0.018777778,0.42,0.92,0.13,24752,9936.80,0,0,165,0.77,-2.73,-1.19,0.42,0.92,0.13
0.18261719,-0.0016953554,0.005831681,0.023222223,0.42,0.92,0.14,24767,9936.80,0,0,0,0.49,-2.45,1.75,0.42,0.92,0.14
0.18261719,-0.009695356,-0.0021683201,0.04222222,0.42,0.91,0.14,24775,9936.80,0,0,165,-0.07,-3.01,3.08,0.42,0.91,0.14
-0.7167969,-0.0076953555,-0.0031683184,0.03822222,0.43,0.91,0.14,24790,9935.90,0,0,0,0.07,-3.08,2.80,0.43,0.91,0.14
0.18261719,-0.002695356,-0.0031683184,0.016222222,0.43,0.9,0.13,24805,9936.80,0,0,165,0.42,-3.08,1.26,0.43,0.90,0.13
0.18261719,0.007304645,-0.0011683181,-0.019777777,0.42,0.9,0.13,24812,9936.80,0,0,0,1.12,-2.94,-1.26,0.42,0.90,0.13
0.18261719,0.007304645,-0.0031683184,-0.04477778,0.42,0.91,0.13,24827,9936.80,0,0,165,1.12,-3.08,-3.01,0.42,0.91,0.13
0.18261719,0.010304646,0.0038316809,-0.04177778,0.42,0.91,0.13,24842,9936.80,0,0,0,1.33,-2.59,-2.80,0.42,0.91,0.13
0.18261719,0.0033046436,0.0068316795,-0.018777778,0.42,0.92,0.14,24849,9936.80,0,0,165,0.84,-2.38,-1.19,0.42,0.92,0.14
-1.7167969,-0.002695356,0.005831681,0.021222223,0.42,0.92,0.14,24865,9934.90,0,0,0,0.42,-2.45,1.61,0.42,0.92,0.14
-0.7167969,-0.008695356,-0.0011683181,0.043222222,0.42,0.91,0.14,24879,9935.90,0,0,165,0.00,-2.94,3.15,0.42,0.91,0.14
0.18261719,-0.008695356,-0.0041683204,0.04022222,0.42,0.91,0.14,24887,9936.80,0,0,0,0.00,-3.15,2.94,0.42,0.91,0.14
-0.7167969,-0.0016953554,-0.0051683187,0.014222222,0.43,0.91,0.13,24902,9935.90,0,0,165,0.49,-3.22,1.12,0.43,0.91,0.13
0.18261719,0.005304645,-0.0041683204,-0.025777776,0.42,0.91,0.13,24917,9936.80,0,0,0,0.98,-3.15,-1.68,0.42,0.91,0.13
0.18261719,0.010304646,0.0018316805,-0.04577778,0.42,0.91,0.13,24925,9936.80,0,0,165,1.33,-2.73,-3.08,0.42,0.91,0.13
-0.1171875,0.007304645,0.0038316809,-0.03877778,0.42,0.92,0.13,24940,9936.50,0,0,0,1.12,-2.59,-2.59,0.42,0.92,0.13
-0.1171875,0.0043046447,0.005831681,-0.008777779,0.42,0.91,0.14,24955,9936.50,0,0,165,0.91,-2.45,-0.49,0.42,0.91,0.14
0.8828125,-0.0066953553,0.0038316809,0.019222222,0.42,0.92,0.14,24962,9937.50,0,0,0,0.14,-2.59,1.47,0.42,0.92,0.14
0.18261719,-0.008695356,0.0038316809,0.04422222,0.42,0.91,0.14,24977,9936.80,0,0,165,0.00,-2.59,3.22,0.42,0.91,0.14
0.18261719,-0.0036953557,-0.0021683201,0.036222223,0.42,0.9,0.14,24993,9936.80,0,0,0,0.35,-3.01,2.66,0.42,0.90,0.14
-0.7167969,-0.002695356,-0.0021683201,0.008222221,0.42,0.91,0.13,25000,9935.90,0,0,165,0.42,-3.01,0.70,0.42,0.91,0.13
0.18261719,0.005304645,-0.0021683201,-0.024777777,0.42,0.91,0.13,25015,9936.80,0,0,0,0.98,-3.01,-1.61,0.42,0.91,0.13
0.18261719,0.012304644,-0.0021683201,-0.03677778,0.42,0.91,0.13,25030,9936.80,0,0,165,1.47,-3.01,-2.45,0.42,0.91,0.13
0.18261719,0.008304645,8.3168224E-4,-0.029777778,0.42,0.92,0.13,25037,9936.80,0,0,0,1.19,-2.80,-1.96,0.42,0.92,0.13
-0.7167969,0.0013046442,0.0018316805,2.2222183E-4,0.43,0.91,0.13,25052,9935.90,0,0,165,0.70,-2.73,0.14,0.43,0.91,0.13
1.1826172,-0.0046953554,0.0038316809,0.026222223,0.43,0.91,0.13,25067,9937.80,0,0,0,0.28,-2.59,1.96,0.43,0.91,0.13
0.18261719,-0.011695355,0.0018316805,0.03422222,0.43,0.91,0.13,25075,9936.80,0,0,165,-0.21,-2.73,2.52,0.43,0.91,0.13
-0.7167969,-0.0066953553,0.0018316805,0.018222222,0.42,0.91,0.14,25090,9935.90,0,0,0,0.14,-2.73,1.40,0.42,0.91,0.14
0.5830078,0.0013046442,-1.6831607E-4,-0.0027777783,0.42,0.91,0.14,25105,9937.20,0,0,165,0.70,-2.87,-0.07,0.42,0.91,0.14
0.5830078,0.010304646,-1.6831607E-4,-0.03277778,0.42,0.91,0.13,25113,9937.20,0,0,0,1.33,-2.87,-2.17,0.42,0.91,0.13
-0.7167969,0.009304644,-0.0021683201,-0.03877778,0.42,0.91,0.13,25128,9935.90,0,0,165,1.26,-3.01,-2.59,0.42,0.91,0.13
-0.7167969,0.007304645,-0.0021683201,-0.024777777,0.42,0.92,0.13,25143,9935.90,0,0,0,1.12,-3.01,-1.61,0.42,0.92,0.13
-0.4169922,3.04644E-4,-0.0011683181,0.010222221,0.42,0.92,0.13,25150,9936.20,0,0,165,0.63,-2.94,0.84,0.42,0.92,0.13
0.18261719,-0.0066953553,-1.6831607E-4,0.03822222,0.43,0.91,0.13,25165,9936.80,0,0,0,0.14,-2.87,2.80,0.43,0.91,0.13
0.5830078,-0.009695356,-0.0011683181,0.041222222,0.43,0.91,0.14,25180,9937.20,0,0,165,-0.07,-2.94,3.01,0.43,0.91,0.14
0.5830078,-0.005695356,-1.6831607E-4,0.019222222,0.43,0.9,0.13,25187,9937.20,0,0,0,0.21,-2.87,1.47,0.43,0.90,0.13
0.5830078,0.0013046442,-1.6831607E-4,-0.008777779,0.43,0.91,0.14,25202,9937.20,0,0,165,0.70,-2.87,-0.49,0.43,0.91,0.14
0.18261719,0.009304644,0.0018316805,-0.03977778,0.42,0.91,0.13,25218,9936.80,0,0,0,1.26,-2.73,-2.66,0.42,0.91,0.13
0.18261719,0.009304644,0.0018316805,-0.042777777,0.42,0.92,0.13,25225,9936.80,0,0,165,1.26,-2.73,-2.87,0.42,0.92,0.13
-0.4169922,0.005304645,0.0018316805,-0.016777778,0.42,0.92,0.14,25240,9936.20,0,0,0,0.98,-2.73,-1.05,0.42,0.92,0.14
0.18261719,-0.0016953554,8.3168224E-4,0.013222221,0.42,0.92,0.14,25255,9936.80,0,0,165,0.49,-2.80,1.05,0.42,0.92,0.14
0.18261719,-0.009695356,-1.6831607E-4,0.03722222,0.43,0.91,0.14,25262,9936.80,0,0,0,-0.07,-2.87,2.73,0.43,0.91,0.14
0.5830078,-0.008695356,-0.0031683184,0.03822222,0.43,0.91,0.14,25277,9937.20,0,0,165,0.00,-3.08,2.80,0.43,0.91,0.14
0.18261719,-0.002695356,-0.0031683184,0.017222224,0.43,0.91,0.13,25292,9936.80,0,0,0,0.42,-3.08,1.33,0.43,0.91,0.13
-0.4169922,0.0033046436,-0.0021683201,-0.020777779,0.42,0.91,0.13,25300,9936.20,0,0,165,0.84,-3.01,-1.33,0.42,0.91,0.13
-0.4169922,0.011304644,8.3168224E-4,-0.03977778,0.42,0.91,0.13,25315,9936.20,0,0,0,1.40,-2.80,-2.66,0.42,0.91,0.13
0.5830078,0.012304644,0.0028316788,-0.037777778,0.42,0.92,0.13,25330,9937.20,0,0,165,1.47,-2.66,-2.52,0.42,0.92,0.13
0.5830078,0.0033046436,0.0018316805,-0.011777778,0.42,0.92,0.14,25337,9937.20,0,0,0,0.84,-2.73,-0.70,0.42,0.92,0.14
-0.4169922,-0.0066953553,8.3168224E-4,0.016222222,0.42,0.91,0.13,25352,9936.20,0,0,165,0.14,-2.80,1.26,0.42,0.91,0.13
0.5830078,-0.008695356,-1.6831607E-4,0.039222218,0.42,0.91,0.14,25367,9937.20,0,0,0,0.00,-2.87,2.87,0.42,0.91,0.14
0.5830078,-0.008695356,-0.0021683201,0.03322222,0.42,0.91,0.14,25375,9937.20,0,0,165,0.00,-3.01,2.45,0.42,0.91,0.14
-0.4169922,-0.0016953554,-0.0031683184,0.014222222,0.43,0.91,0.13,25390,9936.20,0,0,0,0.49,-3.08,1.12,0.43,0.91,0.13
-0.7167969,0.005304645,-0.0011683181,-0.013777778,0.42,0.91,0.13,25405,9935.90,0,0,165,0.98,-2.94,-0.84,0.42,0.91,0.13
0.5830078,0.009304644,0.0018316805,-0.03677778,0.42,0.91,0.13,25413,9937.20,0,0,0,1.26,-2.73,-2.45,0.42,0.91,0.13
3.0830078,0.28530464,0.19683169,-0.90077776,0.65,0.93,0.31,25427,9939.70,0,0,165,20.58,10.92,-62.93,0.65,0.93,0.31
4.682617,0.99730456,-0.23916832,-1.6007777,0.39,0.91,0.15,25443,9941.30,0,0,0,70.42,-19.60,-111.93,0.39,0.91,0.15
4.682617,0.7373046,-0.084168315,-1.1537777,0.37,0.94,0.09,25450,9941.30,0,0,165,52.22,-8.75,-80.64,0.37,0.94,0.09
2.1826172,0.8773046,-0.22516832,-1.3637778,0.37,0.93,0.09,25465,9938.80,0,0,0,62.02,-18.62,-95.34,0.37,0.93,0.09
1.7832031,0.8693046,-0.13716832,-1.4387777,0.34,0.92,0.09,25480,9938.40,0,0,165,61.46,-12.46,-100.59,0.34,0.92,0.09
1.7832031,0.8633047,-0.22016832,-1.3777778,0.31,0.95,0.03,25487,9938.40,0,0,0,61.04,-18.27,-96.32,0.31,0.95,0.03
0.8828125,0.81930465,-0.13416831,-1.3337778,0.31,0.95,0.07,25503,9937.50,0,0,165,57.96,-12.25,-93.24,0.31,0.95,0.07
1.1826172,0.8673046,-0.16516832,-1.3917778,0.28,0.97,0.04,25517,9937.80,0,0,0,61.32,-14.42,-97.30,0.28,0.97,0.04
0.8828125,0.8763046,-0.16516832,-1.4177778,0.25,0.98,0.03,25525,9937.50,0,0,165,61.95,-14.42,-99.12,0.25,0.98,0.03
1.7832031,0.8763046,-0.18016832,-1.4117777,0.24,0.98,0.01,25540,9938.40,0,0,0,61.95,-15.47,-98.70,0.24,0.98,0.01
1.7832031,0.9183046,-0.17916831,-1.5007777,0.21,0.98,0.0,25555,9938.40,0,0,165,64.89,-15.40,-104.93,0.21,0.98,0.00
1.7832031,0.9313047,-0.18816833,-1.5077777,0.19,0.99,-0.02,25563,9938.40,0,0,0,65.80,-16.03,-105.42,0.19,0.99,-0.02
1.7832031,0.9183046,-0.18516831,-1.4967778,0.17,0.99,-0.03,25577,9938.40,0,0,165,64.89,-15.82,-104.65,0.17,0.99,-0.03
-0.1171875,0.93930465,-0.1821683,-1.4567777,0.14,1.06,-0.03,25592,9936.50,0,0,0,66.36,-15.61,-101.85,0.14,1.06,-0.03
1.7832031,0.9473046,-0.18916832,-1.3657779,0.12,1.0,-0.06,25600,9938.40,0,0,165,66.92,-16.10,-95.48,0.12,1.00,-0.06
0.8828125,0.89430463,-0.17016833,-1.2727778,0.09,1.01,-0.08,25616,9937.50,0,0,0,63.21,-14.77,-88.97,0.09,1.01,-0.08
1.7832031,0.82830465,-0.16916831,-1.1827778,0.11,0.96,-0.12,25631,9938.40,0,0,165,58.59,-14.70,-82.67,0.11,0.96,-0.12
0.8828125,0.40230465,0.027831681,-0.7557778,0.08,0.99,-0.1,25638,9937.50,0,0,0,28.77,-0.91,-52.78,0.08,0.99,-0.10
-0.4169922,0.4723046,-0.18616831,-1.1527778,0.06,1.0,-0.13,25653,9936.20,0,0,165,33.67,-15.89,-80.57,0.06,1.00,-0.13
0.8828125,0.39830464,-0.13416831,-1.0097778,0.03,1.01,-0.1,25668,9937.50,0,0,0,28.49,-12.25,-70.56,0.03,1.01,-0.10
0.8828125,0.36330464,0.09483168,-0.24677777,0.02,1.02,-0.11,25675,9937.50,0,0,165,26.04,3.78,-17.15,0.02,1.02,-0.11
1.7832031,0.28230464,0.020831682,-0.21877778,0.02,1.0,-0.12,25690,9938.40,0,0,0,20.37,-1.40,-15.19,0.02,1.00,-0.12
0.8828125,0.18030465,-0.0021683201,-0.17277779,0.02,1.01,-0.13,25706,9937.50,0,0,165,13.23,-3.01,-11.97,0.02,1.01,-0.13
0.8828125,0.11030464,0.019831682,-0.08077778,0.02,1.0,-0.13,25713,9937.50,0,0,0,8.33,-1.47,-5.53,0.02,1.00,-0.13
0.8828125,0.07430464,0.005831681,-0.078777775,0.02,1.0,-0.13,25728,9937.50,0,0,165,5.81,-2.45,-5.39,0.02,1.00,-0.13
