Pressure_Rel,GyroX_Rel,GyroY_Rel,GyroZ_Rel,AccX_Rel,AccY_Rel,AccZ_Rel,Timestamp,Pressure_abs,HeartRate,Oxygen,Status,GyroX,GyroY,GyroZ,AccX,AccY,AccZ
0.0,0.0,0.0,0.0,0.0,0.0,0.0,2262,9950.40,0,0,165,0.70,-2.59,0.07,0.07,1.00,-0.08
0.0,0.0,0.0,0.0,0.0,0.0,0.0,2270,9950.40,0,0,0,0.70,-2.59,0.00,0.07,1.00,-0.09
0.0,0.0,0.0,0.0,0.0,0.0,0.0,2285,9950.40,0,0,165,0.77,-2.59,-0.07,0.07,1.00,-0.09
0.0,0.0,0.0,0.0,0.0,0.0,0.0,2293,9950.40,0,0,0,0.77,-2.59,0.14,0.07,1.00,-0.09
0.0,0.0,0.0,0.0,0.0,0.0,0.0,2307,9953.20,0,0,165,0.77,-2.66,-0.14,0.07,1.00,-0.09
0.0,0.0,0.0,0.0,0.0,0.0,0.0,2322,9950.40,0,0,0,0.77,-2.52,-0.07,0.07,1.00,-0.09
0.0,0.0,0.0,0.0,0.0,0.0,0.0,2330,9950.40,0,0,165,0.98,-2.59,0.00,0.07,1.00,-0.09
0.0,0.0,0.0,0.0,0.0,0.0,0.0,2344,9950.40,0,0,0,0.77,-2.73,0.07,0.07,1.00,-0.09
0.0,0.0,0.0,0.0,0.0,0.0,0.0,2360,9949.40,0,0,165,0.77,-2.52,-0.07,0.07,1.00,-0.09
0.0,0.0,0.0,0.0,0.0,0.0,0.0,2367,9950.70,0,0,0,0.84,-2.52,0.07,0.07,1.00,-0.09
0.0,0.0,0.0,0.0,0.0,0.0,0.0,2382,9951.30,0,0,165,0.84,-2.66,0.07,0.07,1.00,-0.09
0.0,0.0,0.0,0.0,0.0,0.0,0.0,2397,9950.70,0,0,0,0.98,-2.45,0.07,0.07,1.00,-0.08
0.0,0.0,0.0,0.0,0.0,0.0,0.0,2405,9949.40,0,0,165,0.91,-2.66,0.00,0.07,1.00,-0.09
0.0,0.0,0.0,0.0,0.0,0.0,0.0,2420,9950.40,0,0,0,0.77,-2.59,0.00,0.08,1.00,-0.09
0.0,0.0,0.0,0.0,0.0,0.0,0.0,2434,9950.40,0,0,165,0.77,-2.59,0.07,0.07,1.00,-0.09
0.0,0.0,0.0,0.0,0.0,0.0,0.0,2443,9951.60,0,0,0,0.77,-2.66,0.00,0.07,1.00,-0.09
0.0,0.0,0.0,0.0,0.0,0.0,0.0,2458,9950.70,0,0,165,0.77,-2.59,0.07,0.07,1.00,-0.09
0.0,0.0,0.0,0.0,0.0,0.0,0.0,2472,9949.70,0,0,0,0.84,-2.66,0.00,0.07,1.00,-0.09
0.0,0.0,0.0,0.0,0.0,0.0,0.0,2479,9949.70,0,0,165,0.84,-2.66,-0.21,0.08,1.00,-0.09
0.0,0.0,0.0,0.0,0.0,0.0,0.0,2494,9949.40,0,0,0,0.84,-2.73,-0.07,0.07,1.00,-0.09
0.0,0.0,0.0,0.0,0.0,0.0,0.0,2510,9949.40,0,0,165,0.84,-2.59,0.07,0.07,1.00,-0.09
0.0,0.0,0.0,0.0,0.0,0.0,0.0,2517,9948.80,0,0,0,0.70,-2.66,0.00,0.07,1.00,-0.09
0.0,0.0,0.0,0.0,0.0,0.0,0.0,2532,9950.70,0,0,165,0.77,-2.59,0.00,0.08,1.00,-0.09
0.0,0.0,0.0,0.0,0.0,0.0,0.0,2542,9950.40,0,0,0,0.84,-2.66,0.00,0.07,1.00,-0.09
0.0,0.0,0.0,0.0,0.0,0.0,0.0,2554,9949.70,0,0,165,0.84,-2.59,-0.07,0.07,1.00,-0.09
0.0,0.0,0.0,0.0,0.0,0.0,0.0,2569,9950.70,0,0,0,0.84,-2.66,0.07,0.07,1.00,-0.09
0.0,0.0,0.0,0.0,0.0,0.0,0.0,2576,9950.40,0,0,165,0.84,-2.66,0.07,0.08,1.00,-0.09
0.0,0.0,0.0,0.0,0.0,0.0,0.0,2592,9950.40,0,0,0,0.77,-2.59,0.07,0.07,1.00,-0.09
0.0,0.0,0.0,0.0,0.0,0.0,0.0,2607,9950.70,0,0,165,0.70,-2.59,0.07,0.08,1.00,-0.09
0.0,0.0,0.0,0.0,0.0,0.0,0.0,2614,9948.80,0,0,0,0.98,-2.59,0.07,0.07,1.00,-0.09
0.0,0.0,0.0,0.0,0.0,0.0,0.0,2630,9950.70,0,0,165,0.84,-2.52,17.85,0.08,1.00,-0.09
0.0,0.0,0.0,0.0,0.0,0.0,0.0,2644,9950.70,0,0,0,0.70,-2.52,0.07,0.07,1.00,-0.09
0.0,0.0,0.0,0.0,0.0,0.0,0.0,2652,9949.70,0,0,165,0.84,-2.52,-0.07,0.07,1.00,-0.09
0.0,0.0,0.0,0.0,0.0,0.0,0.0,2666,9950.70,0,0,0,0.70,-2.59,-0.07,0.07,1.00,-0.09
0.0,0.0,0.0,0.0,0.0,0.0,0.0,2681,9950.70,0,0,165,0.77,-2.66,0.07,0.07,1.00,-0.09
0.0,0.0,0.0,0.0,0.0,0.0,0.0,2691,9951.60,0,0,0,0.84,-2.59,0.00,0.07,1.00,-0.09
0.0,0.0,0.0,0.0,0.0,0.0,0.0,2703,9949.70,0,0,165,0.84,-2.59,0.00,0.07,1.00,-0.09
0.0,0.0,0.0,0.0,0.0,0.0,0.0,2719,9951.00,0,0,0,0.84,-2.66,0.07,0.07,1.00,-0.09
0.0,0.0,0.0,0.0,0.0,0.0,0.0,2727,9949.70,0,0,165,0.77,-2.66,0.00,0.07,1.00,-0.09
0.0,0.0,0.0,0.0,0.0,0.0,0.0,2743,9949.70,0,0,0,0.70,-2.59,0.00,0.08,1.00,-0.09
0.0,0.0,0.0,0.0,0.0,0.0,0.0,2757,9950.70,0,0,165,0.84,-2.66,0.00,0.07,1.00,-0.09
0.0,0.0,0.0,0.0,0.0,0.0,0.0,2764,9950.70,0,0,0,0.84,-2.73,0.07,0.07,1.00,-0.09
0.0,0.0,0.0,0.0,0.0,0.0,0.0,2778,9952.30,0,0,165,0.77,-2.52,-17.85,0.07,1.00,-0.09
0.0,0.0,0.0,0.0,0.0,0.0,0.0,2793,9950.70,0,0,0,0.84,-2.66,0.07,0.07,1.00,-0.09
0.0,0.0,0.0,0.0,0.0,0.0,0.0,2801,9950.70,0,0,165,0.77,-2.73,0.00,0.07,1.00,-0.09
0.0,0.0,0.0,0.0,0.0,0.0,0.0,2816,9950.70,0,0,0,0.84,-2.59,0.00,0.08,1.00,-0.09
0.0,0.0,0.0,0.0,0.0,0.0,0.0,2831,9949.70,0,0,165,0.77,-2.59,-0.07,0.08,1.00,-0.09
0.0,0.0,0.0,0.0,0.0,0.0,0.0,2838,9949.70,0,0,0,0.91,-2.66,0.00,0.07,1.00,-0.09
0.0,0.0,0.0,0.0,0.0,0.0,0.0,2855,9949.70,0,0,165,0.84,-2.52,0.07,0.07,1.00,-0.09
0.0,0.0,0.0,0.0,0.0,0.0,0.0,2869,9950.70,0,0,0,0.91,-2.66,-0.07,0.07,1.00,-0.09
0.0,0.0,0.0,0.0,0.0,0.0,0.0,2877,9950.70,0,0,165,0.70,-2.66,-0.21,0.07,1.00,-0.09
0.0,0.0,0.0,0.0,0.0,0.0,0.0,2893,9949.10,0,0,0,0.77,-2.66,0.07,0.07,1.00,-0.09
0.0,0.0,0.0,0.0,0.0,0.0,0.0,2908,9950.70,0,0,165,0.84,-2.59,0.00,0.07,1.00,-0.09
0.0,0.0,0.0,0.0,0.0,0.0,0.0,2914,9950.70,0,0,0,0.77,-2.66,0.07,0.07,1.00,-0.09
0.0,0.0,0.0,0.0,0.0,0.0,0.0,2929,9950.40,0,0,165,0.77,-2.59,-0.07,0.07,1.00,-0.09
0.0,0.0,0.0,0.0,0.0,0.0,0.0,2944,9949.70,0,0,0,0.84,-2.80,-0.07,0.07,1.00,-0.09
0.0,0.0,0.0,0.0,0.0,0.0,0.0,2951,9950.70,0,0,165,0.84,-2.66,0.00,0.07,1.00,-0.09
0.0,0.0,0.0,0.0,0.0,0.0,0.0,2967,9950.00,0,0,0,0.77,-2.59,0.07,0.07,1.00,-0.09
0.0,0.0,0.0,0.0,0.0,0.0,0.0,2984,9950.70,0,0,165,0.63,-2.59,0.00,0.07,1.00,-0.09
0.0,0.0,0.0,0.0,0.0,0.0,0.0,2991,9950.70,0,0,0,0.77,-2.59,0.00,0.07,1.00,-0.09
0.0,0.0,0.0,0.0,0.0,0.0,0.0,3005,9950.70,0,0,165,0.84,-2.59,0.14,0.07,1.00,-0.09
0.0,0.0,0.0,0.0,0.0,0.0,0.0,3019,9949.70,0,0,0,0.84,-2.59,0.00,0.07,1.00,-0.09
0.0,0.0,0.0,0.0,0.0,0.0,0.0,3027,9949.70,0,0,165,0.77,-2.59,0.00,0.07,1.00,-0.09
0.0,0.0,0.0,0.0,0.0,0.0,0.0,3042,9949.40,0,0,0,0.70,-2.66,-0.07,0.07,1.00,-0.09
0.0,0.0,0.0,0.0,0.0,0.0,0.0,3057,9950.70,0,0,165,0.77,-2.66,0.07,0.08,1.00,-0.09
0.0,0.0,0.0,0.0,0.0,0.0,0.0,3064,9951.60,0,0,0,0.84,-2.66,0.14,0.07,1.00,-0.09
0.0,0.0,0.0,0.0,0.0,0.0,0.0,3079,9950.70,0,0,165,0.70,-2.66,-0.21,0.07,1.00,-0.09
0.0,0.0,0.0,0.0,0.0,0.0,0.0,3101,9949.70,0,0,0,0.70,-2.66,0.00,0.07,1.00,-0.09
0.0,0.0,0.0,0.0,0.0,0.0,0.0,3103,9950.40,0,0,165,0.77,-2.59,0.14,0.08,1.00,-0.09
0.0,0.0,0.0,0.0,0.0,0.0,0.0,3118,9949.70,0,0,0,0.77,-2.52,0.07,0.07,1.00,-0.09
0.0,0.0,0.0,0.0,0.0,0.0,0.0,3134,9950.70,0,0,165,0.77,-2.59,0.14,0.07,1.00,-0.09
0.0,0.0,0.0,0.0,0.0,0.0,0.0,3139,9949.70,0,0,0,0.77,-2.66,0.07,0.07,1.00,-0.09
0.0,0.0,0.0,0.0,0.0,0.0,0.0,3155,9951.30,0,0,165,0.98,-2.66,0.07,0.07,1.00,-0.09
0.0,0.0,0.0,0.0,0.0,0.0,0.0,3162,9950.70,0,0,0,0.91,-2.59,0.07,0.07,1.00,-0.09
0.0,0.0,0.0,0.0,0.0,0.0,0.0,3177,9949.70,0,0,165,0.84,-2.59,0.00,0.07,1.00,-0.09
0.0,0.0,0.0,0.0,0.0,0.0,0.0,3193,9950.70,0,0,0,0.91,-2.59,0.14,0.08,1.00,-0.09
0.0,0.0,0.0,0.0,0.0,0.0,0.0,3199,9950.70,0,0,165,0.70,-2.59,-0.07,0.08,1.00,-0.09
0.0,0.0,0.0,0.0,0.0,0.0,0.0,3214,9949.70,0,0,0,0.77,-2.73,-0.07,0.07,1.00,-0.09
0.0,0.0,0.0,0.0,0.0,0.0,0.0,3229,9949.70,0,0,165,0.91,-2.66,0.07,0.07,1.00,-0.09
0.0,0.0,0.0,0.0,0.0,0.0,0.0,3237,9949.70,0,0,0,0.77,-2.66,0.07,0.07,1.00,-0.09
0.0,0.0,0.0,0.0,0.0,0.0,0.0,3252,9950.70,0,0,165,0.84,-2.66,0.00,0.08,1.00,-0.09
0.0,0.0,0.0,0.0,0.0,0.0,0.0,3267,9950.00,0,0,0,0.70,-2.59,-0.07,0.08,1.00,-0.09
0.0,0.0,0.0,0.0,0.0,0.0,0.0,3275,9948.80,0,0,165,0.84,-2.59,-0.07,0.08,1.00,-0.09
0.0,0.0,0.0,0.0,0.0,0.0,0.0,3289,9950.70,0,0,0,0.70,-2.59,0.00,0.08,1.00,-0.09
0.0,0.0,0.0,0.0,0.0,0.0,0.0,3304,9950.70,0,0,165,0.91,-2.52,0.00,0.07,1.00,-0.09
0.0,0.0,0.0,0.0,0.0,0.0,0.0,3312,9950.70,0,0,0,0.84,-2.59,0.14,0.07,1.00,-0.09
0.0,0.0,0.0,0.0,0.0,0.0,0.0,3327,9950.70,0,0,165,0.77,-2.59,0.21,0.07,1.00,-0.09
0.0,0.0,0.0,0.0,0.0,0.0,0.0,3343,9950.00,0,0,0,0.77,-2.59,-0.07,0.07,0.88,-0.09
0.0,0.0,0.0,0.0,0.0,0.0,0.0,3349,9950.00,0,0,165,0.77,-2.59,0.14,0.07,1.00,-0.09
0.0,0.0,0.0,0.0,0.0,0.0,0.0,3364,9949.70,0,0,0,0.77,-2.66,0.07,0.08,1.00,-0.09
0.0,0.0,0.0,0.0,0.0,0.0,0.0,3379,9949.70,0,0,165,0.84,-2.66,0.07,0.07,1.00,-0.09
0.0,0.0,0.0,0.0,0.0,0.0,0.0,3386,9949.70,0,0,0,0.77,-2.59,0.07,0.07,1.00,-0.09
0.0,0.0,0.0,0.0,0.0,0.0,0.0,3409,9950.70,0,0,165,0.84,-2.59,0.00,0.07,1.00,-0.09
0.0,0.0,0.0,0.0,0.0,0.0,0.0,3416,9949.70,0,0,0,0.77,-2.59,0.00,0.07,1.00,-0.09
0.0,0.0,0.0,0.0,0.0,0.0,0.0,3425,9949.70,0,0,165,0.70,-2.59,0.00,0.07,1.00,-0.09
0.0,0.0,0.0,0.0,0.0,0.0,0.0,3439,9950.70,0,0,0,0.84,-2.59,0.00,0.07,1.00,-0.09
0.0,0.0,0.0,0.0,0.0,0.0,0.0,3456,9950.70,0,0,165,0.77,-2.73,0.00,0.08,1.00,-0.09
0.0,0.0,0.0,0.0,0.0,0.0,0.0,3462,9950.70,0,0,0,0.84,-2.59,-0.07,0.07,1.00,-0.09
0.0,0.0,0.0,0.0,0.0,0.0,0.0,3477,9949.70,0,0,165,0.91,-2.59,0.00,0.08,1.00,-0.09
0.0,0.0,0.0,0.0,0.0,0.0,0.0,3492,9949.70,0,0,0,0.70,-2.73,0.14,0.07,1.00,-0.09
0.0,0.0,0.0,0.0,0.0,0.0,0.0,3499,9951.00,0,0,165,0.84,-2.59,0.00,0.07,1.00,-0.09
0.0,0.0,0.0,0.0,0.0,0.0,0.0,3515,9950.00,0,0,0,0.84,-2.59,0.00,0.07,1.00,-0.09
0.0,0.0,0.0,0.0,0.0,0.0,0.0,3530,9949.70,0,0,165,0.77,-2.59,0.00,0.07,1.00,-0.09
0.0,0.0,0.0,0.0,0.0,0.0,0.0,3537,9949.70,0,0,0,0.84,-2.59,0.00,0.07,1.00,-0.09
0.0,0.0,0.0,0.0,0.0,0.0,0.0,3552,9950.70,0,0,165,0.77,-2.66,0.07,0.07,1.00,-0.09
0.0,0.0,0.0,0.0,0.0,0.0,0.0,3567,9949.70,0,0,0,0.84,-2.66,0.07,0.07,1.00,-0.09
0.0,0.0,0.0,0.0,0.0,0.0,0.0,3574,9949.70,0,0,165,0.91,-2.59,0.07,0.07,1.00,-0.09
-0.5097656,5.635554E-4,-4.9617514E-4,4.6384195E-4,0.07,1.0,-0.09,13601,9949.70,0,0,0,0.84,-2.66,0.14,0.07,1.00,-0.09
0.49023438,-0.001436444,5.038269E-4,-0.004536158,0.07,1.0,-0.09,13616,9950.70,0,0,165,0.70,-2.59,-0.21,0.07,1.00,-0.09
0.49023438,0.0015635565,5.038269E-4,-5.361581E-4,0.07,1.0,-0.09,13625,9950.70,0,0,0,0.91,-2.59,0.07,0.07,1.00,-0.09
-0.5097656,-4.3644384E-4,-4.9617514E-4,-0.0015361581,0.07,1.0,-0.09,13641,9949.70,0,0,165,0.77,-2.66,0.00,0.07,1.00,-0.09
0.49023438,5.635554E-4,5.038269E-4,-5.361581E-4,0.07,1.0,-0.09,13654,9950.70,0,0,0,0.84,-2.59,0.07,0.07,1.00,-0.09
0.49023438,5.635554E-4,-4.9617514E-4,-0.0015361581,0.07,1.0,-0.09,13662,9950.70,0,0,165,0.84,-2.66,0.00,0.07,1.00,-0.09
0.49023438,5.635554E-4,-4.9617514E-4,-5.361581E-4,0.07,1.0,-0.09,13677,9950.70,0,0,0,0.84,-2.66,0.07,0.07,1.00,-0.09
0.49023438,-0.001436444,-4.9617514E-4,-5.361581E-4,0.08,1.0,-0.09,13691,9950.70,0,0,165,0.70,-2.66,0.07,0.08,1.00,-0.09
0.49023438,-0.001436444,5.038269E-4,-0.0015361581,0.08,1.0,-0.09,13699,9950.70,0,0,0,0.70,-2.59,0.00,0.08,1.00,-0.09
0.49023438,5.635554E-4,0.0015038289,-0.0015361581,0.07,1.0,-0.09,13714,9950.70,0,0,165,0.84,-2.52,0.00,0.07,1.00,-0.09
0.49023438,-0.001436444,-4.9617514E-4,-0.0015361581,0.07,1.0,-0.09,13732,9950.70,0,0,0,0.70,-2.66,0.00,0.07,1.00,-0.09
0.79003906,-0.001436444,0.0015038289,-5.361581E-4,0.07,1.0,-0.09,13736,9951.00,0,0,165,0.70,-2.52,0.07,0.07,1.00,-0.09
0.49023438,-0.001436444,-4.9617514E-4,-5.361581E-4,0.07,1.0,-0.09,13751,9950.70,0,0,0,0.70,-2.66,0.07,0.07,1.00,-0.09
0.19042969,-4.3644384E-4,-4.9617514E-4,-5.361581E-4,0.07,1.0,-0.09,13766,9950.40,0,0,165,0.77,-2.66,0.07,0.07,1.00,-0.09
0.49023438,-4.3644384E-4,-4.9617514E-4,-5.361581E-4,0.07,1.0,-0.09,13774,9950.70,0,0,0,0.77,-2.66,0.07,0.07,1.00,-0.09
-0.5097656,0.0015635565,5.038269E-4,-5.361581E-4,0.07,1.0,-0.09,13789,9949.70,0,0,165,0.91,-2.59,0.07,0.07,1.00,-0.09
-0.5097656,-4.3644384E-4,-4.9617514E-4,-0.0015361581,0.07,1.0,-0.08,13804,9949.70,0,0,0,0.77,-2.66,0.00,0.07,1.00,-0.08
-0.5097656,5.635554E-4,0.0015038289,-5.361581E-4,0.08,1.0,-0.09,13812,9949.70,0,0,165,0.84,-2.52,0.07,0.08,1.00,-0.09
0.49023438,-4.3644384E-4,-4.9617514E-4,-5.361581E-4,0.07,1.0,-0.09,13826,9950.70,0,0,0,0.77,-2.66,0.07,0.07,1.00,-0.09
-0.5097656,-0.001436444,5.038269E-4,4.6384195E-4,0.08,1.0,-0.09,13842,9949.70,0,0,165,0.70,-2.59,0.14,0.08,1.00,-0.09
0.49023438,5.635554E-4,5.038269E-4,-5.361581E-4,0.07,1.0,-0.09,13849,9950.70,0,0,0,0.84,-2.59,0.07,0.07,1.00,-0.09
-0.8095703,5.635554E-4,5.038269E-4,-5.361581E-4,0.07,1.0,-0.09,13864,9949.40,0,0,165,0.84,-2.59,0.07,0.07,1.00,-0.09
-0.8095703,-0.001436444,5.038269E-4,-5.361581E-4,0.07,1.0,-0.09,13878,9949.40,0,0,0,0.70,-2.59,0.07,0.07,1.00,-0.09
0.49023438,-0.001436444,-4.9617514E-4,-0.0015361581,0.07,1.12,-0.09,13886,9950.70,0,0,165,0.70,-2.66,0.00,0.07,1.12,-0.09
-1.1103516,-4.3644384E-4,-4.9617514E-4,-0.002536158,0.07,1.0,-0.09,13901,9949.10,0,0,0,0.77,-2.66,-0.07,0.07,1.00,-0.09
0.19042969,5.635554E-4,5.038269E-4,4.6384195E-4,0.08,1.0,-0.09,13916,9950.40,0,0,165,0.84,-2.59,0.14,0.08,1.00,-0.09
0.49023438,0.0015635565,-4.9617514E-4,-0.002536158,0.07,1.0,-0.09,13929,9950.70,0,0,0,0.91,-2.66,-0.07,0.07,1.00,-0.09
0.49023438,5.635554E-4,-4.9617514E-4,-0.0015361581,0.08,1.0,-0.09,13940,9950.70,0,0,165,0.84,-2.66,0.00,0.08,1.00,-0.09
0.49023438,-4.3644384E-4,-4.9617514E-4,-0.0015361581,0.07,1.0,-0.09,13962,9950.70,0,0,0,0.77,-2.66,0.00,0.07,1.00,-0.09
0.49023438,-4.3644384E-4,5.038269E-4,-0.0015361581,0.07,1.0,-0.09,13963,9950.70,0,0,165,0.77,-2.59,0.00,0.07,1.00,-0.09
0.49023438,5.635554E-4,-4.9617514E-4,-0.002536158,0.07,1.0,-0.09,13977,9950.70,0,0,0,0.84,-2.66,-0.07,0.07,1.00,-0.09
-0.5097656,-0.001436444,-4.9617514E-4,-0.0015361581,0.08,1.0,-0.09,13992,9949.70,0,0,165,0.70,-2.66,0.00,0.08,1.00,-0.09
0.49023438,-4.3644384E-4,5.038269E-4,-5.361581E-4,0.07,1.0,-0.09,13999,9950.70,0,0,0,0.77,-2.59,0.07,0.07,1.00,-0.09
-0.5097656,-0.001436444,5.038269E-4,4.6384195E-4,0.08,1.0,-0.09,14014,9949.70,0,0,165,0.70,-2.59,0.14,0.08,1.00,-0.09
0.49023438,-4.3644384E-4,-0.0014961734,-5.361581E-4,0.07,1.0,-0.09,14029,9950.70,0,0,0,0.77,-2.73,0.07,0.07,1.00,-0.09
0.49023438,5.635554E-4,-4.9617514E-4,-5.361581E-4,0.07,1.0,-0.09,14036,9950.70,0,0,165,0.84,-2.66,0.07,0.07,1.00,-0.09
-0.5097656,0.0015635565,-4.9617514E-4,-0.0015361581,0.08,1.0,-0.09,14051,9949.70,0,0,0,0.91,-2.66,0.00,0.08,1.00,-0.09
0.49023438,5.635554E-4,-0.0014961734,-0.002536158,0.07,1.0,-0.09,14066,9950.70,0,0,165,0.84,-2.73,-0.07,0.07,1.00,-0.09
0.49023438,-4.3644384E-4,5.038269E-4,-0.0015361581,0.07,1.0,-0.09,14074,9950.70,0,0,0,0.77,-2.59,0.00,0.07,1.00,-0.09
-0.5097656,-4.3644384E-4,-4.9617514E-4,-5.361581E-4,0.08,1.0,-0.09,14089,9949.70,0,0,165,0.77,-2.66,0.07,0.08,1.00,-0.09
0.49023438,0.0015635565,5.038269E-4,-5.361581E-4,0.07,1.0,-0.09,14104,9950.70,0,0,0,0.91,-2.59,0.07,0.07,1.00,-0.09
-0.5097656,5.635554E-4,5.038269E-4,-5.361581E-4,0.08,1.0,-0.09,14112,9949.70,0,0,165,0.84,-2.59,0.07,0.08,1.00,-0.09
-1.4101562,5.635554E-4,5.038269E-4,-0.0015361581,0.07,1.0,-0.09,14126,9948.80,0,0,0,0.84,-2.59,0.00,0.07,1.00,-0.09
-0.5097656,5.635554E-4,-4.9617514E-4,-5.361581E-4,0.08,1.0,-0.09,14142,9949.70,0,0,165,0.84,-2.66,0.07,0.08,1.00,-0.09
-0.5097656,0.0025635567,-4.9617514E-4,-0.0015361581,0.07,1.0,-0.09,14149,9949.70,0,0,0,0.98,-2.66,0.00,0.07,1.00,-0.09
0.49023438,0.0015635565,-4.9617514E-4,-0.0035361582,0.07,1.0,-0.09,14164,9950.70,0,0,165,0.91,-2.66,-0.14,0.07,1.00,-0.09
-0.5097656,-4.3644384E-4,5.038269E-4,-5.361581E-4,0.08,1.0,-0.09,14179,9949.70,0,0,0,0.77,-2.59,0.07,0.08,1.00,-0.09
-0.5097656,5.635554E-4,-0.0024961717,-5.361581E-4,0.07,1.0,-0.09,14186,9949.70,0,0,165,0.84,-2.80,0.07,0.07,1.00,-0.09
0.49023438,0.0015635565,5.038269E-4,-5.361581E-4,0.07,1.0,-0.09,14202,9950.70,0,0,0,0.91,-2.59,0.07,0.07,1.00,-0.09
-0.5097656,0.0025635567,0.0015038289,-0.0015361581,0.07,1.0,-0.09,14217,9949.70,0,0,165,0.98,-2.52,0.00,0.07,1.00,-0.09
0.49023438,-4.3644384E-4,-4.9617514E-4,-0.002536158,0.08,1.0,-0.09,14230,9950.70,0,0,0,0.77,-2.66,-0.07,0.08,1.00,-0.09
0.49023438,-0.001436444,5.038269E-4,-0.0015361581,0.08,1.0,-0.09,14239,9950.70,0,0,165,0.70,-2.59,0.00,0.08,1.00,-0.09
0.49023438,5.635554E-4,5.038269E-4,-5.361581E-4,0.08,1.0,-0.09,14254,9950.70,0,0,0,0.84,-2.59,0.07,0.08,1.00,-0.09
-0.5097656,5.635554E-4,-4.9617514E-4,4.6384195E-4,0.07,1.0,-0.09,14262,9949.70,0,0,165,0.84,-2.66,0.14,0.07,1.00,-0.09
0.49023438,-0.001436444,-4.9617514E-4,4.6384195E-4,0.07,1.0,-0.09,14276,9950.70,0,0,0,0.70,-2.66,0.14,0.07,1.00,-0.09
-0.5097656,-4.3644384E-4,-4.9617514E-4,4.6384195E-4,0.07,1.0,-0.09,14291,9949.70,0,0,165,0.77,-2.66,0.14,0.07,1.00,-0.09
0.49023438,5.635554E-4,5.038269E-4,-0.0015361581,0.07,1.0,-0.09,14298,9950.70,0,0,0,0.84,-2.59,0.00,0.07,1.00,-0.09
0.49023438,-0.001436444,-4.9617514E-4,-0.0035361582,0.07,1.0,-0.09,14314,9950.70,0,0,165,0.70,-2.66,-0.14,0.07,1.00,-0.09
-0.5097656,5.635554E-4,-4.9617514E-4,-0.002536158,0.07,1.0,-0.09,14329,9949.70,0,0,0,0.84,-2.66,-0.07,0.07,1.00,-0.09
0.49023438,5.635554E-4,-4.9617514E-4,-0.002536158,0.07,1.0,-0.09,14336,9950.70,0,0,165,0.84,-2.66,-0.07,0.07,1.00,-0.09
0.49023438,-0.001436444,-4.9617514E-4,-0.002536158,0.08,1.0,-0.09,14351,9950.70,0,0,0,0.70,-2.66,-0.07,0.08,1.00,-0.09
0.49023438,-4.3644384E-4,-4.9617514E-4,-0.0015361581,0.07,1.0,-0.09,14366,9950.70,0,0,165,0.77,-2.66,0.00,0.07,1.00,-0.09
0.49023438,0.0015635565,-4.9617514E-4,-0.002536158,0.07,1.0,-0.09,14374,9950.70,0,0,0,0.91,-2.66,-0.07,0.07,1.00,-0.09
-1.4101562,-0.001436444,-4.9617514E-4,-5.361581E-4,0.07,1.0,-0.09,14389,9948.80,0,0,165,0.70,-2.66,0.07,0.07,1.00,-0.09
-0.5097656,-4.3644384E-4,5.038269E-4,-5.361581E-4,0.08,1.0,-0.09,14404,9949.70,0,0,0,0.77,-2.59,0.07,0.08,1.00,-0.09
1.4902344,5.635554E-4,0.0015038289,-5.361581E-4,0.08,1.0,-0.09,14411,9951.70,0,0,165,0.84,-2.52,0.07,0.08,1.00,-0.09
-0.5097656,-4.3644384E-4,0.0015038289,-5.361581E-4,0.07,1.0,-0.09,14426,9949.70,0,0,0,0.77,-2.52,0.07,0.07,1.00,-0.09
-1.1103516,0.0015635565,-4.9617514E-4,-5.361581E-4,0.07,1.0,-0.09,14441,9949.10,0,0,165,0.91,-2.66,0.07,0.07,1.00,-0.09
0.49023438,5.635554E-4,5.038269E-4,4.6384195E-4,0.07,1.0,-0.09,14449,9950.70,0,0,0,0.84,-2.59,0.14,0.07,1.00,-0.09
-0.5097656,5.635554E-4,5.038269E-4,-5.361581E-4,0.08,1.0,-0.09,14463,9949.70,0,0,165,0.84,-2.59,0.07,0.08,1.00,-0.09
0.49023438,-4.3644384E-4,-4.9617514E-4,-0.0015361581,0.07,1.0,-0.09,14478,9950.70,0,0,0,0.77,-2.66,0.00,0.07,1.00,-0.09
0.49023438,-0.001436444,5.038269E-4,-0.0015361581,0.08,1.0,-0.09,14486,9950.70,0,0,165,0.70,-2.59,0.00,0.08,1.00,-0.09
-0.5097656,5.635554E-4,-0.0014961734,-0.002536158,0.08,1.0,-0.09,14501,9949.70,0,0,0,0.84,-2.73,-0.07,0.08,1.00,-0.09
0.49023438,5.635554E-4,-0.0014961734,-0.0015361581,0.07,1.0,-0.09,14516,9950.70,0,0,165,0.84,-2.73,0.00,0.07,1.00,-0.09
-0.5097656,5.635554E-4,0.0015038289,-5.361581E-4,0.07,1.0,-0.09,14525,9949.70,0,0,0,0.84,-2.52,0.07,0.07,1.00,-0.09
0.49023438,5.635554E-4,-4.9617514E-4,-5.361581E-4,0.08,1.0,-0.09,14538,9950.70,0,0,165,0.84,-2.66,0.07,0.08,1.00,-0.09
0.49023438,-4.3644384E-4,-0.0014961734,-0.002536158,0.08,1.0,-0.09,14553,9950.70,0,0,0,0.77,-2.73,-0.07,0.08,1.00,-0.09
0.49023438,-0.001436444,-0.0014961734,-5.361581E-4,0.07,1.0,-0.09,14561,9950.70,0,0,165,0.70,-2.73,0.07,0.07,1.00,-0.09
-0.5097656,-4.3644384E-4,-4.9617514E-4,-5.361581E-4,0.08,1.0,-0.09,14575,9949.70,0,0,0,0.77,-2.66,0.07,0.08,1.00,-0.09
0.49023438,5.635554E-4,5.038269E-4,-5.361581E-4,0.07,1.0,-0.09,14591,9950.70,0,0,165,0.84,-2.59,0.07,0.07,1.00,-0.09
0.49023438,-4.3644384E-4,0.0025038272,-5.361581E-4,0.08,1.0,-0.09,14598,9950.70,0,0,0,0.77,-2.45,0.07,0.08,1.00,-0.09
0.49023438,0.0015635565,5.038269E-4,-5.361581E-4,0.07,1.0,-0.09,14615,9950.70,0,0,165,0.91,-2.59,0.07,0.07,1.00,-0.09
-0.5097656,-4.3644384E-4,-4.9617514E-4,-5.361581E-4,0.08,1.0,-0.09,14635,9949.70,0,0,0,0.77,-2.66,0.07,0.08,1.00,-0.09
-0.5097656,5.635554E-4,-0.0014961734,-0.0015361581,0.07,1.0,-0.09,14636,9949.70,0,0,165,0.84,-2.73,0.00,0.07,1.00,-0.09
-0.5097656,-4.3644384E-4,-4.9617514E-4,4.6384195E-4,0.07,1.0,-0.09,14651,9949.70,0,0,0,0.77,-2.66,0.14,0.07,1.00,-0.09
-1.4101562,-0.001436444,5.038269E-4,-0.0015361581,0.07,1.0,-0.09,14666,9948.80,0,0,165,0.70,-2.59,0.00,0.07,1.00,-0.09
-0.5097656,5.635554E-4,-4.9617514E-4,-0.002536158,0.07,1.0,-0.09,14674,9949.70,0,0,0,0.84,-2.66,-0.07,0.07,1.00,-0.09
-1.4101562,-0.001436444,0.0015038289,4.6384195E-4,0.07,1.0,-0.09,14688,9948.80,0,0,165,0.70,-2.52,0.14,0.07,1.00,-0.09
0.49023438,5.635554E-4,-4.9617514E-4,-0.0015361581,0.07,1.0,-0.09,14703,9950.70,0,0,0,0.84,-2.66,0.00,0.07,1.00,-0.09
-0.5097656,-4.3644384E-4,-4.9617514E-4,-0.0015361581,0.07,1.0,-0.09,14711,9949.70,0,0,165,0.77,-2.66,0.00,0.07,1.00,-0.09
-0.5097656,-4.3644384E-4,5.038269E-4,-0.0015361581,0.07,1.0,-0.09,14726,9949.70,0,0,0,0.77,-2.59,0.00,0.07,1.00,-0.09
-0.5097656,-4.3644384E-4,-4.9617514E-4,-5.361581E-4,0.08,1.0,-0.09,14742,9949.70,0,0,165,0.77,-2.66,0.07,0.08,1.00,-0.09
-0.11035156,-4.3644384E-4,5.038269E-4,-5.361581E-4,0.07,1.0,-0.09,14748,9950.10,0,0,0,0.77,-2.59,0.07,0.07,1.00,-0.09
-1.4101562,-4.3644384E-4,-4.9617514E-4,-0.0015361581,0.07,1.0,-0.09,14763,9948.80,0,0,165,0.77,-2.66,0.00,0.07,1.00,-0.09
0.49023438,-4.3644384E-4,-4.9617514E-4,-0.002536158,0.07,1.0,-0.09,14779,9950.70,0,0,0,0.77,-2.66,-0.07,0.07,1.00,-0.09
-0.5097656,5.635554E-4,5.038269E-4,-0.002536158,0.07,1.0,-0.09,14786,9949.70,0,0,165,0.84,-2.59,-0.07,0.07,1.00,-0.09
0.49023438,-4.3644384E-4,5.038269E-4,-0.002536158,0.08,1.0,-0.09,14801,9950.70,0,0,0,0.77,-2.59,-0.07,0.08,1.00,-0.09
0.49023438,5.635554E-4,-4.9617514E-4,-0.0015361581,0.08,1.0,-0.09,14816,9950.70,0,0,165,0.84,-2.66,0.00,0.08,1.00,-0.09
0.49023438,-4.3644384E-4,5.038269E-4,-5.361581E-4,0.08,1.0,-0.09,14824,9950.70,0,0,0,0.77,-2.59,0.07,0.08,1.00,-0.09
1.4902344,5.635554E-4,5.038269E-4,4.6384195E-4,0.08,1.0,-0.09,14839,9951.70,0,0,165,0.84,-2.59,0.14,0.08,1.00,-0.09
0.49023438,5.635554E-4,-0.0014961734,-0.0035361582,0.08,1.0,-0.09,14853,9950.70,0,0,0,0.84,-2.73,-0.14,0.08,1.00,-0.09
0.49023438,5.635554E-4,-4.9617514E-4,-0.0015361581,0.08,1.0,-0.09,14862,9950.70,0,0,165,0.84,-2.66,0.00,0.08,1.00,-0.09
-0.5097656,-0.001436444,5.038269E-4,-5.361581E-4,0.07,1.0,-0.09,14875,9949.70,0,0,0,0.70,-2.59,0.07,0.07,1.00,-0.09
-0.5097656,0.0015635565,5.038269E-4,-0.0015361581,0.08,1.0,-0.09,14891,9949.70,0,0,165,0.91,-2.59,0.00,0.08,1.00,-0.09
-0.5097656,-0.001436444,-4.9617514E-4,-5.361581E-4,0.07,1.0,-0.09,14898,9949.70,0,0,0,0.70,-2.66,0.07,0.07,1.00,-0.09
0.79003906,5.635554E-4,5.038269E-4,-5.361581E-4,0.07,1.0,-0.08,14913,9951.00,0,0,165,0.84,-2.59,0.07,0.07,1.00,-0.08
0.49023438,0.0015635565,-4.9617514E-4,4.6384195E-4,0.07,1.0,-0.09,14929,9950.70,0,0,0,0.91,-2.66,0.14,0.07,1.00,-0.09
0.49023438,-0.001436444,5.038269E-4,-0.0015361581,0.08,1.0,-0.09,14936,9950.70,0,0,165,0.70,-2.59,0.00,0.08,1.00,-0.09
-0.5097656,5.635554E-4,-4.9617514E-4,-5.361581E-4,0.07,1.0,-0.09,14951,9949.70,0,0,0,0.84,-2.66,0.07,0.07,1.00,-0.09
-0.5097656,-4.3644384E-4,5.038269E-4,-0.002536158,0.08,1.0,-0.09,14965,9949.70,0,0,165,0.77,-2.59,-0.07,0.08,1.00,-0.09
0.49023438,-4.3644384E-4,-4.9617514E-4,-0.002536158,0.08,1.0,-0.09,14974,9950.70,0,0,0,0.77,-2.66,-0.07,0.08,1.00,-0.09
0.49023438,5.635554E-4,-4.9617514E-4,-5.361581E-4,0.08,1.0,-0.09,14988,9950.70,0,0,165,0.84,-2.66,0.07,0.08,1.00,-0.09
0.49023438,5.635554E-4,-4.9617514E-4,-0.0015361581,0.07,1.0,-0.09,15004,9950.70,0,0,0,0.84,-2.66,0.00,0.07,1.00,-0.09
2.3896484,5.635554E-4,-4.9617514E-4,-5.361581E-4,0.07,1.0,-0.09,15011,9952.60,0,0,165,0.84,-2.66,0.07,0.07,1.00,-0.09
0.49023438,0.0015635565,5.038269E-4,-5.361581E-4,0.08,1.0,-0.09,15026,9950.70,0,0,0,0.91,-2.59,0.07,0.08,1.00,-0.09
0.49023438,-4.3644384E-4,-4.9617514E-4,-0.002536158,0.08,1.0,-0.09,15043,9950.70,0,0,165,0.77,-2.66,-0.07,0.08,1.00,-0.09
-0.5097656,-4.3644384E-4,-4.9617514E-4,-0.002536158,0.07,1.0,-0.09,15049,9949.70,0,0,0,0.77,-2.66,-0.07,0.07,1.00,-0.09
0.49023438,-4.3644384E-4,-0.0014961734,-0.0035361582,0.07,1.0,-0.09,15064,9950.70,0,0,165,0.77,-2.73,-0.14,0.07,1.00,-0.09
0.49023438,5.635554E-4,-4.9617514E-4,-0.0035361582,0.08,1.0,-0.09,15078,9950.70,0,0,0,0.84,-2.66,-0.14,0.08,1.00,-0.09
-0.5097656,-0.001436444,-4.9617514E-4,-0.0015361581,0.08,1.0,-0.09,15086,9949.70,0,0,165,0.70,-2.66,0.00,0.08,1.00,-0.09
0.49023438,-4.3644384E-4,-4.9617514E-4,-5.361581E-4,0.07,1.0,-0.09,15101,9950.70,0,0,0,0.77,-2.66,0.07,0.07,1.00,-0.09
-0.5097656,5.635554E-4,0.0015038289,4.6384195E-4,0.08,1.0,-0.09,15116,9949.70,0,0,165,0.84,-2.52,0.14,0.08,1.00,-0.09
0.49023438,5.635554E-4,5.038269E-4,4.6384195E-4,0.07,1.0,-0.09,15124,9950.70,0,0,0,0.84,-2.59,0.14,0.07,1.00,-0.09
-0.5097656,-0.001436444,5.038269E-4,4.6384195E-4,0.07,1.0,-0.09,15139,9949.70,0,0,165,0.70,-2.59,0.14,0.07,1.00,-0.09
0.49023438,5.635554E-4,-4.9617514E-4,-0.0035361582,0.07,1.0,-0.09,15154,9950.70,0,0,0,0.84,-2.66,-0.14,0.07,1.00,-0.09
-0.5097656,-4.3644384E-4,5.038269E-4,-0.002536158,0.07,1.0,-0.09,15161,9949.70,0,0,165,0.77,-2.59,-0.07,0.07,1.00,-0.09
0.49023438,-0.001436444,-4.9617514E-4,-0.002536158,0.08,1.0,-0.09,15176,9950.70,0,0,0,0.70,-2.66,-0.07,0.08,1.00,-0.09
0.49023438,5.635554E-4,-4.9617514E-4,-0.0015361581,0.07,1.0,-0.09,15192,9950.70,0,0,165,0.84,-2.66,0.00,0.07,1.00,-0.09
0.79003906,-4.3644384E-4,-4.9617514E-4,-0.002536158,0.07,1.0,-0.09,15198,9951.00,0,0,0,0.77,-2.66,-0.07,0.07,1.00,-0.09
-0.8095703,5.635554E-4,-4.9617514E-4,-0.0015361581,0.07,1.0,-0.09,15214,9949.40,0,0,165,0.84,-2.66,0.00,0.07,1.00,-0.09
0.49023438,0.0015635565,-4.9617514E-4,-0.0015361581,0.07,1.0,-0.09,15228,9950.70,0,0,0,0.91,-2.66,0.00,0.07,1.00,-0.09
0.49023438,5.635554E-4,5.038269E-4,-0.002536158,0.07,1.0,-0.09,15236,9950.70,0,0,165,0.84,-2.59,-0.07,0.07,1.00,-0.09
-0.5097656,0.0015635565,-4.9617514E-4,-0.0015361581,0.07,1.0,-0.09,15251,9949.70,0,0,0,0.91,-2.66,0.00,0.07,1.00,-0.09
0.49023438,-0.001436444,-4.9617514E-4,-0.002536158,0.07,1.0,-0.09,15259,9950.70,0,0,165,0.70,-2.66,-0.07,0.07,1.00,-0.09
0.49023438,5.635554E-4,0.0015038289,-0.0015361581,0.07,1.0,-0.09,15274,9950.70,0,0,0,0.84,-2.52,0.00,0.07,1.00,-0.09
0.49023438,0.0015635565,5.038269E-4,4.6384195E-4,0.08,1.0,-0.09,15289,9950.70,0,0,165,0.91,-2.59,0.14,0.08,1.00,-0.09
0.49023438,0.0015635565,-0.0014961734,-5.361581E-4,0.07,1.0,-0.09,15296,9950.70,0,0,0,0.91,-2.73,0.07,0.07,1.00,-0.09
0.49023438,0.0015635565,5.038269E-4,-5.361581E-4,0.07,1.0,-0.09,15311,9950.70,0,0,165,0.91,-2.59,0.07,0.07,1.00,-0.09
0.49023438,0.0015635565,0.0025038272,-0.0015361581,0.07,1.0,-0.09,15327,9950.70,0,0,0,0.91,-2.45,0.00,0.07,1.00,-0.09
0.49023438,0.0015635565,5.038269E-4,4.6384195E-4,0.08,1.0,-0.09,15334,9950.70,0,0,165,0.91,-2.59,0.14,0.08,1.00,-0.09
-0.5097656,5.635554E-4,-4.9617514E-4,-0.0015361581,0.07,1.0,-0.09,15349,9949.70,0,0,0,0.84,-2.66,0.00,0.07,1.00,-0.09
-0.5097656,-4.3644384E-4,-4.9617514E-4,-0.0015361581,0.08,1.0,-0.09,15364,9949.70,0,0,165,0.77,-2.66,0.00,0.08,1.00,-0.09
0.49023438,-4.3644384E-4,5.038269E-4,-5.361581E-4,0.07,1.0,-0.09,15372,9950.70,0,0,0,0.77,-2.59,0.07,0.07,1.00,-0.09
-0.5097656,-0.001436444,5.038269E-4,-0.0015361581,0.07,1.0,-0.09,15386,9949.70,0,0,165,0.70,-2.59,0.00,0.07,1.00,-0.09
-0.5097656,5.635554E-4,5.038269E-4,-0.002536158,0.07,1.0,-0.09,15402,9949.70,0,0,0,0.84,-2.59,-0.07,0.07,1.00,-0.09
0.49023438,5.635554E-4,-4.9617514E-4,-0.002536158,0.07,1.0,-0.09,15409,9950.70,0,0,165,0.84,-2.66,-0.07,0.07,1.00,-0.09
-0.5097656,-4.3644384E-4,5.038269E-4,4.6384195E-4,0.08,1.0,-0.09,15424,9949.70,0,0,0,0.77,-2.59,0.14,0.08,1.00,-0.09
-0.5097656,-4.3644384E-4,-4.9617514E-4,-5.361581E-4,0.08,1.0,-0.09,15439,9949.70,0,0,165,0.77,-2.66,0.07,0.08,1.00,-0.09
-0.5097656,5.635554E-4,5.038269E-4,-0.002536158,0.07,1.0,-0.09,15446,9949.70,0,0,0,0.84,-2.59,-0.07,0.07,1.00,-0.09
-0.11035156,-0.001436444,5.038269E-4,-0.0015361581,0.08,1.0,-0.09,15461,9950.10,0,0,165,0.70,-2.59,0.00,0.08,1.00,-0.09
-0.5097656,-4.3644384E-4,0.0015038289,-0.002536158,0.07,1.0,-0.09,15475,9949.70,0,0,0,0.77,-2.52,-0.07,0.07,1.00,-0.09
-0.5097656,-4.3644384E-4,5.038269E-4,-0.0015361581,0.08,1.0,-0.09,15492,9949.70,0,0,165,0.77,-2.59,0.00,0.08,1.00,-0.09
-0.5097656,-4.3644384E-4,-4.9617514E-4,-0.0015361581,0.07,1.0,-0.09,15498,9949.70,0,0,0,0.77,-2.66,0.00,0.07,1.00,-0.09
-0.11035156,5.635554E-4,-0.0014961734,-0.002536158,0.07,1.0,-0.09,15513,9950.10,0,0,165,0.84,-2.73,-0.07,0.07,1.00,-0.09
-0.5097656,0.0025635567,5.038269E-4,-0.0015361581,0.07,1.0,-0.09,15521,9949.70,0,0,0,0.98,-2.59,0.00,0.07,1.00,-0.09
0.49023438,-4.3644384E-4,-0.0014961734,-0.002536158,0.08,1.0,-0.09,15536,9950.70,0,0,165,0.77,-2.73,-0.07,0.08,1.00,-0.09
-0.5097656,0.0015635565,0.0015038289,-5.361581E-4,0.08,1.0,-0.09,15543,9949.70,0,0,0,0.91,-2.52,0.07,0.08,1.00,-0.09
0.49023438,5.635554E-4,-4.9617514E-4,-0.002536158,0.07,1.0,-0.09,15559,9950.70,0,0,165,0.84,-2.66,-0.07,0.07,1.00,-0.09
0.49023438,0.0015635565,5.038269E-4,-5.361581E-4,0.08,1.0,-0.09,15575,9950.70,0,0,0,0.91,-2.59,0.07,0.08,1.00,-0.09
-0.5097656,5.635554E-4,-4.9617514E-4,-5.361581E-4,0.07,1.0,-0.09,15581,9949.70,0,0,165,0.84,-2.66,0.07,0.07,1.00,-0.09
0.49023438,5.635554E-4,-4.9617514E-4,-5.361581E-4,0.07,1.0,-0.09,15596,9950.70,0,0,0,0.84,-2.66,0.07,0.07,1.00,-0.09
-0.5097656,-4.3644384E-4,-0.0014961734,-0.002536158,0.07,1.0,-0.09,15611,9949.70,0,0,165,0.77,-2.73,-0.07,0.07,1.00,-0.09
-0.5097656,0.0015635565,0.0015038289,-0.0015361581,0.07,1.0,-0.09,15618,9949.70,0,0,0,0.91,-2.52,0.00,0.07,1.00,-0.09
-1.4101562,-4.3644384E-4,5.038269E-4,-0.0015361581,0.07,1.0,-0.09,15633,9948.80,0,0,165,0.77,-2.59,0.00,0.07,1.00,-0.09
0.49023438,-0.001436444,-4.9617514E-4,-0.002536158,0.08,1.0,-0.09,15648,9950.70,0,0,0,0.70,-2.66,-0.07,0.08,1.00,-0.09
-0.5097656,-4.3644384E-4,-4.9617514E-4,-0.0015361581,0.08,1.0,-0.09,15656,9949.70,0,0,165,0.77,-2.66,0.00,0.08,1.00,-0.09
0.49023438,-0.001436444,5.038269E-4,-5.361581E-4,0.07,1.0,-0.09,15671,9950.70,0,0,0,0.70,-2.59,0.07,0.07,1.00,-0.09
-0.5097656,-4.3644384E-4,5.038269E-4,-0.0015361581,0.07,1.0,-0.09,15686,9949.70,0,0,165,0.77,-2.59,0.00,0.07,1.00,-0.09
-0.5097656,0.0015635565,-4.9617514E-4,-0.0015361581,0.08,1.0,-0.09,15693,9949.70,0,0,0,0.91,-2.66,0.00,0.08,1.00,-0.09
1.7900391,-4.3644384E-4,5.038269E-4,-5.361581E-4,0.07,1.0,-0.09,15709,9952.00,0,0,165,0.77,-2.59,0.07,0.07,1.00,-0.09
-0.11035156,5.635554E-4,0.0015038289,-0.0015361581,0.07,1.0,-0.09,15724,9950.10,0,0,0,0.84,-2.52,0.00,0.07,1.00,-0.09
0.49023438,5.635554E-4,0.0015038289,-0.0015361581,0.07,1.0,-0.09,15731,9950.70,0,0,165,0.84,-2.52,0.00,0.07,1.00,-0.09
-0.5097656,0.0025635567,-4.9617514E-4,-0.0015361581,0.07,1.0,-0.09,15746,9949.70,0,0,0,0.98,-2.66,0.00,0.07,1.00,-0.09
0.49023438,-4.3644384E-4,5.038269E-4,-0.0015361581,0.08,1.0,-0.08,15753,9950.70,0,0,165,0.77,-2.59,0.00,0.08,1.00,-0.08
-0.5097656,5.635554E-4,-4.9617514E-4,-0.002536158,0.07,1.0,-0.09,15769,9949.70,0,0,0,0.84,-2.66,-0.07,0.07,1.00,-0.09
0.49023438,-4.3644384E-4,-4.9617514E-4,-0.0015361581,0.07,1.0,-0.09,15784,9950.70,0,0,165,0.77,-2.66,0.00,0.07,1.00,-0.09
0.49023438,5.635554E-4,-4.9617514E-4,-0.002536158,0.07,1.0,-0.09,15791,9950.70,0,0,0,0.84,-2.66,-0.07,0.07,1.00,-0.09
-0.5097656,-4.3644384E-4,-4.9617514E-4,4.6384195E-4,0.07,1.0,-0.09,15806,9949.70,0,0,165,0.77,-2.66,0.14,0.07,1.00,-0.09
0.49023438,0.0015635565,5.038269E-4,-5.361581E-4,0.07,1.0,-0.09,15821,9950.70,0,0,0,0.91,-2.59,0.07,0.07,1.00,-0.09
0.19042969,0.0015635565,5.038269E-4,-0.0015361581,0.07,1.0,-0.09,15829,9950.40,0,0,165,0.91,-2.59,0.00,0.07,1.00,-0.09
0.49023438,-0.0024364442,-4.9617514E-4,-0.0015361581,0.08,1.0,-0.09,15844,9950.70,0,0,0,0.63,-2.66,0.00,0.08,1.00,-0.09
0.49023438,0.0015635565,-4.9617514E-4,-5.361581E-4,0.07,1.0,-0.09,15859,9950.70,0,0,165,0.91,-2.66,0.07,0.07,1.00,-0.09
0.49023438,-0.001436444,5.038269E-4,-0.002536158,0.07,1.0,-0.09,15866,9950.70,0,0,0,0.70,-2.59,-0.07,0.07,1.00,-0.09
-0.5097656,5.635554E-4,-4.9617514E-4,-5.361581E-4,0.07,1.0,-0.09,15881,9949.70,0,0,165,0.84,-2.66,0.07,0.07,1.00,-0.09
0.49023438,0.0015635565,0.0015038289,-0.0015361581,0.08,1.0,-0.09,15895,9950.70,0,0,0,0.91,-2.52,0.00,0.08,1.00,-0.09
-0.5097656,-4.3644384E-4,5.038269E-4,-0.002536158,0.08,1.0,-0.09,15903,9949.70,0,0,165,0.77,-2.59,-0.07,0.08,1.00,-0.09
-1.1103516,-0.001436444,-4.9617514E-4,-0.002536158,0.07,1.0,-0.09,15918,9949.10,0,0,0,0.70,-2.66,-0.07,0.07,1.00,-0.09
-0.5097656,5.635554E-4,5.038269E-4,-5.361581E-4,0.08,1.0,-0.09,15933,9949.70,0,0,165,0.84,-2.59,0.07,0.08,1.00,-0.09
-0.11035156,-4.3644384E-4,5.038269E-4,-0.002536158,0.08,1.0,-0.09,15941,9950.10,0,0,0,0.77,-2.59,-0.07,0.08,1.00,-0.09
-0.8095703,-4.3644384E-4,-4.9617514E-4,-0.002536158,0.07,1.0,-0.09,15956,9949.40,0,0,165,0.77,-2.66,-0.07,0.07,1.00,-0.09
-0.5097656,-4.3644384E-4,5.038269E-4,-0.0015361581,0.07,1.0,-0.09,15971,9949.70,0,0,0,0.77,-2.59,0.00,0.07,1.00,-0.09
0.49023438,-4.3644384E-4,-0.0014961734,-5.361581E-4,0.08,1.0,-0.09,15978,9950.70,0,0,165,0.77,-2.73,0.07,0.08,1.00,-0.09
-0.8095703,5.635554E-4,-4.9617514E-4,-5.361581E-4,0.07,1.0,-0.09,15993,9949.40,0,0,0,0.84,-2.66,0.07,0.07,1.00,-0.09
0.79003906,-4.3644384E-4,-0.0014961734,-0.0015361581,0.07,1.0,-0.09,16009,9951.00,0,0,165,0.77,-2.73,0.00,0.07,1.00,-0.09
0.49023438,-4.3644384E-4,-4.9617514E-4,-0.0015361581,0.07,1.0,-0.09,16016,9950.70,0,0,0,0.77,-2.66,0.00,0.07,1.00,-0.09
-0.5097656,0.0015635565,-4.9617514E-4,-0.25753617,0.07,1.0,-0.09,16032,9949.70,0,0,165,0.91,-2.66,-17.92,0.07,1.00,-0.09
0.49023438,-0.001436444,-4.9617514E-4,-0.002536158,0.08,1.0,-0.09,16046,9950.70,0,0,0,0.70,-2.66,-0.07,0.08,1.00,-0.09
-0.5097656,-4.3644384E-4,-4.9617514E-4,-0.0015361581,0.07,1.0,-0.09,16054,9949.70,0,0,165,0.77,-2.66,0.00,0.07,1.00,-0.09
-0.5097656,-0.0024364442,-4.9617514E-4,-0.0035361582,0.07,1.0,-0.09,16069,9949.70,0,0,0,0.63,-2.66,-0.14,0.07,1.00,-0.09
-0.5097656,0.0015635565,5.038269E-4,-0.0015361581,0.08,1.0,-0.09,16084,9949.70,0,0,165,0.91,-2.59,0.00,0.08,1.00,-0.09
-1.1103516,5.635554E-4,-4.9617514E-4,-5.361581E-4,0.08,1.0,-0.09,16092,9949.10,0,0,0,0.84,-2.66,0.07,0.08,1.00,-0.09
-0.5097656,-4.3644384E-4,0.0015038289,-0.002536158,0.07,1.0,-0.09,16107,9949.70,0,0,165,0.77,-2.52,-0.07,0.07,1.00,-0.09
0.49023438,-4.3644384E-4,5.038269E-4,-5.361581E-4,0.07,1.0,-0.09,16121,9950.70,0,0,0,0.77,-2.59,0.07,0.07,1.00,-0.09
-0.5097656,5.635554E-4,-4.9617514E-4,-0.0015361581,0.07,1.0,-0.09,16128,9949.70,0,0,165,0.84,-2.66,0.00,0.07,1.00,-0.09
-0.5097656,0.0015635565,-4.9617514E-4,-5.361581E-4,0.07,1.0,-0.09,16143,9949.70,0,0,0,0.91,-2.66,0.07,0.07,1.00,-0.09
-0.11035156,5.635554E-4,-4.9617514E-4,0.25346383,0.07,1.0,-0.09,16158,9950.10,0,0,165,0.84,-2.66,17.85,0.07,1.00,-0.09
-0.5097656,5.635554E-4,-0.0014961734,-0.004536158,0.07,1.0,-0.09,16166,9949.70,0,0,0,0.84,-2.73,-0.21,0.07,1.00,-0.09
-0.5097656,5.635554E-4,5.038269E-4,-5.361581E-4,0.08,1.0,-0.09,16182,9949.70,0,0,165,0.84,-2.59,0.07,0.08,1.00,-0.09
-0.5097656,-4.3644384E-4,5.038269E-4,-5.361581E-4,0.07,1.0,-0.09,16195,9949.70,0,0,0,0.77,-2.59,0.07,0.07,1.00,-0.09
0.49023438,-4.3644384E-4,5.038269E-4,-0.0015361581,0.07,1.0,-0.09,16204,9950.70,0,0,165,0.77,-2.59,0.00,0.07,1.00,-0.09
-0.5097656,-4.3644384E-4,5.038269E-4,-0.002536158,0.07,1.0,-0.09,16219,9949.70,0,0,0,0.77,-2.59,-0.07,0.07,1.00,-0.09
-0.5097656,5.635554E-4,-4.9617514E-4,-0.0015361581,0.07,1.0,-0.09,16234,9949.70,0,0,165,0.84,-2.66,0.00,0.07,1.00,-0.09
-0.5097656,5.635554E-4,5.038269E-4,-0.0015361581,0.07,1.0,-0.09,16243,9949.70,0,0,0,0.84,-2.59,0.00,0.07,1.00,-0.09
0.49023438,-4.3644384E-4,5.038269E-4,-0.0035361582,0.07,1.0,-0.09,16261,9950.70,0,0,165,0.77,-2.59,-0.14,0.07,1.00,-0.09
-0.5097656,5.635554E-4,5.038269E-4,-0.0015361581,0.07,1.0,-0.09,16271,9949.70,0,0,0,0.84,-2.59,0.00,0.07,1.00,-0.09
1.0898438,-4.3644384E-4,-4.9617514E-4,-0.0015361581,0.07,1.0,-0.09,16278,9951.30,0,0,165,0.77,-2.66,0.00,0.07,1.00,-0.09
-0.5097656,-0.001436444,-4.9617514E-4,-5.361581E-4,0.08,1.0,-0.09,16293,9949.70,0,0,0,0.70,-2.66,0.07,0.08,1.00,-0.09
-0.11035156,-4.3644384E-4,-0.0014961734,-0.002536158,0.08,1.0,-0.09,16309,9950.10,0,0,165,0.77,-2.73,-0.07,0.08,1.00,-0.09
0.49023438,0.0015635565,-4.9617514E-4,-5.361581E-4,0.07,1.0,-0.09,16316,9950.70,0,0,0,0.91,-2.66,0.07,0.07,1.00,-0.09
0.49023438,0.0015635565,5.038269E-4,-5.361581E-4,0.07,1.0,-0.09,16331,9950.70,0,0,165,0.91,-2.59,0.07,0.07,1.00,-0.09
0.49023438,-4.3644384E-4,-4.9617514E-4,-5.361581E-4,0.07,1.0,-0.09,16346,9950.70,0,0,0,0.77,-2.66,0.07,0.07,1.00,-0.09
-0.11035156,-4.3644384E-4,-0.0014961734,-5.361581E-4,0.07,1.0,-0.09,16353,9950.10,0,0,165,0.77,-2.73,0.07,0.07,1.00,-0.09
-0.5097656,-4.3644384E-4,0.0015038289,-0.0015361581,0.07,1.0,-0.09,16368,9949.70,0,0,0,0.77,-2.52,0.00,0.07,1.00,-0.09
0.79003906,-4.3644384E-4,-4.9617514E-4,-5.361581E-4,0.07,1.0,-0.09,16383,9951.00,0,0,165,0.77,-2.66,0.07,0.07,1.00,-0.09
-0.5097656,5.635554E-4,-4.9617514E-4,-0.002536158,0.07,1.0,-0.09,16392,9949.70,0,0,0,0.84,-2.66,-0.07,0.07,1.00,-0.09
-0.5097656,-4.3644384E-4,5.038269E-4,-5.361581E-4,0.07,1.0,-0.09,16414,9949.70,0,0,165,0.77,-2.59,0.07,0.07,1.00,-0.09
-0.5097656,5.635554E-4,5.038269E-4,4.6384195E-4,0.07,1.0,-0.09,16421,9949.70,0,0,0,0.84,-2.59,0.14,0.07,1.00,-0.09
-0.5097656,-4.3644384E-4,5.038269E-4,-0.0015361581,0.08,1.0,-0.09,16428,9949.70,0,0,165,0.77,-2.59,0.00,0.08,1.00,-0.09
-0.5097656,-4.3644384E-4,-4.9617514E-4,4.6384195E-4,0.08,1.0,-0.09,16443,9949.70,0,0,0,0.77,-2.66,0.14,0.08,1.00,-0.09
0.49023438,-0.001436444,-4.9617514E-4,-0.25753617,0.07,1.0,-0.09,16451,9950.70,0,0,165,0.70,-2.66,-17.92,0.07,1.00,-0.09
-0.5097656,0.0015635565,-0.0014961734,-0.0015361581,0.08,1.0,-0.09,16466,9949.70,0,0,0,0.91,-2.73,0.00,0.08,1.00,-0.09
-0.5097656,5.635554E-4,-0.0014961734,-0.0015361581,0.07,1.0,-0.09,16482,9949.70,0,0,165,0.84,-2.73,0.00,0.07,1.00,-0.09
-0.11035156,-4.3644384E-4,-0.0014961734,-5.361581E-4,0.07,1.0,-0.09,16488,9950.10,0,0,0,0.77,-2.73,0.07,0.07,1.00,-0.09
0.49023438,-4.3644384E-4,5.038269E-4,-5.361581E-4,0.08,1.0,-0.09,16503,9950.70,0,0,165,0.77,-2.59,0.07,0.08,1.00,-0.09
0.79003906,-0.001436444,5.038269E-4,-5.361581E-4,0.08,1.0,-0.09,16518,9951.00,0,0,0,0.70,-2.59,0.07,0.08,1.00,-0.09
0.49023438,5.635554E-4,-4.9617514E-4,4.6384195E-4,0.07,1.0,-0.09,16526,9950.70,0,0,165,0.84,-2.66,0.14,0.07,1.00,-0.09
-0.5097656,5.635554E-4,0.0015038289,-0.002536158,0.08,1.0,-0.09,16542,9949.70,0,0,0,0.84,-2.52,-0.07,0.08,1.00,-0.09
-0.5097656,-4.3644384E-4,5.038269E-4,-5.361581E-4,0.07,1.0,-0.09,16559,9949.70,0,0,165,0.77,-2.59,0.07,0.07,1.00,-0.09
0.79003906,0.0025635567,5.038269E-4,-0.0015361581,0.07,1.0,-0.09,16564,9951.00,0,0,0,0.98,-2.59,0.00,0.07,1.00,-0.09
-0.5097656,-0.001436444,-4.9617514E-4,-5.361581E-4,0.08,1.0,-0.09,16579,9949.70,0,0,165,0.70,-2.66,0.07,0.08,1.00,-0.09
-0.5097656,-4.3644384E-4,5.038269E-4,-0.0015361581,0.07,1.0,-0.09,16594,9949.70,0,0,0,0.77,-2.59,0.00,0.07,1.00,-0.09
-0.5097656,0.0015635565,5.038269E-4,-5.361581E-4,0.08,1.0,-0.09,16602,9949.70,0,0,165,0.91,-2.59,0.07,0.08,1.00,-0.09
0.49023438,0.0015635565,5.038269E-4,-0.0015361581,0.08,1.0,-0.09,16616,9950.70,0,0,0,0.91,-2.59,0.00,0.08,1.00,-0.09
0.79003906,5.635554E-4,5.038269E-4,-0.0015361581,0.07,1.0,-0.09,16631,9951.00,0,0,165,0.84,-2.59,0.00,0.07,1.00,-0.09
-0.5097656,-4.3644384E-4,5.038269E-4,-5.361581E-4,0.07,1.0,-0.09,16638,9949.70,0,0,0,0.77,-2.59,0.07,0.07,1.00,-0.09
-0.11035156,0.0015635565,5.038269E-4,-5.361581E-4,0.07,1.0,-0.09,16654,9950.10,0,0,165,0.91,-2.59,0.07,0.07,1.00,-0.09
-0.5097656,-0.001436444,-4.9617514E-4,0.0014638416,0.07,1.0,-0.09,16668,9949.70,0,0,0,0.70,-2.66,0.21,0.07,1.00,-0.09
0.79003906,-4.3644384E-4,-4.9617514E-4,4.6384195E-4,0.08,1.0,-0.09,16676,9951.00,0,0,165,0.77,-2.66,0.14,0.08,1.00,-0.09
-0.5097656,-4.3644384E-4,5.038269E-4,-5.361581E-4,0.07,1.0,-0.09,16692,9949.70,0,0,0,0.77,-2.59,0.07,0.07,1.00,-0.09
-0.5097656,5.635554E-4,-4.9617514E-4,-0.0015361581,0.08,1.0,-0.08,16707,9949.70,0,0,165,0.84,-2.66,0.00,0.08,1.00,-0.08
0.49023438,5.635554E-4,-0.0014961734,-0.0015361581,0.07,1.0,-0.09,16713,9950.70,0,0,0,0.84,-2.73,0.00,0.07,1.00,-0.09
-0.5097656,-0.001436444,5.038269E-4,-0.0015361581,0.07,1.0,-0.09,16728,9949.70,0,0,165,0.70,-2.59,0.00,0.07,1.00,-0.09
0.49023438,-4.3644384E-4,-4.9617514E-4,0.25346383,0.07,1.0,-0.09,16743,9950.70,0,0,0,0.77,-2.66,17.85,0.07,1.00,-0.09
0.49023438,-4.3644384E-4,-4.9617514E-4,-0.0015361581,0.08,1.0,-0.09,16751,9950.70,0,0,165,0.77,-2.66,0.00,0.08,1.00,-0.09
-1.4101562,5.635554E-4,-4.9617514E-4,-0.002536158,0.07,1.0,-0.09,16765,9948.80,0,0,0,0.84,-2.66,-0.07,0.07,1.00,-0.09
-0.5097656,-4.3644384E-4,-4.9617514E-4,-5.361581E-4,0.08,1.0,-0.09,16780,9949.70,0,0,165,0.77,-2.66,0.07,0.08,1.00,-0.09
0.79003906,5.635554E-4,-4.9617514E-4,-0.002536158,0.07,1.0,-0.09,16788,9951.00,0,0,0,0.84,-2.66,-0.07,0.07,1.00,-0.09
0.49023438,5.635554E-4,-0.0014961734,4.6384195E-4,0.08,1.0,-0.09,16804,9950.70,0,0,165,0.84,-2.73,0.14,0.08,1.00,-0.09
-0.5097656,-4.3644384E-4,5.038269E-4,-0.0015361581,0.07,1.0,-0.09,16819,9949.70,0,0,0,0.77,-2.59,0.00,0.07,1.00,-0.09
-0.5097656,0.0025635567,0.0015038289,-5.361581E-4,0.08,1.0,-0.09,16826,9949.70,0,0,165,0.98,-2.52,0.07,0.08,1.00,-0.09
-0.5097656,-4.3644384E-4,-4.9617514E-4,-5.361581E-4,0.07,1.0,-0.09,16841,9949.70,0,0,0,0.77,-2.66,0.07,0.07,1.00,-0.09
0.79003906,5.635554E-4,5.038269E-4,-0.0015361581,0.08,1.0,-0.09,16856,9951.00,0,0,165,0.84,-2.59,0.00,0.08,1.00,-0.09
0.49023438,5.635554E-4,5.038269E-4,-5.361581E-4,0.07,1.0,-0.09,16863,9950.70,0,0,0,0.84,-2.59,0.07,0.07,1.00,-0.09
-1.4101562,5.635554E-4,0.0015038289,-0.0015361581,0.07,1.0,-0.09,16879,9948.80,0,0,165,0.84,-2.52,0.00,0.07,1.00,-0.09
-0.5097656,-0.001436444,5.038269E-4,-0.0015361581,0.08,1.0,-0.09,16892,9949.70,0,0,0,0.70,-2.59,0.00,0.08,1.00,-0.09
0.49023438,-4.3644384E-4,-0.0014961734,4.6384195E-4,0.07,1.0,-0.09,16901,9950.70,0,0,165,0.77,-2.73,0.14,0.07,1.00,-0.09
-0.5097656,5.635554E-4,-4.9617514E-4,-0.0035361582,0.07,1.0,-0.09,16915,9949.70,0,0,0,0.84,-2.66,-0.14,0.07,1.00,-0.09
0.19042969,0.0015635565,5.038269E-4,-0.0015361581,0.07,1.0,-0.09,16930,9950.40,0,0,165,0.91,-2.59,0.00,0.07,1.00,-0.09
-0.11035156,5.635554E-4,-4.9617514E-4,-0.002536158,0.07,1.0,-0.09,16938,9950.10,0,0,0,0.84,-2.66,-0.07,0.07,1.00,-0.09
-0.5097656,-4.3644384E-4,5.038269E-4,-0.0015361581,0.07,1.0,-0.09,16954,9949.70,0,0,165,0.77,-2.59,0.00,0.07,1.00,-0.09
-0.5097656,-4.3644384E-4,-4.9617514E-4,-5.361581E-4,0.07,1.0,-0.09,16969,9949.70,0,0,0,0.77,-2.66,0.07,0.07,1.00,-0.09
-0.5097656,0.0015635565,-4.9617514E-4,-5.361581E-4,0.08,1.0,-0.09,16977,9949.70,0,0,165,0.91,-2.66,0.07,0.08,1.00,-0.09
-0.5097656,-4.3644384E-4,-4.9617514E-4,-0.0035361582,0.07,1.0,-0.09,16991,9949.70,0,0,0,0.77,-2.66,-0.14,0.07,1.00,-0.09
0.19042969,0.0015635565,0.0015038289,-5.361581E-4,0.07,1.0,-0.09,17006,9950.40,0,0,165,0.91,-2.52,0.07,0.07,1.00,-0.09
-0.5097656,5.635554E-4,5.038269E-4,4.6384195E-4,0.07,1.0,-0.09,17014,9949.70,0,0,0,0.84,-2.59,0.14,0.07,1.00,-0.09
0.49023438,5.635554E-4,-4.9617514E-4,-5.361581E-4,0.07,1.0,-0.09,17029,9950.70,0,0,165,0.84,-2.66,0.07,0.07,1.00,-0.09
0.49023438,-4.3644384E-4,-4.9617514E-4,-5.361581E-4,0.07,1.0,-0.09,17044,9950.70,0,0,0,0.77,-2.66,0.07,0.07,1.00,-0.09
-0.5097656,0.0015635565,-0.0014961734,-0.002536158,0.07,1.0,-0.09,17051,9949.70,0,0,165,0.91,-2.73,-0.07,0.07,1.00,-0.09
-0.5097656,-4.3644384E-4,5.038269E-4,-5.361581E-4,0.07,1.0,-0.09,17066,9949.70,0,0,0,0.77,-2.59,0.07,0.07,1.00,-0.09
-0.5097656,5.635554E-4,-0.0014961734,-5.361581E-4,0.07,1.0,-0.09,17081,9949.70,0,0,165,0.84,-2.73,0.07,0.07,1.00,-0.09
0.49023438,-4.3644384E-4,5.038269E-4,-0.0015361581,0.08,1.0,-0.09,17088,9950.70,0,0,0,0.77,-2.59,0.00,0.08,1.00,-0.09
-0.5097656,5.635554E-4,-0.0014961734,-0.0015361581,0.08,1.0,-0.09,17104,9949.70,0,0,165,0.84,-2.73,0.00,0.08,1.00,-0.09
0.79003906,-4.3644384E-4,-4.9617514E-4,-5.361581E-4,0.07,1.0,-0.09,17118,9951.00,0,0,0,0.77,-2.66,0.07,0.07,1.00,-0.09
0.49023438,-4.3644384E-4,5.038269E-4,-0.0015361581,0.07,1.0,-0.09,17126,9950.70,0,0,165,0.77,-2.59,0.00,0.07,1.00,-0.09
-0.5097656,5.635554E-4,5.038269E-4,-0.0015361581,0.07,1.0,-0.09,17143,9949.70,0,0,0,0.84,-2.59,0.00,0.07,1.00,-0.09
0.79003906,5.635554E-4,-4.9617514E-4,-0.002536158,0.07,1.0,-0.09,17156,9951.00,0,0,165,0.84,-2.66,-0.07,0.07,1.00,-0.09
-0.5097656,-4.3644384E-4,5.038269E-4,-5.361581E-4,0.07,1.0,-0.09,17164,9949.70,0,0,0,0.77,-2.59,0.07,0.07,1.00,-0.09
0.79003906,5.635554E-4,5.038269E-4,-0.0015361581,0.07,1.0,-0.09,17178,9951.00,0,0,165,0.84,-2.59,0.00,0.07,1.00,-0.09
-0.11035156,5.635554E-4,-4.9617514E-4,-0.0015361581,0.07,1.0,-0.09,17193,9950.10,0,0,0,0.84,-2.66,0.00,0.07,1.00,-0.09
0.49023438,5.635554E-4,5.038269E-4,-5.361581E-4,0.08,1.0,-0.09,17201,9950.70,0,0,165,0.84,-2.59,0.07,0.08,1.00,-0.09
-0.11035156,5.635554E-4,5.038269E-4,-0.0015361581,0.07,1.0,-0.09,17216,9950.10,0,0,0,0.84,-2.59,0.00,0.07,1.00,-0.09
-0.5097656,0.0015635565,-4.9617514E-4,-0.0015361581,0.07,1.0,-0.09,17231,9949.70,0,0,165,0.91,-2.66,0.00,0.07,1.00,-0.09
0.49023438,-4.3644384E-4,5.038269E-4,-5.361581E-4,0.07,1.0,-0.09,17238,9950.70,0,0,0,0.77,-2.59,0.07,0.07,1.00,-0.09
-0.5097656,5.635554E-4,5.038269E-4,-5.361581E-4,0.07,1.0,-0.09,17254,9949.70,0,0,165,0.84,-2.59,0.07,0.07,1.00,-0.09
-0.5097656,-4.3644384E-4,-0.0014961734,-0.002536158,0.07,1.0,-0.09,17268,9949.70,0,0,0,0.77,-2.73,-0.07,0.07,1.00,-0.09
0.79003906,-4.3644384E-4,0.0015038289,-5.361581E-4,0.08,1.0,-0.09,17275,9951.00,0,0,165,0.77,-2.52,0.07,0.08,1.00,-0.09
0.79003906,5.635554E-4,5.038269E-4,-5.361581E-4,0.07,1.0,-0.09,17290,9951.00,0,0,0,0.84,-2.59,0.07,0.07,1.00,-0.09
-0.11035156,0.0015635565,5.038269E-4,-5.361581E-4,0.08,1.0,-0.09,17305,9950.10,0,0,165,0.91,-2.59,0.07,0.08,1.00,-0.09
-0.11035156,0.0015635565,0.0015038289,-0.0015361581,0.08,1.0,-0.08,17313,9950.10,0,0,0,0.91,-2.52,0.00,0.08,1.00,-0.08
0.49023438,-4.3644384E-4,5.038269E-4,-0.0015361581,0.07,1.0,-0.09,17335,9950.70,0,0,165,0.77,-2.59,0.00,0.07,1.00,-0.09
-0.11035156,-4.3644384E-4,5.038269E-4,-0.0015361581,0.07,1.0,-0.09,17343,9950.10,0,0,0,0.77,-2.59,0.00,0.07,1.00,-0.09
-0.11035156,-4.3644384E-4,5.038269E-4,-0.0015361581,0.07,1.0,-0.09,17351,9950.10,0,0,165,0.77,-2.59,0.00,0.07,1.00,-0.09
-0.11035156,0.0015635565,5.038269E-4,-0.0015361581,0.08,1.0,-0.09,17366,9950.10,0,0,0,0.91,-2.59,0.00,0.08,1.00,-0.09
-0.5097656,-4.3644384E-4,5.038269E-4,-0.002536158,0.07,1.0,-0.09,17381,9949.70,0,0,165,0.77,-2.59,-0.07,0.07,1.00,-0.09
-0.5097656,5.635554E-4,5.038269E-4,-5.361581E-4,0.08,1.0,-0.09,17388,9949.70,0,0,0,0.84,-2.59,0.07,0.08,1.00,-0.09
0.49023438,5.635554E-4,-4.9617514E-4,-5.361581E-4,0.07,1.0,-0.09,17403,9950.70,0,0,165,0.84,-2.66,0.07,0.07,1.00,-0.09
0.79003906,-4.3644384E-4,5.038269E-4,-0.0015361581,0.07,1.0,-0.09,17418,9951.00,0,0,0,0.77,-2.59,0.00,0.07,1.00,-0.09
0.49023438,-4.3644384E-4,5.038269E-4,-0.0015361581,0.07,1.0,-0.09,17426,9950.70,0,0,165,0.77,-2.59,0.00,0.07,1.00,-0.09
0.49023438,5.635554E-4,-4.9617514E-4,-0.0015361581,0.07,1.0,-0.09,17443,9950.70,0,0,0,0.84,-2.66,0.00,0.07,1.00,-0.09
0.79003906,-0.001436444,-4.9617514E-4,-0.0015361581,0.07,1.0,-0.09,17456,9951.00,0,0,165,0.70,-2.66,0.00,0.07,1.00,-0.09
-0.5097656,-4.3644384E-4,-4.9617514E-4,4.6384195E-4,0.07,1.0,-0.09,17465,9949.70,0,0,0,0.77,-2.66,0.14,0.07,1.00,-0.09
0.79003906,-0.001436444,-4.9617514E-4,4.6384195E-4,0.08,1.0,-0.09,17478,9951.00,0,0,165,0.70,-2.66,0.14,0.08,1.00,-0.09
-0.5097656,-0.001436444,5.038269E-4,-5.361581E-4,0.08,1.0,-0.09,17493,9949.70,0,0,0,0.70,-2.59,0.07,0.08,1.00,-0.09
0.79003906,-0.001436444,-4.9617514E-4,-5.361581E-4,0.07,1.0,-0.09,17500,9951.00,0,0,165,0.70,-2.66,0.07,0.07,1.00,-0.09
0.49023438,5.635554E-4,5.038269E-4,4.6384195E-4,0.07,1.0,-0.09,17515,9950.70,0,0,0,0.84,-2.59,0.14,0.07,1.00,-0.09
0.49023438,-4.3644384E-4,5.038269E-4,-0.002536158,0.07,1.0,-0.09,17531,9950.70,0,0,165,0.77,-2.59,-0.07,0.07,1.00,-0.09
0.49023438,-4.3644384E-4,-4.9617514E-4,-5.361581E-4,0.07,1.0,-0.09,17539,9950.70,0,0,0,0.77,-2.66,0.07,0.07,1.00,-0.09
-0.20996094,5.635554E-4,0.0015038289,-0.0015361581,0.08,1.0,-0.09,17553,9950.00,0,0,165,0.84,-2.52,0.00,0.08,1.00,-0.09
0.79003906,-4.3644384E-4,5.038269E-4,-0.0015361581,0.07,1.0,-0.09,17568,9951.00,0,0,0,0.77,-2.59,0.00,0.07,1.00,-0.09
-0.5097656,-0.001436444,-4.9617514E-4,-0.0015361581,0.07,1.0,-0.09,17576,9949.70,0,0,165,0.70,-2.66,0.00,0.07,1.00,-0.09
-0.11035156,0.0015635565,-4.9617514E-4,-0.002536158,0.07,1.0,-0.09,17591,9950.10,0,0,0,0.91,-2.66,-0.07,0.07,1.00,-0.09
-0.11035156,-4.3644384E-4,0.0015038289,-0.0015361581,0.07,1.0,-0.09,17600,9950.10,0,0,165,0.77,-2.52,0.00,0.07,1.00,-0.09
-0.11035156,-4.3644384E-4,-4.9617514E-4,-0.0015361581,0.07,1.0,-0.09,17615,9950.10,0,0,0,0.77,-2.66,0.00,0.07,1.00,-0.09
0.79003906,5.635554E-4,0.0015038289,-5.361581E-4,0.07,1.0,-0.09,17628,9951.00,0,0,165,0.84,-2.52,0.07,0.07,1.00,-0.09
0.79003906,-4.3644384E-4,5.038269E-4,-0.002536158,0.08,1.0,-0.09,17636,9951.00,0,0,0,0.77,-2.59,-0.07,0.08,1.00,-0.09
-0.5097656,-0.001436444,5.038269E-4,-0.0015361581,0.08,1.0,-0.09,17653,9949.70,0,0,165,0.70,-2.59,0.00,0.08,1.00,-0.09
-0.11035156,5.635554E-4,5.038269E-4,-0.0015361581,0.08,1.0,-0.09,17667,9950.10,0,0,0,0.84,-2.59,0.00,0.08,1.00,-0.09
0.79003906,-4.3644384E-4,0.0015038289,-0.0015361581,0.07,1.0,-0.09,17674,9951.00,0,0,165,0.77,-2.52,0.00,0.07,1.00,-0.09
-0.11035156,-4.3644384E-4,0.0015038289,-0.0015361581,0.07,1.0,-0.09,17689,9950.10,0,0,0,0.77,-2.52,0.00,0.07,1.00,-0.09
-0.5097656,-4.3644384E-4,-4.9617514E-4,-0.0015361581,0.07,1.0,-0.09,17707,9949.70,0,0,165,0.77,-2.66,0.00,0.07,1.00,-0.09
-0.11035156,0.0015635565,-4.9617514E-4,4.6384195E-4,0.07,1.0,-0.09,17711,9950.10,0,0,0,0.91,-2.66,0.14,0.07,1.00,-0.09
0.49023438,5.635554E-4,5.038269E-4,-0.0015361581,0.08,1.0,-0.09,17730,9950.70,0,0,165,0.84,-2.59,0.00,0.08,1.00,-0.09
-0.5097656,5.635554E-4,5.038269E-4,-0.0015361581,0.07,1.0,-0.09,17742,9949.70,0,0,0,0.84,-2.59,0.00,0.07,1.00,-0.09
-0.11035156,-4.3644384E-4,-4.9617514E-4,-0.0015361581,0.07,1.0,-0.09,17748,9950.10,0,0,165,0.77,-2.66,0.00,0.07,1.00,-0.09
-0.5097656,5.635554E-4,5.038269E-4,-0.002536158,0.08,1.0,-0.09,17764,9949.70,0,0,0,0.84,-2.59,-0.07,0.08,1.00,-0.09
-0.20996094,0.0015635565,5.038269E-4,-0.0015361581,0.08,1.0,-0.09,17778,9950.00,0,0,165,0.91,-2.59,0.00,0.08,1.00,-0.09
0.49023438,0.0015635565,5.038269E-4,4.6384195E-4,0.07,1.0,-0.09,17786,9950.70,0,0,0,0.91,-2.59,0.14,0.07,1.00,-0.09
0.79003906,-4.3644384E-4,-4.9617514E-4,-5.361581E-4,0.07,1.0,-0.09,17800,9951.00,0,0,165,0.77,-2.66,0.07,0.07,1.00,-0.09
0.49023438,-4.3644384E-4,5.038269E-4,-0.0035361582,0.07,1.0,-0.09,17816,9950.70,0,0,0,0.77,-2.59,-0.14,0.07,1.00,-0.09
-0.11035156,5.635554E-4,-4.9617514E-4,-0.0015361581,0.08,1.0,-0.09,17824,9950.10,0,0,165,0.84,-2.66,0.00,0.08,1.00,-0.09
-0.5097656,5.635554E-4,0.0015038289,-0.002536158,0.07,1.0,-0.09,17839,9949.70,0,0,0,0.84,-2.52,-0.07,0.07,1.00,-0.09
-0.5097656,-4.3644384E-4,-4.9617514E-4,-0.002536158,0.08,1.0,-0.09,17853,9949.70,0,0,165,0.77,-2.66,-0.07,0.08,1.00,-0.09
-0.11035156,-0.001436444,5.038269E-4,-5.361581E-4,0.08,1.0,-0.09,17861,9950.10,0,0,0,0.70,-2.59,0.07,0.08,1.00,-0.09
-0.5097656,5.635554E-4,-4.9617514E-4,-5.361581E-4,0.08,1.0,-0.09,17876,9949.70,0,0,165,0.84,-2.66,0.07,0.08,1.00,-0.09
0.79003906,0.0015635565,0.0015038289,-5.361581E-4,0.07,1.0,-0.09,17892,9951.00,0,0,0,0.91,-2.52,0.07,0.07,1.00,-0.09
-0.11035156,0.0015635565,5.038269E-4,-5.361581E-4,0.07,1.0,-0.09,17898,9950.10,0,0,165,0.91,-2.59,0.07,0.07,1.00,-0.09
1.7900391,-4.3644384E-4,0.0015038289,-0.0015361581,0.07,1.0,-0.08,17913,9952.00,0,0,0,0.77,-2.52,0.00,0.07,1.00,-0.08
0.79003906,5.635554E-4,-0.0014961734,-5.361581E-4,0.07,1.0,-0.08,17928,9951.00,0,0,165,0.84,-2.73,0.07,0.07,1.00,-0.08
0.49023438,-0.001436444,5.038269E-4,-5.361581E-4,0.07,1.0,-0.09,17936,9950.70,0,0,0,0.70,-2.59,0.07,0.07,1.00,-0.09
-0.5097656,5.635554E-4,5.038269E-4,4.6384195E-4,0.07,1.0,-0.09,17951,9949.70,0,0,165,0.84,-2.59,0.14,0.07,1.00,-0.09
-0.5097656,5.635554E-4,-4.9617514E-4,-5.361581E-4,0.07,1.0,-0.09,17966,9949.70,0,0,0,0.84,-2.66,0.07,0.07,1.00,-0.09
-0.5097656,-4.3644384E-4,-4.9617514E-4,-0.0015361581,0.07,1.0,-0.09,17976,9949.70,0,0,165,0.77,-2.66,0.00,0.07,1.00,-0.09
-1.4101562,5.635554E-4,-4.9617514E-4,4.6384195E-4,0.07,1.0,-0.09,17991,9948.80,0,0,0,0.84,-2.66,0.14,0.07,1.00,-0.09
0.49023438,-0.001436444,-4.9617514E-4,4.6384195E-4,0.08,1.0,-0.09,18011,9950.70,0,0,165,0.70,-2.66,0.14,0.08,1.00,-0.09
0.79003906,-4.3644384E-4,-4.9617514E-4,-0.0015361581,0.07,1.0,-0.09,18012,9951.00,0,0,0,0.77,-2.66,0.00,0.07,1.00,-0.09
-0.11035156,5.635554E-4,5.038269E-4,-0.002536158,0.07,1.0,-0.09,18026,9950.10,0,0,165,0.84,-2.59,-0.07,0.07,1.00,-0.09
0.49023438,-4.3644384E-4,-4.9617514E-4,4.6384195E-4,0.07,1.0,-0.09,18042,9950.70,0,0,0,0.77,-2.66,0.14,0.07,1.00,-0.09
-0.5097656,5.635554E-4,-4.9617514E-4,-0.002536158,0.07,1.0,-0.09,18049,9949.70,0,0,165,0.84,-2.66,-0.07,0.07,1.00,-0.09
-0.5097656,-4.3644384E-4,-4.9617514E-4,-0.0035361582,0.07,1.0,-0.09,18064,9949.70,0,0,0,0.77,-2.66,-0.14,0.07,1.00,-0.09
-0.5097656,-4.3644384E-4,-4.9617514E-4,-0.004536158,0.08,1.0,-0.09,18078,9949.70,0,0,165,0.77,-2.66,-0.21,0.08,1.00,-0.09
-0.11035156,5.635554E-4,0.0015038289,-0.0015361581,0.07,1.0,-0.09,18086,9950.10,0,0,0,0.84,-2.52,0.00,0.07,1.00,-0.09
0.49023438,-0.001436444,-4.9617514E-4,-0.0015361581,0.07,1.0,-0.09,18100,9950.70,0,0,165,0.70,-2.66,0.00,0.07,1.00,-0.09
-0.5097656,-4.3644384E-4,-4.9617514E-4,-0.002536158,0.07,1.0,-0.09,18116,9949.70,0,0,0,0.77,-2.66,-0.07,0.07,1.00,-0.09
-1.4101562,-0.001436444,5.038269E-4,-0.0015361581,0.07,1.0,-0.09,18125,9948.80,0,0,165,0.70,-2.59,0.00,0.07,1.00,-0.09
0.79003906,5.635554E-4,-4.9617514E-4,4.6384195E-4,0.07,1.0,-0.09,18138,9951.00,0,0,0,0.84,-2.66,0.14,0.07,1.00,-0.09
-0.5097656,-0.0024364442,-4.9617514E-4,-0.0015361581,0.08,1.0,-0.09,18153,9949.70,0,0,165,0.63,-2.66,0.00,0.08,1.00,-0.09
-1.1103516,-0.001436444,-4.9617514E-4,-5.361581E-4,0.07,1.0,-0.09,18161,9949.10,0,0,0,0.70,-2.66,0.07,0.07,1.00,-0.09
-0.11035156,0.0015635565,0.0015038289,4.6384195E-4,0.07,1.0,-0.09,18176,9950.10,0,0,165,0.91,-2.52,0.14,0.07,1.00,-0.09
0.79003906,-0.001436444,5.038269E-4,-5.361581E-4,0.07,1.0,-0.09,18192,9951.00,0,0,0,0.70,-2.59,0.07,0.07,1.00,-0.09
0.79003906,0.0015635565,5.038269E-4,4.6384195E-4,0.08,1.0,-0.09,18199,9951.00,0,0,165,0.91,-2.59,0.14,0.08,1.00,-0.09
0.79003906,-4.3644384E-4,5.038269E-4,-0.0015361581,0.08,1.0,-0.09,18214,9951.00,0,0,0,0.77,-2.59,0.00,0.08,1.00,-0.09
-0.5097656,5.635554E-4,-4.9617514E-4,-0.0015361581,0.07,1.0,-0.09,18228,9949.70,0,0,165,0.84,-2.66,0.00,0.07,1.00,-0.09
-0.11035156,5.635554E-4,-0.0014961734,-0.002536158,0.07,1.0,-0.09,18236,9950.10,0,0,0,0.84,-2.73,-0.07,0.07,1.00,-0.09
-0.5097656,-0.001436444,5.038269E-4,-5.361581E-4,0.07,1.0,-0.09,18251,9949.70,0,0,165,0.70,-2.59,0.07,0.07,1.00,-0.09
-0.5097656,-4.3644384E-4,-4.9617514E-4,-5.361581E-4,0.07,1.0,-0.09,18267,9949.70,0,0,0,0.77,-2.66,0.07,0.07,1.00,-0.09
0.49023438,5.635554E-4,5.038269E-4,-5.361581E-4,0.07,1.0,-0.09,18275,9950.70,0,0,165,0.84,-2.59,0.07,0.07,1.00,-0.09
-0.5097656,-0.001436444,-4.9617514E-4,-5.361581E-4,0.08,1.0,-0.09,18288,9949.70,0,0,0,0.70,-2.66,0.07,0.08,1.00,-0.09
1.7900391,5.635554E-4,-4.9617514E-4,-0.0015361581,0.07,1.0,-0.08,18303,9952.00,0,0,165,0.84,-2.66,0.00,0.07,1.00,-0.08
-0.11035156,5.635554E-4,5.038269E-4,-5.361581E-4,0.07,1.0,-0.09,18310,9950.10,0,0,0,0.84,-2.59,0.07,0.07,1.00,-0.09
-0.5097656,5.635554E-4,-4.9617514E-4,4.6384195E-4,0.07,1.0,-0.09,18325,9949.70,0,0,165,0.84,-2.66,0.14,0.07,1.00,-0.09
-0.5097656,0.0025635567,0.0015038289,-5.361581E-4,0.08,1.0,-0.09,18340,9949.70,0,0,0,0.98,-2.52,0.07,0.08,1.00,-0.09
-0.11035156,5.635554E-4,5.038269E-4,-0.0015361581,0.07,1.0,-0.09,18348,9950.10,0,0,165,0.84,-2.59,0.00,0.07,1.00,-0.09
-0.11035156,-4.3644384E-4,5.038269E-4,-0.0015361581,0.07,1.0,-0.09,18363,9950.10,0,0,0,0.77,-2.59,0.00,0.07,1.00,-0.09
-1.4101562,5.635554E-4,-4.9617514E-4,-5.361581E-4,0.08,1.0,-0.09,18378,9948.80,0,0,165,0.84,-2.66,0.07,0.08,1.00,-0.09
-0.11035156,5.635554E-4,5.038269E-4,-0.0015361581,0.07,1.0,-0.09,18386,9950.10,0,0,0,0.84,-2.59,0.00,0.07,1.00,-0.09
-0.11035156,-0.001436444,5.038269E-4,-5.361581E-4,0.08,1.0,-0.09,18401,9950.10,0,0,165,0.70,-2.59,0.07,0.08,1.00,-0.09
-0.5097656,5.635554E-4,-0.0014961734,-0.0015361581,0.08,1.0,-0.09,18415,9949.70,0,0,0,0.84,-2.73,0.00,0.08,1.00,-0.09
-0.5097656,-4.3644384E-4,-4.9617514E-4,-5.361581E-4,0.07,1.0,-0.09,18423,9949.70,0,0,165,0.77,-2.66,0.07,0.07,1.00,-0.09
0.49023438,-4.3644384E-4,-0.0014961734,-0.0015361581,0.07,1.0,-0.09,18439,9950.70,0,0,0,0.77,-2.73,0.00,0.07,1.00,-0.09
0.79003906,-4.3644384E-4,0.0015038289,-0.0015361581,0.08,1.0,-0.09,18446,9951.00,0,0,165,0.77,-2.52,0.00,0.08,1.00,-0.09
0.79003906,5.635554E-4,0.0015038289,-0.002536158,0.07,1.0,-0.09,18461,9951.00,0,0,0,0.84,-2.52,-0.07,0.07,1.00,-0.09
-0.11035156,0.0015635565,-4.9617514E-4,-0.002536158,0.07,1.0,-0.09,18476,9950.10,0,0,165,0.91,-2.66,-0.07,0.07,1.00,-0.09
0.49023438,5.635554E-4,-0.0014961734,-0.0035361582,0.08,1.0,-0.09,18489,9950.70,0,0,0,0.84,-2.73,-0.14,0.08,1.00,-0.09
0.49023438,5.635554E-4,-4.9617514E-4,-0.0015361581,0.08,1.0,-0.09,18499,9950.70,0,0,165,0.84,-2.66,0.00,0.08,1.00,-0.09
0.79003906,0.0015635565,5.038269E-4,-0.002536158,0.07,1.0,-0.08,18513,9951.00,0,0,0,0.91,-2.59,-0.07,0.07,1.00,-0.08
0.79003906,5.635554E-4,-4.9617514E-4,-0.002536158,0.08,1.0,-0.09,18521,9951.00,0,0,165,0.84,-2.66,-0.07,0.08,1.00,-0.09
-0.11035156,-0.001436444,5.038269E-4,-0.002536158,0.07,1.0,-0.09,18536,9950.10,0,0,0,0.70,-2.59,-0.07,0.07,1.00,-0.09
0.79003906,5.635554E-4,-4.9617514E-4,-0.002536158,0.07,1.0,-0.09,18551,9951.00,0,0,165,0.84,-2.66,-0.07,0.07,1.00,-0.09
-0.5097656,-0.001436444,-4.9617514E-4,-0.002536158,0.07,1.0,-0.09,18559,9949.70,0,0,0,0.70,-2.66,-0.07,0.07,1.00,-0.09
-0.11035156,5.635554E-4,5.038269E-4,-0.002536158,0.08,1.0,-0.08,18576,9950.10,0,0,165,0.84,-2.59,-0.07,0.08,1.00,-0.08
0.49023438,-4.3644384E-4,-4.9617514E-4,0.0014638416,0.07,1.0,-0.09,18589,9950.70,0,0,0,0.77,-2.66,0.21,0.07,1.00,-0.09
-0.5097656,0.0015635565,-4.9617514E-4,-0.002536158,0.07,1.0,-0.09,18596,9949.70,0,0,165,0.91,-2.66,-0.07,0.07,1.00,-0.09
-1.1103516,5.635554E-4,5.038269E-4,-5.361581E-4,0.07,1.0,-0.09,18613,9949.10,0,0,0,0.84,-2.59,0.07,0.07,1.00,-0.09
-0.11035156,-0.001436444,-4.9617514E-4,4.6384195E-4,0.07,1.0,-0.09,18627,9950.10,0,0,165,0.70,-2.66,0.14,0.07,1.00,-0.09
-0.5097656,-4.3644384E-4,5.038269E-4,-5.361581E-4,0.08,1.0,-0.09,18634,9949.70,0,0,0,0.77,-2.59,0.07,0.08,1.00,-0.09
0.49023438,5.635554E-4,5.038269E-4,-5.361581E-4,0.08,1.0,-0.09,18648,9950.70,0,0,165,0.84,-2.59,0.07,0.08,1.00,-0.09
-0.11035156,-4.3644384E-4,0.0015038289,-0.0015361581,0.08,1.0,-0.09,18664,9950.10,0,0,0,0.77,-2.52,0.00,0.08,1.00,-0.09
0.79003906,0.0015635565,-0.0014961734,-5.361581E-4,0.08,1.0,-0.09,18671,9951.00,0,0,165,0.91,-2.73,0.07,0.08,1.00,-0.09
-1.4101562,-4.3644384E-4,-4.9617514E-4,-5.361581E-4,0.07,1.0,-0.09,18685,9948.80,0,0,0,0.77,-2.66,0.07,0.07,1.00,-0.09
-0.11035156,5.635554E-4,0.0015038289,-0.0035361582,0.07,1.0,-0.09,18700,9950.10,0,0,165,0.84,-2.52,-0.14,0.07,1.00,-0.09
0.79003906,-4.3644384E-4,0.0015038289,-0.002536158,0.07,1.0,-0.09,18708,9951.00,0,0,0,0.77,-2.52,-0.07,0.07,1.00,-0.09
0.79003906,-4.3644384E-4,5.038269E-4,-5.361581E-4,0.07,1.0,-0.09,18724,9951.00,0,0,165,0.77,-2.59,0.07,0.07,1.00,-0.09
-1.1103516,-4.3644384E-4,5.038269E-4,-0.002536158,0.08,1.0,-0.09,18739,9949.10,0,0,0,0.77,-2.59,-0.07,0.08,1.00,-0.09
-0.11035156,0.0025635567,5.038269E-4,-0.0015361581,0.07,1.0,-0.09,18746,9950.10,0,0,165,0.98,-2.59,0.00,0.07,1.00,-0.09
-0.5097656,5.635554E-4,5.038269E-4,4.6384195E-4,0.07,1.0,-0.09,18761,9949.70,0,0,0,0.84,-2.59,0.14,0.07,1.00,-0.09
-1.1103516,-4.3644384E-4,-4.9617514E-4,-5.361581E-4,0.07,1.0,-0.09,18776,9949.10,0,0,165,0.77,-2.66,0.07,0.07,1.00,-0.09
-0.5097656,5.635554E-4,-4.9617514E-4,-0.0015361581,0.07,1.0,-0.09,18783,9949.70,0,0,0,0.84,-2.66,0.00,0.07,1.00,-0.09
-0.11035156,-4.3644384E-4,-4.9617514E-4,-5.361581E-4,0.07,1.0,-0.09,18798,9950.10,0,0,165,0.77,-2.66,0.07,0.07,1.00,-0.09
-1.1103516,0.0015635565,-0.0024961717,-0.0015361581,0.07,1.0,-0.09,18813,9949.10,0,0,0,0.91,-2.80,0.00,0.07,1.00,-0.09
-0.5097656,-0.001436444,-4.9617514E-4,-0.002536158,0.07,1.0,-0.09,18821,9949.70,0,0,165,0.70,-2.66,-0.07,0.07,1.00,-0.09
-0.5097656,-4.3644384E-4,-4.9617514E-4,4.6384195E-4,0.07,1.0,-0.09,18836,9949.70,0,0,0,0.77,-2.66,0.14,0.07,1.00,-0.09
-0.5097656,-0.001436444,-4.9617514E-4,-5.361581E-4,0.07,1.0,-0.09,18843,9949.70,0,0,165,0.70,-2.66,0.07,0.07,1.00,-0.09
-0.5097656,-4.3644384E-4,-4.9617514E-4,-5.361581E-4,0.08,1.0,-0.09,18858,9949.70,0,0,0,0.77,-2.66,0.07,0.08,1.00,-0.09
-0.5097656,0.0015635565,5.038269E-4,-0.0015361581,0.07,1.0,-0.09,18874,9949.70,0,0,165,0.91,-2.59,0.00,0.07,1.00,-0.09
0.79003906,0.0015635565,0.0015038289,-0.0015361581,0.07,1.0,-0.09,18880,9951.00,0,0,0,0.91,-2.52,0.00,0.07,1.00,-0.09
-0.11035156,5.635554E-4,5.038269E-4,-0.002536158,0.07,1.0,-0.09,18895,9950.10,0,0,165,0.84,-2.59,-0.07,0.07,1.00,-0.09
0.79003906,-4.3644384E-4,-0.0014961734,-0.0015361581,0.07,1.0,-0.09,18911,9951.00,0,0,0,0.77,-2.73,0.00,0.07,1.00,-0.09
-0.11035156,-0.001436444,-0.0014961734,-0.0015361581,0.08,1.0,-0.09,18919,9950.10,0,0,165,0.70,-2.73,0.00,0.08,1.00,-0.09
-0.5097656,-0.0024364442,5.038269E-4,-0.0015361581,0.07,1.0,-0.09,18933,9949.70,0,0,0,0.63,-2.59,0.00,0.07,1.00,-0.09
-0.5097656,5.635554E-4,-4.9617514E-4,-0.0035361582,0.07,1.0,-0.09,18941,9949.70,0,0,165,0.84,-2.66,-0.14,0.07,1.00,-0.09
-0.5097656,5.635554E-4,5.038269E-4,-0.0015361581,0.07,1.0,-0.09,18959,9949.70,0,0,0,0.84,-2.59,0.00,0.07,1.00,-0.09
0.79003906,-0.001436444,5.038269E-4,-5.361581E-4,0.07,1.0,-0.09,18971,9951.00,0,0,165,0.70,-2.59,0.07,0.07,1.00,-0.09
-0.5097656,-4.3644384E-4,5.038269E-4,-5.361581E-4,0.08,1.0,-0.09,18978,9949.70,0,0,0,0.77,-2.59,0.07,0.08,1.00,-0.09
-1.4101562,0.0015635565,5.038269E-4,-0.0015361581,0.07,1.0,-0.09,18993,9948.80,0,0,165,0.91,-2.59,0.00,0.07,1.00,-0.09
-0.5097656,5.635554E-4,-4.9617514E-4,-0.002536158,0.07,1.0,-0.09,19008,9949.70,0,0,0,0.84,-2.66,-0.07,0.07,1.00,-0.09
-0.11035156,5.635554E-4,5.038269E-4,-0.002536158,0.07,1.0,-0.09,19016,9950.10,0,0,165,0.84,-2.59,-0.07,0.07,1.00,-0.09
-0.11035156,0.0015635565,-4.9617514E-4,-0.0015361581,0.07,1.0,-0.09,19031,9950.10,0,0,0,0.91,-2.66,0.00,0.07,1.00,-0.09
0.79003906,5.635554E-4,5.038269E-4,-0.0015361581,0.08,1.0,-0.09,19046,9951.00,0,0,165,0.84,-2.59,0.00,0.08,1.00,-0.09
-0.11035156,0.0015635565,5.038269E-4,-0.0015361581,0.07,1.0,-0.09,19053,9950.10,0,0,0,0.91,-2.59,0.00,0.07,1.00,-0.09
0.79003906,-0.001436444,-4.9617514E-4,-5.361581E-4,0.07,1.0,-0.09,19069,9951.00,0,0,165,0.70,-2.66,0.07,0.07,1.00,-0.09
-0.5097656,5.635554E-4,-4.9617514E-4,-0.002536158,0.07,1.0,-0.09,19083,9949.70,0,0,0,0.84,-2.66,-0.07,0.07,1.00,-0.09
-0.11035156,5.635554E-4,-4.9617514E-4,-0.0015361581,0.08,1.0,-0.09,19091,9950.10,0,0,165,0.84,-2.66,0.00,0.08,1.00,-0.09
-0.11035156,-4.3644384E-4,-0.0014961734,-0.002536158,0.07,1.0,-0.09,19108,9950.10,0,0,0,0.77,-2.73,-0.07,0.07,1.00,-0.09
0.79003906,-0.001436444,5.038269E-4,-0.0015361581,0.08,1.0,-0.09,19123,9951.00,0,0,165,0.70,-2.59,0.00,0.08,1.00,-0.09
-0.11035156,5.635554E-4,5.038269E-4,-5.361581E-4,0.07,1.0,-0.09,19128,9950.10,0,0,0,0.84,-2.59,0.07,0.07,1.00,-0.09
0.79003906,-0.001436444,-4.9617514E-4,-0.002536158,0.07,1.0,-0.09,19143,9951.00,0,0,165,0.70,-2.66,-0.07,0.07,1.00,-0.09
0.79003906,-0.001436444,5.038269E-4,-0.0015361581,0.07,1.0,-0.09,19159,9951.00,0,0,0,0.70,-2.59,0.00,0.07,1.00,-0.09
1.0898438,-4.3644384E-4,-4.9617514E-4,-5.361581E-4,0.07,1.0,-0.09,19165,9951.30,0,0,165,0.77,-2.66,0.07,0.07,1.00,-0.09
-0.11035156,-4.3644384E-4,5.038269E-4,-5.361581E-4,0.07,1.0,-0.09,19181,9950.10,0,0,0,0.77,-2.59,0.07,0.07,1.00,-0.09
0.79003906,-4.3644384E-4,-4.9617514E-4,-0.0015361581,0.07,1.0,-0.09,19196,9951.00,0,0,165,0.77,-2.66,0.00,0.07,1.00,-0.09
-0.5097656,5.635554E-4,-4.9617514E-4,-0.002536158,0.07,1.0,-0.09,19203,9949.70,0,0,0,0.84,-2.66,-0.07,0.07,1.00,-0.09
0.79003906,5.635554E-4,0.0015038289,-5.361581E-4,0.07,1.0,-0.09,19219,9951.00,0,0,165,0.84,-2.52,0.07,0.07,1.00,-0.09
-0.11035156,-4.3644384E-4,5.038269E-4,-5.361581E-4,0.07,1.0,-0.09,19233,9950.10,0,0,0,0.77,-2.59,0.07,0.07,1.00,-0.09
0.79003906,5.635554E-4,0.0015038289,-0.002536158,0.07,1.0,-0.09,19241,9951.00,0,0,165,0.84,-2.52,-0.07,0.07,1.00,-0.09
-0.11035156,-4.3644384E-4,-0.0014961734,-0.0015361581,0.07,1.0,-0.09,19264,9950.10,0,0,0,0.77,-2.73,0.00,0.07,1.00,-0.09
-1.1103516,-0.001436444,5.038269E-4,-0.002536158,0.07,1.0,-0.09,19271,9949.10,0,0,165,0.70,-2.59,-0.07,0.07,1.00,-0.09
-0.11035156,-4.3644384E-4,-4.9617514E-4,-0.0015361581,0.08,1.0,-0.09,19279,9950.10,0,0,0,0.77,-2.66,0.00,0.08,1.00,-0.09
-2.1103516,5.635554E-4,-4.9617514E-4,-0.0015361581,0.07,1.0,-0.09,19294,9948.10,0,0,165,0.84,-2.66,0.00,0.07,1.00,-0.09
-0.11035156,0.0015635565,-4.9617514E-4,-0.002536158,0.07,1.0,-0.09,19309,9950.10,0,0,0,0.91,-2.66,-0.07,0.07,1.00,-0.09
-0.11035156,5.635554E-4,0.0015038289,-0.0015361581,0.07,1.0,-0.09,19316,9950.10,0,0,165,0.84,-2.52,0.00,0.07,1.00,-0.09
-0.11035156,-0.001436444,5.038269E-4,4.6384195E-4,0.07,1.0,-0.09,19331,9950.10,0,0,0,0.70,-2.59,0.14,0.07,1.00,-0.09
0.79003906,-4.3644384E-4,-0.0014961734,-5.361581E-4,0.07,1.0,-0.09,19346,9951.00,0,0,165,0.77,-2.73,0.07,0.07,1.00,-0.09
-0.11035156,-0.001436444,-4.9617514E-4,-5.361581E-4,0.07,1.0,-0.09,19353,9950.10,0,0,0,0.70,-2.66,0.07,0.07,1.00,-0.09
-0.11035156,5.635554E-4,-4.9617514E-4,-0.0015361581,0.07,1.0,-0.08,19368,9950.10,0,0,165,0.84,-2.66,0.00,0.07,1.00,-0.08
-0.5097656,0.0015635565,5.038269E-4,-0.002536158,0.07,1.0,-0.09,19384,9949.70,0,0,0,0.91,-2.59,-0.07,0.07,1.00,-0.09
0.49023438,-4.3644384E-4,-4.9617514E-4,-0.002536158,0.07,1.0,-0.09,19392,9950.70,0,0,165,0.77,-2.66,-0.07,0.07,1.00,-0.09
-0.11035156,0.0025635567,-4.9617514E-4,-5.361581E-4,0.08,1.0,-0.09,19406,9950.10,0,0,0,0.98,-2.66,0.07,0.08,1.00,-0.09
0.79003906,-4.3644384E-4,5.038269E-4,-0.0015361581,0.07,1.0,-0.09,19421,9951.00,0,0,165,0.77,-2.59,0.00,0.07,1.00,-0.09
-0.11035156,0.0015635565,5.038269E-4,-0.0015361581,0.07,1.0,-0.09,19429,9950.10,0,0,0,0.91,-2.59,0.00,0.07,1.00,-0.09
0.79003906,5.635554E-4,-4.9617514E-4,-0.0015361581,0.07,1.0,-0.09,19443,9951.00,0,0,165,0.84,-2.66,0.00,0.07,1.00,-0.09
0.79003906,0.0015635565,-0.0014961734,-0.0015361581,0.07,1.0,-0.09,19459,9951.00,0,0,0,0.91,-2.73,0.00,0.07,1.00,-0.09
-0.11035156,-4.3644384E-4,5.038269E-4,-0.002536158,0.07,1.0,-0.09,19466,9950.10,0,0,165,0.77,-2.59,-0.07,0.07,1.00,-0.09
-0.11035156,5.635554E-4,-4.9617514E-4,-0.0015361581,0.08,1.0,-0.09,19480,9950.10,0,0,0,0.84,-2.66,0.00,0.08,1.00,-0.09
-0.11035156,5.635554E-4,5.038269E-4,4.6384195E-4,0.07,1.0,-0.09,19496,9950.10,0,0,165,0.84,-2.59,0.14,0.07,1.00,-0.09
-0.11035156,5.635554E-4,5.038269E-4,-0.002536158,0.07,1.0,-0.09,19503,9950.10,0,0,0,0.84,-2.59,-0.07,0.07,1.00,-0.09
-0.11035156,-0.001436444,-4.9617514E-4,-5.361581E-4,0.07,1.0,-0.09,19518,9950.10,0,0,165,0.70,-2.66,0.07,0.07,1.00,-0.09
-0.5097656,-4.3644384E-4,-4.9617514E-4,-0.0035361582,0.07,1.0,-0.09,19534,9949.70,0,0,0,0.77,-2.66,-0.14,0.07,1.00,-0.09
-0.11035156,-4.3644384E-4,5.038269E-4,-5.361581E-4,0.07,1.0,-0.09,19541,9950.10,0,0,165,0.77,-2.59,0.07,0.07,1.00,-0.09
-1.4101562,-4.3644384E-4,-0.0024961717,-0.002536158,0.08,1.0,-0.09,19559,9948.80,0,0,0,0.77,-2.80,-0.07,0.08,1.00,-0.09
-0.11035156,0.0015635565,-4.9617514E-4,-5.361581E-4,0.07,1.0,-0.09,19571,9950.10,0,0,165,0.91,-2.66,0.07,0.07,1.00,-0.09
-0.11035156,5.635554E-4,-4.9617514E-4,-0.0015361581,0.07,1.0,-0.09,19578,9950.10,0,0,0,0.84,-2.66,0.00,0.07,1.00,-0.09
-0.5097656,5.635554E-4,-4.9617514E-4,-0.0015361581,0.07,1.0,-0.09,19594,9949.70,0,0,165,0.84,-2.66,0.00,0.07,1.00,-0.09
-0.11035156,5.635554E-4,5.038269E-4,-0.004536158,0.07,1.0,-0.09,19608,9950.10,0,0,0,0.84,-2.59,-0.21,0.07,1.00,-0.09
0.19042969,-4.3644384E-4,5.038269E-4,-0.0015361581,0.08,1.0,-0.09,19616,9950.40,0,0,165,0.77,-2.59,0.00,0.08,1.00,-0.09
-0.11035156,5.635554E-4,-4.9617514E-4,-0.0015361581,0.07,1.0,-0.09,19631,9950.10,0,0,0,0.84,-2.66,0.00,0.07,1.00,-0.09
0.79003906,5.635554E-4,-4.9617514E-4,-5.361581E-4,0.07,1.0,-0.09,19646,9951.00,0,0,165,0.84,-2.66,0.07,0.07,1.00,-0.09
-1.4101562,-4.3644384E-4,5.038269E-4,4.6384195E-4,0.07,1.0,-0.09,19653,9948.80,0,0,0,0.77,-2.59,0.14,0.07,1.00,-0.09
-0.11035156,5.635554E-4,5.038269E-4,-0.0015361581,0.07,1.0,-0.09,19668,9950.10,0,0,165,0.84,-2.59,0.00,0.07,1.00,-0.09
0.79003906,-0.001436444,5.038269E-4,-0.0015361581,0.07,1.0,-0.09,19691,9951.00,0,0,0,0.70,-2.59,0.00,0.07,1.00,-0.09
0.79003906,-4.3644384E-4,-4.9617514E-4,-0.0015361581,0.07,1.0,-0.09,19692,9951.00,0,0,165,0.77,-2.66,0.00,0.07,1.00,-0.09
0.79003906,5.635554E-4,5.038269E-4,-5.361581E-4,0.07,1.0,-0.09,19706,9951.00,0,0,0,0.84,-2.59,0.07,0.07,1.00,-0.09
-0.8095703,0.0015635565,0.0015038289,4.6384195E-4,0.07,1.0,-0.09,19713,9949.40,0,0,165,0.91,-2.52,0.14,0.07,1.00,-0.09
-0.5097656,5.635554E-4,0.0015038289,-5.361581E-4,0.07,1.0,-0.09,19728,9949.70,0,0,0,0.84,-2.52,0.07,0.07,1.00,-0.09
0.79003906,5.635554E-4,-4.9617514E-4,-0.0015361581,0.07,1.0,-0.09,19743,9951.00,0,0,165,0.84,-2.66,0.00,0.07,1.00,-0.09
-1.1103516,5.635554E-4,5.038269E-4,-0.0015361581,0.07,1.0,-0.09,19750,9949.10,0,0,0,0.84,-2.59,0.00,0.07,1.00,-0.09
0.49023438,-0.001436444,5.038269E-4,4.6384195E-4,0.07,1.0,-0.09,19766,9950.70,0,0,165,0.70,-2.59,0.14,0.07,1.00,-0.09
0.79003906,5.635554E-4,-4.9617514E-4,-0.0035361582,0.07,1.0,-0.09,19780,9951.00,0,0,0,0.84,-2.66,-0.14,0.07,1.00,-0.09
0.79003906,-4.3644384E-4,-4.9617514E-4,-0.0015361581,0.07,1.0,-0.09,19788,9951.00,0,0,165,0.77,-2.66,0.00,0.07,1.00,-0.09
2.0898438,-4.3644384E-4,5.038269E-4,-0.0015361581,0.07,1.0,-0.09,19803,9952.30,0,0,0,0.77,-2.59,0.00,0.07,1.00,-0.09
0.49023438,5.635554E-4,5.038269E-4,-0.002536158,0.07,1.0,-0.09,19818,9950.70,0,0,165,0.84,-2.59,-0.07,0.07,1.00,-0.09
-0.11035156,-4.3644384E-4,-4.9617514E-4,-0.0015361581,0.07,1.0,-0.09,19826,9950.10,0,0,0,0.77,-2.66,0.00,0.07,1.00,-0.09
-0.5097656,5.635554E-4,5.038269E-4,-5.361581E-4,0.07,1.0,-0.09,19841,9949.70,0,0,165,0.84,-2.59,0.07,0.07,1.00,-0.09
-0.11035156,-4.3644384E-4,5.038269E-4,-0.0015361581,0.07,1.0,-0.09,19855,9950.10,0,0,0,0.77,-2.59,0.00,0.07,1.00,-0.09
-0.5097656,-0.001436444,-4.9617514E-4,-0.002536158,0.07,1.0,-0.09,19864,9949.70,0,0,165,0.70,-2.66,-0.07,0.07,1.00,-0.09
0.19042969,-4.3644384E-4,-4.9617514E-4,-0.0015361581,0.07,1.0,-0.09,19878,9950.40,0,0,0,0.77,-2.66,0.00,0.07,1.00,-0.09
0.79003906,-4.3644384E-4,-4.9617514E-4,-0.0015361581,0.07,1.0,-0.09,19893,9951.00,0,0,165,0.77,-2.66,0.00,0.07,1.00,-0.09
0.79003906,0.0015635565,-4.9617514E-4,4.6384195E-4,0.08,1.0,-0.09,19901,9951.00,0,0,0,0.91,-2.66,0.14,0.08,1.00,-0.09
-0.11035156,0.0015635565,5.038269E-4,-5.361581E-4,0.07,1.0,-0.09,19916,9950.10,0,0,165,0.91,-2.59,0.07,0.07,1.00,-0.09
-0.11035156,5.635554E-4,-4.9617514E-4,-5.361581E-4,0.07,1.0,-0.09,19930,9950.10,0,0,0,0.84,-2.66,0.07,0.07,1.00,-0.09
-0.11035156,0.0015635565,-4.9617514E-4,-0.0015361581,0.08,1.0,-0.08,19938,9950.10,0,0,165,0.91,-2.66,0.00,0.08,1.00,-0.08
0.79003906,-4.3644384E-4,-0.0014961734,-0.002536158,0.07,1.0,-0.09,19953,9951.00,0,0,0,0.77,-2.73,-0.07,0.07,1.00,-0.09
0.49023438,5.635554E-4,-4.9617514E-4,-0.0015361581,0.08,1.0,-0.09,19968,9950.70,0,0,165,0.84,-2.66,0.00,0.08,1.00,-0.09
0.49023438,-0.001436444,0.0015038289,-0.0015361581,0.08,1.0,-0.09,19975,9950.70,0,0,0,0.70,-2.52,0.00,0.08,1.00,-0.09
-0.11035156,5.635554E-4,0.0015038289,-5.361581E-4,0.07,1.0,-0.09,19998,9950.10,0,0,165,0.84,-2.52,0.07,0.07,1.00,-0.09
0.79003906,0.0015635565,0.0015038289,-0.0015361581,0.07,1.0,-0.09,20005,9951.00,0,0,0,0.91,-2.52,0.00,0.07,1.00,-0.09
-0.11035156,-4.3644384E-4,0.0015038289,-0.0015361581,0.07,1.0,-0.09,20013,9950.10,0,0,165,0.77,-2.52,0.00,0.07,1.00,-0.09
-0.11035156,-4.3644384E-4,5.038269E-4,-0.0015361581,0.07,1.0,-0.09,20028,9950.10,0,0,0,0.77,-2.59,0.00,0.07,1.00,-0.09
0.79003906,-4.3644384E-4,-0.0014961734,-0.0015361581,0.08,1.0,-0.09,20036,9951.00,0,0,165,0.77,-2.73,0.00,0.08,1.00,-0.09
0.79003906,-4.3644384E-4,-4.9617514E-4,-5.361581E-4,0.07,1.0,-0.09,20051,9951.00,0,0,0,0.77,-2.66,0.07,0.07,1.00,-0.09
-0.11035156,-4.3644384E-4,-4.9617514E-4,-0.0015361581,0.08,1.0,-0.09,20066,9950.10,0,0,165,0.77,-2.66,0.00,0.08,1.00,-0.09
-0.11035156,0.0015635565,5.038269E-4,-5.361581E-4,0.07,1.0,-0.09,20074,9950.10,0,0,0,0.91,-2.59,0.07,0.07,1.00,-0.09
-0.11035156,-0.001436444,-4.9617514E-4,-0.002536158,0.07,1.0,-0.09,20089,9950.10,0,0,165,0.70,-2.66,-0.07,0.07,1.00,-0.09
-0.11035156,-0.001436444,-4.9617514E-4,-0.0015361581,0.07,1.0,-0.09,20104,9950.10,0,0,0,0.70,-2.66,0.00,0.07,1.00,-0.09
0.79003906,-4.3644384E-4,-4.9617514E-4,-5.361581E-4,0.07,1.0,-0.09,20111,9951.00,0,0,165,0.77,-2.66,0.07,0.07,1.00,-0.09
-0.5097656,-0.001436444,5.038269E-4,-0.0015361581,0.07,1.0,-0.08,20126,9949.70,0,0,0,0.70,-2.59,0.00,0.07,1.00,-0.08
-0.11035156,-0.001436444,5.038269E-4,-0.002536158,0.07,1.0,-0.09,20142,9950.10,0,0,165,0.70,-2.59,-0.07,0.07,1.00,-0.09
-0.11035156,-4.3644384E-4,-4.9617514E-4,-0.0035361582,0.07,1.0,-0.09,20149,9950.10,0,0,0,0.77,-2.66,-0.14,0.07,1.00,-0.09
0.79003906,0.0015635565,-4.9617514E-4,-5.361581E-4,0.07,1.0,-0.09,20163,9951.00,0,0,165,0.91,-2.66,0.07,0.07,1.00,-0.09
-0.11035156,-4.3644384E-4,-4.9617514E-4,-0.0015361581,0.07,1.0,-0.09,20178,9950.10,0,0,0,0.77,-2.66,0.00,0.07,1.00,-0.09
0.79003906,-4.3644384E-4,5.038269E-4,-0.0015361581,0.07,1.0,-0.09,20185,9951.00,0,0,165,0.77,-2.59,0.00,0.07,1.00,-0.09
-0.5097656,5.635554E-4,-4.9617514E-4,4.6384195E-4,0.08,1.0,-0.09,20200,9949.70,0,0,0,0.84,-2.66,0.14,0.08,1.00,-0.09
-0.11035156,0.0015635565,-4.9617514E-4,-0.0015361581,0.07,1.0,-0.09,20216,9950.10,0,0,165,0.91,-2.66,0.00,0.07,1.00,-0.09
-0.11035156,5.635554E-4,0.0015038289,4.6384195E-4,0.07,1.0,-0.09,20224,9950.10,0,0,0,0.84,-2.52,0.14,0.07,1.00,-0.09
-0.11035156,0.0015635565,0.0015038289,-0.002536158,0.08,1.0,-0.09,20239,9950.10,0,0,165,0.91,-2.52,-0.07,0.08,1.00,-0.09
-0.11035156,5.635554E-4,0.0015038289,-5.361581E-4,0.07,1.0,-0.09,20253,9950.10,0,0,0,0.84,-2.52,0.07,0.07,1.00,-0.09
-1.1103516,-0.001436444,-4.9617514E-4,-0.0035361582,0.07,1.0,-0.09,20261,9949.10,0,0,165,0.70,-2.66,-0.14,0.07,1.00,-0.09
-0.11035156,-0.001436444,-4.9617514E-4,-0.0035361582,0.07,1.0,-0.09,20276,9950.10,0,0,0,0.70,-2.66,-0.14,0.07,1.00,-0.09
-1.1103516,5.635554E-4,5.038269E-4,4.6384195E-4,0.07,1.0,-0.09,20291,9949.10,0,0,165,0.84,-2.59,0.14,0.07,1.00,-0.09
0.79003906,5.635554E-4,-4.9617514E-4,-0.002536158,0.07,1.0,-0.09,20298,9951.00,0,0,0,0.84,-2.66,-0.07,0.07,1.00,-0.09
-0.11035156,-0.001436444,0.0015038289,-5.361581E-4,0.07,1.0,-0.09,20313,9950.10,0,0,165,0.70,-2.52,0.07,0.07,1.00,-0.09
-0.11035156,5.635554E-4,-4.9617514E-4,-0.0015361581,0.07,1.0,-0.09,20329,9950.10,0,0,0,0.84,-2.66,0.00,0.07,1.00,-0.09
-1.1103516,-0.001436444,-4.9617514E-4,-0.002536158,0.08,1.0,-0.09,20336,9949.10,0,0,165,0.70,-2.66,-0.07,0.08,1.00,-0.09
0.79003906,-0.0024364442,-0.0014961734,-0.0015361581,0.08,1.0,-0.09,20351,9951.00,0,0,0,0.63,-2.73,0.00,0.08,1.00,-0.09
-0.11035156,-4.3644384E-4,-4.9617514E-4,-0.002536158,0.08,1.0,-0.09,20365,9950.10,0,0,165,0.77,-2.66,-0.07,0.08,1.00,-0.09
-0.11035156,5.635554E-4,-0.0024961717,-0.0035361582,0.07,1.0,-0.09,20374,9950.10,0,0,0,0.84,-2.80,-0.14,0.07,1.00,-0.09
-0.11035156,-4.3644384E-4,-4.9617514E-4,-0.0015361581,0.08,1.0,-0.09,20389,9950.10,0,0,165,0.77,-2.66,0.00,0.08,1.00,-0.09
0.79003906,-4.3644384E-4,-0.0014961734,4.6384195E-4,0.07,1.0,-0.09,20403,9951.00,0,0,0,0.77,-2.73,0.14,0.07,1.00,-0.09
0.79003906,-4.3644384E-4,-4.9617514E-4,-0.002536158,0.07,1.0,-0.09,20411,9951.00,0,0,165,0.77,-2.66,-0.07,0.07,1.00,-0.09
-0.11035156,0.0015635565,0.0015038289,-5.361581E-4,0.07,1.0,-0.09,20425,9950.10,0,0,0,0.91,-2.52,0.07,0.07,1.00,-0.09
1.7900391,0.0025635567,5.038269E-4,4.6384195E-4,0.07,1.0,-0.09,20440,9952.00,0,0,165,0.98,-2.59,0.14,0.07,1.00,-0.09
-0.11035156,5.635554E-4,0.0015038289,-0.002536158,0.08,1.0,-0.09,20448,9950.10,0,0,0,0.84,-2.52,-0.07,0.08,1.00,-0.09
-0.11035156,-4.3644384E-4,-4.9617514E-4,-5.361581E-4,0.07,1.0,-0.09,20463,9950.10,0,0,165,0.77,-2.66,0.07,0.07,1.00,-0.09
0.49023438,5.635554E-4,5.038269E-4,-5.361581E-4,0.07,1.0,-0.09,20479,9950.70,0,0,0,0.84,-2.59,0.07,0.07,1.00,-0.09
-0.11035156,-4.3644384E-4,5.038269E-4,-0.0015361581,0.07,1.0,-0.09,20486,9950.10,0,0,165,0.77,-2.59,0.00,0.07,1.00,-0.09
-0.11035156,-4.3644384E-4,-4.9617514E-4,-0.002536158,0.07,1.0,-0.09,20501,9950.10,0,0,0,0.77,-2.66,-0.07,0.07,1.00,-0.09
-0.11035156,-4.3644384E-4,0.0015038289,-5.361581E-4,0.07,1.0,-0.09,20516,9950.10,0,0,165,0.77,-2.52,0.07,0.07,1.00,-0.09
-0.11035156,5.635554E-4,0.0015038289,-5.361581E-4,0.07,1.0,-0.09,20523,9950.10,0,0,0,0.84,-2.52,0.07,0.07,1.00,-0.09
0.79003906,-4.3644384E-4,-4.9617514E-4,-5.361581E-4,0.08,1.0,-0.09,20538,9951.00,0,0,165,0.77,-2.66,0.07,0.08,1.00,-0.09
-0.11035156,5.635554E-4,-4.9617514E-4,4.6384195E-4,0.08,1.0,-0.09,20553,9950.10,0,0,0,0.84,-2.66,0.14,0.08,1.00,-0.09
-0.11035156,-0.001436444,0.0015038289,-0.002536158,0.08,1.0,-0.09,20561,9950.10,0,0,165,0.70,-2.52,-0.07,0.08,1.00,-0.09
-0.11035156,-4.3644384E-4,5.038269E-4,-5.361581E-4,0.08,1.0,-0.09,20576,9950.10,0,0,0,0.77,-2.59,0.07,0.08,1.00,-0.09
-0.11035156,5.635554E-4,0.0025038272,-5.361581E-4,0.08,1.0,-0.08,20592,9950.10,0,0,165,0.84,-2.45,0.07,0.08,1.00,-0.08
-1.1103516,5.635554E-4,-4.9617514E-4,-0.0035361582,0.08,1.0,-0.09,20598,9949.10,0,0,0,0.84,-2.66,-0.14,0.08,1.00,-0.09
-0.11035156,5.635554E-4,0.0015038289,-0.0015361581,0.07,1.0,-0.09,20614,9950.10,0,0,165,0.84,-2.52,0.00,0.07,1.00,-0.09
-0.11035156,5.635554E-4,-0.0014961734,-5.361581E-4,0.07,1.0,-0.09,20629,9950.10,0,0,0,0.84,-2.73,0.07,0.07,1.00,-0.09
-0.11035156,-0.001436444,5.038269E-4,-0.0015361581,0.07,1.0,-0.09,20636,9950.10,0,0,165,0.70,-2.59,0.00,0.07,1.00,-0.09
-0.5097656,-0.001436444,-0.0014961734,-0.0015361581,0.07,1.0,-0.09,20651,9949.70,0,0,0,0.70,-2.73,0.00,0.07,1.00,-0.09
-0.11035156,5.635554E-4,0.0015038289,4.6384195E-4,0.07,1.0,-0.09,20666,9950.10,0,0,165,0.84,-2.52,0.14,0.07,1.00,-0.09
-1.1103516,5.635554E-4,5.038269E-4,-5.361581E-4,0.07,1.0,-0.09,20674,9949.10,0,0,0,0.84,-2.59,0.07,0.07,1.00,-0.09
-0.11035156,-4.3644384E-4,-4.9617514E-4,-0.002536158,0.07,1.0,-0.09,20688,9950.10,0,0,165,0.77,-2.66,-0.07,0.07,1.00,-0.09
0.79003906,5.635554E-4,-4.9617514E-4,4.6384195E-4,0.07,1.0,-0.09,20703,9951.00,0,0,0,0.84,-2.66,0.14,0.07,1.00,-0.09
-0.11035156,-0.001436444,-4.9617514E-4,-5.361581E-4,0.07,1.0,-0.09,20710,9950.10,0,0,165,0.70,-2.66,0.07,0.07,1.00,-0.09
-0.11035156,5.635554E-4,-0.0014961734,-0.002536158,0.07,1.0,-0.08,20726,9950.10,0,0,0,0.84,-2.73,-0.07,0.07,1.00,-0.08
0.79003906,0.0015635565,5.038269E-4,-0.0015361581,0.08,1.0,-0.09,20741,9951.00,0,0,165,0.91,-2.59,0.00,0.08,1.00,-0.09
-1.4101562,0.0015635565,5.038269E-4,-5.361581E-4,0.07,1.0,-0.09,20748,9948.80,0,0,0,0.91,-2.59,0.07,0.07,1.00,-0.09
-0.11035156,5.635554E-4,-0.0014961734,-0.0015361581,0.07,1.0,-0.09,20764,9950.10,0,0,165,0.84,-2.73,0.00,0.07,1.00,-0.09
-0.11035156,5.635554E-4,0.0015038289,-0.0015361581,0.07,1.0,-0.09,20771,9950.10,0,0,0,0.84,-2.52,0.00,0.07,1.00,-0.09
-0.5097656,5.635554E-4,-4.9617514E-4,-0.002536158,0.07,1.0,-0.09,20786,9949.70,0,0,165,0.84,-2.66,-0.07,0.07,1.00,-0.09
-0.11035156,5.635554E-4,-4.9617514E-4,-0.002536158,0.07,1.0,-0.09,20809,9950.10,0,0,0,0.84,-2.66,-0.07,0.07,1.00,-0.09
0.79003906,0.0015635565,5.038269E-4,4.6384195E-4,0.07,1.0,-0.09,20811,9951.00,0,0,165,0.91,-2.59,0.14,0.07,1.00,-0.09
-0.11035156,5.635554E-4,0.0015038289,-5.361581E-4,0.07,1.0,-0.09,20824,9950.10,0,0,0,0.84,-2.52,0.07,0.07,1.00,-0.09
0.79003906,-4.3644384E-4,5.038269E-4,-0.002536158,0.07,1.0,-0.09,20846,9951.00,0,0,165,0.77,-2.59,-0.07,0.07,1.00,-0.09
0.79003906,-4.3644384E-4,-4.9617514E-4,-0.0015361581,0.07,1.0,-0.09,20853,9951.00,0,0,0,0.77,-2.66,0.00,0.07,1.00,-0.09
0.79003906,5.635554E-4,5.038269E-4,-5.361581E-4,0.08,1.0,-0.09,20861,9951.00,0,0,165,0.84,-2.59,0.07,0.08,1.00,-0.09
-0.11035156,-0.001436444,-4.9617514E-4,-0.0015361581,0.07,1.0,-0.09,20876,9950.10,0,0,0,0.70,-2.66,0.00,0.07,1.00,-0.09
-0.11035156,5.635554E-4,5.038269E-4,-5.361581E-4,0.07,1.0,-0.09,20883,9950.10,0,0,165,0.84,-2.59,0.07,0.07,1.00,-0.09
-0.11035156,5.635554E-4,-0.0014961734,0.0014638416,0.07,1.0,-0.09,20899,9950.10,0,0,0,0.84,-2.73,0.21,0.07,1.00,-0.09
-0.11035156,-4.3644384E-4,5.038269E-4,-5.361581E-4,0.07,1.0,-0.09,20914,9950.10,0,0,165,0.77,-2.59,0.07,0.07,1.00,-0.09
-0.11035156,-4.3644384E-4,-4.9617514E-4,-0.0015361581,0.07,1.0,-0.09,20921,9950.10,0,0,0,0.77,-2.66,0.00,0.07,1.00,-0.09
0.49023438,5.635554E-4,5.038269E-4,-0.002536158,0.08,1.0,-0.09,20937,9950.70,0,0,165,0.84,-2.59,-0.07,0.08,1.00,-0.09
-0.11035156,5.635554E-4,-4.9617514E-4,-0.002536158,0.08,1.0,-0.09,20951,9950.10,0,0,0,0.84,-2.66,-0.07,0.08,1.00,-0.09
-0.11035156,0.0015635565,-0.0014961734,-0.002536158,0.07,1.0,-0.09,20959,9950.10,0,0,165,0.91,-2.73,-0.07,0.07,1.00,-0.09
0.79003906,5.635554E-4,-0.0014961734,-0.0015361581,0.07,1.0,-0.09,20974,9951.00,0,0,0,0.84,-2.73,0.00,0.07,1.00,-0.09
0.79003906,5.635554E-4,0.0015038289,-0.002536158,0.08,1.0,-0.09,20988,9951.00,0,0,165,0.84,-2.52,-0.07,0.08,1.00,-0.09
-0.11035156,-4.3644384E-4,5.038269E-4,-0.0015361581,0.08,1.0,-0.09,20995,9950.10,0,0,0,0.77,-2.59,0.00,0.08,1.00,-0.09
-1.1103516,5.635554E-4,-0.0014961734,-0.0015361581,0.07,1.0,-0.09,21010,9949.10,0,0,165,0.84,-2.73,0.00,0.07,1.00,-0.09
-0.11035156,5.635554E-4,5.038269E-4,-5.361581E-4,0.07,1.0,-0.09,21026,9950.10,0,0,0,0.84,-2.59,0.07,0.07,1.00,-0.09
0.49023438,-4.3644384E-4,-4.9617514E-4,-5.361581E-4,0.07,1.0,-0.08,21033,9950.70,0,0,165,0.77,-2.66,0.07,0.07,1.00,-0.08
-0.11035156,5.635554E-4,-4.9617514E-4,-0.0015361581,0.08,1.0,-0.09,21048,9950.10,0,0,0,0.84,-2.66,0.00,0.08,1.00,-0.09
-1.1103516,-0.001436444,-4.9617514E-4,-0.0015361581,0.07,1.0,-0.09,21063,9949.10,0,0,165,0.70,-2.66,0.00,0.07,1.00,-0.09
-0.11035156,5.635554E-4,5.038269E-4,-0.0015361581,0.07,1.0,-0.09,21070,9950.10,0,0,0,0.84,-2.59,0.00,0.07,1.00,-0.09
0.79003906,5.635554E-4,5.038269E-4,-0.0015361581,0.07,1.0,-0.09,21086,9951.00,0,0,165,0.84,-2.59,0.00,0.07,1.00,-0.09
0.79003906,-4.3644384E-4,5.038269E-4,-0.0015361581,0.07,1.0,-0.09,21101,9951.00,0,0,0,0.77,-2.59,0.00,0.07,1.00,-0.09
-0.11035156,-0.001436444,-4.9617514E-4,-0.0015361581,0.08,1.0,-0.09,21108,9950.10,0,0,165,0.70,-2.66,0.00,0.08,1.00,-0.09
1.0898438,-4.3644384E-4,-4.9617514E-4,-0.0015361581,0.07,1.0,-0.09,21124,9951.30,0,0,0,0.77,-2.66,0.00,0.07,1.00,-0.09
0.79003906,0.0015635565,5.038269E-4,-5.361581E-4,0.07,1.0,-0.09,21139,9951.00,0,0,165,0.91,-2.59,0.07,0.07,1.00,-0.09
-0.11035156,-4.3644384E-4,5.038269E-4,-0.002536158,0.08,1.0,-0.09,21146,9950.10,0,0,0,0.77,-2.59,-0.07,0.08,1.00,-0.09
0.79003906,5.635554E-4,-4.9617514E-4,4.6384195E-4,0.07,1.0,-0.09,21161,9951.00,0,0,165,0.84,-2.66,0.14,0.07,1.00,-0.09
0.79003906,0.0025635567,-4.9617514E-4,-5.361581E-4,0.07,1.0,-0.09,21176,9951.00,0,0,0,0.98,-2.66,0.07,0.07,1.00,-0.09
-0.5097656,-4.3644384E-4,-4.9617514E-4,-5.361581E-4,0.08,1.0,-0.09,21183,9949.70,0,0,165,0.77,-2.66,0.07,0.08,1.00,-0.09
-1.1103516,5.635554E-4,5.038269E-4,-0.002536158,0.08,1.0,-0.09,21198,9949.10,0,0,0,0.84,-2.59,-0.07,0.08,1.00,-0.09
-0.11035156,-4.3644384E-4,5.038269E-4,-0.002536158,0.08,1.0,-0.09,21214,9950.10,0,0,165,0.77,-2.59,-0.07,0.08,1.00,-0.09
-0.11035156,5.635554E-4,5.038269E-4,-0.0035361582,0.07,1.0,-0.09,21221,9950.10,0,0,0,0.84,-2.59,-0.14,0.07,1.00,-0.09
-0.11035156,0.0015635565,5.038269E-4,-0.004536158,0.07,1.0,-0.09,21236,9950.10,0,0,165,0.91,-2.59,-0.21,0.07,1.00,-0.09
-0.11035156,5.635554E-4,5.038269E-4,-0.0055361586,0.07,1.0,-0.09,21250,9950.10,0,0,0,0.84,-2.59,-0.28,0.07,1.00,-0.09
0.79003906,-4.3644384E-4,-4.9617514E-4,-0.0015361581,0.07,1.0,-0.09,21258,9951.00,0,0,165,0.77,-2.66,0.00,0.07,1.00,-0.09
-0.11035156,-4.3644384E-4,5.038269E-4,-0.002536158,0.07,1.0,-0.09,21273,9950.10,0,0,0,0.77,-2.59,-0.07,0.07,1.00,-0.09
-0.11035156,5.635554E-4,-4.9617514E-4,-0.002536158,0.07,1.0,-0.09,21291,9950.10,0,0,165,0.84,-2.66,-0.07,0.07,1.00,-0.09
0.79003906,-4.3644384E-4,5.038269E-4,-0.0015361581,0.07,1.0,-0.09,21296,9951.00,0,0,0,0.77,-2.59,0.00,0.07,1.00,-0.09
0.79003906,0.0015635565,5.038269E-4,-0.0015361581,0.08,1.0,-0.09,21311,9951.00,0,0,165,0.91,-2.59,0.00,0.08,1.00,-0.09
-0.11035156,-4.3644384E-4,0.0015038289,-0.0035361582,0.08,1.0,-0.09,21325,9950.10,0,0,0,0.77,-2.52,-0.14,0.08,1.00,-0.09
-0.11035156,5.635554E-4,5.038269E-4,4.6384195E-4,0.08,1.0,-0.09,21333,9950.10,0,0,165,0.84,-2.59,0.14,0.08,1.00,-0.09
-0.11035156,0.0015635565,-4.9617514E-4,0.25346383,0.07,1.0,-0.09,21348,9950.10,0,0,0,0.91,-2.66,17.85,0.07,1.00,-0.09
-0.11035156,5.635554E-4,0.0015038289,-0.0015361581,0.07,1.0,-0.09,21363,9950.10,0,0,165,0.84,-2.52,0.00,0.07,1.00,-0.09
0.79003906,-0.001436444,-0.0014961734,-5.361581E-4,0.07,1.0,-0.08,21370,9951.00,0,0,0,0.70,-2.73,0.07,0.07,1.00,-0.08
-0.11035156,-4.3644384E-4,-4.9617514E-4,-0.0015361581,0.07,1.0,-0.09,21386,9950.10,0,0,165,0.77,-2.66,0.00,0.07,1.00,-0.09
-0.11035156,5.635554E-4,-4.9617514E-4,-0.002536158,0.07,1.0,-0.09,21401,9950.10,0,0,0,0.84,-2.66,-0.07,0.07,1.00,-0.09
0.19042969,5.635554E-4,5.038269E-4,-0.002536158,0.07,1.0,-0.09,21409,9950.40,0,0,165,0.84,-2.59,-0.07,0.07,1.00,-0.09
-0.11035156,0.0025635567,0.0015038289,-0.0015361581,0.07,1.0,-0.09,21424,9950.10,0,0,0,0.98,-2.52,0.00,0.07,1.00,-0.09
-0.11035156,5.635554E-4,5.038269E-4,-0.0015361581,0.07,1.0,-0.09,21438,9950.10,0,0,165,0.84,-2.59,0.00,0.07,1.00,-0.09
0.79003906,-0.001436444,0.0015038289,-5.361581E-4,0.07,1.0,-0.08,21446,9951.00,0,0,0,0.70,-2.52,0.07,0.07,1.00,-0.08
-0.11035156,5.635554E-4,5.038269E-4,-0.0035361582,0.07,1.0,-0.09,21461,9950.10,0,0,165,0.84,-2.59,-0.14,0.07,1.00,-0.09
-0.5097656,0.0015635565,0.0015038289,-0.0015361581,0.07,1.0,-0.09,21476,9949.70,0,0,0,0.91,-2.52,0.00,0.07,1.00,-0.09
-1.1103516,0.0015635565,5.038269E-4,-0.0015361581,0.08,1.0,-0.09,21483,9949.10,0,0,165,0.91,-2.59,0.00,0.08,1.00,-0.09
1.4902344,0.0025635567,-0.0014961734,-0.002536158,0.07,1.0,-0.09,21498,9951.70,0,0,0,0.98,-2.73,-0.07,0.07,1.00,-0.09
0.79003906,0.0015635565,5.038269E-4,-0.002536158,0.07,1.0,-0.09,21513,9951.00,0,0,165,0.91,-2.59,-0.07,0.07,1.00,-0.09
-0.11035156,5.635554E-4,5.038269E-4,-5.361581E-4,0.07,1.0,-0.09,21521,9950.10,0,0,0,0.84,-2.59,0.07,0.07,1.00,-0.09
0.19042969,-4.3644384E-4,5.038269E-4,-5.361581E-4,0.07,1.0,-0.09,21535,9950.40,0,0,165,0.77,-2.59,0.07,0.07,1.00,-0.09
-0.8095703,0.0015635565,5.038269E-4,-0.0015361581,0.07,1.0,-0.09,21551,9949.40,0,0,0,0.91,-2.59,0.00,0.07,1.00,-0.09
-0.11035156,5.635554E-4,5.038269E-4,-0.002536158,0.07,1.0,-0.09,21558,9950.10,0,0,165,0.84,-2.59,-0.07,0.07,1.00,-0.09
-0.8095703,-0.001436444,0.0015038289,-0.0015361581,0.07,1.0,-0.08,21573,9949.40,0,0,0,0.70,-2.52,0.00,0.07,1.00,-0.08
-0.11035156,-4.3644384E-4,0.0015038289,-0.002536158,0.07,1.0,-0.09,21589,9950.10,0,0,165,0.77,-2.52,-0.07,0.07,1.00,-0.09
-1.1103516,-0.001436444,5.038269E-4,-0.002536158,0.07,1.0,-0.08,21596,9949.10,0,0,0,0.70,-2.59,-0.07,0.07,1.00,-0.08
-0.11035156,-0.001436444,-4.9617514E-4,-0.0015361581,0.07,1.0,-0.09,21611,9950.10,0,0,165,0.70,-2.66,0.00,0.07,1.00,-0.09
0.79003906,-4.3644384E-4,5.038269E-4,-0.0015361581,0.07,1.0,-0.09,21626,9951.00,0,0,0,0.77,-2.59,0.00,0.07,1.00,-0.09
0.19042969,0.0015635565,0.0015038289,-0.0015361581,0.07,1.0,-0.09,21633,9950.40,0,0,165,0.91,-2.52,0.00,0.07,1.00,-0.09
-0.11035156,5.635554E-4,5.038269E-4,-0.0015361581,0.08,1.0,-0.09,21648,9950.10,0,0,0,0.84,-2.59,0.00,0.08,1.00,-0.09
-0.11035156,-0.0034364434,-0.0014961734,-5.361581E-4,0.08,1.0,-0.09,21656,9950.10,0,0,165,0.56,-2.73,0.07,0.08,1.00,-0.09
-0.11035156,5.635554E-4,0.0015038289,0.0014638416,0.07,1.0,-0.09,21671,9950.10,0,0,0,0.84,-2.52,0.21,0.07,1.00,-0.09
-0.11035156,-4.3644384E-4,5.038269E-4,0.0014638416,0.08,1.0,-0.09,21686,9950.10,0,0,165,0.77,-2.59,0.21,0.08,1.00,-0.09
0.79003906,5.635554E-4,-4.9617514E-4,-0.0015361581,0.07,1.0,-0.09,21693,9951.00,0,0,0,0.84,-2.66,0.00,0.07,1.00,-0.09
-1.1103516,-4.3644384E-4,5.038269E-4,-0.0015361581,0.07,1.0,-0.09,21708,9949.10,0,0,165,0.77,-2.59,0.00,0.07,1.00,-0.09
-0.11035156,5.635554E-4,-4.9617514E-4,4.6384195E-4,0.07,1.0,-0.09,21723,9950.10,0,0,0,0.84,-2.66,0.14,0.07,1.00,-0.09
0.79003906,-4.3644384E-4,0.0015038289,-0.0015361581,0.08,1.0,-0.09,21730,9951.00,0,0,165,0.77,-2.52,0.00,0.08,1.00,-0.09
-0.11035156,-0.001436444,0.0015038289,-0.002536158,0.07,1.0,-0.09,21745,9950.10,0,0,0,0.70,-2.52,-0.07,0.07,1.00,-0.09
-0.11035156,0.0015635565,5.038269E-4,-5.361581E-4,0.07,1.0,-0.09,21760,9950.10,0,0,165,0.91,-2.59,0.07,0.07,1.00,-0.09
-0.11035156,-4.3644384E-4,-4.9617514E-4,-0.0015361581,0.07,1.0,-0.09,21768,9950.10,0,0,0,0.77,-2.66,0.00,0.07,1.00,-0.09
-0.11035156,5.635554E-4,5.038269E-4,-5.361581E-4,0.08,1.0,-0.09,21783,9950.10,0,0,165,0.84,-2.59,0.07,0.08,1.00,-0.09
-0.11035156,5.635554E-4,5.038269E-4,-0.0015361581,0.07,1.0,-0.09,21802,9950.10,0,0,0,0.84,-2.59,0.00,0.07,1.00,-0.09
-1.1103516,5.635554E-4,-4.9617514E-4,-0.0035361582,0.07,1.0,-0.09,21806,9949.10,0,0,165,0.84,-2.66,-0.14,0.07,1.00,-0.09
0.79003906,0.0015635565,-0.0014961734,-0.0015361581,0.07,1.0,-0.08,21821,9951.00,0,0,0,0.91,-2.73,0.00,0.07,1.00,-0.08
-0.11035156,0.0015635565,5.038269E-4,-0.0015361581,0.07,1.0,-0.09,21838,9950.10,0,0,165,0.91,-2.59,0.00,0.07,1.00,-0.09
-0.11035156,5.635554E-4,-4.9617514E-4,-5.361581E-4,0.07,1.0,-0.09,21844,9950.10,0,0,0,0.84,-2.66,0.07,0.07,1.00,-0.09
-0.11035156,0.0015635565,5.038269E-4,-0.0015361581,0.07,1.0,-0.09,21859,9950.10,0,0,165,0.91,-2.59,0.00,0.07,1.00,-0.09
-0.11035156,0.0025635567,5.038269E-4,-0.0015361581,0.07,1.0,-0.09,21873,9950.10,0,0,0,0.98,-2.59,0.00,0.07,1.00,-0.09
-0.11035156,0.0025635567,5.038269E-4,-0.0015361581,0.08,1.0,-0.09,21881,9950.10,0,0,165,0.98,-2.59,0.00,0.08,1.00,-0.09
-0.11035156,5.635554E-4,-0.0014961734,-0.0035361582,0.08,1.0,-0.09,21896,9950.10,0,0,0,0.84,-2.73,-0.14,0.08,1.00,-0.09
0.79003906,0.0025635567,-0.0014961734,-0.002536158,0.07,1.0,-0.09,21911,9951.00,0,0,165,0.98,-2.73,-0.07,0.07,1.00,-0.09
0.19042969,0.0015635565,-0.0014961734,-0.0055361586,0.07,1.0,-0.09,21918,9950.40,0,0,0,0.91,-2.73,-0.28,0.07,1.00,-0.09
-0.11035156,0.0075635575,-0.0024961717,-0.013536157,0.08,1.0,-0.09,21933,9950.10,0,0,165,1.33,-2.80,-0.84,0.08,1.00,-0.09
-0.11035156,0.013563557,5.038269E-4,-0.02053616,0.07,1.0,-0.09,21948,9950.10,0,0,0,1.75,-2.59,-1.33,0.07,1.00,-0.09
0.79003906,0.015563557,-0.0024961717,-0.025536157,0.07,1.0,-0.09,21958,9951.00,0,0,165,1.89,-2.80,-1.68,0.07,1.00,-0.09
-0.11035156,0.011563556,5.038269E-4,-0.02053616,0.07,1.0,-0.09,21970,9950.10,0,0,0,1.61,-2.59,-1.33,0.07,1.00,-0.09
-0.11035156,0.005563557,-0.0024961717,-0.011536158,0.07,1.0,-0.09,21986,9950.10,0,0,165,1.19,-2.80,-0.70,0.07,1.00,-0.09
-1.1103516,-0.0034364434,0.0015038289,0.0034638417,0.07,1.0,-0.09,21994,9949.10,0,0,0,0.56,-2.52,0.35,0.07,1.00,-0.09
-0.11035156,-0.008436444,0.0025038272,0.0124638425,0.07,1.0,-0.09,22009,9950.10,0,0,165,0.21,-2.45,0.98,0.07,1.00,-0.09
-0.11035156,-0.012436444,0.0015038289,0.015463843,0.07,1.01,-0.09,22026,9950.10,0,0,0,-0.07,-2.52,1.19,0.07,1.01,-0.09
-0.11035156,-0.0074364436,5.038269E-4,0.0074638417,0.07,1.0,-0.09,22031,9950.10,0,0,165,0.28,-2.59,0.63,0.07,1.00,-0.09
-0.11035156,5.635554E-4,5.038269E-4,-0.002536158,0.07,1.0,-0.09,22046,9950.10,0,0,0,0.84,-2.59,-0.07,0.07,1.00,-0.09
-0.11035156,5.635554E-4,-4.9617514E-4,4.6384195E-4,0.07,1.0,-0.09,22061,9950.10,0,0,165,0.84,-2.66,0.14,0.07,1.00,-0.09
0.79003906,5.635554E-4,5.038269E-4,-5.361581E-4,0.07,1.0,-0.09,22068,9951.00,0,0,0,0.84,-2.59,0.07,0.07,1.00,-0.09
-0.11035156,5.635554E-4,5.038269E-4,-0.0015361581,0.07,1.0,-0.09,22084,9950.10,0,0,165,0.84,-2.59,0.00,0.07,1.00,-0.09
-0.11035156,-0.001436444,5.038269E-4,-0.0015361581,0.07,1.0,-0.09,22099,9950.10,0,0,0,0.70,-2.59,0.00,0.07,1.00,-0.09
0.79003906,-0.0034364434,0.0015038289,4.6384195E-4,0.07,1.0,-0.09,22108,9951.00,0,0,165,0.56,-2.52,0.14,0.07,1.00,-0.09
0.79003906,-0.001436444,5.038269E-4,0.0014638416,0.08,1.0,-0.09,22121,9951.00,0,0,0,0.70,-2.59,0.21,0.08,1.00,-0.09
-0.11035156,-4.3644384E-4,-0.0014961734,-0.002536158,0.07,1.0,-0.09,22136,9950.10,0,0,165,0.77,-2.73,-0.07,0.07,1.00,-0.09
-0.11035156,-0.001436444,-4.9617514E-4,-0.0035361582,0.08,1.0,-0.09,22144,9950.10,0,0,0,0.70,-2.66,-0.14,0.08,1.00,-0.09
2.0898438,5.635554E-4,5.038269E-4,-5.361581E-4,0.07,1.0,-0.09,22160,9952.30,0,0,165,0.84,-2.59,0.07,0.07,1.00,-0.09
-0.11035156,-4.3644384E-4,-0.0014961734,-0.002536158,0.07,1.0,-0.09,22176,9950.10,0,0,0,0.77,-2.73,-0.07,0.07,1.00,-0.09
0.79003906,-0.001436444,-4.9617514E-4,-0.0015361581,0.07,1.0,-0.09,22181,9951.00,0,0,165,0.70,-2.66,0.00,0.07,1.00,-0.09
-0.11035156,-4.3644384E-4,5.038269E-4,-5.361581E-4,0.07,1.0,-0.09,22196,9950.10,0,0,0,0.77,-2.59,0.07,0.07,1.00,-0.09
-0.11035156,-0.001436444,-4.9617514E-4,-0.002536158,0.07,1.0,-0.09,22210,9950.10,0,0,165,0.70,-2.66,-0.07,0.07,1.00,-0.09
0.19042969,-0.0024364442,-0.0014961734,-0.0015361581,0.07,1.0,-0.09,22218,9950.40,0,0,0,0.63,-2.73,0.00,0.07,1.00,-0.09
0.79003906,5.635554E-4,5.038269E-4,-5.361581E-4,0.07,1.0,-0.09,22233,9951.00,0,0,165,0.84,-2.59,0.07,0.07,1.00,-0.09
-0.11035156,5.635554E-4,0.0015038289,0.0014638416,0.07,1.0,-0.09,22248,9950.10,0,0,0,0.84,-2.52,0.21,0.07,1.00,-0.09
0.79003906,5.635554E-4,5.038269E-4,0.0014638416,0.07,1.0,-0.09,22255,9951.00,0,0,165,0.84,-2.59,0.21,0.07,1.00,-0.09
-0.11035156,-0.0024364442,5.038269E-4,0.002463842,0.07,1.0,-0.09,22271,9950.10,0,0,0,0.63,-2.59,0.28,0.07,1.00,-0.09
-0.11035156,-4.3644384E-4,5.038269E-4,0.0034638417,0.07,1.0,-0.09,22285,9950.10,0,0,165,0.77,-2.59,0.35,0.07,1.00,-0.09
-0.11035156,-0.001436444,-0.0014961734,-0.0015361581,0.08,1.0,-0.09,22293,9950.10,0,0,0,0.70,-2.73,0.00,0.08,1.00,-0.09
0.49023438,0.0015635565,5.038269E-4,-0.0015361581,0.07,1.0,-0.09,22308,9950.70,0,0,165,0.91,-2.59,0.00,0.07,1.00,-0.09
0.79003906,0.0015635565,-4.9617514E-4,-5.361581E-4,0.07,1.0,-0.09,22323,9951.00,0,0,0,0.91,-2.66,0.07,0.07,1.00,-0.09
-0.11035156,-4.3644384E-4,5.038269E-4,-5.361581E-4,0.07,1.0,-0.09,22330,9950.10,0,0,165,0.77,-2.59,0.07,0.07,1.00,-0.09
-0.11035156,0.0015635565,5.038269E-4,-0.002536158,0.07,1.0,-0.09,22345,9950.10,0,0,0,0.91,-2.59,-0.07,0.07,1.00,-0.09
-0.11035156,-0.001436444,5.038269E-4,-0.002536158,0.07,1.0,-0.09,22360,9950.10,0,0,165,0.70,-2.59,-0.07,0.07,1.00,-0.09
0.79003906,-4.3644384E-4,5.038269E-4,-5.361581E-4,0.07,1.0,-0.09,22368,9951.00,0,0,0,0.77,-2.59,0.07,0.07,1.00,-0.09
-0.11035156,5.635554E-4,-0.0014961734,-0.004536158,0.07,1.0,-0.09,22383,9950.10,0,0,165,0.84,-2.73,-0.21,0.07,1.00,-0.09
-0.11035156,-0.001436444,-0.0014961734,-0.0015361581,0.07,1.0,-0.09,22398,9950.10,0,0,0,0.70,-2.73,0.00,0.07,1.00,-0.09
-0.11035156,-4.3644384E-4,5.038269E-4,-0.0015361581,0.07,1.0,-0.09,22405,9950.10,0,0,165,0.77,-2.59,0.00,0.07,1.00,-0.09
-0.11035156,5.635554E-4,-4.9617514E-4,-0.002536158,0.07,1.0,-0.09,22421,9950.10,0,0,0,0.84,-2.66,-0.07,0.07,1.00,-0.09
0.79003906,5.635554E-4,-4.9617514E-4,-0.0015361581,0.07,1.0,-0.09,22436,9951.00,0,0,165,0.84,-2.66,0.00,0.07,1.00,-0.09
-0.11035156,-0.001436444,-4.9617514E-4,-0.0015361581,0.07,1.0,-0.09,22444,9950.10,0,0,0,0.70,-2.66,0.00,0.07,1.00,-0.09
-0.11035156,-0.001436444,-4.9617514E-4,-0.0015361581,0.07,1.0,-0.09,22462,9950.10,0,0,165,0.70,-2.66,0.00,0.07,1.00,-0.09
-0.11035156,0.0015635565,-4.9617514E-4,-0.002536158,0.07,1.0,-0.09,22473,9950.10,0,0,0,0.91,-2.66,-0.07,0.07,1.00,-0.09
-0.11035156,0.0015635565,0.0015038289,-0.0015361581,0.07,1.0,-0.09,22481,9950.10,0,0,165,0.91,-2.52,0.00,0.07,1.00,-0.09
-0.11035156,-4.3644384E-4,-4.9617514E-4,-5.361581E-4,0.07,1.0,-0.08,22496,9950.10,0,0,0,0.77,-2.66,0.07,0.07,1.00,-0.08
-2.1103516,0.0015635565,0.0015038289,-0.0015361581,0.07,1.0,-0.09,22511,9948.10,0,0,165,0.91,-2.52,0.00,0.07,1.00,-0.09
0.79003906,5.635554E-4,-4.9617514E-4,-0.0015361581,0.07,1.0,-0.09,22518,9951.00,0,0,0,0.84,-2.66,0.00,0.07,1.00,-0.09
-0.11035156,0.0015635565,5.038269E-4,-0.0015361581,0.08,1.0,-0.09,22533,9950.10,0,0,165,0.91,-2.59,0.00,0.08,1.00,-0.09
-0.11035156,5.635554E-4,5.038269E-4,-0.0015361581,0.07,1.0,-0.09,22548,9950.10,0,0,0,0.84,-2.59,0.00,0.07,1.00,-0.09
-0.11035156,5.635554E-4,5.038269E-4,-5.361581E-4,0.07,1.0,-0.09,22555,9950.10,0,0,165,0.84,-2.59,0.07,0.07,1.00,-0.09
-0.11035156,-4.3644384E-4,5.038269E-4,-5.361581E-4,0.07,1.0,-0.09,22570,9950.10,0,0,0,0.77,-2.59,0.07,0.07,1.00,-0.09
1.0898438,5.635554E-4,-4.9617514E-4,-5.361581E-4,0.07,1.0,-0.09,22586,9951.30,0,0,165,0.84,-2.66,0.07,0.07,1.00,-0.09
-0.11035156,-4.3644384E-4,-0.0014961734,0.002463842,0.08,1.0,-0.09,22593,9950.10,0,0,0,0.77,-2.73,0.28,0.08,1.00,-0.09
0.19042969,-0.0024364442,-4.9617514E-4,4.6384195E-4,0.07,1.0,-0.09,22608,9950.40,0,0,165,0.63,-2.66,0.14,0.07,1.00,-0.09
0.19042969,-4.3644384E-4,5.038269E-4,4.6384195E-4,0.07,1.0,-0.09,22625,9950.40,0,0,0,0.77,-2.59,0.14,0.07,1.00,-0.09
0.79003906,-0.001436444,-4.9617514E-4,-0.002536158,0.07,1.0,-0.09,22631,9951.00,0,0,165,0.70,-2.66,-0.07,0.07,1.00,-0.09
0.19042969,-0.0024364442,-4.9617514E-4,-5.361581E-4,0.07,1.0,-0.09,22646,9950.40,0,0,0,0.63,-2.66,0.07,0.07,1.00,-0.09
-0.11035156,5.635554E-4,-4.9617514E-4,0.25346383,0.07,1.0,-0.09,22661,9950.10,0,0,165,0.84,-2.66,17.85,0.07,1.00,-0.09
0.79003906,-4.3644384E-4,0.0015038289,-5.361581E-4,0.07,1.0,-0.09,22668,9951.00,0,0,0,0.77,-2.52,0.07,0.07,1.00,-0.09
-0.5097656,5.635554E-4,0.0015038289,-5.361581E-4,0.07,1.0,-0.09,22683,9949.70,0,0,165,0.84,-2.52,0.07,0.07,1.00,-0.09
-1.1103516,0.0015635565,5.038269E-4,-5.361581E-4,0.07,1.0,-0.09,22698,9949.10,0,0,0,0.91,-2.59,0.07,0.07,1.00,-0.09
-0.11035156,5.635554E-4,0.0015038289,-5.361581E-4,0.08,1.0,-0.09,22706,9950.10,0,0,165,0.84,-2.52,0.07,0.08,1.00,-0.09
-0.11035156,0.0025635567,5.038269E-4,-0.0035361582,0.07,1.0,-0.09,22721,9950.10,0,0,0,0.98,-2.59,-0.14,0.07,1.00,-0.09
0.19042969,5.635554E-4,5.038269E-4,-0.002536158,0.08,1.0,-0.09,22736,9950.40,0,0,165,0.84,-2.59,-0.07,0.08,1.00,-0.09
-0.11035156,0.0015635565,0.0025038272,-0.0015361581,0.07,1.0,-0.09,22743,9950.10,0,0,0,0.91,-2.45,0.00,0.07,1.00,-0.09
-0.11035156,5.635554E-4,0.0015038289,-5.361581E-4,0.07,1.0,-0.09,22759,9950.10,0,0,165,0.84,-2.52,0.07,0.07,1.00,-0.09
-1.1103516,-4.3644384E-4,-4.9617514E-4,-5.361581E-4,0.07,1.0,-0.09,22773,9949.10,0,0,0,0.77,-2.66,0.07,0.07,1.00,-0.09
-0.11035156,-4.3644384E-4,5.038269E-4,-0.002536158,0.07,1.0,-0.09,22781,9950.10,0,0,165,0.77,-2.59,-0.07,0.07,1.00,-0.09
-1.1103516,-4.3644384E-4,0.0015038289,-5.361581E-4,0.07,1.0,-0.09,22796,9949.10,0,0,0,0.77,-2.52,0.07,0.07,1.00,-0.09
-0.11035156,5.635554E-4,5.038269E-4,-5.361581E-4,0.08,1.0,-0.09,22811,9950.10,0,0,165,0.84,-2.59,0.07,0.08,1.00,-0.09
0.79003906,5.635554E-4,-4.9617514E-4,-5.361581E-4,0.08,1.0,-0.09,22818,9951.00,0,0,0,0.84,-2.66,0.07,0.08,1.00,-0.09
0.79003906,-4.3644384E-4,5.038269E-4,-0.0015361581,0.07,1.0,-0.09,22833,9951.00,0,0,165,0.77,-2.59,0.00,0.07,1.00,-0.09
0.19042969,-0.001436444,-4.9617514E-4,-5.361581E-4,0.07,1.0,-0.09,22848,9950.40,0,0,0,0.70,-2.66,0.07,0.07,1.00,-0.09
-0.11035156,-0.0024364442,-4.9617514E-4,-0.002536158,0.07,1.0,-0.09,22856,9950.10,0,0,165,0.63,-2.66,-0.07,0.07,1.00,-0.09
-1.1103516,-4.3644384E-4,-4.9617514E-4,-0.004536158,0.07,1.0,-0.09,22870,9949.10,0,0,0,0.77,-2.66,-0.21,0.07,1.00,-0.09
-0.11035156,0.0015635565,5.038269E-4,-0.0015361581,0.08,1.0,-0.09,22885,9950.10,0,0,165,0.91,-2.59,0.00,0.08,1.00,-0.09
-0.11035156,0.0015635565,5.038269E-4,4.6384195E-4,0.08,1.0,-0.09,22893,9950.10,0,0,0,0.91,-2.59,0.14,0.08,1.00,-0.09
-1.1103516,5.635554E-4,-4.9617514E-4,-0.0015361581,0.07,1.0,-0.09,22908,9949.10,0,0,165,0.84,-2.66,0.00,0.07,1.00,-0.09
-0.11035156,5.635554E-4,5.038269E-4,4.6384195E-4,0.07,1.0,-0.09,22923,9950.10,0,0,0,0.84,-2.59,0.14,0.07,1.00,-0.09
-0.11035156,0.0025635567,5.038269E-4,-5.361581E-4,0.08,1.0,-0.09,22930,9950.10,0,0,165,0.98,-2.59,0.07,0.08,1.00,-0.09
-0.11035156,-4.3644384E-4,-0.0014961734,-0.002536158,0.07,1.0,-0.09,22945,9950.10,0,0,0,0.77,-2.73,-0.07,0.07,1.00,-0.09
-0.11035156,0.0015635565,5.038269E-4,-0.002536158,0.07,1.0,-0.09,22961,9950.10,0,0,165,0.91,-2.59,-0.07,0.07,1.00,-0.09
-0.11035156,0.0025635567,-4.9617514E-4,-0.0015361581,0.07,1.0,-0.09,22968,9950.10,0,0,0,0.98,-2.66,0.00,0.07,1.00,-0.09
0.19042969,5.635554E-4,5.038269E-4,-0.0015361581,0.07,1.0,-0.09,22983,9950.40,0,0,165,0.84,-2.59,0.00,0.07,1.00,-0.09
-0.11035156,-0.001436444,-4.9617514E-4,-0.0015361581,0.07,1.0,-0.09,22998,9950.10,0,0,0,0.70,-2.66,0.00,0.07,1.00,-0.09
-0.11035156,-4.3644384E-4,-4.9617514E-4,4.6384195E-4,0.07,1.0,-0.09,23006,9950.10,0,0,165,0.77,-2.66,0.14,0.07,1.00,-0.09
-0.11035156,-0.001436444,5.038269E-4,-0.0015361581,0.07,1.0,-0.09,23020,9950.10,0,0,0,0.70,-2.59,0.00,0.07,1.00,-0.09
-0.11035156,5.635554E-4,5.038269E-4,-0.002536158,0.07,1.0,-0.09,23035,9950.10,0,0,165,0.84,-2.59,-0.07,0.07,1.00,-0.09
0.79003906,-0.001436444,-4.9617514E-4,-0.0015361581,0.07,1.0,-0.09,23043,9951.00,0,0,0,0.70,-2.66,0.00,0.07,1.00,-0.09
0.79003906,-4.3644384E-4,5.038269E-4,-0.0015361581,0.07,1.0,-0.09,23058,9951.00,0,0,165,0.77,-2.59,0.00,0.07,1.00,-0.09
-0.11035156,5.635554E-4,-4.9617514E-4,-0.0015361581,0.07,1.0,-0.09,23073,9950.10,0,0,0,0.84,-2.66,0.00,0.07,1.00,-0.09
-0.5097656,-4.3644384E-4,0.0015038289,-5.361581E-4,0.07,1.0,-0.09,23080,9949.70,0,0,165,0.77,-2.52,0.07,0.07,1.00,-0.09
-1.1103516,-4.3644384E-4,0.0015038289,-0.002536158,0.07,1.0,-0.09,23095,9949.10,0,0,0,0.77,-2.52,-0.07,0.07,1.00,-0.09
1.7900391,-4.3644384E-4,5.038269E-4,-0.002536158,0.07,1.0,-0.09,23110,9952.00,0,0,165,0.77,-2.59,-0.07,0.07,1.00,-0.09
-0.11035156,5.635554E-4,-0.0014961734,-0.002536158,0.08,1.0,-0.09,23118,9950.10,0,0,0,0.84,-2.73,-0.07,0.08,1.00,-0.09
-0.11035156,0.0015635565,5.038269E-4,-5.361581E-4,0.07,1.0,-0.09,23133,9950.10,0,0,165,0.91,-2.59,0.07,0.07,1.00,-0.09
-0.11035156,0.0015635565,0.0015038289,4.6384195E-4,0.07,1.0,-0.09,23148,9950.10,0,0,0,0.91,-2.52,0.14,0.07,1.00,-0.09
-0.11035156,5.635554E-4,5.038269E-4,-5.361581E-4,0.07,1.0,-0.09,23156,9950.10,0,0,165,0.84,-2.59,0.07,0.07,1.00,-0.09
-0.11035156,-4.3644384E-4,5.038269E-4,-5.361581E-4,0.08,1.0,-0.09,23171,9950.10,0,0,0,0.77,-2.59,0.07,0.08,1.00,-0.09
0.19042969,-4.3644384E-4,0.0015038289,-5.361581E-4,0.08,1.0,-0.09,23186,9950.40,0,0,165,0.77,-2.52,0.07,0.08,1.00,-0.09
-0.11035156,-4.3644384E-4,0.0015038289,4.6384195E-4,0.07,1.0,-0.09,23193,9950.10,0,0,0,0.77,-2.52,0.14,0.07,1.00,-0.09
-0.11035156,5.635554E-4,5.038269E-4,-5.361581E-4,0.07,1.0,-0.09,23208,9950.10,0,0,165,0.84,-2.59,0.07,0.07,1.00,-0.09
-0.11035156,-0.001436444,5.038269E-4,-0.0015361581,0.07,1.0,-0.09,23224,9950.10,0,0,0,0.70,-2.59,0.00,0.07,1.00,-0.09
-0.11035156,-4.3644384E-4,-4.9617514E-4,-0.0035361582,0.07,1.0,-0.09,23230,9950.10,0,0,165,0.77,-2.66,-0.14,0.07,1.00,-0.09
-0.11035156,-0.001436444,-0.0014961734,4.6384195E-4,0.07,1.0,-0.09,23245,9950.10,0,0,0,0.70,-2.73,0.14,0.07,1.00,-0.09
1.0898438,-4.3644384E-4,-4.9617514E-4,-0.002536158,0.07,1.0,-0.09,23253,9951.30,0,0,165,0.77,-2.66,-0.07,0.07,1.00,-0.09
-0.11035156,-4.3644384E-4,-0.0014961734,4.6384195E-4,0.07,1.0,-0.09,23268,9950.10,0,0,0,0.77,-2.73,0.14,0.07,1.00,-0.09
-0.11035156,-0.0024364442,0.0015038289,0.002463842,0.07,1.01,-0.09,23284,9950.10,0,0,165,0.63,-2.52,0.28,0.07,1.01,-0.09
-0.11035156,-0.008436444,0.0015038289,0.010463841,0.07,1.0,-0.09,23291,9950.10,0,0,0,0.21,-2.52,0.84,0.07,1.00,-0.09
-0.11035156,-0.0074364436,5.038269E-4,0.010463841,0.07,1.0,-0.09,23306,9950.10,0,0,165,0.28,-2.59,0.84,0.07,1.00,-0.09
0.79003906,5.635554E-4,5.038269E-4,4.6384195E-4,0.07,1.0,-0.09,23321,9951.00,0,0,0,0.84,-2.59,0.14,0.07,1.00,-0.09
-0.11035156,0.0015635565,5.038269E-4,-0.002536158,0.07,1.0,-0.09,23328,9950.10,0,0,165,0.91,-2.59,-0.07,0.07,1.00,-0.09
-0.11035156,0.0015635565,-4.9617514E-4,-0.002536158,0.07,1.0,-0.09,23343,9950.10,0,0,0,0.91,-2.66,-0.07,0.07,1.00,-0.09
1.7900391,0.0015635565,-4.9617514E-4,-0.002536158,0.07,1.0,-0.09,23359,9952.00,0,0,165,0.91,-2.66,-0.07,0.07,1.00,-0.09
-0.11035156,0.003563556,-4.9617514E-4,-0.002536158,0.08,1.0,-0.09,23366,9950.10,0,0,0,1.05,-2.66,-0.07,0.08,1.00,-0.09
0.79003906,0.0025635567,-4.9617514E-4,-0.0015361581,0.07,1.0,-0.09,23380,9951.00,0,0,165,0.98,-2.66,0.00,0.07,1.00,-0.09
-1.1103516,-0.001436444,-4.9617514E-4,-0.002536158,0.07,1.0,-0.09,23396,9949.10,0,0,0,0.70,-2.66,-0.07,0.07,1.00,-0.09
-0.11035156,0.003563556,-4.9617514E-4,-0.007536158,0.07,1.0,-0.09,23404,9950.10,0,0,165,1.05,-2.66,-0.42,0.07,1.00,-0.09
-0.11035156,0.0075635575,5.038269E-4,-0.013536157,0.07,1.0,-0.09,23419,9950.10,0,0,0,1.33,-2.59,-0.84,0.07,1.00,-0.09
0.19042969,0.009563556,-4.9617514E-4,-0.013536157,0.08,1.0,-0.09,23433,9950.40,0,0,165,1.47,-2.66,-0.84,0.08,1.00,-0.09
0.79003906,0.0025635567,-4.9617514E-4,-0.002536158,0.07,1.0,-0.09,23441,9951.00,0,0,0,0.98,-2.66,-0.07,0.07,1.00,-0.09
0.19042969,5.635554E-4,5.038269E-4,0.0014638416,0.07,1.0,-0.09,23456,9950.40,0,0,165,0.84,-2.59,0.21,0.07,1.00,-0.09
0.79003906,5.635554E-4,0.0015038289,-0.0015361581,0.07,1.0,-0.09,23471,9951.00,0,0,0,0.84,-2.52,0.00,0.07,1.00,-0.09
0.79003906,-0.0034364434,5.038269E-4,4.6384195E-4,0.07,1.0,-0.09,23478,9951.00,0,0,165,0.56,-2.59,0.14,0.07,1.00,-0.09
0.79003906,-0.001436444,5.038269E-4,-0.0015361581,0.07,1.0,-0.09,23494,9951.00,0,0,0,0.70,-2.59,0.00,0.07,1.00,-0.09
-0.11035156,-4.3644384E-4,5.038269E-4,-0.0015361581,0.07,1.0,-0.09,23508,9950.10,0,0,165,0.77,-2.59,0.00,0.07,1.00,-0.09
-0.11035156,0.0015635565,-4.9617514E-4,-0.0015361581,0.07,1.0,-0.09,23516,9950.10,0,0,0,0.91,-2.66,0.00,0.07,1.00,-0.09
-0.11035156,-0.001436444,5.038269E-4,4.6384195E-4,0.07,1.0,-0.09,23531,9950.10,0,0,165,0.70,-2.59,0.14,0.07,1.00,-0.09
-0.11035156,-0.0024364442,-4.9617514E-4,4.6384195E-4,0.07,1.0,-0.09,23545,9950.10,0,0,0,0.63,-2.66,0.14,0.07,1.00,-0.09
0.79003906,-0.0034364434,-4.9617514E-4,-0.0015361581,0.07,1.0,-0.09,23553,9951.00,0,0,165,0.56,-2.66,0.00,0.07,1.00,-0.09
-1.1103516,5.635554E-4,-4.9617514E-4,-0.002536158,0.07,1.0,-0.09,23568,9949.10,0,0,0,0.84,-2.66,-0.07,0.07,1.00,-0.09
1.0898438,-4.3644384E-4,-0.0014961734,-0.0015361581,0.07,1.0,-0.09,23583,9951.30,0,0,165,0.77,-2.73,0.00,0.07,1.00,-0.09
-0.11035156,5.635554E-4,-4.9617514E-4,-0.002536158,0.07,1.0,-0.09,23591,9950.10,0,0,0,0.84,-2.66,-0.07,0.07,1.00,-0.09
-0.11035156,0.0015635565,-4.9617514E-4,-0.0035361582,0.07,1.0,-0.09,23608,9950.10,0,0,165,0.91,-2.66,-0.14,0.07,1.00,-0.09
0.19042969,5.635554E-4,5.038269E-4,-5.361581E-4,0.08,1.0,-0.09,23620,9950.40,0,0,0,0.84,-2.59,0.07,0.08,1.00,-0.09
0.19042969,-0.001436444,0.0015038289,-0.0015361581,0.07,1.0,-0.09,23628,9950.40,0,0,165,0.70,-2.52,0.00,0.07,1.00,-0.09
-0.11035156,5.635554E-4,-4.9617514E-4,-0.0015361581,0.07,1.0,-0.09,23643,9950.10,0,0,0,0.84,-2.66,0.00,0.07,1.00,-0.09
-0.11035156,-0.001436444,-4.9617514E-4,-5.361581E-4,0.07,1.0,-0.09,23659,9950.10,0,0,165,0.70,-2.66,0.07,0.07,1.00,-0.09
-0.11035156,-4.3644384E-4,-4.9617514E-4,-0.0015361581,0.08,1.0,-0.09,23666,9950.10,0,0,0,0.77,-2.66,0.00,0.08,1.00,-0.09
-0.11035156,-4.3644384E-4,5.038269E-4,4.6384195E-4,0.07,1.0,-0.09,23681,9950.10,0,0,165,0.77,-2.59,0.14,0.07,1.00,-0.09
0.79003906,-4.3644384E-4,0.0015038289,-5.361581E-4,0.07,1.0,-0.09,23695,9951.00,0,0,0,0.77,-2.52,0.07,0.07,1.00,-0.09
-0.11035156,-4.3644384E-4,5.038269E-4,4.6384195E-4,0.07,1.0,-0.09,23703,9950.10,0,0,165,0.77,-2.59,0.14,0.07,1.00,-0.09
-0.11035156,-4.3644384E-4,5.038269E-4,-5.361581E-4,0.07,1.0,-0.09,23718,9950.10,0,0,0,0.77,-2.59,0.07,0.07,1.00,-0.09
0.79003906,5.635554E-4,5.038269E-4,-5.361581E-4,0.07,1.0,-0.09,23734,9951.00,0,0,165,0.84,-2.59,0.07,0.07,1.00,-0.09
0.19042969,-4.3644384E-4,-4.9617514E-4,-5.361581E-4,0.07,1.0,-0.09,23741,9950.40,0,0,0,0.77,-2.66,0.07,0.07,1.00,-0.09
-0.11035156,5.635554E-4,5.038269E-4,4.6384195E-4,0.07,1.0,-0.09,23756,9950.10,0,0,165,0.84,-2.59,0.14,0.07,1.00,-0.09
-0.11035156,5.635554E-4,5.038269E-4,4.6384195E-4,0.07,1.0,-0.09,23771,9950.10,0,0,0,0.84,-2.59,0.14,0.07,1.00,-0.09
1.0898438,5.635554E-4,5.038269E-4,-5.361581E-4,0.07,1.0,-0.09,23778,9951.30,0,0,165,0.84,-2.59,0.07,0.07,1.00,-0.09
0.79003906,5.635554E-4,5.038269E-4,4.6384195E-4,0.07,1.0,-0.09,23793,9951.00,0,0,0,0.84,-2.59,0.14,0.07,1.00,-0.09
-0.11035156,-0.001436444,-0.0014961734,-0.0015361581,0.08,1.0,-0.09,23808,9950.10,0,0,165,0.70,-2.73,0.00,0.08,1.00,-0.09
0.79003906,-4.3644384E-4,5.038269E-4,-0.0015361581,0.07,1.0,-0.09,23815,9951.00,0,0,0,0.77,-2.59,0.00,0.07,1.00,-0.09
-0.11035156,5.635554E-4,-4.9617514E-4,-0.0035361582,0.07,1.0,-0.09,23831,9950.10,0,0,165,0.84,-2.66,-0.14,0.07,1.00,-0.09
0.79003906,5.635554E-4,5.038269E-4,-0.0015361581,0.07,1.0,-0.09,23846,9951.00,0,0,0,0.84,-2.59,0.00,0.07,1.00,-0.09
0.19042969,-4.3644384E-4,-4.9617514E-4,-5.361581E-4,0.07,1.0,-0.09,23853,9950.40,0,0,165,0.77,-2.66,0.07,0.07,1.00,-0.09
0.19042969,-0.001436444,5.038269E-4,-0.0015361581,0.07,1.0,-0.09,23868,9950.40,0,0,0,0.70,-2.59,0.00,0.07,1.00,-0.09
0.79003906,-4.3644384E-4,5.038269E-4,0.0014638416,0.07,1.0,-0.09,23884,9951.00,0,0,165,0.77,-2.59,0.21,0.07,1.00,-0.09
-0.11035156,5.635554E-4,5.038269E-4,-5.361581E-4,0.08,1.0,-0.09,23891,9950.10,0,0,0,0.84,-2.59,0.07,0.08,1.00,-0.09
-0.11035156,-4.3644384E-4,-4.9617514E-4,-0.002536158,0.07,1.0,-0.09,23906,9950.10,0,0,165,0.77,-2.66,-0.07,0.07,1.00,-0.09
-0.11035156,5.635554E-4,-4.9617514E-4,4.6384195E-4,0.07,1.0,-0.09,23920,9950.10,0,0,0,0.84,-2.66,0.14,0.07,1.00,-0.09
0.19042969,0.0015635565,-4.9617514E-4,-0.0015361581,0.07,1.0,-0.09,23928,9950.40,0,0,165,0.91,-2.66,0.00,0.07,1.00,-0.09
-0.11035156,5.635554E-4,-4.9617514E-4,-0.0035361582,0.07,1.0,-0.09,23943,9950.10,0,0,0,0.84,-2.66,-0.14,0.07,1.00,-0.09
-0.11035156,5.635554E-4,5.038269E-4,-5.361581E-4,0.07,1.0,-0.09,23958,9950.10,0,0,165,0.84,-2.59,0.07,0.07,1.00,-0.09
-0.11035156,0.0015635565,0.0015038289,-5.361581E-4,0.07,1.0,-0.09,23965,9950.10,0,0,0,0.91,-2.52,0.07,0.07,1.00,-0.09
0.19042969,-4.3644384E-4,-0.0014961734,4.6384195E-4,0.07,1.0,-0.09,23981,9950.40,0,0,165,0.77,-2.73,0.14,0.07,1.00,-0.09
-0.11035156,5.635554E-4,5.038269E-4,-0.0015361581,0.07,1.0,-0.09,23995,9950.10,0,0,0,0.84,-2.59,0.00,0.07,1.00,-0.09
0.79003906,-4.3644384E-4,-4.9617514E-4,-0.0015361581,0.07,1.0,-0.09,24003,9951.00,0,0,165,0.77,-2.66,0.00,0.07,1.00,-0.09
-0.11035156,-4.3644384E-4,-0.0014961734,0.25346383,0.07,1.0,-0.09,24018,9950.10,0,0,0,0.77,-2.73,17.85,0.07,1.00,-0.09
-0.11035156,5.635554E-4,-4.9617514E-4,-0.0015361581,0.07,1.0,-0.08,24026,9950.10,0,0,165,0.84,-2.66,0.00,0.07,1.00,-0.08
0.19042969,-4.3644384E-4,-4.9617514E-4,-0.0015361581,0.08,1.0,-0.09,24041,9950.40,0,0,0,0.77,-2.66,0.00,0.08,1.00,-0.09
-0.11035156,-4.3644384E-4,-4.9617514E-4,-5.361581E-4,0.07,1.0,-0.09,24055,9950.10,0,0,165,0.77,-2.66,0.07,0.07,1.00,-0.09
-0.11035156,-4.3644384E-4,-4.9617514E-4,-0.0015361581,0.07,1.0,-0.09,24063,9950.10,0,0,0,0.77,-2.66,0.00,0.07,1.00,-0.09
-0.11035156,-0.001436444,-0.0014961734,-5.361581E-4,0.08,1.0,-0.09,24078,9950.10,0,0,165,0.70,-2.73,0.07,0.08,1.00,-0.09
-0.11035156,-0.001436444,-4.9617514E-4,-5.361581E-4,0.07,1.0,-0.09,24094,9950.10,0,0,0,0.70,-2.66,0.07,0.07,1.00,-0.09
-0.11035156,-0.001436444,-4.9617514E-4,-5.361581E-4,0.07,1.0,-0.09,24101,9950.10,0,0,165,0.70,-2.66,0.07,0.07,1.00,-0.09
-0.11035156,-0.001436444,-4.9617514E-4,-0.002536158,0.07,1.0,-0.09,24115,9950.10,0,0,0,0.70,-2.66,-0.07,0.07,1.00,-0.09
-1.1103516,-4.3644384E-4,5.038269E-4,-5.361581E-4,0.07,1.0,-0.08,24131,9949.10,0,0,165,0.77,-2.59,0.07,0.07,1.00,-0.08
1.0898438,5.635554E-4,-4.9617514E-4,-0.002536158,0.07,1.0,-0.09,24138,9951.30,0,0,0,0.84,-2.66,-0.07,0.07,1.00,-0.09
-0.11035156,-4.3644384E-4,5.038269E-4,-0.002536158,0.07,1.0,-0.09,24153,9950.10,0,0,165,0.77,-2.59,-0.07,0.07,1.00,-0.09
0.19042969,-4.3644384E-4,5.038269E-4,-5.361581E-4,0.07,1.0,-0.09,24168,9950.40,0,0,0,0.77,-2.59,0.07,0.07,1.00,-0.09
0.79003906,5.635554E-4,5.038269E-4,-0.0035361582,0.07,1.0,-0.09,24177,9951.00,0,0,165,0.84,-2.59,-0.14,0.07,1.00,-0.09
-0.8095703,5.635554E-4,5.038269E-4,-0.0015361581,0.07,1.0,-0.09,24191,9949.40,0,0,0,0.84,-2.59,0.00,0.07,1.00,-0.09
-0.11035156,0.0015635565,-4.9617514E-4,-0.002536158,0.07,1.0,-0.09,24206,9950.10,0,0,165,0.91,-2.66,-0.07,0.07,1.00,-0.09
-0.11035156,-4.3644384E-4,5.038269E-4,-0.0015361581,0.07,1.0,-0.09,24214,9950.10,0,0,0,0.77,-2.59,0.00,0.07,1.00,-0.09
-0.11035156,0.0015635565,5.038269E-4,-5.361581E-4,0.07,1.0,-0.09,24228,9950.10,0,0,165,0.91,-2.59,0.07,0.07,1.00,-0.09
0.79003906,5.635554E-4,-4.9617514E-4,-5.361581E-4,0.07,1.0,-0.09,24244,9951.00,0,0,0,0.84,-2.66,0.07,0.07,1.00,-0.09
0.19042969,5.635554E-4,5.038269E-4,4.6384195E-4,0.07,1.0,-0.09,24251,9950.40,0,0,165,0.84,-2.59,0.14,0.07,1.00,-0.09
1.7900391,-0.001436444,-4.9617514E-4,-0.0015361581,0.07,1.0,-0.09,24266,9952.00,0,0,0,0.70,-2.66,0.00,0.07,1.00,-0.09
0.19042969,-4.3644384E-4,-0.0014961734,-0.0015361581,0.07,1.0,-0.09,24281,9950.40,0,0,165,0.77,-2.73,0.00,0.07,1.00,-0.09
-0.11035156,5.635554E-4,5.038269E-4,-0.0015361581,0.07,1.0,-0.09,24288,9950.10,0,0,0,0.84,-2.59,0.00,0.07,1.00,-0.09
0.19042969,-0.001436444,-4.9617514E-4,-5.361581E-4,0.07,1.0,-0.09,24303,9950.40,0,0,165,0.70,-2.66,0.07,0.07,1.00,-0.09
-0.11035156,-4.3644384E-4,-4.9617514E-4,-0.0015361581,0.07,1.0,-0.09,24318,9950.10,0,0,0,0.77,-2.66,0.00,0.07,1.00,-0.09
-0.11035156,-4.3644384E-4,-4.9617514E-4,-0.0015361581,0.07,1.0,-0.09,24326,9950.10,0,0,165,0.77,-2.66,0.00,0.07,1.00,-0.09
-0.11035156,-4.3644384E-4,5.038269E-4,4.6384195E-4,0.07,1.0,-0.09,24342,9950.10,0,0,0,0.77,-2.59,0.14,0.07,1.00,-0.09
-0.11035156,-4.3644384E-4,-4.9617514E-4,-0.0015361581,0.07,1.0,-0.09,24349,9950.10,0,0,165,0.77,-2.66,0.00,0.07,1.00,-0.09
0.19042969,5.635554E-4,-4.9617514E-4,4.6384195E-4,0.07,1.0,-0.09,24363,9950.40,0,0,0,0.84,-2.66,0.14,0.07,1.00,-0.09
-0.11035156,-4.3644384E-4,5.038269E-4,-0.002536158,0.07,1.0,-0.09,24379,9950.10,0,0,165,0.77,-2.59,-0.07,0.07,1.00,-0.09
0.19042969,5.635554E-4,-4.9617514E-4,-5.361581E-4,0.07,1.0,-0.09,24385,9950.40,0,0,0,0.84,-2.66,0.07,0.07,1.00,-0.09
-0.11035156,-4.3644384E-4,5.038269E-4,-0.0015361581,0.07,1.0,-0.09,24401,9950.10,0,0,165,0.77,-2.59,0.00,0.07,1.00,-0.09
-0.11035156,0.0015635565,0.0015038289,-5.361581E-4,0.07,1.0,-0.09,24416,9950.10,0,0,0,0.91,-2.52,0.07,0.07,1.00,-0.09
1.0898438,-0.001436444,0.0015038289,4.6384195E-4,0.07,1.0,-0.09,24424,9951.30,0,0,165,0.70,-2.52,0.14,0.07,1.00,-0.09
-0.11035156,5.635554E-4,5.038269E-4,-5.361581E-4,0.07,1.0,-0.09,24438,9950.10,0,0,0,0.84,-2.59,0.07,0.07,1.00,-0.09
0.19042969,-4.3644384E-4,0.0015038289,-0.0015361581,0.07,1.0,-0.09,24453,9950.40,0,0,165,0.77,-2.52,0.00,0.07,1.00,-0.09
0.19042969,5.635554E-4,-4.9617514E-4,-5.361581E-4,0.07,1.0,-0.09,24460,9950.40,0,0,0,0.84,-2.66,0.07,0.07,1.00,-0.09
-0.8095703,0.0015635565,5.038269E-4,-0.0015361581,0.08,1.0,-0.09,24476,9949.40,0,0,165,0.91,-2.59,0.00,0.08,1.00,-0.09
-0.11035156,-0.001436444,-4.9617514E-4,-0.002536158,0.07,1.0,-0.09,24491,9950.10,0,0,0,0.70,-2.66,-0.07,0.07,1.00,-0.09
0.19042969,5.635554E-4,5.038269E-4,-5.361581E-4,0.07,1.0,-0.09,24498,9950.40,0,0,165,0.84,-2.59,0.07,0.07,1.00,-0.09
-0.11035156,-4.3644384E-4,5.038269E-4,-5.361581E-4,0.07,1.0,-0.09,24514,9950.10,0,0,0,0.77,-2.59,0.07,0.07,1.00,-0.09
-0.11035156,-4.3644384E-4,5.038269E-4,-5.361581E-4,0.07,1.0,-0.09,24529,9950.10,0,0,165,0.77,-2.59,0.07,0.07,1.00,-0.09
-0.11035156,-0.001436444,-4.9617514E-4,-0.0015361581,0.07,1.0,-0.09,24536,9950.10,0,0,0,0.70,-2.66,0.00,0.07,1.00,-0.09
0.19042969,5.635554E-4,-4.9617514E-4,-0.002536158,0.07,1.0,-0.09,24551,9950.40,0,0,165,0.84,-2.66,-0.07,0.07,1.00,-0.09
0.19042969,-0.0024364442,-4.9617514E-4,4.6384195E-4,0.07,1.0,-0.08,24566,9950.40,0,0,0,0.63,-2.66,0.14,0.07,1.00,-0.08
-0.11035156,-4.3644384E-4,-4.9617514E-4,-0.0015361581,0.07,1.0,-0.09,24573,9950.10,0,0,165,0.77,-2.66,0.00,0.07,1.00,-0.09
-0.11035156,-4.3644384E-4,-4.9617514E-4,-5.361581E-4,0.08,1.0,-0.09,24588,9950.10,0,0,0,0.77,-2.66,0.07,0.08,1.00,-0.09
0.19042969,5.635554E-4,5.038269E-4,4.6384195E-4,0.07,1.0,-0.09,24603,9950.40,0,0,165,0.84,-2.59,0.14,0.07,1.00,-0.09
0.19042969,5.635554E-4,5.038269E-4,-5.361581E-4,0.07,1.0,-0.09,24610,9950.40,0,0,0,0.84,-2.59,0.07,0.07,1.00,-0.09
0.79003906,0.0015635565,5.038269E-4,-5.361581E-4,0.07,1.0,-0.09,24625,9951.00,0,0,165,0.91,-2.59,0.07,0.07,1.00,-0.09
0.19042969,-4.3644384E-4,5.038269E-4,-0.0015361581,0.07,1.0,-0.09,24641,9950.40,0,0,0,0.77,-2.59,0.00,0.07,1.00,-0.09
-0.8095703,-4.3644384E-4,-4.9617514E-4,-0.0015361581,0.07,1.0,-0.09,24648,9949.40,0,0,165,0.77,-2.66,0.00,0.07,1.00,-0.09
-1.1103516,5.635554E-4,-4.9617514E-4,0.0014638416,0.07,1.0,-0.09,24663,9949.10,0,0,0,0.84,-2.66,0.21,0.07,1.00,-0.09
-0.11035156,-4.3644384E-4,-4.9617514E-4,-5.361581E-4,0.07,1.0,-0.09,24678,9950.10,0,0,165,0.77,-2.66,0.07,0.07,1.00,-0.09
0.19042969,0.0025635567,0.0015038289,-5.361581E-4,0.07,1.0,-0.09,24685,9950.40,0,0,0,0.98,-2.52,0.07,0.07,1.00,-0.09
-0.11035156,0.0015635565,0.0015038289,-5.361581E-4,0.07,1.0,-0.09,24701,9950.10,0,0,165,0.91,-2.52,0.07,0.07,1.00,-0.09
-0.8095703,-0.001436444,5.038269E-4,-0.002536158,0.07,1.0,-0.09,24716,9949.40,0,0,0,0.70,-2.59,-0.07,0.07,1.00,-0.09
0.19042969,-0.001436444,-4.9617514E-4,-0.0015361581,0.07,1.0,-0.09,24724,9950.40,0,0,165,0.70,-2.66,0.00,0.07,1.00,-0.09
-0.11035156,-0.001436444,-4.9617514E-4,-5.361581E-4,0.07,1.0,-0.09,24738,9950.10,0,0,0,0.70,-2.66,0.07,0.07,1.00,-0.09
-0.8095703,-4.3644384E-4,-4.9617514E-4,-5.361581E-4,0.07,1.0,-0.09,24753,9949.40,0,0,165,0.77,-2.66,0.07,0.07,1.00,-0.09
-0.11035156,-4.3644384E-4,5.038269E-4,-5.361581E-4,0.07,1.0,-0.09,24761,9950.10,0,0,0,0.77,-2.59,0.07,0.07,1.00,-0.09
-0.8095703,-4.3644384E-4,5.038269E-4,-0.0015361581,0.07,1.0,-0.09,24776,9949.40,0,0,165,0.77,-2.59,0.00,0.07,1.00,-0.09
0.79003906,5.635554E-4,0.0015038289,4.6384195E-4,0.07,1.0,-0.09,24790,9951.00,0,0,0,0.84,-2.52,0.14,0.07,1.00,-0.09
-0.11035156,-4.3644384E-4,5.038269E-4,-5.361581E-4,0.07,1.0,-0.09,24798,9950.10,0,0,165,0.77,-2.59,0.07,0.07,1.00,-0.09
-1.1103516,0.0015635565,0.0015038289,-5.361581E-4,0.07,1.0,-0.09,24813,9949.10,0,0,0,0.91,-2.52,0.07,0.07,1.00,-0.09
-0.11035156,5.635554E-4,5.038269E-4,-0.0015361581,0.07,1.0,-0.09,24828,9950.10,0,0,165,0.84,-2.59,0.00,0.07,1.00,-0.09
0.79003906,-4.3644384E-4,5.038269E-4,-0.0015361581,0.07,1.0,-0.09,24836,9951.00,0,0,0,0.77,-2.59,0.00,0.07,1.00,-0.09
0.19042969,-0.001436444,-4.9617514E-4,-0.0035361582,0.07,1.0,-0.09,24851,9950.40,0,0,165,0.70,-2.66,-0.14,0.07,1.00,-0.09
-0.11035156,-4.3644384E-4,-4.9617514E-4,-0.0015361581,0.07,1.0,-0.09,24865,9950.10,0,0,0,0.77,-2.66,0.00,0.07,1.00,-0.09
0.19042969,5.635554E-4,-4.9617514E-4,-0.0015361581,0.07,1.0,-0.09,24874,9950.40,0,0,165,0.84,-2.66,0.00,0.07,1.00,-0.09
0.19042969,-0.0024364442,-4.9617514E-4,-0.002536158,0.07,1.0,-0.09,24889,9950.40,0,0,0,0.63,-2.66,-0.07,0.07,1.00,-0.09
-0.11035156,5.635554E-4,5.038269E-4,-0.0015361581,0.07,1.0,-0.09,24910,9950.10,0,0,165,0.84,-2.59,0.00,0.07,1.00,-0.09
-0.8095703,-4.3644384E-4,5.038269E-4,-0.0015361581,0.07,1.0,-0.09,24912,9949.40,0,0,0,0.77,-2.59,0.00,0.07,1.00,-0.09
-0.11035156,-4.3644384E-4,5.038269E-4,-5.361581E-4,0.07,1.0,-0.09,24926,9950.10,0,0,165,0.77,-2.59,0.07,0.07,1.00,-0.09
0.19042969,-4.3644384E-4,-4.9617514E-4,-0.0015361581,0.07,1.0,-0.09,24942,9950.40,0,0,0,0.77,-2.66,0.00,0.07,1.00,-0.09
-0.11035156,-4.3644384E-4,5.038269E-4,-0.002536158,0.07,1.0,-0.09,24948,9950.10,0,0,165,0.77,-2.59,-0.07,0.07,1.00,-0.09
0.19042969,-4.3644384E-4,-4.9617514E-4,-0.0015361581,0.07,1.0,-0.09,24963,9950.40,0,0,0,0.77,-2.66,0.00,0.07,1.00,-0.09
-1.1103516,5.635554E-4,-4.9617514E-4,-0.0015361581,0.07,1.0,-0.09,24978,9949.10,0,0,165,0.84,-2.66,0.00,0.07,1.00,-0.09
-0.8095703,-4.3644384E-4,-4.9617514E-4,-5.361581E-4,0.07,1.0,-0.09,24985,9949.40,0,0,0,0.77,-2.66,0.07,0.07,1.00,-0.09
-0.11035156,-4.3644384E-4,-4.9617514E-4,-0.002536158,0.07,1.0,-0.09,25001,9950.10,0,0,165,0.77,-2.66,-0.07,0.07,1.00,-0.09
0.79003906,0.0015635565,0.0015038289,-5.361581E-4,0.07,1.0,-0.09,25016,9951.00,0,0,0,0.91,-2.52,0.07,0.07,1.00,-0.09
-0.11035156,-4.3644384E-4,-4.9617514E-4,-0.0015361581,0.07,1.0,-0.09,25024,9950.10,0,0,165,0.77,-2.66,0.00,0.07,1.00,-0.09
-0.11035156,-4.3644384E-4,-4.9617514E-4,4.6384195E-4,0.07,1.0,-0.09,25038,9950.10,0,0,0,0.77,-2.66,0.14,0.07,1.00,-0.09
0.19042969,-4.3644384E-4,-4.9617514E-4,-0.002536158,0.07,1.0,-0.09,25053,9950.40,0,0,165,0.77,-2.66,-0.07,0.07,1.00,-0.09
0.19042969,-4.3644384E-4,-4.9617514E-4,-0.0035361582,0.07,1.0,-0.09,25061,9950.40,0,0,0,0.77,-2.66,-0.14,0.07,1.00,-0.09
-0.11035156,-4.3644384E-4,5.038269E-4,-0.002536158,0.08,1.0,-0.09,25076,9950.10,0,0,165,0.77,-2.59,-0.07,0.08,1.00,-0.09
-0.11035156,-4.3644384E-4,5.038269E-4,-0.0015361581,0.07,1.0,-0.09,25083,9950.10,0,0,0,0.77,-2.59,0.00,0.07,1.00,-0.09
-0.11035156,5.635554E-4,5.038269E-4,-0.0015361581,0.07,1.0,-0.09,25098,9950.10,0,0,165,0.84,-2.59,0.00,0.07,1.00,-0.09
0.19042969,5.635554E-4,-4.9617514E-4,-0.0015361581,0.08,1.0,-0.09,25113,9950.40,0,0,0,0.84,-2.66,0.00,0.08,1.00,-0.09
0.49023438,-4.3644384E-4,5.038269E-4,-0.0015361581,0.07,1.0,-0.09,25120,9950.70,0,0,165,0.77,-2.59,0.00,0.07,1.00,-0.09
-0.11035156,5.635554E-4,-4.9617514E-4,-5.361581E-4,0.07,1.0,-0.09,25135,9950.10,0,0,0,0.84,-2.66,0.07,0.07,1.00,-0.09
0.19042969,5.635554E-4,-4.9617514E-4,-5.361581E-4,0.07,1.0,-0.09,25150,9950.40,0,0,165,0.84,-2.66,0.07,0.07,1.00,-0.09
-1.1103516,5.635554E-4,-4.9617514E-4,-0.002536158,0.07,1.0,-0.09,25158,9949.10,0,0,0,0.84,-2.66,-0.07,0.07,1.00,-0.09
-0.11035156,5.635554E-4,5.038269E-4,4.6384195E-4,0.07,1.0,-0.09,25174,9950.10,0,0,165,0.84,-2.59,0.14,0.07,1.00,-0.09
0.19042969,0.0015635565,5.038269E-4,-0.002536158,0.07,1.0,-0.09,25188,9950.40,0,0,0,0.91,-2.59,-0.07,0.07,1.00,-0.09
-1.1103516,-0.001436444,-4.9617514E-4,-0.0015361581,0.07,1.0,-0.09,25196,9949.10,0,0,165,0.70,-2.66,0.00,0.07,1.00,-0.09
0.19042969,0.0015635565,5.038269E-4,-0.0015361581,0.07,1.0,-0.08,25210,9950.40,0,0,0,0.91,-2.59,0.00,0.07,1.00,-0.08
-0.8095703,-4.3644384E-4,5.038269E-4,-0.0015361581,0.07,1.0,-0.09,25226,9949.40,0,0,165,0.77,-2.59,0.00,0.07,1.00,-0.09
