Pressure_Rel,GyroX_Rel,GyroY_Rel,GyroZ_Rel,AccX_Rel,AccY_Rel,AccZ_Rel,Timestamp,Pressure_abs,HeartRate,Oxygen,Status,GyroX,GyroY,GyroZ,AccX,AccY,AccZ
0.0,0.0,0.0,0.0,0.0,0.0,0.0,4905,9940.60,0,0,165,1.12,-2.73,-0.14,-0.08,0.97,0.28
0.0,0.0,0.0,0.0,0.0,0.0,0.0,4930,9941.30,0,0,0,1.40,-2.59,-0.07,-0.08,0.97,0.27
0.0,0.0,0.0,0.0,0.0,0.0,0.0,4937,9940.60,0,0,165,1.47,-2.31,0.00,-0.08,0.97,0.27
0.0,0.0,0.0,0.0,0.0,0.0,0.0,4942,9940.60,0,0,0,1.47,-2.38,-0.21,-0.08,0.97,0.27
0.0,0.0,0.0,0.0,0.0,0.0,0.0,4958,9940.60,0,0,165,1.40,-2.45,0.00,-0.08,0.97,0.27
0.0,0.0,0.0,0.0,0.0,0.0,0.0,4973,9940.60,0,0,0,0.77,-2.45,-0.21,-0.08,0.97,0.27
0.0,0.0,0.0,0.0,0.0,0.0,0.0,4981,9940.90,0,0,165,0.00,-2.66,-0.28,-0.08,0.97,0.27
0.0,0.0,0.0,0.0,0.0,0.0,0.0,4996,9940.60,0,0,0,-0.35,-2.59,-0.21,-0.08,0.97,0.27
0.0,0.0,0.0,0.0,0.0,0.0,0.0,5011,9940.90,0,0,165,0.07,-2.73,-0.14,-0.08,0.97,0.27
0.0,0.0,0.0,0.0,0.0,0.0,0.0,5018,9940.60,0,0,0,1.05,-2.52,-0.07,-0.08,0.97,0.27
0.0,0.0,0.0,0.0,0.0,0.0,0.0,5033,9940.60,0,0,165,1.82,-2.38,0.14,-0.08,0.97,0.28
0.0,0.0,0.0,0.0,0.0,0.0,0.0,5048,9940.60,0,0,0,2.17,-2.38,0.00,-0.08,0.97,0.27
0.0,0.0,0.0,0.0,0.0,0.0,0.0,5056,9940.90,0,0,165,1.75,-2.38,0.00,-0.08,0.97,0.27
0.0,0.0,0.0,0.0,0.0,0.0,0.0,5070,9940.90,0,0,0,0.84,-2.59,0.00,-0.08,0.97,0.27
0.0,0.0,0.0,0.0,0.0,0.0,0.0,5077,9940.90,0,0,165,0.14,-2.45,0.00,-0.08,0.97,0.27
0.0,0.0,0.0,0.0,0.0,0.0,0.0,5093,9940.90,0,0,0,-0.35,-2.59,0.00,-0.08,0.97,0.27
0.0,0.0,0.0,0.0,0.0,0.0,0.0,5109,9940.90,0,0,165,0.28,-2.59,-0.07,-0.08,0.97,0.27
0.0,0.0,0.0,0.0,0.0,0.0,0.0,5115,9940.90,0,0,0,1.26,-2.45,-0.07,-0.08,0.97,0.27
0.0,0.0,0.0,0.0,0.0,0.0,0.0,5131,9940.00,0,0,165,1.82,-2.45,0.00,-0.08,0.97,0.28
0.0,0.0,0.0,0.0,0.0,0.0,0.0,5145,9940.60,0,0,0,1.47,-2.31,0.00,-0.08,0.97,0.28
0.0,0.0,0.0,0.0,0.0,0.0,0.0,5154,9940.90,0,0,165,0.70,-2.38,-0.07,-0.08,0.97,0.27
0.0,0.0,0.0,0.0,0.0,0.0,0.0,5168,9940.60,0,0,0,-0.07,-2.38,-0.07,-0.08,0.97,0.27
0.0,0.0,0.0,0.0,0.0,0.0,0.0,5183,9941.90,0,0,165,0.07,-2.59,-0.28,-0.08,0.97,0.27
0.0,0.0,0.0,0.0,0.0,0.0,0.0,5191,9940.00,0,0,0,0.91,-2.52,-0.21,-0.08,0.97,0.27
0.0,0.0,0.0,0.0,0.0,0.0,0.0,5206,9940.00,0,0,165,1.68,-2.52,-0.14,-0.08,0.97,0.27
0.0,0.0,0.0,0.0,0.0,0.0,0.0,5221,9940.30,0,0,0,2.03,-2.52,0.07,-0.08,0.97,0.27
0.0,0.0,0.0,0.0,0.0,0.0,0.0,5228,9940.00,0,0,165,1.33,-2.31,0.21,-0.08,0.97,0.27
0.0,0.0,0.0,0.0,0.0,0.0,0.0,5243,9940.60,0,0,0,0.63,-2.31,0.14,-0.08,0.97,0.27
0.0,0.0,0.0,0.0,0.0,0.0,0.0,5258,9940.00,0,0,165,0.07,-2.31,0.14,-0.08,0.97,0.28
0.0,0.0,0.0,0.0,0.0,0.0,0.0,5265,9940.00,0,0,0,-0.28,-2.38,-0.14,-0.08,0.97,0.27
0.0,0.0,0.0,0.0,0.0,0.0,0.0,5280,9940.90,0,0,165,0.28,-2.52,-0.35,-0.08,0.97,0.27
0.0,0.0,0.0,0.0,0.0,0.0,0.0,5295,9941.90,0,0,0,0.91,-2.80,-0.49,-0.08,0.97,0.27
0.0,0.0,0.0,0.0,0.0,0.0,0.0,5303,9941.90,0,0,165,1.33,-2.73,-0.35,-0.08,0.97,0.27
0.0,0.0,0.0,0.0,0.0,0.0,0.0,5318,9940.90,0,0,0,1.54,-2.73,-0.21,-0.08,0.97,0.27
0.0,0.0,0.0,0.0,0.0,0.0,0.0,5340,9940.90,0,0,165,1.82,-2.73,0.00,-0.08,0.97,0.27
0.0,0.0,0.0,0.0,0.0,0.0,0.0,5342,9941.90,0,0,0,2.10,-2.59,0.14,-0.08,0.97,0.27
0.0,0.0,0.0,0.0,0.0,0.0,0.0,5356,9940.90,0,0,165,1.89,-2.66,0.07,-0.08,0.97,0.27
0.0,0.0,0.0,0.0,0.0,0.0,0.0,5370,9940.90,0,0,0,1.33,-2.66,-0.07,-0.08,0.97,0.27
0.0,0.0,0.0,0.0,0.0,0.0,0.0,5378,9940.00,0,0,165,0.35,-2.45,0.07,-0.08,0.97,0.27
0.0,0.0,0.0,0.0,0.0,0.0,0.0,5393,9942.20,0,0,0,-0.14,-2.52,0.07,-0.08,0.97,0.27
0.0,0.0,0.0,0.0,0.0,0.0,0.0,5408,9940.90,0,0,165,0.42,-2.52,-0.07,-0.08,0.97,0.27
0.0,0.0,0.0,0.0,0.0,0.0,0.0,5415,9940.90,0,0,0,1.96,-2.38,0.07,-0.09,0.97,0.27
0.0,0.0,0.0,0.0,0.0,0.0,0.0,5430,9940.90,0,0,165,2.80,-2.52,0.07,-0.09,0.97,0.27
0.0,0.0,0.0,0.0,0.0,0.0,0.0,5445,9941.30,0,0,0,1.96,-2.52,0.00,-0.08,0.97,0.27
0.0,0.0,0.0,0.0,0.0,0.0,0.0,5454,9940.90,0,0,165,0.49,-2.66,-0.07,-0.08,0.96,0.27
0.0,0.0,0.0,0.0,0.0,0.0,0.0,5468,9940.00,0,0,0,-0.56,-2.66,-0.07,-0.08,0.97,0.27
0.0,0.0,0.0,0.0,0.0,0.0,0.0,5475,9940.90,0,0,165,-0.49,-2.59,0.14,-0.08,0.97,0.27
0.0,0.0,0.0,0.0,0.0,0.0,0.0,5491,9940.90,0,0,0,0.70,-2.59,0.21,-0.08,0.97,0.28
0.0,0.0,0.0,0.0,0.0,0.0,0.0,5505,9940.90,0,0,165,2.03,-2.59,0.21,-0.08,0.97,0.27
0.0,0.0,0.0,0.0,0.0,0.0,0.0,5514,9939.00,0,0,0,2.52,-2.45,0.14,-0.08,0.97,0.27
0.0,0.0,0.0,0.0,0.0,0.0,0.0,5528,9940.90,0,0,165,1.54,-2.59,0.00,-0.08,0.97,0.27
0.0,0.0,0.0,0.0,0.0,0.0,0.0,5543,9940.90,0,0,0,0.00,-2.45,-0.07,-0.08,0.97,0.27
0.0,0.0,0.0,0.0,0.0,0.0,0.0,5551,9941.90,0,0,165,-0.91,-2.52,-0.21,-0.07,0.97,0.27
0.0,0.0,0.0,0.0,0.0,0.0,0.0,5565,9940.00,0,0,0,-0.84,-2.52,-0.14,-0.08,0.97,0.28
0.0,0.0,0.0,0.0,0.0,0.0,0.0,5581,9940.00,0,0,165,0.21,-2.66,0.00,-0.08,0.97,0.27
0.0,0.0,0.0,0.0,0.0,0.0,0.0,5588,9941.30,0,0,0,1.33,-2.66,-0.14,-0.08,0.97,0.28
0.0,0.0,0.0,0.0,0.0,0.0,0.0,5603,9940.00,0,0,165,2.10,-2.66,-0.28,-0.08,0.97,0.28
0.0,0.0,0.0,0.0,0.0,0.0,0.0,5618,9940.00,0,0,0,2.03,-2.59,-0.21,-0.08,0.97,0.27
0.0,0.0,0.0,0.0,0.0,0.0,0.0,5625,9940.90,0,0,165,1.47,-2.59,-0.07,-0.08,0.97,0.27
0.0,0.0,0.0,0.0,0.0,0.0,0.0,5640,9940.90,0,0,0,0.70,-2.66,0.00,-0.08,0.97,0.27
0.0,0.0,0.0,0.0,0.0,0.0,0.0,5655,9940.90,0,0,165,0.28,-2.59,0.14,-0.08,0.97,0.27
0.0,0.0,0.0,0.0,0.0,0.0,0.0,5663,9940.00,0,0,0,0.28,-2.66,0.14,-0.08,0.97,0.27
0.0,0.0,0.0,0.0,0.0,0.0,0.0,5686,9941.30,0,0,165,0.70,-2.66,0.07,-0.08,0.97,0.28
0.0,0.0,0.0,0.0,0.0,0.0,0.0,5693,9940.00,0,0,0,1.12,-2.52,0.21,-0.08,0.97,0.28
0.0,0.0,0.0,0.0,0.0,0.0,0.0,5701,9940.00,0,0,165,1.68,-2.38,0.14,-0.08,0.97,0.27
0.0,0.0,0.0,0.0,0.0,0.0,0.0,5715,9940.30,0,0,0,1.96,-2.52,0.07,-0.09,0.97,0.27
0.0,0.0,0.0,0.0,0.0,0.0,0.0,5730,9940.00,0,0,165,1.89,-2.38,0.35,-0.08,0.97,0.27
0.0,0.0,0.0,0.0,0.0,0.0,0.0,5738,9940.90,0,0,0,1.47,-2.59,0.35,-0.08,0.97,0.27
0.0,0.0,0.0,0.0,0.0,0.0,0.0,5753,9940.90,0,0,165,0.77,-2.66,0.35,-0.08,0.97,0.26
0.0,0.0,0.0,0.0,0.0,0.0,0.0,5768,9940.90,0,0,0,0.42,-2.73,0.07,-0.08,0.97,0.27
0.0,0.0,0.0,0.0,0.0,0.0,0.0,5775,9940.00,0,0,165,0.49,-2.66,0.14,-0.07,0.97,0.27
0.0,0.0,0.0,0.0,0.0,0.0,0.0,5791,9940.90,0,0,0,0.91,-2.66,-0.07,-0.07,0.97,0.27
0.0,0.0,0.0,0.0,0.0,0.0,0.0,5806,9941.30,0,0,165,1.05,-2.52,-0.07,-0.08,0.97,0.27
0.0,0.0,0.0,0.0,0.0,0.0,0.0,5812,9941.30,0,0,0,0.91,-2.59,-0.35,-0.07,0.97,0.27
0.0,0.0,0.0,0.0,0.0,0.0,0.0,5828,9940.00,0,0,165,0.42,-2.66,0.00,-0.08,0.97,0.27
0.0,0.0,0.0,0.0,0.0,0.0,0.0,5843,9940.90,0,0,0,0.00,-2.73,0.00,-0.08,0.97,0.27
0.0,0.0,0.0,0.0,0.0,0.0,0.0,5851,9940.00,0,0,165,-0.21,-2.80,0.00,-0.08,0.97,0.27
0.0,0.0,0.0,0.0,0.0,0.0,0.0,5865,9940.90,0,0,0,0.56,-2.73,-0.07,-0.08,0.97,0.28
0.0,0.0,0.0,0.0,0.0,0.0,0.0,5873,9940.00,0,0,165,1.47,-2.59,0.07,-0.08,0.97,0.27
0.0,0.0,0.0,0.0,0.0,0.0,0.0,5903,9940.30,0,0,0,2.59,-2.45,-0.21,-0.08,0.97,0.27
0.0,0.0,0.0,0.0,0.0,0.0,0.0,5905,9940.00,0,0,165,2.45,-2.31,-0.14,-0.08,0.97,0.27
0.0,0.0,0.0,0.0,0.0,0.0,0.0,5910,9941.30,0,0,0,1.54,-2.38,0.07,-0.08,0.97,0.27
0.0,0.0,0.0,0.0,0.0,0.0,0.0,5926,9940.00,0,0,165,0.00,-2.45,0.14,-0.08,0.97,0.27
0.0,0.0,0.0,0.0,0.0,0.0,0.0,5941,9940.00,0,0,0,-0.84,-2.52,0.28,-0.08,0.97,0.28
0.0,0.0,0.0,0.0,0.0,0.0,0.0,5947,9941.30,0,0,165,-0.28,-2.59,0.07,-0.08,0.97,0.27
0.0,0.0,0.0,0.0,0.0,0.0,0.0,5963,9940.90,0,0,0,1.33,-2.52,0.14,-0.08,0.97,0.28
0.0,0.0,0.0,0.0,0.0,0.0,0.0,5977,9941.30,0,0,165,2.80,-2.45,0.35,-0.08,0.97,0.27
0.0,0.0,0.0,0.0,0.0,0.0,0.0,5985,9940.30,0,0,0,3.22,-2.45,0.21,-0.08,0.97,0.27
0.0,0.0,0.0,0.0,0.0,0.0,0.0,6000,9940.30,0,0,165,2.17,-2.52,0.35,-0.08,0.97,0.27
0.0,0.0,0.0,0.0,0.0,0.0,0.0,6015,9940.90,0,0,0,0.56,-2.66,0.49,-0.08,0.97,0.27
0.0,0.0,0.0,0.0,0.0,0.0,0.0,6030,9941.30,0,0,165,-0.49,-2.52,0.14,-0.08,0.97,0.27
0.0,0.0,0.0,0.0,0.0,0.0,0.0,6038,9941.30,0,0,0,-0.35,-2.52,0.21,-0.08,0.97,0.27
0.0,0.0,0.0,0.0,0.0,0.0,0.0,6053,9941.30,0,0,165,1.12,-2.31,0.14,-0.08,0.97,0.27
0.0,0.0,0.0,0.0,0.0,0.0,0.0,6061,9940.30,0,0,0,2.31,-2.24,0.07,-0.08,0.97,0.27
0.0,0.0,0.0,0.0,0.0,0.0,0.0,6075,9940.30,0,0,165,1.96,-2.38,-0.28,-0.08,0.97,0.27
0.0,0.0,0.0,0.0,0.0,0.0,0.0,6091,9940.30,0,0,0,0.91,-2.38,-0.14,-0.08,0.97,0.27
0.0,0.0,0.0,0.0,0.0,0.0,0.0,6098,9941.30,0,0,165,-0.21,-2.52,0.07,-0.08,0.97,0.27
0.0,0.0,0.0,0.0,0.0,0.0,0.0,6113,9940.30,0,0,0,-0.14,-2.66,0.14,-0.08,0.97,0.27
0.0,0.0,0.0,0.0,0.0,0.0,0.0,6135,9940.30,0,0,165,0.77,-2.59,0.00,-0.08,0.97,0.27
0.0,0.0,0.0,0.0,0.0,0.0,0.0,6136,9940.30,0,0,0,2.10,-2.59,-0.07,-0.08,0.97,0.27
0.0,0.0,0.0,0.0,0.0,0.0,0.0,6166,9941.30,0,0,165,3.08,-2.52,-0.28,-0.08,0.97,0.27
0.0,0.0,0.0,0.0,0.0,0.0,0.0,6167,9940.90,0,0,0,2.59,-2.52,-0.14,-0.08,0.97,0.27
0.0,0.0,0.0,0.0,0.0,0.0,0.0,6173,9940.30,0,0,165,1.26,-2.52,-0.14,-0.08,0.97,0.26
0.0,0.0,0.0,0.0,0.0,0.0,0.0,6188,9942.60,0,0,0,-0.42,-2.52,0.21,-0.08,0.96,0.27
0.0,0.0,0.0,0.0,0.0,0.0,0.0,6210,9940.30,0,0,165,-1.12,-2.52,0.42,-0.08,0.96,0.27
0.0,0.0,0.0,0.0,0.0,0.0,0.0,6211,9940.00,0,0,0,-0.56,-2.59,0.42,-0.08,0.97,0.28
0.0,0.0,0.0,0.0,0.0,0.0,0.0,6225,9940.30,0,0,165,1.26,-2.45,0.35,-0.08,0.97,0.28
0.0,0.0,0.0,0.0,0.0,0.0,0.0,6233,9940.00,0,0,0,3.08,-2.31,0.42,-0.09,0.97,0.28
0.0,0.0,0.0,0.0,0.0,0.0,0.0,6248,9940.30,0,0,165,3.43,-2.45,0.28,-0.08,0.97,0.27
0.0,0.0,0.0,0.0,0.0,0.0,0.0,6263,9940.00,0,0,0,2.66,-2.31,0.49,-0.08,0.97,0.27
0.0,0.0,0.0,0.0,0.0,0.0,0.0,6270,9940.30,0,0,165,0.84,-2.38,0.49,-0.07,0.97,0.27
0.0,0.0,0.0,0.0,0.0,0.0,0.0,6285,9940.30,0,0,0,0.14,-2.45,0.42,-0.07,0.97,0.27
0.0,0.0,0.0,0.0,0.0,0.0,0.0,6293,9940.30,0,0,165,0.14,-2.66,0.28,-0.08,0.97,0.27
0.0,0.0,0.0,0.0,0.0,0.0,0.0,6308,9940.90,0,0,0,1.05,-2.45,0.28,-0.08,0.97,0.27
0.0,0.0,0.0,0.0,0.0,0.0,0.0,6323,9940.30,0,0,165,1.82,-2.38,0.07,-0.08,0.97,0.27
0.0,0.0,0.0,0.0,0.0,0.0,0.0,6330,9941.30,0,0,0,2.24,-2.31,0.28,-0.08,0.97,0.27
0.0,0.0,0.0,0.0,0.0,0.0,0.0,6346,9940.30,0,0,165,1.89,-2.31,0.42,-0.07,0.97,0.27
0.0,0.0,0.0,0.0,0.0,0.0,0.0,6368,9941.30,0,0,0,1.05,-2.24,0.35,-0.07,0.97,0.27
0.0,0.0,0.0,0.0,0.0,0.0,0.0,6370,9940.30,0,0,165,0.63,-2.31,0.28,-0.07,0.97,0.27
0.0,0.0,0.0,0.0,0.0,0.0,0.0,6382,9940.30,0,0,0,0.70,-2.38,0.14,-0.08,0.97,0.27
0.0,0.0,0.0,0.0,0.0,0.0,0.0,6390,9941.30,0,0,165,0.91,-2.31,-0.07,-0.07,0.97,0.27
0.0,0.0,0.0,0.0,0.0,0.0,0.0,6405,9940.30,0,0,0,1.26,-2.31,0.00,-0.08,0.97,0.27
0.0,0.0,0.0,0.0,0.0,0.0,0.0,6421,9941.30,0,0,165,1.26,-2.31,0.00,-0.08,0.97,0.27
0.0,0.0,0.0,0.0,0.0,0.0,0.0,6428,9939.30,0,0,0,1.33,-2.38,0.07,-0.08,0.97,0.27
0.0,0.0,0.0,0.0,0.0,0.0,0.0,6450,9940.30,0,0,165,1.26,-2.45,0.14,-0.08,0.97,0.27
0.0,0.0,0.0,0.0,0.0,0.0,0.0,6458,9943.20,0,0,0,1.61,-2.38,0.21,-0.08,0.97,0.27
0.0,0.0,0.0,0.0,0.0,0.0,0.0,6466,9941.30,0,0,165,1.89,-2.45,0.35,-0.08,0.97,0.27
0.0,0.0,0.0,0.0,0.0,0.0,0.0,6481,9939.30,0,0,0,1.89,-2.38,0.49,-0.08,0.97,0.27
0.0,0.0,0.0,0.0,0.0,0.0,0.0,6495,9940.90,0,0,165,1.82,-2.45,0.63,-0.08,0.97,0.27
0.0,0.0,0.0,0.0,0.0,0.0,0.0,6505,9940.30,0,0,0,1.82,-2.38,0.63,-0.08,0.97,0.27
0.0,0.0,0.0,0.0,0.0,0.0,0.0,6518,9941.30,0,0,165,1.54,-2.52,0.56,-0.08,0.97,0.27
0.0,0.0,0.0,0.0,0.0,0.0,0.0,6533,9940.30,0,0,0,1.75,-2.38,0.91,-0.08,0.97,0.27
0.0,0.0,0.0,0.0,0.0,0.0,0.0,6541,9940.30,0,0,165,1.89,-2.31,0.91,-0.08,0.97,0.27
0.0,0.0,0.0,0.0,0.0,0.0,0.0,6562,9939.30,0,0,0,1.61,-2.45,0.91,-0.08,0.97,0.27
0.0,0.0,0.0,0.0,0.0,0.0,0.0,6570,9941.30,0,0,165,1.54,-2.45,1.05,-0.08,0.97,0.27
0.0,0.0,0.0,0.0,0.0,0.0,0.0,6578,9941.30,0,0,0,1.54,-2.31,0.77,-0.08,0.97,0.27
0.0,0.0,0.0,0.0,0.0,0.0,0.0,6593,9941.30,0,0,165,1.82,-2.31,0.84,-0.08,0.97,0.27
0.0,0.0,0.0,0.0,0.0,0.0,0.0,6616,9940.30,0,0,0,2.10,-2.24,0.56,-0.08,0.97,0.27
0.0,0.0,0.0,0.0,0.0,0.0,0.0,6617,9941.60,0,0,165,2.10,-2.31,0.77,-0.07,0.97,0.27
0.0,0.0,0.0,0.0,0.0,0.0,0.0,6630,9940.30,0,0,0,1.47,-2.38,0.77,-0.07,0.97,0.27
0.0,0.0,0.0,0.0,0.0,0.0,0.0,6646,9940.30,0,0,165,1.05,-2.31,0.91,-0.08,0.97,0.26
0.0,0.0,0.0,0.0,0.0,0.0,0.0,6653,9940.30,0,0,0,0.91,-2.38,1.19,-0.08,0.97,0.27
0.0,0.0,0.0,0.0,0.0,0.0,0.0,6667,9940.60,0,0,165,1.05,-2.24,1.12,-0.07,0.97,0.27
0.0,0.0,0.0,0.0,0.0,0.0,0.0,6683,9941.30,0,0,0,1.33,-2.31,0.98,-0.07,0.97,0.27
0.0,0.0,0.0,0.0,0.0,0.0,0.0,6691,9941.30,0,0,165,1.54,-2.24,0.56,-0.07,0.97,0.27
0.0,0.0,0.0,0.0,0.0,0.0,0.0,6705,9940.60,0,0,0,2.17,-2.10,0.91,-0.07,0.97,0.26
0.0,0.0,0.0,0.0,0.0,0.0,0.0,6735,9940.30,0,0,165,2.52,-2.10,1.05,-0.07,0.97,0.26
0.0,0.0,0.0,0.0,0.0,0.0,0.0,6736,9941.60,0,0,0,2.31,-2.10,1.19,-0.07,0.97,0.26
0.0,0.0,0.0,0.0,0.0,0.0,0.0,6743,9942.20,0,0,165,2.31,-2.10,1.19,-0.07,0.97,0.27
0.0,0.0,0.0,0.0,0.0,0.0,0.0,6759,9941.30,0,0,0,2.10,-2.10,0.84,-0.07,0.97,0.26
0.0,0.0,0.0,0.0,0.0,0.0,0.0,6773,9942.60,0,0,165,1.89,-2.17,0.63,-0.07,0.97,0.27
0.0,0.0,0.0,0.0,0.0,0.0,0.0,6781,9939.30,0,0,0,1.96,-2.31,0.70,-0.07,0.97,0.26
0.0,0.0,0.0,0.0,0.0,0.0,0.0,6788,9939.30,0,0,165,2.10,-2.45,1.05,-0.07,0.97,0.26
0.0,0.0,0.0,0.0,0.0,0.0,0.0,6804,9940.30,0,0,0,1.75,-2.45,1.12,-0.07,0.97,0.26
0.0,0.0,0.0,0.0,0.0,0.0,0.0,6819,9940.60,0,0,165,1.61,-2.38,0.98,-0.07,0.97,0.26
0.0,0.0,0.0,0.0,0.0,0.0,0.0,6825,9940.30,0,0,0,1.54,-2.24,0.91,-0.07,0.97,0.26
0.0,0.0,0.0,0.0,0.0,0.0,0.0,6840,9941.90,0,0,165,1.96,-2.10,0.98,-0.07,0.97,0.26
0.0,0.0,0.0,0.0,0.0,0.0,0.0,6856,9941.60,0,0,0,2.59,-2.17,0.63,-0.07,0.97,0.26
0.0,0.0,0.0,0.0,0.0,0.0,0.0,6863,9940.60,0,0,165,2.52,-2.10,0.42,-0.07,0.97,0.26
0.0,0.0,0.0,0.0,0.0,0.0,0.0,6878,9943.50,0,0,0,2.03,-2.24,0.35,-0.07,0.97,0.26
0.0,0.0,0.0,0.0,0.0,0.0,0.0,6892,9940.30,0,0,165,1.54,-2.17,0.49,-0.07,0.97,0.26
0.0,0.0,0.0,0.0,0.0,0.0,0.0,6900,9940.30,0,0,0,1.19,-2.17,0.49,-0.07,0.97,0.26
0.0,0.0,0.0,0.0,0.0,0.0,0.0,6915,9940.30,0,0,165,1.26,-2.24,0.42,-0.07,0.97,0.26
0.0,0.0,0.0,0.0,0.0,0.0,0.0,6930,9940.30,0,0,0,1.47,-2.31,0.28,-0.07,0.98,0.26
0.0,0.0,0.0,0.0,0.0,0.0,0.0,6938,9940.60,0,0,165,2.03,-2.31,0.14,-0.07,0.97,0.26
0.0,0.0,0.0,0.0,0.0,0.0,0.0,6954,9941.30,0,0,0,1.47,-2.17,0.21,-0.07,0.97,0.26
0.0,0.0,0.0,0.0,0.0,0.0,0.0,6968,9941.30,0,0,165,1.12,-2.31,0.00,-0.07,0.97,0.26
0.0,0.0,0.0,0.0,0.0,0.0,0.0,6975,9941.30,0,0,0,0.84,-2.38,0.07,-0.07,0.97,0.26
0.0,0.0,0.0,0.0,0.0,0.0,0.0,6990,9939.70,0,0,165,1.26,-2.31,0.21,-0.07,0.97,0.26
0.0,0.0,0.0,0.0,0.0,0.0,0.0,7005,9941.60,0,0,0,0.98,-2.45,-0.07,-0.07,0.97,0.26
0.0,0.0,0.0,0.0,0.0,0.0,0.0,7013,9940.30,0,0,165,0.77,-2.45,-0.21,-0.07,0.97,0.26
0.0,0.0,0.0,0.0,0.0,0.0,0.0,7028,9940.60,0,0,0,0.28,-2.52,-0.21,-0.07,0.97,0.26
0.0,0.0,0.0,0.0,0.0,0.0,0.0,7043,9940.30,0,0,165,0.21,-2.52,-0.21,-0.07,0.97,0.26
0.0,0.0,0.0,0.0,0.0,0.0,0.0,7051,9940.30,0,0,0,0.14,-2.59,-0.35,-0.07,0.97,0.26
0.0,0.0,0.0,0.0,0.0,0.0,0.0,7073,9940.60,0,0,165,0.63,-2.52,-0.28,-0.07,0.97,0.26
0.0,0.0,0.0,0.0,0.0,0.0,0.0,7080,9940.60,0,0,0,1.96,-2.52,-0.28,-0.07,0.97,0.26
0.0,0.0,0.0,0.0,0.0,0.0,0.0,7088,9940.60,0,0,165,2.87,-2.52,-0.21,-0.07,0.97,0.26
0.0,0.0,0.0,0.0,0.0,0.0,0.0,7111,9939.70,0,0,0,2.87,-2.38,-0.28,-0.07,0.97,0.26
0.0,0.0,0.0,0.0,0.0,0.0,0.0,7112,9940.60,0,0,165,1.82,-2.38,-0.28,-0.07,0.97,0.26
0.0,0.0,0.0,0.0,0.0,0.0,0.0,7125,9940.60,0,0,0,0.07,-2.45,-0.14,-0.07,0.97,0.26
0.0,0.0,0.0,0.0,0.0,0.0,0.0,7140,9940.60,0,0,165,-0.91,-2.52,-0.35,-0.07,0.97,0.26
0.0,0.0,0.0,0.0,0.0,0.0,0.0,7148,9941.60,0,0,0,-0.49,-2.38,-0.49,-0.08,0.97,0.26
0.0,0.0,0.0,0.0,0.0,0.0,0.0,7172,9940.60,0,0,165,0.56,-2.52,-0.42,-0.07,0.97,0.27
0.0,0.0,0.0,0.0,0.0,0.0,0.0,7178,9941.60,0,0,0,1.89,-2.24,-0.14,-0.07,0.97,0.27
0.0,0.0,0.0,0.0,0.0,0.0,0.0,7185,9940.60,0,0,165,2.59,-2.38,-0.14,-0.07,0.97,0.26
0.0,0.0,0.0,0.0,0.0,0.0,0.0,7208,9941.60,0,0,0,2.17,-2.24,-0.35,-0.07,0.97,0.26
0.0,0.0,0.0,0.0,0.0,0.0,0.0,7209,9940.60,0,0,165,1.19,-2.24,0.00,-0.07,0.97,0.26
0.0,0.0,0.0,0.0,0.0,0.0,0.0,7223,9940.60,0,0,0,0.28,-2.38,0.07,-0.07,0.97,0.26
0.0,0.0,0.0,0.0,0.0,0.0,0.0,7238,9940.60,0,0,165,0.00,-2.38,-0.28,-0.07,0.97,0.26
0.0,0.0,0.0,0.0,0.0,0.0,0.0,7253,9940.60,0,0,0,0.21,-2.38,-0.21,-0.07,0.97,0.26
0.0,0.0,0.0,0.0,0.0,0.0,0.0,7260,9940.60,0,0,165,0.98,-2.45,-0.35,-0.08,0.97,0.26
0.0,0.0,0.0,0.0,0.0,0.0,0.0,7276,9939.70,0,0,0,1.05,-2.52,-0.14,-0.08,0.97,0.26
0.0,0.0,0.0,0.0,0.0,0.0,0.0,7291,9940.60,0,0,165,0.91,-2.59,-0.21,-0.08,0.97,0.26
0.0,0.0,0.0,0.0,0.0,0.0,0.0,7298,9940.60,0,0,0,0.56,-2.59,-0.14,-0.08,0.97,0.26
0.0,0.0,0.0,0.0,0.0,0.0,0.0,7313,9940.60,0,0,165,0.70,-2.59,0.14,-0.07,0.97,0.26
0.0,0.0,0.0,0.0,0.0,0.0,0.0,7328,9940.60,0,0,0,1.19,-2.38,0.14,-0.07,0.97,0.26
0.0,0.0,0.0,0.0,0.0,0.0,0.0,7343,9939.30,0,0,165,1.68,-2.24,0.00,-0.07,0.98,0.26
0.0,0.0,0.0,0.0,0.0,0.0,0.0,7350,9940.60,0,0,0,1.75,-2.38,-0.21,-0.07,0.97,0.26
0.0,0.0,0.0,0.0,0.0,0.0,0.0,7365,9940.60,0,0,165,1.40,-2.45,-0.21,-0.07,0.97,0.26
0.0,0.0,0.0,0.0,0.0,0.0,0.0,7373,9940.60,0,0,0,0.84,-2.45,-0.07,-0.07,0.97,0.26
0.0,0.0,0.0,0.0,0.0,0.0,0.0,7388,9940.30,0,0,165,0.42,-2.45,0.07,-0.07,0.97,0.26
0.0,0.0,0.0,0.0,0.0,0.0,0.0,7402,9939.70,0,0,0,0.28,-2.31,0.14,-0.07,0.97,0.26
0.0,0.0,0.0,0.0,0.0,0.0,0.0,7410,9941.30,0,0,165,0.84,-2.38,0.14,-0.07,0.97,0.27
-1.3925781,0.0039502494,9.98728E-4,-0.0033432846,-0.06,0.98,0.25,17445,9939.30,0,0,0,1.26,-2.45,-0.14,-0.06,0.98,0.25
-0.09277344,-0.00404975,-1.270324E-6,-0.0023432844,-0.06,0.98,0.25,17460,9940.60,0,0,165,0.70,-2.52,-0.07,-0.06,0.98,0.25
-1.6923828,-0.00904975,-1.270324E-6,-0.0023432844,-0.06,0.97,0.25,17471,9939.00,0,0,0,0.35,-2.52,-0.07,-0.06,0.97,0.25
-0.09277344,-0.01104975,-1.270324E-6,-0.0023432844,-0.06,0.97,0.25,17482,9940.60,0,0,165,0.21,-2.52,-0.07,-0.06,0.97,0.25
-0.39257812,-0.0030497499,-0.0020012744,-3.4328434E-4,-0.06,0.98,0.25,17490,9940.30,0,0,0,0.77,-2.66,0.07,-0.06,0.98,0.25
-0.09277344,0.0019502509,-0.0010012724,-0.0023432844,-0.07,0.97,0.25,17512,9940.60,0,0,165,1.12,-2.59,-0.07,-0.07,0.97,0.25
0.90722656,0.0049502514,-0.0020012744,-0.0023432844,-0.06,0.98,0.25,17520,9941.60,0,0,0,1.33,-2.66,-0.07,-0.06,0.98,0.25
-0.09277344,0.0059502497,-1.270324E-6,-0.0043432843,-0.06,0.98,0.25,17529,9940.60,0,0,165,1.40,-2.52,-0.21,-0.06,0.98,0.25
-0.9921875,0.002950251,-1.270324E-6,-0.0023432844,-0.07,0.98,0.25,17542,9939.70,0,0,0,1.19,-2.52,-0.07,-0.07,0.98,0.25
-0.09277344,0.002950251,0.0029987283,6.567157E-4,-0.07,0.98,0.25,17557,9940.60,0,0,165,1.19,-2.31,0.14,-0.07,0.98,0.25
-0.9921875,-0.0030497499,-1.270324E-6,-0.0013432844,-0.06,0.97,0.25,17566,9939.70,0,0,0,0.77,-2.52,0.00,-0.06,0.97,0.25
-0.39257812,-0.00404975,-1.270324E-6,-0.0023432844,-0.06,0.98,0.25,17580,9940.30,0,0,165,0.70,-2.52,-0.07,-0.06,0.98,0.25
-0.09277344,-4.974939E-5,-0.0010012724,-0.0013432844,-0.07,0.98,0.25,17595,9940.60,0,0,0,0.98,-2.59,0.00,-0.07,0.98,0.25
0.90722656,9.5024984E-4,-0.0030012727,-0.0033432846,-0.07,0.98,0.25,17605,9941.60,0,0,165,1.05,-2.73,-0.14,-0.07,0.98,0.25
-0.09277344,9.5024984E-4,-0.0010012724,-3.4328434E-4,-0.07,0.98,0.25,17619,9940.60,0,0,0,1.05,-2.59,0.07,-0.07,0.98,0.25
-0.09277344,-0.0030497499,-1.270324E-6,0.002656716,-0.06,0.98,0.25,17633,9940.60,0,0,165,0.77,-2.52,0.28,-0.06,0.98,0.25
-0.09277344,-0.008049751,-1.270324E-6,-3.4328434E-4,-0.07,0.97,0.25,17640,9940.60,0,0,0,0.42,-2.52,0.07,-0.07,0.97,0.25
-0.09277344,-0.00404975,0.0029987283,-0.0013432844,-0.06,0.98,0.25,17656,9940.60,0,0,165,0.70,-2.31,0.00,-0.06,0.98,0.25
-0.09277344,-0.0020497506,0.0019987263,-0.0033432846,-0.06,0.98,0.25,17670,9940.60,0,0,0,0.84,-2.38,-0.14,-0.06,0.98,0.25
-0.09277344,-0.0010497496,-1.270324E-6,-0.0043432843,-0.06,0.98,0.25,17677,9940.60,0,0,165,0.91,-2.52,-0.21,-0.06,0.98,0.25
-0.09277344,-0.0030497499,-0.0020012744,-0.0043432843,-0.06,0.98,0.25,17693,9940.60,0,0,0,0.77,-2.66,-0.21,-0.06,0.98,0.25
-0.09277344,-0.00404975,-0.0030012727,-0.0013432844,-0.06,0.98,0.25,17708,9940.60,0,0,165,0.70,-2.73,0.00,-0.06,0.98,0.25
-0.09277344,-0.00504975,-0.0020012744,6.567157E-4,-0.06,0.98,0.25,17715,9940.60,0,0,0,0.63,-2.66,0.14,-0.06,0.98,0.25
-0.09277344,0.0019502509,-0.0010012724,6.567157E-4,-0.06,0.98,0.25,17730,9940.60,0,0,165,1.12,-2.59,0.14,-0.06,0.98,0.25
-0.09277344,0.010950251,9.98728E-4,-0.0013432844,-0.07,0.98,0.25,17745,9940.60,0,0,0,1.75,-2.45,0.00,-0.07,0.98,0.25
-0.9921875,0.013950251,-0.0010012724,-0.0043432843,-0.06,0.98,0.25,17752,9939.70,0,0,165,1.96,-2.59,-0.21,-0.06,0.98,0.25
-0.09277344,0.00695025,-0.0020012744,-0.0053432845,-0.06,0.98,0.24,17768,9940.60,0,0,0,1.47,-2.66,-0.28,-0.06,0.98,0.24
-0.09277344,-0.00404975,-0.004001271,-0.0013432844,-0.06,0.97,0.25,17775,9940.60,0,0,165,0.70,-2.80,0.00,-0.06,0.97,0.25
0.90722656,-0.01704975,-0.0020012744,6.567157E-4,-0.07,0.97,0.25,17797,9941.60,0,0,0,-0.21,-2.66,0.14,-0.07,0.97,0.25
0.90722656,-0.01604975,-0.0010012724,6.567157E-4,-0.06,0.98,0.25,17805,9941.60,0,0,165,-0.14,-2.59,0.14,-0.06,0.98,0.25
-0.09277344,9.5024984E-4,-0.0010012724,-0.0023432844,-0.06,0.98,0.25,17814,9940.60,0,0,0,1.05,-2.59,-0.07,-0.06,0.98,0.25
-0.09277344,0.019950252,-0.0020012744,-0.0023432844,-0.06,0.98,0.25,17834,9940.60,0,0,165,2.38,-2.66,-0.07,-0.06,0.98,0.25
-0.09277344,0.017950252,-0.0010012724,-0.0013432844,-0.07,0.98,0.25,17842,9940.60,0,0,0,2.24,-2.59,0.00,-0.07,0.98,0.25
-0.9921875,0.0059502497,-1.270324E-6,-3.4328434E-4,-0.07,0.98,0.25,17850,9939.70,0,0,165,1.40,-2.52,0.07,-0.07,0.98,0.25
-0.09277344,-0.01404975,-0.0010012724,-0.0013432844,-0.06,0.98,0.25,17864,9940.60,0,0,0,0.00,-2.59,0.00,-0.06,0.98,0.25
-0.09277344,-0.019049749,-0.0010012724,-3.4328434E-4,-0.06,0.97,0.25,17881,9940.60,0,0,165,-0.35,-2.59,0.07,-0.06,0.97,0.25
-0.09277344,-0.01104975,-1.270324E-6,-3.4328434E-4,-0.06,0.98,0.25,17889,9940.60,0,0,0,0.21,-2.52,0.07,-0.06,0.98,0.25
-0.09277344,0.0039502494,-1.270324E-6,-0.0013432844,-0.06,0.97,0.25,17913,9940.60,0,0,165,1.26,-2.52,0.00,-0.06,0.97,0.25
-0.09277344,0.01895025,9.98728E-4,-0.0013432844,-0.06,0.98,0.25,17919,9940.60,0,0,0,2.31,-2.45,0.00,-0.06,0.98,0.25
-0.09277344,0.01895025,0.0029987283,6.567157E-4,-0.06,0.98,0.25,17925,9940.60,0,0,165,2.31,-2.31,0.14,-0.06,0.98,0.25
0.90722656,0.002950251,9.98728E-4,6.567157E-4,-0.06,0.98,0.25,17940,9941.60,0,0,0,1.19,-2.45,0.14,-0.06,0.98,0.25
-0.09277344,-0.01604975,-1.270324E-6,-0.0023432844,-0.06,0.98,0.25,17956,9940.60,0,0,165,-0.14,-2.52,-0.07,-0.06,0.98,0.25
-0.09277344,-0.02304975,-0.0010012724,-0.0023432844,-0.06,0.98,0.25,17962,9940.60,0,0,0,-0.63,-2.59,-0.07,-0.06,0.98,0.25
-0.09277344,-0.01804975,-0.0030012727,-0.006343284,-0.06,0.98,0.25,17977,9940.60,0,0,165,-0.28,-2.73,-0.35,-0.06,0.98,0.25
-0.09277344,-0.0060497494,-1.270324E-6,-0.0053432845,-0.07,0.98,0.25,17992,9940.60,0,0,0,0.56,-2.52,-0.28,-0.07,0.98,0.25
-0.09277344,0.0039502494,0.0019987263,-0.0043432843,-0.06,0.98,0.25,18000,9940.60,0,0,165,1.26,-2.38,-0.21,-0.06,0.98,0.25
-0.09277344,0.00795025,0.0019987263,-0.0033432846,-0.07,0.98,0.25,18014,9940.60,0,0,0,1.54,-2.38,-0.14,-0.07,0.98,0.25
-0.09277344,0.002950251,0.0019987263,-0.0013432844,-0.06,0.98,0.25,18030,9940.60,0,0,165,1.19,-2.38,0.00,-0.06,0.98,0.25
-0.09277344,-0.0070497496,9.98728E-4,-3.4328434E-4,-0.07,0.98,0.25,18037,9940.60,0,0,0,0.49,-2.45,0.07,-0.07,0.98,0.25
-0.09277344,-0.01104975,9.98728E-4,0.0016567154,-0.07,0.98,0.25,18052,9940.60,0,0,165,0.21,-2.45,0.21,-0.07,0.98,0.25
-0.09277344,-0.0070497496,-0.0030012727,-3.4328434E-4,-0.06,0.98,0.25,18067,9940.60,0,0,0,0.49,-2.73,0.07,-0.06,0.98,0.25
0.3076172,9.5024984E-4,-0.0020012744,0.0016567154,-0.06,0.98,0.25,18075,9941.00,0,0,165,1.05,-2.66,0.21,-0.06,0.98,0.25
-0.09277344,0.010950251,-0.0010012724,6.567157E-4,-0.06,0.98,0.25,18090,9940.60,0,0,0,1.75,-2.59,0.14,-0.06,0.98,0.25
-0.09277344,0.0099502485,-1.270324E-6,6.567157E-4,-0.06,0.98,0.25,18105,9940.60,0,0,165,1.68,-2.52,0.14,-0.06,0.98,0.25
-0.09277344,0.00695025,-0.0020012744,0.0016567154,-0.06,0.98,0.25,18113,9940.60,0,0,0,1.47,-2.66,0.21,-0.06,0.98,0.25
0.90722656,9.5024984E-4,-0.0010012724,0.0036567156,-0.06,0.97,0.25,18127,9941.60,0,0,165,1.05,-2.59,0.35,-0.06,0.97,0.25
-0.09277344,-0.0010497496,-0.0010012724,6.567157E-4,-0.06,0.98,0.25,18142,9940.60,0,0,0,0.91,-2.59,0.14,-0.06,0.98,0.25
-0.09277344,-0.0030497499,-0.0020012744,6.567157E-4,-0.06,0.98,0.25,18150,9940.60,0,0,165,0.77,-2.66,0.14,-0.06,0.98,0.25
-0.09277344,-4.974939E-5,-0.0020012744,6.567157E-4,-0.07,0.98,0.25,18164,9940.60,0,0,0,0.98,-2.66,0.14,-0.07,0.98,0.25
-0.09277344,9.5024984E-4,-0.0020012744,0.25365672,-0.06,0.98,0.25,18180,9940.60,0,0,165,1.05,-2.66,17.85,-0.06,0.98,0.25
-0.09277344,9.5024984E-4,-0.0020012744,-0.0013432844,-0.06,0.98,0.25,18195,9940.60,0,0,0,1.05,-2.66,0.00,-0.06,0.98,0.25
-0.09277344,9.5024984E-4,-1.270324E-6,-3.4328434E-4,-0.06,0.98,0.25,18202,9940.60,0,0,165,1.05,-2.52,0.07,-0.06,0.98,0.25
-0.09277344,0.0019502509,-1.270324E-6,-0.0033432846,-0.06,0.98,0.25,18217,9940.60,0,0,0,1.12,-2.52,-0.14,-0.06,0.98,0.25
-0.9921875,0.0019502509,-1.270324E-6,-0.0033432846,-0.06,0.98,0.25,18241,9939.70,0,0,165,1.12,-2.52,-0.14,-0.06,0.98,0.25
-0.09277344,-0.0020497506,-0.0010012724,-0.0013432844,-0.06,0.98,0.25,18243,9940.60,0,0,0,0.84,-2.59,0.00,-0.06,0.98,0.25
-0.09277344,-0.008049751,9.98728E-4,-3.4328434E-4,-0.06,0.98,0.25,18255,9940.60,0,0,165,0.42,-2.45,0.07,-0.06,0.98,0.25
0.90722656,-0.0120497495,-1.270324E-6,-0.0033432846,-0.07,0.97,0.25,18262,9941.60,0,0,0,0.14,-2.52,-0.14,-0.07,0.97,0.25
-0.09277344,-0.01104975,-1.270324E-6,-0.0013432844,-0.06,0.98,0.25,18277,9940.60,0,0,165,0.21,-2.52,0.00,-0.06,0.98,0.25
0.3076172,-0.00504975,9.98728E-4,-0.0023432844,-0.06,0.98,0.25,18292,9941.00,0,0,0,0.63,-2.45,-0.07,-0.06,0.98,0.25
0.90722656,-4.974939E-5,-0.0010012724,-0.0023432844,-0.07,0.98,0.25,18301,9941.60,0,0,165,0.98,-2.59,-0.07,-0.07,0.98,0.25
-0.09277344,0.0049502514,-1.270324E-6,-0.0013432844,-0.07,0.97,0.25,18315,9940.60,0,0,0,1.33,-2.52,0.00,-0.07,0.97,0.25
-0.9921875,0.0039502494,-1.270324E-6,6.567157E-4,-0.07,0.98,0.25,18330,9939.70,0,0,165,1.26,-2.52,0.14,-0.07,0.98,0.25
-0.09277344,-4.974939E-5,-1.270324E-6,-0.0023432844,-0.06,0.98,0.25,18337,9940.60,0,0,0,0.98,-2.52,-0.07,-0.06,0.98,0.25
-0.09277344,-0.0020497506,-1.270324E-6,-0.0023432844,-0.06,0.98,0.25,18353,9940.60,0,0,165,0.84,-2.52,-0.07,-0.06,0.98,0.25
-0.09277344,-0.0030497499,9.98728E-4,-3.4328434E-4,-0.06,0.98,0.25,18371,9940.60,0,0,0,0.77,-2.45,0.07,-0.06,0.98,0.25
-0.09277344,-0.0030497499,9.98728E-4,-0.0013432844,-0.06,0.97,0.25,18375,9940.60,0,0,165,0.77,-2.45,0.00,-0.06,0.97,0.25
-0.9921875,0.0019502509,-0.0010012724,-3.4328434E-4,-0.06,0.98,0.25,18391,9939.70,0,0,0,1.12,-2.59,0.07,-0.06,0.98,0.25
-0.09277344,0.0049502514,-1.270324E-6,-3.4328434E-4,-0.06,0.98,0.25,18406,9940.60,0,0,165,1.33,-2.52,0.07,-0.06,0.98,0.25
-0.09277344,0.0059502497,-1.270324E-6,-0.0013432844,-0.07,0.98,0.25,18414,9940.60,0,0,0,1.40,-2.52,0.00,-0.07,0.98,0.25
-0.09277344,0.002950251,-1.270324E-6,-3.4328434E-4,-0.07,0.98,0.25,18430,9940.60,0,0,165,1.19,-2.52,0.07,-0.07,0.98,0.25
-0.09277344,9.5024984E-4,-0.0010012724,-0.0013432844,-0.07,0.97,0.25,18443,9940.60,0,0,0,1.05,-2.59,0.00,-0.07,0.97,0.25
-0.09277344,0.0019502509,-1.270324E-6,-0.2573433,-0.07,0.98,0.25,18450,9940.60,0,0,165,1.12,-2.52,-17.92,-0.07,0.98,0.25
-0.09277344,-4.974939E-5,0.0019987263,-0.0013432844,-0.06,0.98,0.25,18465,9940.60,0,0,0,0.98,-2.38,0.00,-0.06,0.98,0.25
-0.09277344,-0.0020497506,9.98728E-4,-0.0013432844,-0.06,0.98,0.25,18479,9940.60,0,0,165,0.84,-2.45,0.00,-0.06,0.98,0.25
-0.09277344,-0.00404975,-0.0020012744,-0.0013432844,-0.06,0.98,0.25,18487,9940.60,0,0,0,0.70,-2.66,0.00,-0.06,0.98,0.25
0.6074219,-4.974939E-5,-1.270324E-6,-3.4328434E-4,-0.06,0.98,0.25,18502,9941.30,0,0,165,0.98,-2.52,0.07,-0.06,0.98,0.25
-0.09277344,-0.0020497506,9.98728E-4,-3.4328434E-4,-0.06,0.97,0.25,18517,9940.60,0,0,0,0.84,-2.45,0.07,-0.06,0.97,0.25
-0.09277344,-0.00504975,9.98728E-4,-3.4328434E-4,-0.06,0.98,0.25,18525,9940.60,0,0,165,0.63,-2.45,0.07,-0.06,0.98,0.25
-0.09277344,-0.0030497499,0.0019987263,-0.0043432843,-0.06,0.98,0.25,18539,9940.60,0,0,0,0.77,-2.38,-0.21,-0.06,0.98,0.25
-0.09277344,-0.0010497496,0.0019987263,-0.0043432843,-0.06,0.98,0.25,18555,9940.60,0,0,165,0.91,-2.38,-0.21,-0.06,0.98,0.25
1.9072266,-0.0010497496,-0.0010012724,-0.006343284,-0.06,0.98,0.25,18563,9942.60,0,0,0,0.91,-2.59,-0.35,-0.06,0.98,0.25
-0.09277344,-0.0020497506,-0.0030012727,-0.0033432846,-0.06,0.98,0.25,18578,9940.60,0,0,165,0.84,-2.73,-0.14,-0.06,0.98,0.25
-0.39257812,-0.0070497496,-0.0030012727,-0.0023432844,-0.06,0.98,0.25,18592,9940.30,0,0,0,0.49,-2.73,-0.07,-0.06,0.98,0.25
0.3076172,-0.00504975,-0.0030012727,-0.0023432844,-0.06,0.98,0.25,18600,9941.00,0,0,165,0.63,-2.73,-0.07,-0.06,0.98,0.25
-0.09277344,0.0019502509,-1.270324E-6,-0.0043432843,-0.06,0.98,0.25,18615,9940.60,0,0,0,1.12,-2.52,-0.21,-0.06,0.98,0.25
-0.09277344,0.0099502485,0.0019987263,-0.0043432843,-0.06,0.98,0.25,18630,9940.60,0,0,165,1.68,-2.38,-0.21,-0.06,0.98,0.25
0.3076172,0.00895025,-0.0010012724,-0.0023432844,-0.07,0.98,0.25,18637,9941.00,0,0,0,1.61,-2.59,-0.07,-0.07,0.98,0.25
-0.09277344,-4.974939E-5,-0.0020012744,-0.0013432844,-0.06,0.98,0.25,18657,9940.60,0,0,165,0.98,-2.66,0.00,-0.06,0.98,0.25
-0.6923828,-0.01104975,-0.0030012727,0.0016567154,-0.06,0.97,0.25,18668,9940.00,0,0,0,0.21,-2.73,0.21,-0.06,0.97,0.25
0.3076172,-0.01504975,-0.0020012744,6.567157E-4,-0.06,0.97,0.25,18675,9941.00,0,0,165,-0.07,-2.66,0.14,-0.06,0.97,0.25
-0.09277344,-0.008049751,-0.0010012724,-0.0013432844,-0.07,0.97,0.25,18690,9940.60,0,0,0,0.42,-2.59,0.00,-0.07,0.97,0.25
0.3076172,0.0099502485,-1.270324E-6,-0.0033432846,-0.06,0.98,0.25,18706,9941.00,0,0,165,1.68,-2.52,-0.14,-0.06,0.98,0.25
-0.9921875,0.02295025,0.0019987263,-0.0013432844,-0.07,0.98,0.25,18713,9939.70,0,0,0,2.59,-2.38,0.00,-0.07,0.98,0.25
0.3076172,0.016950252,-0.0010012724,-0.2553433,-0.06,0.98,0.25,18727,9941.00,0,0,165,2.17,-2.59,-17.78,-0.06,0.98,0.25
-0.09277344,-0.0030497499,9.98728E-4,6.567157E-4,-0.06,0.98,0.25,18750,9940.60,0,0,0,0.77,-2.45,0.14,-0.06,0.98,0.25
-0.6923828,-0.02304975,9.98728E-4,-3.4328434E-4,-0.06,0.97,0.25,18753,9940.00,0,0,165,-0.63,-2.45,0.07,-0.06,0.97,0.25
-0.09277344,-0.02304975,-0.0010012724,-0.0013432844,-0.06,0.98,0.25,18764,9940.60,0,0,0,-0.63,-2.59,0.00,-0.06,0.98,0.25
-0.6923828,-0.0070497496,9.98728E-4,-3.4328434E-4,-0.07,0.98,0.26,18780,9940.00,0,0,165,0.49,-2.45,0.07,-0.07,0.98,0.26
0.3076172,0.012950251,0.0029987283,-3.4328434E-4,-0.06,0.97,0.25,18787,9941.00,0,0,0,1.89,-2.31,0.07,-0.06,0.97,0.25
0.3076172,0.019950252,0.0029987283,-0.0013432844,-0.06,0.98,0.25,18802,9941.00,0,0,165,2.38,-2.31,0.00,-0.06,0.98,0.25
-0.09277344,0.010950251,0.0019987263,-0.0023432844,-0.06,0.98,0.25,18810,9940.60,0,0,0,1.75,-2.38,-0.07,-0.06,0.98,0.25
-0.09277344,-0.0060497494,0.0029987283,-3.4328434E-4,-0.06,0.98,0.25,18824,9940.60,0,0,165,0.56,-2.31,0.07,-0.06,0.98,0.25
0.90722656,-0.019049749,-1.270324E-6,-3.4328434E-4,-0.06,0.98,0.25,18847,9941.60,0,0,0,-0.35,-2.52,0.07,-0.06,0.98,0.25
-0.6923828,-0.02104975,-1.270324E-6,-0.0013432844,-0.07,0.98,0.25,18849,9940.00,0,0,165,-0.49,-2.52,0.00,-0.07,0.98,0.25
-0.09277344,-0.00404975,9.98728E-4,-0.0033432846,-0.06,0.98,0.25,18862,9940.60,0,0,0,0.70,-2.45,-0.14,-0.06,0.98,0.25
-0.09277344,0.0049502514,9.98728E-4,-0.0053432845,-0.06,0.98,0.25,18877,9940.60,0,0,165,1.33,-2.45,-0.28,-0.06,0.98,0.25
-0.6923828,0.00895025,0.0019987263,-0.0043432843,-0.07,0.98,0.25,18885,9940.00,0,0,0,1.61,-2.38,-0.21,-0.07,0.98,0.25
0.3076172,0.0039502494,0.0019987263,-0.0033432846,-0.07,0.98,0.25,18904,9941.00,0,0,165,1.26,-2.38,-0.14,-0.07,0.98,0.25
-0.9921875,-0.00504975,0.0029987283,6.567157E-4,-0.07,0.98,0.25,18916,9939.70,0,0,0,0.63,-2.31,0.14,-0.07,0.98,0.25
-0.09277344,-0.010049749,9.98728E-4,-3.4328434E-4,-0.07,0.98,0.25,18924,9940.60,0,0,165,0.28,-2.45,0.07,-0.07,0.98,0.25
0.3076172,-0.00504975,-1.270324E-6,-0.0013432844,-0.07,0.98,0.25,18938,9941.00,0,0,0,0.63,-2.52,0.00,-0.07,0.98,0.25
-0.6923828,0.0049502514,-1.270324E-6,-0.0023432844,-0.06,0.98,0.25,18956,9940.00,0,0,165,1.33,-2.52,-0.07,-0.06,0.98,0.25
-0.6923828,0.0099502485,-1.270324E-6,-0.0013432844,-0.06,0.98,0.25,18960,9940.00,0,0,0,1.68,-2.52,0.00,-0.06,0.98,0.25
0.3076172,0.0059502497,9.98728E-4,-3.4328434E-4,-0.06,0.98,0.25,18975,9941.00,0,0,165,1.40,-2.45,0.07,-0.06,0.98,0.25
-0.09277344,-0.0020497506,0.0019987263,-0.0013432844,-0.07,0.98,0.25,18990,9940.60,0,0,0,0.84,-2.38,0.00,-0.07,0.98,0.25
-0.9921875,-0.00504975,9.98728E-4,-0.0023432844,-0.06,0.98,0.25,18997,9939.70,0,0,165,0.63,-2.45,-0.07,-0.06,0.98,0.25
0.3076172,-0.00504975,-1.270324E-6,-0.0013432844,-0.07,0.98,0.25,19012,9941.00,0,0,0,0.63,-2.52,0.00,-0.07,0.98,0.25
0.3076172,-0.0010497496,-0.0010012724,-0.0023432844,-0.06,0.98,0.25,19020,9941.00,0,0,165,0.91,-2.59,-0.07,-0.06,0.98,0.25
0.3076172,0.0039502494,-0.0010012724,-0.0013432844,-0.06,0.98,0.25,19035,9941.00,0,0,0,1.26,-2.59,0.00,-0.06,0.98,0.25
-0.6923828,0.002950251,-0.0010012724,-3.4328434E-4,-0.06,0.98,0.25,19050,9940.00,0,0,165,1.19,-2.59,0.07,-0.06,0.98,0.25
-0.09277344,9.5024984E-4,-1.270324E-6,-0.0013432844,-0.06,0.97,0.25,19057,9940.60,0,0,0,1.05,-2.52,0.00,-0.06,0.97,0.25
-0.09277344,-0.0030497499,-0.0010012724,-0.0023432844,-0.06,0.98,0.25,19072,9940.60,0,0,165,0.77,-2.59,-0.07,-0.06,0.98,0.25
-0.09277344,-0.0020497506,9.98728E-4,-0.0023432844,-0.06,0.98,0.25,19087,9940.60,0,0,0,0.84,-2.45,-0.07,-0.06,0.98,0.25
-0.09277344,0.0019502509,-1.270324E-6,-0.0023432844,-0.06,0.98,0.25,19095,9940.60,0,0,165,1.12,-2.52,-0.07,-0.06,0.98,0.25
0.90722656,-0.0010497496,-1.270324E-6,-0.0033432846,-0.06,0.98,0.25,19110,9941.60,0,0,0,0.91,-2.52,-0.14,-0.06,0.98,0.25
-0.09277344,-0.00504975,-1.270324E-6,-0.0033432846,-0.06,0.98,0.25,19125,9940.60,0,0,165,0.63,-2.52,-0.14,-0.06,0.98,0.25
0.3076172,-0.0070497496,9.98728E-4,-0.0013432844,-0.07,0.98,0.25,19133,9941.00,0,0,0,0.49,-2.45,0.00,-0.07,0.98,0.25
-0.09277344,-0.0070497496,-1.270324E-6,-0.0023432844,-0.06,0.98,0.25,19147,9940.60,0,0,165,0.49,-2.52,-0.07,-0.06,0.98,0.25
0.90722656,-0.0030497499,-1.270324E-6,-0.0013432844,-0.07,0.98,0.25,19163,9941.60,0,0,0,0.77,-2.52,0.00,-0.07,0.98,0.25
0.3076172,0.0039502494,9.98728E-4,-0.0023432844,-0.07,0.98,0.25,19170,9941.00,0,0,165,1.26,-2.45,-0.07,-0.07,0.98,0.25
-0.09277344,0.00695025,9.98728E-4,-0.0023432844,-0.06,0.98,0.25,19185,9940.60,0,0,0,1.47,-2.45,-0.07,-0.06,0.98,0.25
0.3076172,0.002950251,0.0019987263,6.567157E-4,-0.06,0.98,0.25,19200,9941.00,0,0,165,1.19,-2.38,0.14,-0.06,0.98,0.25
0.3076172,-0.0010497496,0.0019987263,6.567157E-4,-0.06,0.98,0.25,19207,9941.00,0,0,0,0.91,-2.38,0.14,-0.06,0.98,0.25
0.3076172,-0.00404975,-1.270324E-6,-3.4328434E-4,-0.06,0.98,0.25,19223,9941.00,0,0,165,0.70,-2.52,0.07,-0.06,0.98,0.25
0.3076172,-0.00504975,0.0019987263,-3.4328434E-4,-0.06,0.98,0.25,19237,9941.00,0,0,0,0.63,-2.38,0.07,-0.06,0.98,0.25
0.3076172,0.0019502509,-1.270324E-6,0.0016567154,-0.07,0.98,0.25,19245,9941.00,0,0,165,1.12,-2.52,0.21,-0.07,0.98,0.25
-0.9921875,0.0049502514,-1.270324E-6,-0.2573433,-0.07,0.98,0.25,19261,9939.70,0,0,0,1.33,-2.52,-17.92,-0.07,0.98,0.25
0.3076172,0.00695025,-1.270324E-6,6.567157E-4,-0.06,0.98,0.25,19275,9941.00,0,0,165,1.47,-2.52,0.14,-0.06,0.98,0.25
0.3076172,0.0059502497,-1.270324E-6,6.567157E-4,-0.06,0.98,0.25,19282,9941.00,0,0,0,1.40,-2.52,0.14,-0.06,0.98,0.25
1.2080078,-4.974939E-5,0.0019987263,0.002656716,-0.06,0.98,0.25,19297,9941.90,0,0,165,0.98,-2.38,0.28,-0.06,0.98,0.25
0.3076172,-0.0010497496,9.98728E-4,6.567157E-4,-0.06,0.98,0.25,19313,9941.00,0,0,0,0.91,-2.45,0.14,-0.06,0.98,0.25
0.3076172,9.5024984E-4,0.0029987283,6.567157E-4,-0.06,0.97,0.25,19319,9941.00,0,0,165,1.05,-2.31,0.14,-0.06,0.97,0.25
-0.9921875,-0.0010497496,0.0019987263,-0.0023432844,-0.06,0.98,0.25,19335,9939.70,0,0,0,0.91,-2.38,-0.07,-0.06,0.98,0.25
-0.09277344,0.002950251,9.98728E-4,6.567157E-4,-0.06,0.98,0.25,19351,9940.60,0,0,165,1.19,-2.45,0.14,-0.06,0.98,0.25
0.3076172,-4.974939E-5,-1.270324E-6,-0.0033432846,-0.06,0.98,0.25,19365,9941.00,0,0,0,0.98,-2.52,-0.14,-0.06,0.98,0.25
-0.6923828,-0.0010497496,-1.270324E-6,-0.0013432844,-0.06,0.98,0.25,19372,9940.00,0,0,165,0.91,-2.52,0.00,-0.06,0.98,0.25
-0.09277344,-0.0030497499,-0.0010012724,6.567157E-4,-0.06,0.98,0.25,19387,9940.60,0,0,0,0.77,-2.59,0.14,-0.06,0.98,0.25
1.2080078,-0.00404975,-1.270324E-6,6.567157E-4,-0.06,0.98,0.25,19395,9941.90,0,0,165,0.70,-2.52,0.14,-0.06,0.98,0.25
-0.6923828,-0.0020497506,0.0029987283,0.002656716,-0.07,0.98,0.25,19410,9940.00,0,0,0,0.84,-2.31,0.28,-0.07,0.98,0.25
-0.9921875,-0.0020497506,0.0029987283,-0.0013432844,-0.06,0.98,0.25,19424,9939.70,0,0,165,0.84,-2.31,0.00,-0.06,0.98,0.25
0.3076172,-0.0010497496,9.98728E-4,-0.0023432844,-0.07,0.98,0.25,19432,9941.00,0,0,0,0.91,-2.45,-0.07,-0.07,0.98,0.25
-0.6923828,-0.0020497506,-0.0030012727,-0.0033432846,-0.06,0.98,0.25,19448,9940.00,0,0,165,0.84,-2.73,-0.14,-0.06,0.98,0.25
-0.09277344,-0.0020497506,-0.0030012727,-0.0013432844,-0.06,0.98,0.25,19462,9940.60,0,0,0,0.84,-2.73,0.00,-0.06,0.98,0.25
1.2080078,-0.0010497496,-0.0020012744,6.567157E-4,-0.06,0.97,0.25,19471,9941.90,0,0,165,0.91,-2.66,0.14,-0.06,0.97,0.25
-0.09277344,0.0019502509,-1.270324E-6,0.002656716,-0.06,0.97,0.25,19492,9940.60,0,0,0,1.12,-2.52,0.28,-0.06,0.97,0.25
-0.9921875,0.0099502485,0.0019987263,6.567157E-4,-0.06,0.98,0.25,19500,9939.70,0,0,165,1.68,-2.38,0.14,-0.06,0.98,0.25
-0.09277344,0.013950251,9.98728E-4,-3.4328434E-4,-0.06,0.98,0.25,19507,9940.60,0,0,0,1.96,-2.45,0.07,-0.06,0.98,0.25
0.3076172,0.01595025,-0.0010012724,0.006656716,-0.06,0.98,0.25,19522,9941.00,0,0,165,2.10,-2.59,0.56,-0.06,0.98,0.25
0.3076172,0.0059502497,-0.0020012744,0.010656714,-0.06,0.97,0.25,19537,9941.00,0,0,0,1.40,-2.66,0.84,-0.06,0.97,0.25
0.3076172,-0.0010497496,-1.270324E-6,0.015656717,-0.05,0.97,0.25,19545,9941.00,0,0,165,0.91,-2.52,1.19,-0.05,0.97,0.25
-0.9921875,-0.0030497499,-0.0010012724,0.015656717,-0.06,0.97,0.26,19560,9939.70,0,0,0,0.77,-2.59,1.19,-0.06,0.97,0.26
-0.09277344,0.011950251,-0.0020012744,0.016656715,-0.06,0.98,0.26,19575,9940.60,0,0,165,1.82,-2.66,1.26,-0.06,0.98,0.26
0.3076172,0.034950253,-1.270324E-6,0.018656716,-0.06,0.98,0.25,19582,9941.00,0,0,0,3.43,-2.52,1.40,-0.06,0.98,0.25
-0.09277344,0.04495025,9.98728E-4,0.017656717,-0.07,0.98,0.25,19597,9940.60,0,0,165,4.13,-2.45,1.33,-0.07,0.98,0.25
0.3076172,0.03695025,0.0019987263,0.018656716,-0.07,0.98,0.25,19613,9941.00,0,0,0,3.57,-2.38,1.40,-0.07,0.98,0.25
0.3076172,0.021950249,0.0019987263,0.018656716,-0.07,0.98,0.24,19620,9941.00,0,0,165,2.52,-2.38,1.40,-0.07,0.98,0.24
-0.6923828,0.00895025,0.0029987283,0.024656717,-0.07,0.98,0.24,19636,9940.00,0,0,0,1.61,-2.31,1.82,-0.07,0.98,0.24
0.3076172,0.00795025,9.98728E-4,0.021656716,-0.07,0.98,0.24,19650,9941.00,0,0,165,1.54,-2.45,1.61,-0.07,0.98,0.24
0.3076172,0.01595025,0.0019987263,0.018656716,-0.07,0.98,0.24,19657,9941.00,0,0,0,2.10,-2.38,1.40,-0.07,0.98,0.24
-0.6923828,0.023950253,0.0029987283,0.015656717,-0.07,0.98,0.24,19672,9940.00,0,0,165,2.66,-2.31,1.19,-0.07,0.98,0.24
0.3076172,0.01895025,0.0029987283,0.011656716,-0.07,0.98,0.24,19687,9941.00,0,0,0,2.31,-2.31,0.91,-0.07,0.98,0.24
0.3076172,0.0019502509,0.0039987266,0.009656715,-0.07,0.98,0.24,19702,9941.00,0,0,165,1.12,-2.24,0.77,-0.07,0.98,0.24
0.6074219,-0.02304975,0.0019987263,0.005656716,-0.06,0.98,0.24,19710,9941.30,0,0,0,-0.63,-2.38,0.49,-0.06,0.98,0.24
0.3076172,-0.03304975,0.0029987283,0.0016567154,-0.06,0.98,0.25,19724,9941.00,0,0,165,-1.33,-2.31,0.21,-0.06,0.98,0.25
-0.6923828,-0.026049748,0.0039987266,-3.4328434E-4,-0.06,0.98,0.25,19733,9940.00,0,0,0,-0.84,-2.24,0.07,-0.06,0.98,0.25
0.3076172,-0.0060497494,0.004998727,0.0016567154,-0.05,0.98,0.25,19747,9941.00,0,0,165,0.56,-2.17,0.21,-0.05,0.98,0.25
0.3076172,0.011950251,0.005998729,0.0016567154,-0.05,0.97,0.25,19762,9941.00,0,0,0,1.82,-2.10,0.21,-0.05,0.97,0.25
0.3076172,0.01595025,0.0039987266,0.006656716,-0.05,0.98,0.25,19770,9941.00,0,0,165,2.10,-2.24,0.56,-0.05,0.98,0.25
0.3076172,0.00895025,0.004998727,0.0036567156,-0.05,0.98,0.25,19785,9941.00,0,0,0,1.61,-2.17,0.35,-0.05,0.98,0.25
-0.6923828,-0.00504975,0.0029987283,0.0016567154,-0.04,0.98,0.25,19800,9940.00,0,0,165,0.63,-2.31,0.21,-0.04,0.98,0.25
0.6074219,-0.01504975,-1.270324E-6,-0.0013432844,-0.04,0.98,0.25,19807,9941.30,0,0,0,-0.07,-2.52,0.00,-0.04,0.98,0.25
-0.6923828,-0.01704975,-0.0030012727,-0.2573433,-0.05,0.98,0.25,19822,9940.00,0,0,165,-0.21,-2.73,-17.92,-0.05,0.98,0.25
-0.09277344,-0.00504975,-0.0050012693,-0.007343284,-0.05,0.98,0.25,19836,9940.60,0,0,0,0.63,-2.87,-0.42,-0.05,0.98,0.25
0.3076172,0.00895025,-0.0050012693,-0.008343285,-0.06,0.98,0.25,19845,9941.00,0,0,165,1.61,-2.87,-0.49,-0.06,0.98,0.25
-0.6923828,0.014950249,-0.004001271,-0.008343285,-0.06,0.98,0.24,19859,9940.00,0,0,0,2.03,-2.80,-0.49,-0.06,0.98,0.24
0.3076172,0.00695025,-0.0050012693,-0.007343284,-0.06,0.98,0.24,19875,9941.00,0,0,165,1.47,-2.87,-0.42,-0.06,0.98,0.24
0.3076172,-0.00404975,-0.0050012693,-0.0013432844,-0.06,0.98,0.24,19882,9941.00,0,0,0,0.70,-2.87,0.00,-0.06,0.98,0.24
-0.09277344,-0.008049751,-0.004001271,0.0036567156,-0.06,0.98,0.24,19898,9940.60,0,0,165,0.42,-2.80,0.35,-0.06,0.98,0.24
0.3076172,0.0019502509,-0.0020012744,0.0046567153,-0.06,0.98,0.25,19912,9941.00,0,0,0,1.12,-2.66,0.42,-0.06,0.98,0.25
0.3076172,0.00895025,-0.0020012744,0.0046567153,-0.07,0.98,0.25,19920,9941.00,0,0,165,1.61,-2.66,0.42,-0.07,0.98,0.25
-0.6923828,0.011950251,-0.0020012744,0.0016567154,-0.07,0.98,0.25,19935,9940.00,0,0,0,1.82,-2.66,0.21,-0.07,0.98,0.25
-0.6923828,0.010950251,-0.0010012724,0.0036567156,-0.07,0.98,0.25,19950,9940.00,0,0,165,1.75,-2.59,0.35,-0.07,0.98,0.25
0.3076172,0.0059502497,9.98728E-4,0.008656715,-0.07,0.98,0.25,19957,9941.00,0,0,0,1.40,-2.45,0.70,-0.07,0.98,0.25
-0.6923828,0.0039502494,0.005998729,0.013656715,-0.07,0.98,0.25,19972,9940.00,0,0,165,1.26,-2.10,1.05,-0.07,0.98,0.25
-0.09277344,0.0019502509,0.007998727,0.015656717,-0.07,0.98,0.25,19987,9940.60,0,0,0,1.12,-1.96,1.19,-0.07,0.98,0.25
0.3076172,0.002950251,0.009998728,0.014656716,-0.06,0.98,0.25,19994,9941.00,0,0,165,1.19,-1.82,1.12,-0.06,0.98,0.25
-0.39257812,0.0039502494,0.010998728,0.014656716,-0.06,0.98,0.25,20011,9940.30,0,0,0,1.26,-1.75,1.12,-0.06,0.98,0.25
0.6074219,0.0059502497,0.01199873,0.014656716,-0.06,0.98,0.25,20025,9941.30,0,0,165,1.40,-1.68,1.12,-0.06,0.98,0.25
0.3076172,0.0059502497,0.014998728,0.019656716,-0.06,0.98,0.25,20032,9941.00,0,0,0,1.40,-1.47,1.47,-0.06,0.98,0.25
0.3076172,0.0059502497,0.015998729,0.017656717,-0.05,0.98,0.25,20047,9941.00,0,0,165,1.40,-1.40,1.33,-0.05,0.98,0.25
-0.6923828,0.011950251,0.018998727,0.017656717,-0.06,0.98,0.25,20062,9940.00,0,0,0,1.82,-1.19,1.33,-0.06,0.98,0.25
0.3076172,0.019950252,0.018998727,0.013656715,-0.05,0.98,0.24,20077,9941.00,0,0,165,2.38,-1.19,1.05,-0.05,0.98,0.24
2.8076172,0.02595025,0.019998727,0.013656715,-0.05,0.98,0.24,20085,9943.50,0,0,0,2.80,-1.12,1.05,-0.05,0.98,0.24
-0.6923828,0.01895025,0.018998727,0.010656714,-0.05,0.98,0.24,20099,9940.00,0,0,165,2.31,-1.19,0.84,-0.05,0.98,0.24
-0.6923828,9.5024984E-4,0.018998727,0.010656714,-0.05,0.98,0.23,20107,9940.00,0,0,0,1.05,-1.19,0.84,-0.05,0.98,0.23
0.3076172,-0.019049749,0.014998728,0.0046567153,-0.05,0.98,0.24,20123,9941.00,0,0,165,-0.35,-1.47,0.42,-0.05,0.98,0.24
0.3076172,-0.02704975,0.010998728,6.567157E-4,-0.06,0.98,0.23,20137,9941.00,0,0,0,-0.91,-1.75,0.14,-0.06,0.98,0.23
-0.6923828,-0.020049749,0.007998727,-0.0013432844,-0.06,0.98,0.24,20145,9940.00,0,0,165,-0.42,-1.96,0.00,-0.06,0.98,0.24
-0.6923828,-0.00404975,0.0029987283,-0.0043432843,-0.06,0.99,0.24,20160,9940.00,0,0,0,0.70,-2.31,-0.21,-0.06,0.99,0.24
-0.6923828,0.00795025,0.0019987263,-0.0033432846,-0.05,0.98,0.24,20174,9940.00,0,0,165,1.54,-2.38,-0.14,-0.05,0.98,0.24
-0.9921875,-4.974939E-5,-0.0050012693,-0.010343284,-0.05,0.98,0.24,20190,9939.70,0,0,0,0.98,-2.87,-0.63,-0.05,0.98,0.24
0.3076172,-0.01704975,-0.008001272,-0.014343285,-0.05,0.98,0.24,20197,9941.00,0,0,165,-0.21,-3.08,-0.91,-0.05,0.98,0.24
0.3076172,-0.02704975,-0.01100127,-0.016343284,-0.05,0.98,0.24,20212,9941.00,0,0,0,-0.91,-3.29,-1.05,-0.05,0.98,0.24
-0.6923828,-0.02904975,-0.016001273,-0.017343285,-0.05,0.98,0.24,20220,9940.00,0,0,165,-1.05,-3.64,-1.12,-0.05,0.98,0.24
1.2080078,-0.01604975,-0.016001273,-0.014343285,-0.05,0.98,0.25,20235,9941.90,0,0,0,-0.14,-3.64,-0.91,-0.05,0.98,0.25
0.3076172,-0.00504975,-0.016001273,-0.015343285,-0.05,0.98,0.25,20250,9941.00,0,0,165,0.63,-3.64,-0.98,-0.05,0.98,0.25
0.6074219,0.012950251,-0.012001269,-0.016343284,-0.05,0.98,0.25,20257,9941.30,0,0,0,1.89,-3.36,-1.05,-0.05,0.98,0.25
0.3076172,0.017950252,-0.01100127,-0.018343285,-0.06,0.98,0.25,20273,9941.00,0,0,165,2.24,-3.29,-1.19,-0.06,0.98,0.25
0.3076172,0.013950251,-0.010001272,-0.020343285,-0.06,0.98,0.25,20287,9941.00,0,0,0,1.96,-3.22,-1.33,-0.06,0.98,0.25
0.6074219,0.00795025,-0.009001274,-0.018343285,-0.06,0.98,0.25,20294,9941.30,0,0,165,1.54,-3.15,-1.19,-0.06,0.98,0.25
0.6074219,0.0059502497,-0.008001272,-0.013343284,-0.06,0.98,0.24,20310,9941.30,0,0,0,1.40,-3.08,-0.84,-0.06,0.98,0.24
0.3076172,0.0099502485,-0.008001272,-0.0113432845,-0.06,0.98,0.25,20324,9941.00,0,0,165,1.68,-3.08,-0.70,-0.06,0.98,0.25
0.3076172,0.00895025,-0.0070012733,-0.0113432845,-0.07,0.98,0.25,20332,9941.00,0,0,0,1.61,-3.01,-0.70,-0.07,0.98,0.25
0.3076172,0.002950251,-0.0030012727,-0.007343284,-0.07,0.97,0.25,20347,9941.00,0,0,165,1.19,-2.73,-0.42,-0.07,0.97,0.25
0.3076172,-0.0010497496,0.0019987263,-0.007343284,-0.07,0.97,0.25,20362,9941.00,0,0,0,0.91,-2.38,-0.42,-0.07,0.97,0.25
0.3076172,-0.0020497506,0.005998729,-0.007343284,-0.07,0.97,0.25,20376,9941.00,0,0,165,0.84,-2.10,-0.42,-0.07,0.97,0.25
-0.6923828,-0.0010497496,0.004998727,-0.006343284,-0.07,0.97,0.25,20385,9940.00,0,0,0,0.91,-2.17,-0.35,-0.07,0.97,0.25
0.3076172,9.5024984E-4,0.0039987266,-0.0043432843,-0.07,0.97,0.25,20400,9941.00,0,0,165,1.05,-2.24,-0.21,-0.07,0.97,0.25
-0.39257812,0.0019502509,0.007998727,-0.0013432844,-0.06,0.97,0.25,20407,9940.30,0,0,0,1.12,-1.96,0.00,-0.06,0.97,0.25
-0.6923828,9.5024984E-4,0.007998727,0.002656716,-0.06,0.97,0.25,20422,9940.00,0,0,165,1.05,-1.96,0.28,-0.06,0.97,0.25
0.6074219,-4.974939E-5,0.010998728,0.005656716,-0.06,0.98,0.25,20438,9941.30,0,0,0,0.98,-1.75,0.49,-0.06,0.98,0.25
0.3076172,0.002950251,0.008998727,0.0036567156,-0.06,0.98,0.25,20445,9941.00,0,0,165,1.19,-1.89,0.35,-0.06,0.98,0.25
0.6074219,9.5024984E-4,0.006998729,0.0046567153,-0.06,0.98,0.24,20459,9941.30,0,0,0,1.05,-2.03,0.42,-0.06,0.98,0.24
1.9072266,-0.00404975,0.006998729,0.0046567153,-0.06,0.98,0.24,20475,9942.60,0,0,165,0.70,-2.03,0.42,-0.06,0.98,0.24
0.3076172,-0.01704975,0.004998727,0.005656716,-0.06,0.98,0.24,20482,9941.00,0,0,0,-0.21,-2.17,0.49,-0.06,0.98,0.24
0.6074219,-0.03004975,0.0039987266,0.006656716,-0.06,0.98,0.24,20497,9941.30,0,0,165,-1.12,-2.24,0.56,-0.06,0.98,0.24
0.3076172,-0.03104975,0.0019987263,0.008656715,-0.06,0.98,0.24,20512,9941.00,0,0,0,-1.19,-2.38,0.70,-0.06,0.98,0.24
0.3076172,0.24095024,-1.270324E-6,0.006656716,-0.06,0.98,0.24,20520,9941.00,0,0,165,17.85,-2.52,0.56,-0.06,0.98,0.24
0.3076172,0.014950249,-0.0010012724,0.0046567153,-0.06,0.98,0.24,20535,9941.00,0,0,0,2.03,-2.59,0.42,-0.06,0.98,0.24
0.3076172,0.028950252,-0.0010012724,0.0036567156,-0.06,0.98,0.24,20551,9941.00,0,0,165,3.01,-2.59,0.35,-0.06,0.98,0.24
0.3076172,0.019950252,-0.0020012744,0.0016567154,-0.06,0.98,0.24,20557,9941.00,0,0,0,2.38,-2.66,0.21,-0.06,0.98,0.24
-0.6923828,-0.0020497506,-0.0010012724,-3.4328434E-4,-0.06,0.98,0.24,20572,9940.00,0,0,165,0.84,-2.59,0.07,-0.06,0.98,0.24
-0.6923828,-0.019049749,-0.0020012744,6.567157E-4,-0.06,0.98,0.24,20587,9940.00,0,0,0,-0.35,-2.66,0.14,-0.06,0.98,0.24
0.6074219,-0.01404975,-0.0010012724,-0.0013432844,-0.05,0.98,0.24,20594,9941.30,0,0,165,0.00,-2.59,0.00,-0.05,0.98,0.24
-0.39257812,0.00895025,-1.270324E-6,-3.4328434E-4,-0.05,0.98,0.25,20609,9940.30,0,0,0,1.61,-2.52,0.07,-0.05,0.98,0.25
-0.09277344,0.026950248,9.98728E-4,-0.0013432844,-0.06,0.98,0.25,20624,9940.60,0,0,165,2.87,-2.45,0.00,-0.06,0.98,0.25
-0.6923828,0.02995025,-1.270324E-6,0.25365672,-0.06,0.98,0.24,20632,9940.00,0,0,0,3.08,-2.52,17.85,-0.06,0.98,0.24
0.6074219,0.017950252,-1.270324E-6,-0.0023432844,-0.05,0.98,0.24,20646,9941.30,0,0,165,2.24,-2.52,-0.07,-0.05,0.98,0.24
0.3076172,-0.00404975,-1.270324E-6,-0.0023432844,-0.06,0.98,0.25,20663,9941.00,0,0,0,0.70,-2.52,-0.07,-0.06,0.98,0.25
-0.6923828,-0.01704975,-0.0010012724,-0.0033432846,-0.06,0.98,0.24,20670,9940.00,0,0,165,-0.21,-2.59,-0.14,-0.06,0.98,0.24
0.3076172,-0.010049749,-0.0010012724,-0.0043432843,-0.06,0.98,0.25,20685,9941.00,0,0,0,0.28,-2.59,-0.21,-0.06,0.98,0.25
0.3076172,-0.0020497506,-0.0020012744,-0.006343284,-0.06,0.98,0.25,20700,9941.00,0,0,165,0.84,-2.66,-0.35,-0.06,0.98,0.25
0.6074219,0.002950251,-0.0020012744,-0.006343284,-0.06,0.98,0.25,20707,9941.30,0,0,0,1.19,-2.66,-0.35,-0.06,0.98,0.25
-0.6923828,-0.0010497496,-0.0010012724,-0.006343284,-0.06,0.98,0.24,20722,9940.00,0,0,165,0.91,-2.59,-0.35,-0.06,0.98,0.24
0.3076172,-0.0070497496,-0.0020012744,-0.0043432843,-0.06,0.98,0.24,20737,9941.00,0,0,0,0.49,-2.66,-0.21,-0.06,0.98,0.24
0.3076172,-0.01104975,-0.0020012744,-0.0023432844,-0.06,0.98,0.25,20752,9941.00,0,0,165,0.21,-2.66,-0.07,-0.06,0.98,0.25
0.3076172,-0.01504975,-1.270324E-6,-3.4328434E-4,-0.06,0.98,0.25,20760,9941.00,0,0,0,-0.07,-2.52,0.07,-0.06,0.98,0.25
0.6074219,-0.01104975,-0.0020012744,-3.4328434E-4,-0.06,0.98,0.25,20775,9941.30,0,0,165,0.21,-2.66,0.07,-0.06,0.98,0.25
0.6074219,-0.0120497495,-0.0030012727,-0.0023432844,-0.06,0.98,0.24,20782,9941.30,0,0,0,0.14,-2.73,-0.07,-0.06,0.98,0.24
0.3076172,-0.01504975,-0.0030012727,-0.0023432844,-0.06,0.98,0.25,20797,9941.00,0,0,165,-0.07,-2.73,-0.07,-0.06,0.98,0.25
0.3076172,-0.01304975,-0.0030012727,-0.0043432843,-0.06,0.98,0.24,20812,9941.00,0,0,0,0.07,-2.73,-0.21,-0.06,0.98,0.24
0.3076172,-0.0060497494,-0.0010012724,-0.0023432844,-0.06,0.98,0.24,20821,9941.00,0,0,165,0.56,-2.59,-0.07,-0.06,0.98,0.24
0.6074219,0.0049502514,-0.0010012724,-3.4328434E-4,-0.06,0.98,0.25,20835,9941.30,0,0,0,1.33,-2.59,0.07,-0.06,0.98,0.25
-0.6923828,0.0099502485,-1.270324E-6,-0.0023432844,-0.06,0.98,0.24,20850,9940.00,0,0,165,1.68,-2.52,-0.07,-0.06,0.98,0.24
0.6074219,0.0099502485,-0.0010012724,0.0016567154,-0.06,0.98,0.24,20856,9941.30,0,0,0,1.68,-2.59,0.21,-0.06,0.98,0.24
-0.39257812,0.002950251,9.98728E-4,-0.0023432844,-0.06,0.98,0.24,20873,9940.30,0,0,165,1.19,-2.45,-0.07,-0.06,0.98,0.24
0.6074219,-0.0020497506,-1.270324E-6,-3.4328434E-4,-0.06,0.98,0.24,20887,9941.30,0,0,0,0.84,-2.52,0.07,-0.06,0.98,0.24
-0.39257812,-0.00504975,-1.270324E-6,-3.4328434E-4,-0.06,0.98,0.25,20895,9940.30,0,0,165,0.63,-2.52,0.07,-0.06,0.98,0.25
1.5078125,0.0049502514,0.0019987263,-0.0013432844,-0.06,0.98,0.25,20910,9942.20,0,0,0,1.33,-2.38,0.00,-0.06,0.98,0.25
1.2080078,0.01595025,0.0039987266,-3.4328434E-4,-0.06,0.98,0.24,20932,9941.90,0,0,165,2.10,-2.24,0.07,-0.06,0.98,0.24
0.3076172,0.019950252,0.0039987266,-3.4328434E-4,-0.06,0.98,0.24,20933,9941.00,0,0,0,2.38,-2.24,0.07,-0.06,0.98,0.24
-0.6923828,0.014950249,0.0039987266,6.567157E-4,-0.06,0.98,0.24,20947,9940.00,0,0,165,2.03,-2.24,0.14,-0.06,0.98,0.24
0.6074219,9.5024984E-4,-1.270324E-6,-0.0023432844,-0.06,0.98,0.24,20962,9941.30,0,0,0,1.05,-2.52,-0.07,-0.06,0.98,0.24
0.3076172,-0.01104975,-1.270324E-6,-0.0033432846,-0.06,0.98,0.24,20969,9941.00,0,0,165,0.21,-2.52,-0.14,-0.06,0.98,0.24
0.3076172,-0.01704975,-0.0020012744,-3.4328434E-4,-0.06,0.98,0.25,20984,9941.00,0,0,0,-0.21,-2.66,0.07,-0.06,0.98,0.25
-0.39257812,-0.01304975,-0.0030012727,-3.4328434E-4,-0.06,0.98,0.25,20999,9940.30,0,0,165,0.07,-2.73,0.07,-0.06,0.98,0.25
0.3076172,-4.974939E-5,-0.0010012724,-3.4328434E-4,-0.06,0.98,0.25,21007,9941.00,0,0,0,0.98,-2.59,0.07,-0.06,0.98,0.25
-1.2919922,0.0059502497,-0.0010012724,-0.0013432844,-0.06,0.98,0.24,21022,9939.40,0,0,165,1.40,-2.59,0.00,-0.06,0.98,0.24
0.3076172,0.0049502514,0.0019987263,-0.0013432844,-0.06,0.98,0.24,21037,9941.00,0,0,0,1.33,-2.38,0.00,-0.06,0.98,0.24
0.3076172,-0.0070497496,-1.270324E-6,-3.4328434E-4,-0.06,0.98,0.24,21044,9941.00,0,0,165,0.49,-2.52,0.07,-0.06,0.98,0.24
-0.6923828,-0.01604975,-0.0010012724,-3.4328434E-4,-0.06,0.98,0.25,21059,9940.00,0,0,0,-0.14,-2.59,0.07,-0.06,0.98,0.25
-0.6923828,-0.02104975,-0.0010012724,-3.4328434E-4,-0.06,0.98,0.24,21075,9940.00,0,0,165,-0.49,-2.59,0.07,-0.06,0.98,0.24
0.3076172,-0.01404975,-0.0010012724,-3.4328434E-4,-0.06,0.98,0.24,21083,9941.00,0,0,0,0.00,-2.59,0.07,-0.06,0.98,0.24
-0.39257812,-0.00404975,-0.0020012744,-0.0023432844,-0.06,0.98,0.25,21097,9940.30,0,0,165,0.70,-2.66,-0.07,-0.06,0.98,0.25
-0.39257812,0.00895025,-1.270324E-6,-3.4328434E-4,-0.06,0.98,0.25,21112,9940.30,0,0,0,1.61,-2.52,0.07,-0.06,0.98,0.25
-0.6923828,0.011950251,-0.0010012724,-0.0023432844,-0.06,0.98,0.25,21120,9940.00,0,0,165,1.82,-2.59,-0.07,-0.06,0.98,0.25
-0.6923828,0.010950251,9.98728E-4,-3.4328434E-4,-0.06,0.98,0.25,21134,9940.00,0,0,0,1.75,-2.45,0.07,-0.06,0.98,0.25
-0.6923828,0.0039502494,9.98728E-4,-0.0023432844,-0.06,0.98,0.24,21149,9940.00,0,0,165,1.26,-2.45,-0.07,-0.06,0.98,0.24
-0.6923828,-0.00404975,-0.0010012724,-0.0013432844,-0.06,0.98,0.25,21165,9940.00,0,0,0,0.70,-2.59,0.00,-0.06,0.98,0.25
0.3076172,-0.0030497499,-1.270324E-6,0.0016567154,-0.06,0.98,0.24,21173,9941.00,0,0,165,0.77,-2.52,0.21,-0.06,0.98,0.24
0.6074219,-4.974939E-5,-0.0010012724,-0.0023432844,-0.06,0.98,0.24,21188,9941.30,0,0,0,0.98,-2.59,-0.07,-0.06,0.98,0.24
-1.6923828,0.0039502494,-1.270324E-6,-0.0023432844,-0.06,0.98,0.25,21195,9939.00,0,0,165,1.26,-2.52,-0.07,-0.06,0.98,0.25
0.3076172,0.00695025,9.98728E-4,-0.0033432846,-0.06,0.98,0.25,21217,9941.00,0,0,0,1.47,-2.45,-0.14,-0.06,0.98,0.25
0.6074219,0.00795025,-1.270324E-6,-0.0033432846,-0.06,0.98,0.24,21225,9941.30,0,0,165,1.54,-2.52,-0.14,-0.06,0.98,0.24
-0.6923828,0.0039502494,-1.270324E-6,-0.0023432844,-0.06,0.98,0.24,21232,9940.00,0,0,0,1.26,-2.52,-0.07,-0.06,0.98,0.24
0.6074219,-0.0010497496,-1.270324E-6,-0.0013432844,-0.06,0.98,0.24,21247,9941.30,0,0,165,0.91,-2.52,0.00,-0.06,0.98,0.24
-0.39257812,-0.00404975,-0.0010012724,-3.4328434E-4,-0.06,0.98,0.24,21269,9940.30,0,0,0,0.70,-2.59,0.07,-0.06,0.98,0.24
0.6074219,-0.00904975,-1.270324E-6,-0.0013432844,-0.06,0.98,0.24,21271,9941.30,0,0,165,0.35,-2.52,0.00,-0.06,0.98,0.24
0.6074219,-0.0120497495,-0.0020012744,-0.0023432844,-0.06,0.98,0.24,21284,9941.30,0,0,0,0.14,-2.66,-0.07,-0.06,0.98,0.24
-0.39257812,-0.0070497496,-0.0010012724,-3.4328434E-4,-0.06,0.98,0.25,21307,9940.30,0,0,165,0.49,-2.59,0.07,-0.06,0.98,0.25
-0.6923828,-0.00504975,0.0019987263,6.567157E-4,-0.06,0.98,0.25,21308,9940.00,0,0,0,0.63,-2.38,0.14,-0.06,0.98,0.25
0.6074219,-0.0010497496,0.0019987263,0.0016567154,-0.06,0.98,0.25,21322,9941.30,0,0,165,0.91,-2.38,0.21,-0.06,0.98,0.25
-0.39257812,0.002950251,0.0029987283,0.0016567154,-0.06,0.98,0.24,21337,9940.30,0,0,0,1.19,-2.31,0.21,-0.06,0.98,0.24
-0.6923828,0.002950251,0.0039987266,-0.0023432844,-0.06,0.98,0.24,21345,9940.00,0,0,165,1.19,-2.24,-0.07,-0.06,0.98,0.24
-0.39257812,-0.0020497506,9.98728E-4,-0.0033432846,-0.06,0.98,0.24,21359,9940.30,0,0,0,0.84,-2.45,-0.14,-0.06,0.98,0.24
0.3076172,-0.008049751,-0.0030012727,-0.0033432846,-0.06,0.98,0.24,21382,9941.00,0,0,165,0.42,-2.73,-0.14,-0.06,0.98,0.24
-0.6923828,-0.01304975,-0.0030012727,-0.0013432844,-0.06,0.98,0.24,21383,9940.00,0,0,0,0.07,-2.73,0.00,-0.06,0.98,0.24
0.3076172,-0.0070497496,-0.0010012724,6.567157E-4,-0.06,0.98,0.25,21397,9941.00,0,0,165,0.49,-2.59,0.14,-0.06,0.98,0.25
-0.39257812,0.0019502509,-0.0020012744,-0.0023432844,-0.06,0.98,0.25,21413,9940.30,0,0,0,1.12,-2.66,-0.07,-0.06,0.98,0.25
0.3076172,0.013950251,-1.270324E-6,-0.006343284,-0.06,0.98,0.25,21420,9941.00,0,0,165,1.96,-2.52,-0.35,-0.06,0.98,0.25
-1.2919922,0.014950249,-0.0020012744,-0.007343284,-0.06,0.98,0.24,21435,9939.40,0,0,0,2.03,-2.66,-0.42,-0.06,0.98,0.24
1.5078125,0.00895025,-0.0010012724,-0.0033432846,-0.06,0.98,0.24,21450,9942.20,0,0,165,1.61,-2.59,-0.14,-0.06,0.98,0.24
0.6074219,-0.00404975,-1.270324E-6,-0.0013432844,-0.06,0.98,0.24,21457,9941.30,0,0,0,0.70,-2.52,0.00,-0.06,0.98,0.24
2.2080078,-0.01404975,-0.0030012727,0.0016567154,-0.06,0.98,0.25,21473,9942.90,0,0,165,0.00,-2.73,0.21,-0.06,0.98,0.25
0.3076172,-0.01304975,9.98728E-4,6.567157E-4,-0.06,0.98,0.25,21487,9941.00,0,0,0,0.07,-2.45,0.14,-0.06,0.98,0.25
0.6074219,0.0019502509,-0.0020012744,-0.0033432846,-0.06,0.98,0.25,21494,9941.30,0,0,165,1.12,-2.66,-0.14,-0.06,0.98,0.25
1.2080078,0.02095025,-1.270324E-6,-0.0043432843,-0.06,0.98,0.25,21509,9941.90,0,0,0,2.45,-2.52,-0.21,-0.06,0.98,0.25
0.3076172,0.019950252,-0.0010012724,-0.0013432844,-0.06,0.98,0.24,21525,9941.00,0,0,165,2.38,-2.59,0.00,-0.06,0.98,0.24
0.3076172,0.0019502509,-0.0010012724,-0.0023432844,-0.06,0.98,0.24,21532,9941.00,0,0,0,1.12,-2.59,-0.07,-0.06,0.98,0.24
-0.6923828,-0.01604975,-0.0020012744,-0.0013432844,-0.06,0.98,0.24,21547,9940.00,0,0,165,-0.14,-2.66,0.00,-0.06,0.98,0.24
0.6074219,-0.02504975,-0.0020012744,-3.4328434E-4,-0.06,0.98,0.25,21562,9941.30,0,0,0,-0.77,-2.66,0.07,-0.06,0.98,0.25
0.6074219,-0.01704975,-0.0010012724,-0.0013432844,-0.06,0.98,0.25,21570,9941.30,0,0,165,-0.21,-2.59,0.00,-0.06,0.98,0.25
-0.39257812,0.00795025,0.0019987263,-0.0033432846,-0.06,0.98,0.25,21585,9940.30,0,0,0,1.54,-2.38,-0.14,-0.06,0.98,0.25
-0.09277344,0.02095025,0.0029987283,-0.0023432844,-0.06,0.98,0.25,21600,9940.60,0,0,165,2.45,-2.31,-0.07,-0.06,0.98,0.25
-0.39257812,0.013950251,0.0019987263,-0.0013432844,-0.06,0.98,0.24,21608,9940.30,0,0,0,1.96,-2.38,0.00,-0.06,0.98,0.24
0.6074219,-0.0060497494,9.98728E-4,6.567157E-4,-0.06,0.98,0.24,21623,9941.30,0,0,165,0.56,-2.45,0.14,-0.06,0.98,0.24
0.6074219,-0.022049751,-0.0010012724,-3.4328434E-4,-0.06,0.98,0.24,21637,9941.30,0,0,0,-0.56,-2.59,0.07,-0.06,0.98,0.24
-0.6923828,-0.02504975,-0.0010012724,-0.0013432844,-0.06,0.98,0.25,21645,9940.00,0,0,165,-0.77,-2.59,0.00,-0.06,0.98,0.25
-0.39257812,-0.010049749,-0.0010012724,-0.0043432843,-0.06,0.98,0.25,21660,9940.30,0,0,0,0.28,-2.59,-0.21,-0.06,0.98,0.25
0.6074219,0.00795025,9.98728E-4,-0.0023432844,-0.06,0.98,0.25,21675,9941.30,0,0,165,1.54,-2.45,-0.07,-0.06,0.98,0.25
-0.39257812,0.013950251,0.0019987263,-0.0043432843,-0.06,0.98,0.24,21682,9940.30,0,0,0,1.96,-2.38,-0.21,-0.06,0.98,0.24
-0.39257812,0.00695025,0.0029987283,-0.0033432846,-0.06,0.98,0.25,21697,9940.30,0,0,165,1.47,-2.31,-0.14,-0.06,0.98,0.25
0.6074219,-0.008049751,0.0029987283,-3.4328434E-4,-0.06,0.98,0.24,21712,9941.30,0,0,0,0.42,-2.31,0.07,-0.06,0.98,0.24
0.6074219,-0.010049749,9.98728E-4,6.567157E-4,-0.06,0.98,0.25,21720,9941.30,0,0,165,0.28,-2.45,0.14,-0.06,0.98,0.25
-0.39257812,-0.0020497506,9.98728E-4,-3.4328434E-4,-0.06,0.98,0.25,21742,9940.30,0,0,0,0.84,-2.45,0.07,-0.06,0.98,0.25
-0.39257812,0.0059502497,-1.270324E-6,-0.0013432844,-0.06,0.98,0.25,21749,9940.30,0,0,165,1.40,-2.52,0.00,-0.06,0.98,0.25
-0.39257812,0.010950251,9.98728E-4,-0.0013432844,-0.06,0.98,0.24,21757,9940.30,0,0,0,1.75,-2.45,0.00,-0.06,0.98,0.24
-0.39257812,0.00695025,-0.0010012724,-0.0023432844,-0.06,0.98,0.24,21779,9940.30,0,0,165,1.47,-2.59,-0.07,-0.06,0.98,0.24
-0.39257812,-0.0020497506,9.98728E-4,-0.0013432844,-0.06,0.98,0.25,21787,9940.30,0,0,0,0.84,-2.45,0.00,-0.06,0.98,0.25
-1.2919922,-0.0070497496,-0.0020012744,-0.0013432844,-0.06,0.98,0.25,21794,9939.40,0,0,165,0.49,-2.66,0.00,-0.06,0.98,0.25
-0.39257812,-0.00404975,-0.0010012724,-0.0033432846,-0.06,0.98,0.24,21810,9940.30,0,0,0,0.70,-2.59,-0.14,-0.06,0.98,0.24
-0.39257812,-0.0010497496,-0.0010012724,-0.0053432845,-0.06,0.98,0.25,21825,9940.30,0,0,165,0.91,-2.59,-0.28,-0.06,0.98,0.25
-0.39257812,0.002950251,-0.0010012724,-0.0033432846,-0.06,0.98,0.24,21832,9940.30,0,0,0,1.19,-2.59,-0.14,-0.06,0.98,0.24
-0.39257812,-0.00504975,-0.0020012744,-0.0023432844,-0.06,0.98,0.24,21847,9940.30,0,0,165,0.63,-2.66,-0.07,-0.06,0.98,0.24
0.6074219,-0.0120497495,-0.0010012724,-0.0023432844,-0.06,0.98,0.25,21862,9941.30,0,0,0,0.14,-2.59,-0.07,-0.06,0.98,0.25
-0.39257812,-0.0120497495,-0.0010012724,-0.0013432844,-0.06,0.98,0.25,21869,9940.30,0,0,165,0.14,-2.59,0.00,-0.06,0.98,0.25
-0.39257812,-0.0070497496,-0.0010012724,-3.4328434E-4,-0.06,0.98,0.25,21885,9940.30,0,0,0,0.49,-2.59,0.07,-0.06,0.98,0.25
0.6074219,0.0019502509,-1.270324E-6,-0.0023432844,-0.06,0.98,0.25,21901,9941.30,0,0,165,1.12,-2.52,-0.07,-0.06,0.98,0.25
-0.39257812,0.0049502514,-1.270324E-6,-0.0033432846,-0.06,0.98,0.25,21907,9940.30,0,0,0,1.33,-2.52,-0.14,-0.06,0.98,0.25
0.6074219,0.0019502509,9.98728E-4,-0.0023432844,-0.06,0.98,0.24,21922,9941.30,0,0,165,1.12,-2.45,-0.07,-0.06,0.98,0.24
0.6074219,-0.0030497499,9.98728E-4,-0.0043432843,-0.06,0.98,0.25,21937,9941.30,0,0,0,0.77,-2.45,-0.21,-0.06,0.98,0.25
-0.39257812,-0.010049749,0.0019987263,-0.0033432846,-0.06,0.98,0.24,21944,9940.30,0,0,165,0.28,-2.38,-0.14,-0.06,0.98,0.24
-0.39257812,-0.0070497496,-1.270324E-6,-0.0033432846,-0.06,0.98,0.25,21961,9940.30,0,0,0,0.49,-2.52,-0.14,-0.06,0.98,0.25
1.5078125,-4.974939E-5,-1.270324E-6,-0.0013432844,-0.06,0.98,0.25,21974,9942.20,0,0,165,0.98,-2.52,0.00,-0.06,0.98,0.25
-0.39257812,0.0099502485,0.0019987263,-0.0033432846,-0.06,0.98,0.25,21982,9940.30,0,0,0,1.68,-2.38,-0.14,-0.06,0.98,0.25
-0.39257812,0.00895025,0.0019987263,-0.0013432844,-0.06,0.98,0.24,21997,9940.30,0,0,165,1.61,-2.38,0.00,-0.06,0.98,0.24
-0.39257812,0.0019502509,-1.270324E-6,-0.0023432844,-0.06,0.98,0.24,22020,9940.30,0,0,0,1.12,-2.52,-0.07,-0.06,0.98,0.24
-0.39257812,-0.00504975,9.98728E-4,-0.0023432844,-0.06,0.98,0.24,22021,9940.30,0,0,165,0.63,-2.45,-0.07,-0.06,0.98,0.24
-0.39257812,-0.0070497496,-0.0010012724,-0.0033432846,-0.06,0.98,0.24,22035,9940.30,0,0,0,0.49,-2.59,-0.14,-0.06,0.98,0.24
-0.39257812,-0.0020497506,-1.270324E-6,-3.4328434E-4,-0.06,0.98,0.24,22050,9940.30,0,0,165,0.84,-2.52,0.07,-0.06,0.98,0.24
-0.39257812,9.5024984E-4,-1.270324E-6,-0.0023432844,-0.06,0.98,0.24,22057,9940.30,0,0,0,1.05,-2.52,-0.07,-0.06,0.98,0.24
-0.39257812,0.002950251,0.0019987263,-3.4328434E-4,-0.06,0.98,0.24,22072,9940.30,0,0,165,1.19,-2.38,0.07,-0.06,0.98,0.24
0.6074219,0.002950251,9.98728E-4,-0.0013432844,-0.06,0.98,0.24,22088,9941.30,0,0,0,1.19,-2.45,0.00,-0.06,0.98,0.24
0.90722656,-0.0030497499,-0.0010012724,-0.0043432843,-0.06,0.98,0.24,22094,9941.60,0,0,165,0.77,-2.59,-0.21,-0.06,0.98,0.24
-0.39257812,-0.0070497496,-1.270324E-6,-0.0033432846,-0.06,0.98,0.24,22118,9940.30,0,0,0,0.49,-2.52,-0.14,-0.06,0.98,0.24
-0.39257812,-0.00404975,-1.270324E-6,-3.4328434E-4,-0.06,0.98,0.25,22124,9940.30,0,0,165,0.70,-2.52,0.07,-0.06,0.98,0.25
0.6074219,-0.0010497496,-1.270324E-6,6.567157E-4,-0.06,0.98,0.24,22139,9941.30,0,0,0,0.91,-2.52,0.14,-0.06,0.98,0.24
0.6074219,-4.974939E-5,-1.270324E-6,-0.0013432844,-0.06,0.98,0.25,22147,9941.30,0,0,165,0.98,-2.52,0.00,-0.06,0.98,0.25
0.6074219,0.002950251,0.0019987263,-0.0023432844,-0.06,0.98,0.25,22162,9941.30,0,0,0,1.19,-2.38,-0.07,-0.06,0.98,0.25
0.6074219,9.5024984E-4,9.98728E-4,-0.0023432844,-0.06,0.98,0.24,22169,9941.30,0,0,165,1.05,-2.45,-0.07,-0.06,0.98,0.24
0.6074219,-4.974939E-5,-1.270324E-6,-0.0033432846,-0.06,0.98,0.24,22185,9941.30,0,0,0,0.98,-2.52,-0.14,-0.06,0.98,0.24
-0.39257812,-0.0020497506,-1.270324E-6,-0.0013432844,-0.06,0.98,0.24,22199,9940.30,0,0,165,0.84,-2.52,0.00,-0.06,0.98,0.24
-0.39257812,-0.0030497499,-0.0030012727,-0.0043432843,-0.06,0.98,0.25,22207,9940.30,0,0,0,0.77,-2.73,-0.21,-0.06,0.98,0.25
-0.39257812,-0.00404975,-0.0010012724,-0.0013432844,-0.06,0.98,0.24,22222,9940.30,0,0,165,0.70,-2.59,0.00,-0.06,0.98,0.24
0.6074219,-4.974939E-5,9.98728E-4,-3.4328434E-4,-0.06,0.98,0.25,22237,9941.30,0,0,0,0.98,-2.45,0.07,-0.06,0.98,0.25
0.6074219,9.5024984E-4,9.98728E-4,-3.4328434E-4,-0.06,0.98,0.25,22245,9941.30,0,0,165,1.05,-2.45,0.07,-0.06,0.98,0.25
-0.39257812,0.0049502514,0.0029987283,-0.0033432846,-0.06,0.98,0.25,22267,9940.30,0,0,0,1.33,-2.31,-0.14,-0.06,0.98,0.25
-0.39257812,0.0039502494,0.0029987283,-0.0033432846,-0.06,0.98,0.24,22274,9940.30,0,0,165,1.26,-2.31,-0.14,-0.06,0.98,0.24
0.6074219,-4.974939E-5,9.98728E-4,-0.0033432846,-0.06,0.98,0.25,22283,9941.30,0,0,0,0.98,-2.45,-0.14,-0.06,0.98,0.25
0.6074219,-0.00404975,-0.0030012727,-0.0023432844,-0.06,0.98,0.25,22305,9941.30,0,0,165,0.70,-2.73,-0.07,-0.06,0.98,0.25
0.6074219,-0.00504975,-0.0010012724,-0.0033432846,-0.06,0.98,0.24,22312,9941.30,0,0,0,0.63,-2.59,-0.14,-0.06,0.98,0.24
0.6074219,-0.00504975,-0.0010012724,-0.0013432844,-0.06,0.98,0.25,22320,9941.30,0,0,165,0.63,-2.59,0.00,-0.06,0.98,0.25
-0.39257812,-4.974939E-5,9.98728E-4,-0.0013432844,-0.06,0.98,0.25,22342,9940.30,0,0,0,0.98,-2.45,0.00,-0.06,0.98,0.25
-0.39257812,0.0059502497,-1.270324E-6,-0.0023432844,-0.06,0.98,0.24,22344,9940.30,0,0,165,1.40,-2.52,-0.07,-0.06,0.98,0.24
-0.39257812,0.00795025,-0.0010012724,-0.0043432843,-0.06,0.98,0.24,22357,9940.30,0,0,0,1.54,-2.59,-0.21,-0.06,0.98,0.24
-0.39257812,0.00695025,-1.270324E-6,-0.0023432844,-0.06,0.98,0.24,22372,9940.30,0,0,165,1.47,-2.52,-0.07,-0.06,0.98,0.24
0.6074219,-0.0020497506,-1.270324E-6,6.567157E-4,-0.06,0.98,0.24,22379,9941.30,0,0,0,0.84,-2.52,0.14,-0.06,0.98,0.24
0.90722656,-0.0120497495,-1.270324E-6,6.567157E-4,-0.06,0.98,0.24,22395,9941.60,0,0,165,0.14,-2.52,0.14,-0.06,0.98,0.24
0.6074219,-0.00904975,-0.0010012724,-0.0013432844,-0.06,0.98,0.25,22409,9941.30,0,0,0,0.35,-2.59,0.00,-0.06,0.98,0.25
0.6074219,-4.974939E-5,-0.004001271,-3.4328434E-4,-0.06,0.98,0.24,22416,9941.30,0,0,165,0.98,-2.80,0.07,-0.06,0.98,0.24
-0.39257812,0.00895025,-0.0020012744,-0.0013432844,-0.06,0.98,0.25,22433,9940.30,0,0,0,1.61,-2.66,0.00,-0.06,0.98,0.25
-0.39257812,0.00695025,-0.0010012724,-0.0013432844,-0.06,0.98,0.24,22448,9940.30,0,0,165,1.47,-2.59,0.00,-0.06,0.98,0.24
-0.39257812,-0.00504975,-0.0020012744,-3.4328434E-4,-0.06,0.98,0.25,22455,9940.30,0,0,0,0.63,-2.66,0.07,-0.06,0.98,0.25
0.6074219,-0.01104975,-1.270324E-6,-3.4328434E-4,-0.06,0.98,0.25,22470,9941.30,0,0,165,0.21,-2.52,0.07,-0.06,0.98,0.25
0.6074219,-0.00404975,9.98728E-4,-0.0023432844,-0.06,0.98,0.25,22484,9941.30,0,0,0,0.70,-2.45,-0.07,-0.06,0.98,0.25
0.6074219,0.0039502494,9.98728E-4,-3.4328434E-4,-0.06,0.98,0.25,22492,9941.30,0,0,165,1.26,-2.45,0.07,-0.06,0.98,0.25
-0.39257812,0.011950251,-1.270324E-6,6.567157E-4,-0.06,0.98,0.24,22507,9940.30,0,0,0,1.82,-2.52,0.14,-0.06,0.98,0.24
0.6074219,0.011950251,-1.270324E-6,-3.4328434E-4,-0.06,0.98,0.24,22522,9941.30,0,0,165,1.82,-2.52,0.07,-0.06,0.98,0.24
0.90722656,9.5024984E-4,0.0019987263,-3.4328434E-4,-0.06,0.98,0.24,22530,9941.60,0,0,0,1.05,-2.38,0.07,-0.06,0.98,0.24
-0.39257812,-0.010049749,9.98728E-4,-3.4328434E-4,-0.06,0.98,0.24,22544,9940.30,0,0,165,0.28,-2.45,0.07,-0.06,0.98,0.24
0.6074219,-0.01304975,-1.270324E-6,-0.0023432844,-0.06,0.98,0.25,22560,9941.30,0,0,0,0.07,-2.52,-0.07,-0.06,0.98,0.25
-0.39257812,-0.010049749,-1.270324E-6,-0.0043432843,-0.06,0.98,0.25,22567,9940.30,0,0,165,0.28,-2.52,-0.21,-0.06,0.98,0.25
-0.39257812,0.0039502494,-1.270324E-6,-0.0033432846,-0.06,0.98,0.25,22582,9940.30,0,0,0,1.26,-2.52,-0.14,-0.06,0.98,0.25
-0.39257812,0.0049502514,-1.270324E-6,-0.0033432846,-0.06,0.98,0.24,22597,9940.30,0,0,165,1.33,-2.52,-0.14,-0.06,0.98,0.24
0.90722656,0.0039502494,0.0019987263,-0.0033432846,-0.06,0.98,0.24,22605,9941.60,0,0,0,1.26,-2.38,-0.14,-0.06,0.98,0.24
0.6074219,-0.00404975,9.98728E-4,-0.0023432844,-0.06,0.98,0.24,22627,9941.30,0,0,165,0.70,-2.45,-0.07,-0.06,0.98,0.24
-1.2919922,-0.008049751,0.0029987283,-0.0033432846,-0.06,0.98,0.24,22635,9939.40,0,0,0,0.42,-2.31,-0.14,-0.06,0.98,0.24
0.6074219,-0.010049749,-1.270324E-6,-0.0033432846,-0.06,0.98,0.24,22643,9941.30,0,0,165,0.28,-2.52,-0.14,-0.06,0.98,0.24
0.6074219,-0.00904975,-0.0010012724,-0.0023432844,-0.06,0.98,0.24,22657,9941.30,0,0,0,0.35,-2.59,-0.07,-0.06,0.98,0.24
0.6074219,-0.00504975,-0.0010012724,-0.0023432844,-0.06,0.98,0.24,22672,9941.30,0,0,165,0.63,-2.59,-0.07,-0.06,0.98,0.24
0.6074219,-4.974939E-5,-0.0010012724,-0.0033432846,-0.06,0.98,0.25,22687,9941.30,0,0,0,0.98,-2.59,-0.14,-0.06,0.98,0.25
0.6074219,0.002950251,-1.270324E-6,-0.0023432844,-0.06,0.98,0.25,22694,9941.30,0,0,165,1.19,-2.52,-0.07,-0.06,0.98,0.25
-0.39257812,0.00695025,0.0019987263,-0.0033432846,-0.06,0.98,0.25,22709,9940.30,0,0,0,1.47,-2.38,-0.14,-0.06,0.98,0.25
0.6074219,0.0019502509,9.98728E-4,-3.4328434E-4,-0.06,0.98,0.24,22716,9941.30,0,0,165,1.12,-2.45,0.07,-0.06,0.98,0.24
-0.39257812,-0.0010497496,-0.0010012724,-0.0023432844,-0.06,0.98,0.24,22732,9940.30,0,0,0,0.91,-2.59,-0.07,-0.06,0.98,0.24
0.6074219,-0.0010497496,-0.0010012724,-0.0013432844,-0.06,0.98,0.24,22747,9941.30,0,0,165,0.91,-2.59,0.00,-0.06,0.98,0.24
-0.39257812,-0.0020497506,9.98728E-4,6.567157E-4,-0.06,0.98,0.25,22769,9940.30,0,0,0,0.84,-2.45,0.14,-0.06,0.98,0.25
0.6074219,-0.0030497499,-0.0010012724,-0.0013432844,-0.06,0.98,0.24,22771,9941.30,0,0,165,0.77,-2.59,0.00,-0.06,0.98,0.24
-0.39257812,-4.974939E-5,-1.270324E-6,-3.4328434E-4,-0.06,0.98,0.24,22784,9940.30,0,0,0,0.98,-2.52,0.07,-0.06,0.98,0.24
-0.39257812,0.0039502494,-1.270324E-6,0.25365672,-0.06,0.98,0.24,22793,9940.30,0,0,165,1.26,-2.52,17.85,-0.06,0.98,0.24
-0.39257812,0.0059502497,-0.0010012724,-0.0013432844,-0.06,0.98,0.24,22808,9940.30,0,0,0,1.40,-2.59,0.00,-0.06,0.98,0.24
0.6074219,0.002950251,-1.270324E-6,-3.4328434E-4,-0.06,0.98,0.24,22822,9941.30,0,0,165,1.19,-2.52,0.07,-0.06,0.98,0.24
-0.39257812,-0.0010497496,9.98728E-4,6.567157E-4,-0.06,0.98,0.24,22830,9940.30,0,0,0,0.91,-2.45,0.14,-0.06,0.98,0.24
-0.39257812,-0.01104975,0.0029987283,-0.0013432844,-0.06,0.98,0.24,22852,9940.30,0,0,165,0.21,-2.31,0.00,-0.06,0.98,0.24
0.6074219,-0.01104975,-0.0010012724,-0.0023432844,-0.06,0.98,0.25,22859,9941.30,0,0,0,0.21,-2.59,-0.07,-0.06,0.98,0.25
-0.39257812,-0.008049751,-0.0010012724,-0.0033432846,-0.06,0.98,0.24,22867,9940.30,0,0,165,0.42,-2.59,-0.14,-0.06,0.98,0.24
-0.39257812,0.0019502509,9.98728E-4,-0.0023432844,-0.06,0.98,0.24,22882,9940.30,0,0,0,1.12,-2.45,-0.07,-0.06,0.98,0.24
-1.2919922,0.0039502494,-1.270324E-6,-0.0013432844,-0.06,0.98,0.25,22896,9939.40,0,0,165,1.26,-2.52,0.00,-0.06,0.98,0.25
-0.39257812,9.5024984E-4,-0.0010012724,-0.0033432846,-0.06,0.98,0.24,22905,9940.30,0,0,0,1.05,-2.59,-0.14,-0.06,0.98,0.24
-0.39257812,-0.0030497499,-0.0010012724,-0.0023432844,-0.06,0.98,0.24,22920,9940.30,0,0,165,0.77,-2.59,-0.07,-0.06,0.98,0.24
-0.39257812,-0.008049751,9.98728E-4,-0.0033432846,-0.06,0.98,0.24,22936,9940.30,0,0,0,0.42,-2.45,-0.14,-0.06,0.98,0.24
0.6074219,-0.0070497496,-1.270324E-6,-0.0033432846,-0.06,0.98,0.24,22942,9941.30,0,0,165,0.49,-2.52,-0.14,-0.06,0.98,0.24
-0.39257812,-0.0030497499,-1.270324E-6,-0.0023432844,-0.06,0.98,0.24,22957,9940.30,0,0,0,0.77,-2.52,-0.07,-0.06,0.98,0.24
0.3076172,0.002950251,-1.270324E-6,-0.0013432844,-0.06,0.98,0.24,22972,9941.00,0,0,165,1.19,-2.52,0.00,-0.06,0.98,0.24
-0.39257812,0.0059502497,-1.270324E-6,-0.0033432846,-0.06,0.98,0.25,22980,9940.30,0,0,0,1.40,-2.52,-0.14,-0.06,0.98,0.25
0.6074219,0.0039502494,-1.270324E-6,-3.4328434E-4,-0.06,0.98,0.24,22995,9941.30,0,0,165,1.26,-2.52,0.07,-0.06,0.98,0.24
0.6074219,-0.0020497506,-1.270324E-6,-0.0013432844,-0.06,0.98,0.24,23010,9941.30,0,0,0,0.84,-2.52,0.00,-0.06,0.98,0.24
0.6074219,-0.0030497499,-1.270324E-6,-3.4328434E-4,-0.06,0.98,0.25,23017,9941.30,0,0,165,0.77,-2.52,0.07,-0.06,0.98,0.25
0.90722656,-0.0020497506,9.98728E-4,0.0016567154,-0.06,0.98,0.25,23032,9941.60,0,0,0,0.84,-2.45,0.21,-0.06,0.98,0.25
-0.39257812,0.0019502509,-1.270324E-6,-0.0013432844,-0.06,0.98,0.24,23047,9940.30,0,0,165,1.12,-2.52,0.00,-0.06,0.98,0.24
-0.39257812,0.0049502514,9.98728E-4,-3.4328434E-4,-0.06,0.98,0.24,23055,9940.30,0,0,0,1.33,-2.45,0.07,-0.06,0.98,0.24
-0.39257812,0.002950251,9.98728E-4,-0.0023432844,-0.06,0.98,0.25,23069,9940.30,0,0,165,1.19,-2.45,-0.07,-0.06,0.98,0.25
-0.39257812,9.5024984E-4,9.98728E-4,-0.0013432844,-0.06,0.98,0.24,23085,9940.30,0,0,0,1.05,-2.45,0.00,-0.06,0.98,0.24
-0.39257812,-0.0030497499,9.98728E-4,-0.0013432844,-0.06,0.98,0.24,23093,9940.30,0,0,165,0.77,-2.45,0.00,-0.06,0.98,0.24
-0.39257812,-0.0030497499,9.98728E-4,-0.0013432844,-0.06,0.98,0.25,23107,9940.30,0,0,0,0.77,-2.45,0.00,-0.06,0.98,0.25
-0.09277344,-0.0030497499,-0.0010012724,-0.0023432844,-0.06,0.98,0.25,23115,9940.60,0,0,165,0.77,-2.59,-0.07,-0.06,0.98,0.25
-0.39257812,-0.00404975,-0.0010012724,-0.0033432846,-0.06,0.98,0.25,23137,9940.30,0,0,0,0.70,-2.59,-0.14,-0.06,0.98,0.25
0.6074219,-0.00404975,-0.0010012724,-0.0033432846,-0.06,0.98,0.25,23145,9941.30,0,0,165,0.70,-2.59,-0.14,-0.06,0.98,0.25
-0.39257812,-0.0010497496,-1.270324E-6,-3.4328434E-4,-0.06,0.98,0.25,23152,9940.30,0,0,0,0.91,-2.52,0.07,-0.06,0.98,0.25
-0.39257812,-0.0020497506,-1.270324E-6,-3.4328434E-4,-0.06,0.98,0.25,23167,9940.30,0,0,165,0.84,-2.52,0.07,-0.06,0.98,0.25
-1.2919922,0.0039502494,9.98728E-4,6.567157E-4,-0.06,0.98,0.25,23182,9939.40,0,0,0,1.26,-2.45,0.14,-0.06,0.98,0.25
0.6074219,0.00695025,0.0019987263,6.567157E-4,-0.06,0.98,0.24,23190,9941.30,0,0,165,1.47,-2.38,0.14,-0.06,0.98,0.24
0.6074219,0.00695025,0.0019987263,-0.0013432844,-0.06,0.98,0.25,23213,9941.30,0,0,0,1.47,-2.38,0.00,-0.06,0.98,0.25
-0.09277344,0.0039502494,9.98728E-4,-0.0023432844,-0.06,0.98,0.24,23220,9940.60,0,0,165,1.26,-2.45,-0.07,-0.06,0.98,0.24
-0.39257812,-0.0020497506,-1.270324E-6,-0.0023432844,-0.06,0.98,0.24,23227,9940.30,0,0,0,0.84,-2.52,-0.07,-0.06,0.98,0.24
-0.09277344,-0.0030497499,-0.0010012724,-0.0023432844,-0.06,0.98,0.24,23243,9940.60,0,0,165,0.77,-2.59,-0.07,-0.06,0.98,0.24
-2.2919922,-0.00504975,-0.0020012744,6.567157E-4,-0.06,0.98,0.25,23257,9938.40,0,0,0,0.63,-2.66,0.14,-0.06,0.98,0.25
0.6074219,-0.0030497499,-0.0020012744,6.567157E-4,-0.06,0.98,0.25,23265,9941.30,0,0,165,0.77,-2.66,0.14,-0.06,0.98,0.25
-1.2919922,0.002950251,9.98728E-4,6.567157E-4,-0.06,0.98,0.25,23280,9939.40,0,0,0,1.19,-2.45,0.14,-0.06,0.98,0.25
-0.09277344,0.002950251,0.0019987263,-3.4328434E-4,-0.06,0.98,0.25,23295,9940.60,0,0,165,1.19,-2.38,0.07,-0.06,0.98,0.25
-0.09277344,0.002950251,9.98728E-4,-0.0013432844,-0.06,0.98,0.24,23302,9940.60,0,0,0,1.19,-2.45,0.00,-0.06,0.98,0.24
0.6074219,-0.0020497506,-1.270324E-6,-0.0023432844,-0.06,0.98,0.25,23317,9941.30,0,0,165,0.84,-2.52,-0.07,-0.06,0.98,0.25
0.90722656,-0.0020497506,-0.0010012724,-0.0023432844,-0.06,0.98,0.24,23333,9941.60,0,0,0,0.84,-2.59,-0.07,-0.06,0.98,0.24
0.6074219,0.0019502509,-0.0010012724,6.567157E-4,-0.06,0.98,0.25,23339,9941.30,0,0,165,1.12,-2.59,0.14,-0.06,0.98,0.25
-0.09277344,0.002950251,-0.0010012724,-3.4328434E-4,-0.06,0.98,0.25,23354,9940.60,0,0,0,1.19,-2.59,0.07,-0.06,0.98,0.25
-0.09277344,0.0049502514,-1.270324E-6,-0.0033432846,-0.06,0.98,0.24,23370,9940.60,0,0,165,1.33,-2.52,-0.14,-0.06,0.98,0.24
-0.09277344,0.0049502514,-1.270324E-6,0.25365672,-0.06,0.98,0.24,23377,9940.60,0,0,0,1.33,-2.52,17.85,-0.06,0.98,0.24
-0.39257812,0.00695025,-0.0020012744,-0.0023432844,-0.06,0.98,0.24,23392,9940.30,0,0,165,1.47,-2.66,-0.07,-0.06,0.98,0.24
0.6074219,0.002950251,-0.0020012744,-0.0023432844,-0.06,0.98,0.24,23406,9941.30,0,0,0,1.19,-2.66,-0.07,-0.06,0.98,0.24
-0.39257812,-0.0070497496,-0.0030012727,-0.0013432844,-0.06,0.98,0.24,23415,9940.30,0,0,165,0.49,-2.73,0.00,-0.06,0.98,0.24
-0.39257812,-0.0120497495,-0.0030012727,6.567157E-4,-0.06,0.97,0.24,23430,9940.30,0,0,0,0.14,-2.73,0.14,-0.06,0.97,0.24
0.90722656,-0.0120497495,-0.0010012724,-0.0013432844,-0.06,0.98,0.24,23452,9941.60,0,0,165,0.14,-2.59,0.00,-0.06,0.98,0.24
0.90722656,-4.974939E-5,-0.0020012744,-0.0023432844,-0.06,0.98,0.25,23453,9941.60,0,0,0,0.98,-2.66,-0.07,-0.06,0.98,0.25
0.6074219,0.0099502485,-1.270324E-6,-0.0013432844,-0.06,0.98,0.25,23466,9941.30,0,0,165,1.68,-2.52,0.00,-0.06,0.98,0.25
0.90722656,0.00695025,-1.270324E-6,-0.0033432846,-0.06,0.98,0.25,23482,9941.60,0,0,0,1.47,-2.52,-0.14,-0.06,0.98,0.25
-0.39257812,-0.010049749,-0.0020012744,-3.4328434E-4,-0.06,0.98,0.25,23490,9940.30,0,0,165,0.28,-2.66,0.07,-0.06,0.98,0.25
-1.6923828,-0.01604975,-0.0020012744,-0.0023432844,-0.06,0.98,0.24,23505,9939.00,0,0,0,-0.14,-2.66,-0.07,-0.06,0.98,0.24
-0.39257812,-0.00904975,9.98728E-4,-0.0023432844,-0.06,0.97,0.25,23520,9940.30,0,0,165,0.35,-2.45,-0.07,-0.06,0.97,0.25
-0.09277344,0.0059502497,9.98728E-4,-3.4328434E-4,-0.06,0.98,0.25,23527,9940.60,0,0,0,1.40,-2.45,0.07,-0.06,0.98,0.25
-1.2919922,0.016950252,0.0019987263,6.567157E-4,-0.06,0.98,0.25,23543,9939.40,0,0,165,2.17,-2.38,0.14,-0.06,0.98,0.25
-0.39257812,0.014950249,9.98728E-4,0.0016567154,-0.06,0.98,0.24,23556,9940.30,0,0,0,2.03,-2.45,0.21,-0.06,0.98,0.24
-0.09277344,0.0039502494,0.0019987263,0.0016567154,-0.06,0.98,0.24,23572,9940.60,0,0,165,1.26,-2.38,0.21,-0.06,0.98,0.24
-0.39257812,-0.01504975,9.98728E-4,-0.0013432844,-0.06,0.98,0.24,23580,9940.30,0,0,0,-0.07,-2.45,0.00,-0.06,0.98,0.24
0.90722656,-0.019049749,-1.270324E-6,-0.0033432846,-0.06,0.98,0.24,23602,9941.60,0,0,165,-0.35,-2.52,-0.14,-0.06,0.98,0.24
0.90722656,-0.010049749,-1.270324E-6,-0.0033432846,-0.06,0.98,0.24,23604,9941.60,0,0,0,0.28,-2.52,-0.14,-0.06,0.98,0.24
0.6074219,9.5024984E-4,-0.0020012744,-0.0043432843,-0.06,0.98,0.24,23617,9941.30,0,0,165,1.05,-2.66,-0.21,-0.06,0.98,0.24
0.6074219,0.00795025,-0.0020012744,-0.0043432843,-0.06,0.98,0.24,23632,9941.30,0,0,0,1.54,-2.66,-0.21,-0.06,0.98,0.24
-0.09277344,0.0019502509,-0.0010012724,-0.0023432844,-0.06,0.98,0.24,23639,9940.60,0,0,165,1.12,-2.59,-0.07,-0.06,0.98,0.24
0.6074219,-0.0070497496,-1.270324E-6,0.25365672,-0.06,0.98,0.24,23655,9941.30,0,0,0,0.49,-2.52,17.85,-0.06,0.98,0.24
-0.39257812,-0.0060497494,9.98728E-4,-0.0023432844,-0.06,0.98,0.24,23669,9940.30,0,0,165,0.56,-2.45,-0.07,-0.06,0.98,0.24
0.90722656,-0.0030497499,9.98728E-4,-0.0043432843,-0.06,0.98,0.24,23677,9941.60,0,0,0,0.77,-2.45,-0.21,-0.06,0.98,0.24
1.9072266,-0.0010497496,-1.270324E-6,-0.0033432846,-0.06,0.98,0.24,23692,9942.60,0,0,165,0.91,-2.52,-0.14,-0.06,0.98,0.24
-0.9921875,-0.0020497506,-1.270324E-6,-0.0023432844,-0.06,0.98,0.24,23707,9939.70,0,0,0,0.84,-2.52,-0.07,-0.06,0.98,0.24
-0.39257812,-0.01104975,-0.0020012744,0.0016567154,-0.06,0.98,0.25,23723,9940.30,0,0,165,0.21,-2.66,0.21,-0.06,0.98,0.25
-0.39257812,-0.0120497495,-1.270324E-6,-3.4328434E-4,-0.06,0.98,0.25,23729,9940.30,0,0,0,0.14,-2.52,0.07,-0.06,0.98,0.25
-0.39257812,-0.00404975,-0.0020012744,6.567157E-4,-0.06,0.98,0.25,23745,9940.30,0,0,165,0.70,-2.66,0.14,-0.06,0.98,0.25
-0.09277344,0.0059502497,-1.270324E-6,-3.4328434E-4,-0.06,0.98,0.25,23752,9940.60,0,0,0,1.40,-2.52,0.07,-0.06,0.98,0.25
-0.39257812,0.016950252,-1.270324E-6,-3.4328434E-4,-0.06,0.98,0.24,23782,9940.30,0,0,165,2.17,-2.52,0.07,-0.06,0.98,0.24
-0.39257812,0.012950251,-1.270324E-6,6.567157E-4,-0.06,0.98,0.24,23783,9940.30,0,0,0,1.89,-2.52,0.14,-0.06,0.98,0.24
-0.39257812,9.5024984E-4,9.98728E-4,0.0016567154,-0.06,0.98,0.24,23790,9940.30,0,0,165,1.05,-2.45,0.21,-0.06,0.98,0.24
-0.39257812,-0.0120497495,-0.0010012724,-0.0013432844,-0.06,0.98,0.24,23805,9940.30,0,0,0,0.14,-2.59,0.00,-0.06,0.98,0.24
-0.09277344,-0.01504975,-1.270324E-6,-0.0013432844,-0.06,0.98,0.24,23820,9940.60,0,0,165,-0.07,-2.52,0.00,-0.06,0.98,0.24
-1.9921875,-0.00504975,-1.270324E-6,-0.0023432844,-0.06,0.98,0.24,23827,9938.70,0,0,0,0.63,-2.52,-0.07,-0.06,0.98,0.24
-0.09277344,0.0039502494,-1.270324E-6,-0.0023432844,-0.06,0.98,0.25,23857,9940.60,0,0,165,1.26,-2.52,-0.07,-0.06,0.98,0.25
-1.2919922,0.00695025,-0.0010012724,-0.0023432844,-0.06,0.98,0.25,23859,9939.40,0,0,0,1.47,-2.59,-0.07,-0.06,0.98,0.25
-0.09277344,-0.0030497499,-0.0020012744,-0.0023432844,-0.06,0.98,0.24,23865,9940.60,0,0,165,0.77,-2.66,-0.07,-0.06,0.98,0.24
-0.39257812,-0.0120497495,-0.0020012744,-0.0013432844,-0.06,0.98,0.25,23879,9940.30,0,0,0,0.14,-2.66,0.00,-0.06,0.98,0.25
-0.09277344,-0.01404975,-0.0010012724,-0.0013432844,-0.06,0.98,0.25,23887,9940.60,0,0,165,0.00,-2.59,0.00,-0.06,0.98,0.25
0.90722656,-0.00404975,9.98728E-4,-0.0013432844,-0.06,0.98,0.25,23902,9941.60,0,0,0,0.70,-2.45,0.00,-0.06,0.98,0.25
-0.09277344,0.00795025,-1.270324E-6,-0.0013432844,-0.06,0.98,0.25,23918,9940.60,0,0,165,1.54,-2.52,0.00,-0.06,0.98,0.25
0.6074219,0.011950251,-1.270324E-6,-0.0043432843,-0.06,0.98,0.24,23925,9941.30,0,0,0,1.82,-2.52,-0.21,-0.06,0.98,0.24
-0.09277344,0.0039502494,-0.0010012724,-0.0013432844,-0.06,0.98,0.24,23940,9940.60,0,0,165,1.26,-2.59,0.00,-0.06,0.98,0.24
-0.09277344,-0.01104975,-0.0010012724,-0.0023432844,-0.06,0.98,0.25,23954,9940.60,0,0,0,0.21,-2.59,-0.07,-0.06,0.98,0.25
-0.09277344,-0.01704975,-0.0020012744,-3.4328434E-4,-0.06,0.98,0.25,23962,9940.60,0,0,165,-0.21,-2.66,0.07,-0.06,0.98,0.25
-0.9921875,-0.010049749,-0.0010012724,-3.4328434E-4,-0.06,0.98,0.25,23976,9939.70,0,0,0,0.28,-2.59,0.07,-0.06,0.98,0.25
0.90722656,0.0019502509,-0.0010012724,-0.0023432844,-0.06,0.98,0.25,23984,9941.60,0,0,165,1.12,-2.59,-0.07,-0.06,0.98,0.25
-0.09277344,0.012950251,-1.270324E-6,-0.0033432846,-0.06,0.98,0.24,23999,9940.60,0,0,0,1.89,-2.52,-0.14,-0.06,0.98,0.24
-0.09277344,0.0099502485,-0.0010012724,-0.0023432844,-0.05,0.98,0.24,24015,9940.60,0,0,165,1.68,-2.59,-0.07,-0.05,0.98,0.24
-0.39257812,-4.974939E-5,-1.270324E-6,6.567157E-4,-0.06,0.98,0.24,24022,9940.30,0,0,0,0.98,-2.52,0.14,-0.06,0.98,0.24
-1.6923828,-0.00904975,-0.0010012724,0.0036567156,-0.06,0.98,0.24,24037,9939.00,0,0,165,0.35,-2.59,0.35,-0.06,0.98,0.24
-0.09277344,-0.00904975,-1.270324E-6,0.0016567154,-0.06,0.98,0.25,24052,9940.60,0,0,0,0.35,-2.52,0.21,-0.06,0.98,0.25
-0.39257812,-4.974939E-5,-1.270324E-6,-3.4328434E-4,-0.06,0.98,0.25,24059,9940.30,0,0,165,0.98,-2.52,0.07,-0.06,0.98,0.25
-0.09277344,0.0059502497,-0.0010012724,-0.0033432846,-0.06,0.98,0.24,24074,9940.60,0,0,0,1.40,-2.59,-0.14,-0.06,0.98,0.24
-0.09277344,0.0059502497,-1.270324E-6,-0.0013432844,-0.06,0.98,0.24,24090,9940.60,0,0,165,1.40,-2.52,0.00,-0.06,0.98,0.24
1.5078125,-0.00504975,-0.0020012744,-3.4328434E-4,-0.06,0.98,0.24,24097,9942.20,0,0,0,0.63,-2.66,0.07,-0.06,0.98,0.24
-0.09277344,-0.01104975,-0.0010012724,6.567157E-4,-0.06,0.98,0.24,24112,9940.60,0,0,165,0.21,-2.59,0.14,-0.06,0.98,0.24
-0.09277344,-0.0070497496,-1.270324E-6,6.567157E-4,-0.06,0.98,0.25,24127,9940.60,0,0,0,0.49,-2.52,0.14,-0.06,0.98,0.25
-0.09277344,0.002950251,-0.0010012724,-3.4328434E-4,-0.06,0.98,0.25,24134,9940.60,0,0,165,1.19,-2.59,0.07,-0.06,0.98,0.25
-0.09277344,0.00895025,9.98728E-4,-0.0033432846,-0.06,0.98,0.24,24157,9940.60,0,0,0,1.61,-2.45,-0.14,-0.06,0.98,0.24
-0.39257812,0.00695025,9.98728E-4,-0.0033432846,-0.06,0.98,0.24,24165,9940.30,0,0,165,1.47,-2.45,-0.14,-0.06,0.98,0.24
0.90722656,-0.0030497499,-1.270324E-6,-3.4328434E-4,-0.06,0.98,0.25,24172,9941.60,0,0,0,0.77,-2.52,0.07,-0.06,0.98,0.25
-1.2919922,-0.01304975,-0.0010012724,-0.0023432844,-0.06,0.98,0.24,24187,9939.40,0,0,165,0.07,-2.59,-0.07,-0.06,0.98,0.24
0.90722656,-0.01504975,-0.0010012724,6.567157E-4,-0.06,0.98,0.25,24210,9941.60,0,0,0,-0.07,-2.59,0.14,-0.06,0.98,0.25
-0.39257812,-0.008049751,-0.0020012744,-3.4328434E-4,-0.06,0.98,0.25,24211,9940.30,0,0,165,0.42,-2.66,0.07,-0.06,0.98,0.25
-0.39257812,0.00695025,-1.270324E-6,-0.0013432844,-0.06,0.98,0.25,24224,9940.30,0,0,0,1.47,-2.52,0.00,-0.06,0.98,0.25
0.90722656,0.011950251,-1.270324E-6,-0.0023432844,-0.06,0.98,0.25,24240,9941.60,0,0,165,1.82,-2.52,-0.07,-0.06,0.98,0.25
-0.9921875,0.00895025,9.98728E-4,-0.0033432846,-0.06,0.98,0.24,24248,9939.70,0,0,0,1.61,-2.45,-0.14,-0.06,0.98,0.24
-0.39257812,9.5024984E-4,-1.270324E-6,-3.4328434E-4,-0.06,0.98,0.24,24262,9940.30,0,0,165,1.05,-2.52,0.07,-0.06,0.98,0.24
-0.09277344,-0.0120497495,9.98728E-4,-3.4328434E-4,-0.06,0.98,0.24,24270,9940.60,0,0,0,0.14,-2.45,0.07,-0.06,0.98,0.24
0.3076172,-0.01104975,-1.270324E-6,-0.0013432844,-0.06,0.98,0.24,24284,9941.00,0,0,165,0.21,-2.52,0.00,-0.06,0.98,0.24
-0.09277344,-0.00404975,-1.270324E-6,-0.0013432844,-0.06,0.98,0.24,24300,9940.60,0,0,0,0.70,-2.52,0.00,-0.06,0.98,0.24
-0.39257812,0.0049502514,-0.0010012724,-3.4328434E-4,-0.06,0.98,0.25,24307,9940.30,0,0,165,1.33,-2.59,0.07,-0.06,0.98,0.25
0.90722656,0.00895025,-1.270324E-6,-0.0033432846,-0.06,0.98,0.25,24322,9941.60,0,0,0,1.61,-2.52,-0.14,-0.06,0.98,0.25
-0.09277344,0.0049502514,-0.0020012744,-0.0043432843,-0.06,0.98,0.24,24336,9940.60,0,0,165,1.33,-2.66,-0.21,-0.06,0.98,0.24
-0.09277344,-0.0030497499,-0.0020012744,6.567157E-4,-0.06,0.98,0.24,24344,9940.60,0,0,0,0.77,-2.66,0.14,-0.06,0.98,0.24
-0.09277344,-0.00504975,-0.0010012724,0.002656716,-0.06,0.98,0.24,24359,9940.60,0,0,165,0.63,-2.59,0.28,-0.06,0.98,0.24
-0.09277344,-0.00904975,-1.270324E-6,6.567157E-4,-0.06,0.98,0.25,24374,9940.60,0,0,0,0.35,-2.52,0.14,-0.06,0.98,0.25
-0.09277344,-0.0030497499,0.0019987263,0.002656716,-0.06,0.98,0.25,24382,9940.60,0,0,165,0.77,-2.38,0.28,-0.06,0.98,0.25
-0.09277344,0.0049502514,0.0019987263,-3.4328434E-4,-0.06,0.98,0.25,24397,9940.60,0,0,0,1.33,-2.38,0.07,-0.06,0.98,0.25
0.90722656,0.0039502494,0.0029987283,-0.006343284,-0.06,0.98,0.24,24412,9941.60,0,0,165,1.26,-2.31,-0.35,-0.06,0.98,0.24
-0.09277344,-4.974939E-5,-0.0030012727,-0.0043432843,-0.06,0.98,0.24,24420,9940.60,0,0,0,0.98,-2.73,-0.21,-0.06,0.98,0.24
-0.39257812,-0.0060497494,-0.0020012744,-0.0013432844,-0.06,0.98,0.25,24435,9940.30,0,0,165,0.56,-2.66,0.00,-0.06,0.98,0.25
0.90722656,-0.00904975,-0.0030012727,6.567157E-4,-0.06,0.98,0.24,24450,9941.60,0,0,0,0.35,-2.73,0.14,-0.06,0.98,0.24
-0.09277344,-0.008049751,-0.0020012744,-3.4328434E-4,-0.06,0.98,0.25,24472,9940.60,0,0,165,0.42,-2.66,0.07,-0.06,0.98,0.25
-0.09277344,0.00695025,-0.0010012724,-0.0033432846,-0.06,0.98,0.25,24474,9940.60,0,0,0,1.47,-2.59,-0.14,-0.06,0.98,0.25
0.6074219,0.011950251,9.98728E-4,-0.006343284,-0.06,0.98,0.24,24487,9941.30,0,0,165,1.82,-2.45,-0.35,-0.06,0.98,0.24
-0.09277344,0.0099502485,-0.0020012744,-0.0033432846,-0.06,0.98,0.24,24494,9940.60,0,0,0,1.68,-2.66,-0.14,-0.06,0.98,0.24
-0.09277344,-4.974939E-5,-0.004001271,-0.0013432844,-0.06,0.98,0.24,24509,9940.60,0,0,165,0.98,-2.80,0.00,-0.06,0.98,0.24
-0.09277344,-0.0120497495,-0.0030012727,6.567157E-4,-0.06,0.98,0.24,24525,9940.60,0,0,0,0.14,-2.73,0.14,-0.06,0.98,0.24
0.90722656,-0.01704975,-0.0020012744,-3.4328434E-4,-0.06,0.98,0.25,24533,9941.60,0,0,165,-0.21,-2.66,0.07,-0.06,0.98,0.25
-0.09277344,-0.008049751,-0.0010012724,-0.0013432844,-0.06,0.98,0.25,24562,9940.60,0,0,0,0.42,-2.59,0.00,-0.06,0.98,0.25
0.90722656,0.00695025,-1.270324E-6,-0.0053432845,-0.06,0.98,0.25,24563,9941.60,0,0,165,1.47,-2.52,-0.28,-0.06,0.98,0.25
0.90722656,0.017950252,-0.0010012724,-0.0033432846,-0.06,0.98,0.25,24570,9941.60,0,0,0,2.24,-2.59,-0.14,-0.06,0.98,0.25
0.90722656,0.014950249,0.0019987263,-3.4328434E-4,-0.06,0.98,0.24,24585,9941.60,0,0,165,2.03,-2.38,0.07,-0.06,0.98,0.24
0.90722656,-0.00404975,9.98728E-4,-3.4328434E-4,-0.06,0.98,0.24,24600,9941.60,0,0,0,0.70,-2.45,0.07,-0.06,0.98,0.24
-0.09277344,-0.01804975,-1.270324E-6,6.567157E-4,-0.05,0.98,0.24,24607,9940.60,0,0,165,-0.28,-2.52,0.14,-0.05,0.98,0.24
-0.09277344,-0.01604975,-1.270324E-6,6.567157E-4,-0.06,0.98,0.25,24622,9940.60,0,0,0,-0.14,-2.52,0.14,-0.06,0.98,0.25
0.90722656,-0.0020497506,9.98728E-4,-3.4328434E-4,-0.06,0.98,0.25,24637,9941.60,0,0,165,0.84,-2.45,0.07,-0.06,0.98,0.25
-0.09277344,0.011950251,9.98728E-4,-3.4328434E-4,-0.06,0.98,0.25,24645,9940.60,0,0,0,1.82,-2.45,0.07,-0.06,0.98,0.25
-0.09277344,0.016950252,0.0019987263,-0.0013432844,-0.06,0.98,0.24,24660,9940.60,0,0,165,2.17,-2.38,0.00,-0.06,0.98,0.24
-0.09277344,0.00695025,9.98728E-4,-0.0023432844,-0.06,0.98,0.24,24674,9940.60,0,0,0,1.47,-2.45,-0.07,-0.06,0.98,0.24
-0.9921875,-0.00904975,-1.270324E-6,-0.0013432844,-0.06,0.98,0.24,24682,9939.70,0,0,165,0.35,-2.52,0.00,-0.06,0.98,0.24
-0.09277344,-0.01804975,-0.0010012724,-0.0033432846,-0.06,0.98,0.24,24697,9940.60,0,0,0,-0.28,-2.59,-0.14,-0.06,0.98,0.24
-0.09277344,-0.01704975,-0.0020012744,-0.0053432845,-0.06,0.98,0.25,24719,9940.60,0,0,165,-0.21,-2.66,-0.28,-0.06,0.98,0.25
0.90722656,-0.0020497506,-1.270324E-6,-0.0033432846,-0.06,0.98,0.24,24721,9941.60,0,0,0,0.84,-2.52,-0.14,-0.06,0.98,0.24
-0.6923828,0.00695025,9.98728E-4,-0.0033432846,-0.06,0.98,0.25,24735,9940.00,0,0,165,1.47,-2.45,-0.14,-0.06,0.98,0.25
-0.09277344,0.00695025,0.0019987263,-0.0053432845,-0.06,0.98,0.25,24750,9940.60,0,0,0,1.47,-2.38,-0.28,-0.06,0.98,0.25
-0.09277344,-0.0020497506,0.0029987283,-0.0053432845,-0.06,0.98,0.24,24757,9940.60,0,0,165,0.84,-2.31,-0.28,-0.06,0.98,0.24
-0.09277344,-0.010049749,0.0019987263,-0.0033432846,-0.06,0.98,0.24,24772,9940.60,0,0,0,0.28,-2.38,-0.14,-0.06,0.98,0.24
-0.09277344,-0.00904975,9.98728E-4,-0.0013432844,-0.06,0.98,0.25,24786,9940.60,0,0,165,0.35,-2.45,0.00,-0.06,0.98,0.25
0.90722656,-0.0030497499,-1.270324E-6,-0.0023432844,-0.06,0.98,0.24,24794,9941.60,0,0,0,0.77,-2.52,-0.07,-0.06,0.98,0.24
-0.09277344,0.0039502494,-0.0020012744,-0.0023432844,-0.06,0.98,0.25,24810,9940.60,0,0,165,1.26,-2.66,-0.07,-0.06,0.98,0.25
0.3076172,0.00795025,-0.0010012724,-0.0023432844,-0.06,0.98,0.25,24824,9941.00,0,0,0,1.54,-2.59,-0.07,-0.06,0.98,0.25
-0.09277344,0.0039502494,-0.0010012724,-0.0033432846,-0.06,0.98,0.25,24833,9940.60,0,0,165,1.26,-2.59,-0.14,-0.06,0.98,0.25
-0.09277344,-0.00404975,-1.270324E-6,-0.0013432844,-0.06,0.98,0.24,24854,9940.60,0,0,0,0.70,-2.52,0.00,-0.06,0.98,0.24
-0.09277344,-0.00404975,-1.270324E-6,-0.0013432844,-0.06,0.98,0.24,24862,9940.60,0,0,165,0.70,-2.52,0.00,-0.06,0.98,0.24
-0.09277344,-0.0030497499,-0.0010012724,-0.0023432844,-0.06,0.98,0.25,24870,9940.60,0,0,0,0.77,-2.59,-0.07,-0.06,0.98,0.25
0.3076172,0.0019502509,-0.0010012724,-0.0023432844,-0.06,0.98,0.24,24884,9941.00,0,0,165,1.12,-2.59,-0.07,-0.06,0.98,0.24
0.90722656,0.0019502509,-0.0010012724,-0.0023432844,-0.06,0.98,0.25,24899,9941.60,0,0,0,1.12,-2.59,-0.07,-0.06,0.98,0.25
0.90722656,-0.0030497499,-0.0010012724,-0.0033432846,-0.06,0.98,0.24,24907,9941.60,0,0,165,0.77,-2.59,-0.14,-0.06,0.98,0.24
-0.09277344,-0.00504975,-1.270324E-6,-0.0023432844,-0.06,0.98,0.24,24922,9940.60,0,0,0,0.63,-2.52,-0.07,-0.06,0.98,0.24
-0.09277344,-0.0020497506,-1.270324E-6,-0.0023432844,-0.06,0.98,0.25,24936,9940.60,0,0,165,0.84,-2.52,-0.07,-0.06,0.98,0.25
-0.09277344,9.5024984E-4,-1.270324E-6,-0.0043432843,-0.06,0.98,0.25,24944,9940.60,0,0,0,1.05,-2.52,-0.21,-0.06,0.98,0.25
-0.09277344,9.5024984E-4,-1.270324E-6,-0.0023432844,-0.06,0.98,0.24,24960,9940.60,0,0,165,1.05,-2.52,-0.07,-0.06,0.98,0.24
-0.09277344,-0.0030497499,-1.270324E-6,-0.0023432844,-0.06,0.98,0.25,24974,9940.60,0,0,0,0.77,-2.52,-0.07,-0.06,0.98,0.25
-0.09277344,-0.0060497494,-1.270324E-6,-0.0023432844,-0.06,0.98,0.24,24982,9940.60,0,0,165,0.56,-2.52,-0.07,-0.06,0.98,0.24
0.90722656,-0.00904975,-1.270324E-6,-0.0013432844,-0.06,0.98,0.25,24996,9941.60,0,0,0,0.35,-2.52,0.00,-0.06,0.98,0.25
-0.9921875,-0.0030497499,9.98728E-4,-0.0013432844,-0.06,0.98,0.25,25012,9939.70,0,0,165,0.77,-2.45,0.00,-0.06,0.98,0.25
-0.09277344,0.002950251,0.0019987263,-0.0023432844,-0.06,0.98,0.24,25019,9940.60,0,0,0,1.19,-2.38,-0.07,-0.06,0.98,0.24
-0.09277344,0.00795025,0.0019987263,-0.0023432844,-0.06,0.98,0.25,25035,9940.60,0,0,165,1.54,-2.38,-0.07,-0.06,0.98,0.25
-0.09277344,0.0019502509,9.98728E-4,-0.0043432843,-0.06,0.98,0.25,25050,9940.60,0,0,0,1.12,-2.45,-0.21,-0.06,0.98,0.25
-0.09277344,-0.00404975,9.98728E-4,-0.0023432844,-0.06,0.98,0.24,25057,9940.60,0,0,165,0.70,-2.45,-0.07,-0.06,0.98,0.24
-0.9921875,-0.008049751,-0.0010012724,-0.0033432846,-0.06,0.98,0.24,25072,9939.70,0,0,0,0.42,-2.59,-0.14,-0.06,0.98,0.24
0.90722656,-0.010049749,-1.270324E-6,-0.0033432846,-0.06,0.98,0.25,25087,9941.60,0,0,165,0.28,-2.52,-0.14,-0.06,0.98,0.25
0.90722656,-0.0060497494,-0.0010012724,-0.0013432844,-0.06,0.98,0.25,25094,9941.60,0,0,0,0.56,-2.59,0.00,-0.06,0.98,0.25
-0.9921875,9.5024984E-4,-0.0010012724,-0.0043432843,-0.06,0.98,0.25,25110,9939.70,0,0,165,1.05,-2.59,-0.21,-0.06,0.98,0.25
0.90722656,0.0049502514,-1.270324E-6,-0.0023432844,-0.06,0.98,0.25,25124,9941.60,0,0,0,1.33,-2.52,-0.07,-0.06,0.98,0.25
-0.09277344,0.002950251,0.0019987263,-0.0023432844,-0.06,0.98,0.25,25132,9940.60,0,0,165,1.19,-2.38,-0.07,-0.06,0.98,0.25
-0.6923828,-4.974939E-5,-1.270324E-6,-0.0013432844,-0.06,0.98,0.25,25147,9940.00,0,0,0,0.98,-2.52,0.00,-0.06,0.98,0.25
-0.09277344,-0.00404975,-0.0010012724,-0.0023432844,-0.06,0.98,0.24,25161,9940.60,0,0,165,0.70,-2.59,-0.07,-0.06,0.98,0.24
-0.09277344,-0.00404975,-0.0010012724,-3.4328434E-4,-0.06,0.98,0.24,25169,9940.60,0,0,0,0.70,-2.59,0.07,-0.06,0.98,0.24
-0.09277344,-0.0020497506,9.98728E-4,-3.4328434E-4,-0.06,0.98,0.25,25185,9940.60,0,0,165,0.84,-2.45,0.07,-0.06,0.98,0.25
-0.09277344,9.5024984E-4,-1.270324E-6,-0.0013432844,-0.06,0.98,0.25,25207,9940.60,0,0,0,1.05,-2.52,0.00,-0.06,0.98,0.25
0.90722656,0.0019502509,-1.270324E-6,6.567157E-4,-0.06,0.98,0.24,25208,9941.60,0,0,165,1.12,-2.52,0.14,-0.06,0.98,0.24
-0.09277344,-4.974939E-5,-1.270324E-6,6.567157E-4,-0.06,0.98,0.25,25222,9940.60,0,0,0,0.98,-2.52,0.14,-0.06,0.98,0.25
-0.09277344,-0.0020497506,-0.0010012724,-3.4328434E-4,-0.06,0.98,0.24,25229,9940.60,0,0,165,0.84,-2.59,0.07,-0.06,0.98,0.24
-0.09277344,-0.00404975,-1.270324E-6,-0.0033432846,-0.06,0.98,0.24,25252,9940.60,0,0,0,0.70,-2.52,-0.14,-0.06,0.98,0.24
-0.09277344,-0.00404975,-1.270324E-6,-0.0023432844,-0.06,0.98,0.24,25260,9940.60,0,0,165,0.70,-2.52,-0.07,-0.06,0.98,0.24
0.90722656,-0.0030497499,-1.270324E-6,-0.0023432844,-0.06,0.98,0.25,25267,9941.60,0,0,0,0.77,-2.52,-0.07,-0.06,0.98,0.25
-0.9921875,-0.0020497506,-1.270324E-6,-0.0023432844,-0.06,0.98,0.24,25282,9939.70,0,0,165,0.84,-2.52,-0.07,-0.06,0.98,0.24
-0.09277344,-4.974939E-5,-1.270324E-6,-3.4328434E-4,-0.06,0.98,0.24,25297,9940.60,0,0,0,0.98,-2.52,0.07,-0.06,0.98,0.24
-0.09277344,0.002950251,-1.270324E-6,-0.0013432844,-0.06,0.98,0.25,25305,9940.60,0,0,165,1.19,-2.52,0.00,-0.06,0.98,0.25
-0.9921875,9.5024984E-4,9.98728E-4,-0.0033432846,-0.06,0.98,0.24,25320,9939.70,0,0,0,1.05,-2.45,-0.14,-0.06,0.98,0.24
-0.9921875,-0.0010497496,-1.270324E-6,-3.4328434E-4,-0.06,0.98,0.24,25334,9939.70,0,0,165,0.91,-2.52,0.07,-0.06,0.98,0.24
0.3076172,-0.0030497499,-1.270324E-6,0.0016567154,-0.06,0.98,0.24,25342,9941.00,0,0,0,0.77,-2.52,0.21,-0.06,0.98,0.24
-0.09277344,-0.00504975,9.98728E-4,0.0016567154,-0.06,0.98,0.25,25357,9940.60,0,0,165,0.63,-2.45,0.21,-0.06,0.98,0.25
-0.09277344,-0.00404975,9.98728E-4,6.567157E-4,-0.06,0.98,0.24,25372,9940.60,0,0,0,0.70,-2.45,0.14,-0.06,0.98,0.24
-0.09277344,0.0019502509,0.0019987263,-0.0033432846,-0.06,0.98,0.25,25394,9940.60,0,0,165,1.12,-2.38,-0.14,-0.06,0.98,0.25
-0.09277344,0.0049502514,-1.270324E-6,-0.0033432846,-0.06,0.98,0.24,25395,9940.60,0,0,0,1.33,-2.52,-0.14,-0.06,0.98,0.24
-0.09277344,0.0049502514,-0.0010012724,-0.0043432843,-0.06,0.98,0.24,25410,9940.60,0,0,165,1.33,-2.59,-0.21,-0.06,0.98,0.24
-0.09277344,9.5024984E-4,-0.0020012744,-0.0023432844,-0.06,0.98,0.24,25417,9940.60,0,0,0,1.05,-2.66,-0.07,-0.06,0.98,0.24
-0.09277344,-0.00504975,-0.0020012744,-0.0023432844,-0.06,0.98,0.24,25432,9940.60,0,0,165,0.63,-2.66,-0.07,-0.06,0.98,0.24
-0.09277344,-0.00504975,-1.270324E-6,-3.4328434E-4,-0.06,0.98,0.25,25447,9940.60,0,0,0,0.63,-2.52,0.07,-0.06,0.98,0.25
-0.39257812,0.0019502509,-1.270324E-6,-0.0033432846,-0.06,0.98,0.25,25462,9940.30,0,0,165,1.12,-2.52,-0.14,-0.06,0.98,0.25
-0.09277344,0.00895025,-0.0010012724,-0.0053432845,-0.06,0.98,0.24,25471,9940.60,0,0,0,1.61,-2.59,-0.28,-0.06,0.98,0.24
-0.09277344,0.010950251,-0.0020012744,-0.0033432846,-0.06,0.98,0.24,25485,9940.60,0,0,165,1.75,-2.66,-0.14,-0.06,0.98,0.24
-0.09277344,0.0019502509,-0.0010012724,-0.0013432844,-0.06,0.98,0.24,25492,9940.60,0,0,0,1.12,-2.59,0.00,-0.06,0.98,0.24
-0.09277344,-0.00904975,-0.0020012744,6.567157E-4,-0.06,0.98,0.24,25507,9940.60,0,0,165,0.35,-2.66,0.14,-0.06,0.98,0.24
-0.09277344,-0.01404975,-0.0020012744,-3.4328434E-4,-0.06,0.98,0.25,25522,9940.60,0,0,0,0.00,-2.66,0.07,-0.06,0.98,0.25
-0.09277344,-0.0070497496,-0.0010012724,-0.0033432846,-0.06,0.98,0.24,25530,9940.60,0,0,165,0.49,-2.59,-0.14,-0.06,0.98,0.24
-0.09277344,0.0059502497,-0.0020012744,-0.0013432844,-0.06,0.98,0.25,25544,9940.60,0,0,0,1.40,-2.66,0.00,-0.06,0.98,0.25
-0.09277344,0.011950251,-0.0010012724,-3.4328434E-4,-0.06,0.98,0.24,25552,9940.60,0,0,165,1.82,-2.59,0.07,-0.06,0.98,0.24
0.90722656,9.5024984E-4,-0.0010012724,-0.0023432844,-0.06,0.98,0.24,25566,9941.60,0,0,0,1.05,-2.59,-0.07,-0.06,0.98,0.24
0.3076172,-0.0120497495,-0.0010012724,-0.0023432844,-0.06,0.98,0.25,25582,9941.00,0,0,165,0.14,-2.59,-0.07,-0.06,0.98,0.25
-0.09277344,-0.01604975,-1.270324E-6,-3.4328434E-4,-0.06,0.98,0.25,25590,9940.60,0,0,0,-0.14,-2.52,0.07,-0.06,0.98,0.25
-0.09277344,-0.010049749,-1.270324E-6,-0.0023432844,-0.06,0.98,0.25,25604,9940.60,0,0,165,0.28,-2.52,-0.07,-0.06,0.98,0.25
-0.09277344,0.00895025,-1.270324E-6,-0.0013432844,-0.06,0.98,0.25,25620,9940.60,0,0,0,1.61,-2.52,0.00,-0.06,0.98,0.25
-0.09277344,0.014950249,0.0019987263,6.567157E-4,-0.06,0.98,0.24,25626,9940.60,0,0,165,2.03,-2.38,0.14,-0.06,0.98,0.24
-0.09277344,0.013950251,0.0029987283,0.0016567154,-0.06,0.98,0.25,25642,9940.60,0,0,0,1.96,-2.31,0.21,-0.06,0.98,0.25
-0.9921875,0.0019502509,0.0029987283,0.002656716,-0.06,0.98,0.24,25657,9939.70,0,0,165,1.12,-2.31,0.28,-0.06,0.98,0.24
-0.09277344,-0.01104975,0.0029987283,0.0016567154,-0.06,0.98,0.24,25665,9940.60,0,0,0,0.21,-2.31,0.21,-0.06,0.98,0.24
-0.9921875,-0.01304975,9.98728E-4,-0.0023432844,-0.06,0.98,0.24,25680,9939.70,0,0,165,0.07,-2.45,-0.07,-0.06,0.98,0.24
-0.39257812,-0.0020497506,0.0019987263,-0.0053432845,-0.06,0.98,0.24,25694,9940.30,0,0,0,0.84,-2.38,-0.28,-0.06,0.98,0.24
-0.9921875,0.0059502497,-1.270324E-6,-0.0033432846,-0.06,0.98,0.24,25702,9939.70,0,0,165,1.40,-2.52,-0.14,-0.06,0.98,0.24
-0.9921875,0.0039502494,0.0019987263,-0.0033432846,-0.06,0.98,0.25,25717,9939.70,0,0,0,1.26,-2.38,-0.14,-0.06,0.98,0.25
-0.09277344,-0.00404975,9.98728E-4,-0.0013432844,-0.06,0.98,0.24,25732,9940.60,0,0,165,0.70,-2.45,0.00,-0.06,0.98,0.24
-0.09277344,-0.0120497495,9.98728E-4,-0.25634328,-0.06,0.98,0.24,25739,9940.60,0,0,0,0.14,-2.45,-17.85,-0.06,0.98,0.24
-0.09277344,-0.010049749,-1.270324E-6,-0.0033432846,-0.06,0.98,0.25,25755,9940.60,0,0,165,0.28,-2.52,-0.14,-0.06,0.98,0.25
-0.09277344,-0.0020497506,-0.0020012744,-0.0023432844,-0.06,0.98,0.25,25770,9940.60,0,0,0,0.84,-2.66,-0.07,-0.06,0.98,0.25
1.2080078,0.0059502497,-0.0010012724,-0.0033432846,-0.06,0.98,0.24,25776,9941.90,0,0,165,1.40,-2.59,-0.14,-0.06,0.98,0.24
-0.09277344,0.0039502494,-0.0030012727,-0.0033432846,-0.06,0.98,0.24,25792,9940.60,0,0,0,1.26,-2.73,-0.14,-0.06,0.98,0.24
0.90722656,-0.0010497496,-0.0010012724,-0.0023432844,-0.06,0.98,0.24,25807,9941.60,0,0,165,0.91,-2.59,-0.07,-0.06,0.98,0.24
-0.9921875,-0.008049751,-0.0020012744,6.567157E-4,-0.06,0.98,0.24,25814,9939.70,0,0,0,0.42,-2.66,0.14,-0.06,0.98,0.24
-0.9921875,-0.00504975,-0.0010012724,-0.0043432843,-0.06,0.98,0.24,25830,9939.70,0,0,165,0.63,-2.59,-0.21,-0.06,0.98,0.24
-0.6923828,9.5024984E-4,-0.0010012724,-0.0033432846,-0.06,0.98,0.25,25845,9940.00,0,0,0,1.05,-2.59,-0.14,-0.06,0.98,0.25
-0.09277344,0.0049502514,-1.270324E-6,-0.0013432844,-0.06,0.98,0.25,25852,9940.60,0,0,165,1.33,-2.52,0.00,-0.06,0.98,0.25
0.3076172,0.002950251,-0.0010012724,-0.0013432844,-0.06,0.98,0.25,25867,9941.00,0,0,0,1.19,-2.59,0.00,-0.06,0.98,0.25
1.2080078,-0.00404975,-0.0010012724,0.25365672,-0.06,0.98,0.25,25882,9941.90,0,0,165,0.70,-2.59,17.85,-0.06,0.98,0.25
0.3076172,-0.0060497494,9.98728E-4,-0.0013432844,-0.06,0.98,0.25,25897,9941.00,0,0,0,0.56,-2.45,0.00,-0.06,0.98,0.25
0.90722656,-0.0060497494,-0.0010012724,-0.0013432844,-0.06,0.98,0.24,25905,9941.60,0,0,165,0.56,-2.59,0.00,-0.06,0.98,0.24
-0.09277344,0.0039502494,9.98728E-4,-3.4328434E-4,-0.06,0.98,0.24,25927,9940.60,0,0,0,1.26,-2.45,0.07,-0.06,0.98,0.24
0.3076172,0.00895025,-1.270324E-6,-0.0043432843,-0.06,0.98,0.24,25929,9941.00,0,0,165,1.61,-2.52,-0.21,-0.06,0.98,0.24
-0.09277344,0.0059502497,0.0019987263,-0.0023432844,-0.06,0.98,0.24,25942,9940.60,0,0,0,1.40,-2.38,-0.07,-0.06,0.98,0.24
0.90722656,-0.00404975,9.98728E-4,-0.0013432844,-0.06,0.98,0.24,25956,9941.60,0,0,165,0.70,-2.45,0.00,-0.06,0.98,0.24
-0.09277344,-0.01304975,-1.270324E-6,-0.0023432844,-0.06,0.98,0.24,25965,9940.60,0,0,0,0.07,-2.52,-0.07,-0.06,0.98,0.24
0.3076172,-0.01704975,-1.270324E-6,-0.0013432844,-0.06,0.98,0.25,25980,9941.00,0,0,165,-0.21,-2.52,0.00,-0.06,0.98,0.25
0.3076172,-0.00904975,0.0019987263,6.567157E-4,-0.06,0.98,0.24,25995,9941.00,0,0,0,0.35,-2.38,0.14,-0.06,0.98,0.24
1.2080078,-0.0010497496,-1.270324E-6,-0.0013432844,-0.06,0.98,0.25,26010,9941.90,0,0,165,0.91,-2.52,0.00,-0.06,0.98,0.25
-0.9921875,0.0099502485,9.98728E-4,-3.4328434E-4,-0.06,0.98,0.25,26017,9939.70,0,0,0,1.68,-2.45,0.07,-0.06,0.98,0.25
0.3076172,0.00795025,9.98728E-4,6.567157E-4,-0.06,0.98,0.24,26024,9941.00,0,0,165,1.54,-2.45,0.14,-0.06,0.98,0.24
-0.9921875,9.5024984E-4,0.0019987263,-3.4328434E-4,-0.06,0.98,0.24,26040,9939.70,0,0,0,1.05,-2.38,0.07,-0.06,0.98,0.24
0.3076172,-0.00904975,9.98728E-4,0.0016567154,-0.06,0.98,0.24,26054,9941.00,0,0,165,0.35,-2.45,0.21,-0.06,0.98,0.24
-0.9921875,-0.010049749,-1.270324E-6,-3.4328434E-4,-0.06,0.98,0.24,26062,9939.70,0,0,0,0.28,-2.52,0.07,-0.06,0.98,0.24
-0.09277344,-0.0060497494,-0.0010012724,-3.4328434E-4,-0.06,0.98,0.24,26077,9940.60,0,0,165,0.56,-2.59,0.07,-0.06,0.98,0.24
-0.09277344,0.0019502509,9.98728E-4,-0.0013432844,-0.06,0.98,0.25,26092,9940.60,0,0,0,1.12,-2.45,0.00,-0.06,0.98,0.25
0.3076172,0.0059502497,9.98728E-4,-3.4328434E-4,-0.06,0.98,0.24,26099,9941.00,0,0,165,1.40,-2.45,0.07,-0.06,0.98,0.24
1.2080078,0.0049502514,-1.270324E-6,-0.0013432844,-0.06,0.98,0.25,26114,9941.90,0,0,0,1.33,-2.52,0.00,-0.06,0.98,0.25
1.2080078,-0.0010497496,-1.270324E-6,-3.4328434E-4,-0.06,0.98,0.25,26130,9941.90,0,0,165,0.91,-2.52,0.07,-0.06,0.98,0.25
0.3076172,-0.0020497506,-1.270324E-6,-0.0013432844,-0.06,0.98,0.25,26137,9941.00,0,0,0,0.84,-2.52,0.00,-0.06,0.98,0.25
0.3076172,-4.974939E-5,-1.270324E-6,-0.0013432844,-0.06,0.98,0.24,26159,9941.00,0,0,165,0.98,-2.52,0.00,-0.06,0.98,0.24
0.3076172,9.5024984E-4,9.98728E-4,-0.0033432846,-0.06,0.98,0.24,26167,9941.00,0,0,0,1.05,-2.45,-0.14,-0.06,0.98,0.24
-0.09277344,0.002950251,-1.270324E-6,-3.4328434E-4,-0.06,0.98,0.25,26174,9940.60,0,0,165,1.19,-2.52,0.07,-0.06,0.98,0.25
-0.09277344,0.0019502509,-0.0010012724,-0.0023432844,-0.06,0.98,0.25,26190,9940.60,0,0,0,1.12,-2.59,-0.07,-0.06,0.98,0.25
-0.09277344,-0.0030497499,-0.0010012724,-0.0013432844,-0.06,0.98,0.25,26204,9940.60,0,0,165,0.77,-2.59,0.00,-0.06,0.98,0.25
0.3076172,-0.00404975,-0.0010012724,-0.0013432844,-0.06,0.98,0.24,26212,9941.00,0,0,0,0.70,-2.59,0.00,-0.06,0.98,0.24
0.3076172,-0.0030497499,-0.0020012744,-0.0023432844,-0.06,0.98,0.25,26227,9941.00,0,0,165,0.77,-2.66,-0.07,-0.06,0.98,0.25
-0.9921875,-0.0010497496,-0.0020012744,-0.0033432846,-0.06,0.98,0.25,26242,9939.70,0,0,0,0.91,-2.66,-0.14,-0.06,0.98,0.25
-0.09277344,-4.974939E-5,-0.0010012724,-3.4328434E-4,-0.06,0.98,0.25,26250,9940.60,0,0,165,0.98,-2.59,0.07,-0.06,0.98,0.25
0.3076172,-0.0020497506,-0.0010012724,-3.4328434E-4,-0.06,0.98,0.25,26264,9941.00,0,0,0,0.84,-2.59,0.07,-0.06,0.98,0.25
1.2080078,-0.0010497496,9.98728E-4,-0.0043432843,-0.06,0.98,0.24,26279,9941.90,0,0,165,0.91,-2.45,-0.21,-0.06,0.98,0.24
-0.09277344,-4.974939E-5,9.98728E-4,-3.4328434E-4,-0.06,0.98,0.24,26287,9940.60,0,0,0,0.98,-2.45,0.07,-0.06,0.98,0.24
-0.09277344,9.5024984E-4,-1.270324E-6,-0.0023432844,-0.06,0.98,0.24,26310,9940.60,0,0,165,1.05,-2.52,-0.07,-0.06,0.98,0.24
-0.9921875,9.5024984E-4,-1.270324E-6,-0.0023432844,-0.06,0.98,0.25,26316,9939.70,0,0,0,1.05,-2.52,-0.07,-0.06,0.98,0.25
0.3076172,0.0019502509,-0.0010012724,-0.0023432844,-0.06,0.98,0.24,26324,9941.00,0,0,165,1.12,-2.59,-0.07,-0.06,0.98,0.24
-0.9921875,-4.974939E-5,-1.270324E-6,-0.0013432844,-0.06,0.98,0.24,26340,9939.70,0,0,0,0.98,-2.52,0.00,-0.06,0.98,0.24
-0.09277344,-0.0030497499,9.98728E-4,-0.0013432844,-0.06,0.98,0.24,26354,9940.60,0,0,165,0.77,-2.45,0.00,-0.06,0.98,0.24
0.3076172,-0.00404975,-0.0020012744,6.567157E-4,-0.06,0.98,0.25,26362,9941.00,0,0,0,0.70,-2.66,0.14,-0.06,0.98,0.25
-0.6923828,-0.0020497506,-0.0010012724,6.567157E-4,-0.06,0.98,0.25,26377,9940.00,0,0,165,0.84,-2.59,0.14,-0.06,0.98,0.25
-0.09277344,0.0019502509,9.98728E-4,-0.0013432844,-0.06,0.98,0.25,26392,9940.60,0,0,0,1.12,-2.45,0.00,-0.06,0.98,0.25
-0.09277344,0.00695025,9.98728E-4,-0.0013432844,-0.06,0.98,0.25,26399,9940.60,0,0,165,1.47,-2.45,0.00,-0.06,0.98,0.25
-0.09277344,0.0059502497,0.0019987263,-0.0043432843,-0.06,0.98,0.24,26414,9940.60,0,0,0,1.40,-2.38,-0.21,-0.06,0.98,0.24
0.3076172,0.002950251,-0.0010012724,-0.0043432843,-0.06,0.98,0.24,26423,9941.00,0,0,165,1.19,-2.59,-0.21,-0.06,0.98,0.24
-0.6923828,-0.0020497506,-0.0010012724,-0.0033432846,-0.06,0.98,0.24,26444,9940.00,0,0,0,0.84,-2.59,-0.14,-0.06,0.98,0.24
0.3076172,-0.00504975,-0.0030012727,-0.0023432844,-0.06,0.98,0.24,26453,9941.00,0,0,165,0.63,-2.73,-0.07,-0.06,0.98,0.24
0.3076172,-0.008049751,-0.0010012724,-3.4328434E-4,-0.06,0.98,0.25,26467,9941.00,0,0,0,0.42,-2.59,0.07,-0.06,0.98,0.25
-0.09277344,-0.0020497506,-0.0020012744,-0.0013432844,-0.06,0.98,0.25,26475,9940.60,0,0,165,0.84,-2.66,0.00,-0.06,0.98,0.25
0.3076172,0.00695025,-1.270324E-6,-0.0033432846,-0.06,0.98,0.25,26490,9941.00,0,0,0,1.47,-2.52,-0.14,-0.06,0.98,0.25
-0.09277344,0.010950251,-1.270324E-6,-0.0023432844,-0.06,0.98,0.24,26497,9940.60,0,0,165,1.75,-2.52,-0.07,-0.06,0.98,0.24
-0.6923828,0.0049502514,-0.0020012744,-0.0013432844,-0.06,0.98,0.24,26512,9940.00,0,0,0,1.33,-2.66,0.00,-0.06,0.98,0.24
0.3076172,-0.00504975,-1.270324E-6,6.567157E-4,-0.06,0.98,0.24,26527,9941.00,0,0,165,0.63,-2.52,0.14,-0.06,0.98,0.24
-0.6923828,-0.01604975,-0.0020012744,-3.4328434E-4,-0.06,0.98,0.24,26535,9940.00,0,0,0,-0.14,-2.66,0.07,-0.06,0.98,0.24
-0.09277344,-0.0120497495,-0.0020012744,0.25365672,-0.06,0.98,0.24,26549,9940.60,0,0,165,0.14,-2.66,17.85,-0.06,0.98,0.24
0.3076172,-4.974939E-5,-0.0010012724,-3.4328434E-4,-0.06,0.98,0.25,26565,9941.00,0,0,0,0.98,-2.59,0.07,-0.06,0.98,0.25
0.3076172,0.011950251,9.98728E-4,-3.4328434E-4,-0.06,0.98,0.25,26572,9941.00,0,0,165,1.82,-2.45,0.07,-0.06,0.98,0.25
-0.09277344,0.00795025,-1.270324E-6,-0.0033432846,-0.06,0.98,0.24,26587,9940.60,0,0,0,1.54,-2.52,-0.14,-0.06,0.98,0.24
0.3076172,-0.0060497494,-0.0010012724,-0.0033432846,-0.06,0.98,0.24,26603,9941.00,0,0,165,0.56,-2.59,-0.14,-0.06,0.98,0.24
0.3076172,-0.01704975,-0.0010012724,-0.0023432844,-0.06,0.98,0.25,26616,9941.00,0,0,0,-0.21,-2.59,-0.07,-0.06,0.98,0.25
-0.9921875,-0.01504975,-0.0010012724,-0.0013432844,-0.06,0.98,0.24,26625,9939.70,0,0,165,-0.07,-2.59,0.00,-0.06,0.98,0.24
0.3076172,0.0059502497,-1.270324E-6,-0.0013432844,-0.06,0.98,0.25,26647,9941.00,0,0,0,1.40,-2.52,0.00,-0.06,0.98,0.25
0.3076172,0.016950252,-1.270324E-6,-0.0023432844,-0.06,0.98,0.25,26648,9941.00,0,0,165,2.17,-2.52,-0.07,-0.06,0.98,0.25
-0.6923828,0.016950252,-1.270324E-6,6.567157E-4,-0.06,0.98,0.24,26662,9940.00,0,0,0,2.17,-2.52,0.14,-0.06,0.98,0.24
0.3076172,0.00795025,9.98728E-4,6.567157E-4,-0.06,0.98,0.24,26677,9941.00,0,0,165,1.54,-2.45,0.14,-0.06,0.98,0.24
-0.6923828,-0.0120497495,9.98728E-4,6.567157E-4,-0.06,0.98,0.24,26684,9940.00,0,0,0,0.14,-2.45,0.14,-0.06,0.98,0.24
-0.09277344,-0.01804975,-1.270324E-6,-0.0033432846,-0.06,0.98,0.24,26700,9940.60,0,0,165,-0.28,-2.52,-0.14,-0.06,0.98,0.24
-0.09277344,-0.01104975,-1.270324E-6,-0.0013432844,-0.06,0.98,0.25,26707,9940.60,0,0,0,0.21,-2.52,0.00,-0.06,0.98,0.25
0.90722656,-0.0020497506,-1.270324E-6,-0.0043432843,-0.06,0.98,0.24,26722,9941.60,0,0,165,0.84,-2.52,-0.21,-0.06,0.98,0.24
0.3076172,0.00695025,-1.270324E-6,-0.0043432843,-0.06,0.98,0.25,26737,9941.00,0,0,0,1.47,-2.52,-0.21,-0.06,0.98,0.25
0.3076172,0.0039502494,-1.270324E-6,-0.006343284,-0.06,0.98,0.24,26745,9941.00,0,0,165,1.26,-2.52,-0.35,-0.06,0.98,0.24
-0.6923828,-0.00404975,-1.270324E-6,-0.0023432844,-0.06,0.98,0.24,26759,9940.00,0,0,0,0.70,-2.52,-0.07,-0.06,0.98,0.24
0.3076172,-0.0070497496,9.98728E-4,-0.0013432844,-0.06,0.98,0.24,26774,9941.00,0,0,165,0.49,-2.45,0.00,-0.06,0.98,0.24
-0.6923828,-0.00904975,9.98728E-4,-0.0033432846,-0.06,0.98,0.24,26782,9940.00,0,0,0,0.35,-2.45,-0.14,-0.06,0.98,0.24
-0.6923828,-0.008049751,-0.0010012724,-3.4328434E-4,-0.06,0.98,0.24,26797,9940.00,0,0,165,0.42,-2.59,0.07,-0.06,0.98,0.24
0.3076172,-0.0020497506,-0.0010012724,-0.0033432846,-0.06,0.98,0.24,26812,9941.00,0,0,0,0.84,-2.59,-0.14,-0.06,0.98,0.24
0.3076172,-0.0020497506,-0.0020012744,-0.0023432844,-0.06,0.98,0.25,26820,9941.00,0,0,165,0.84,-2.66,-0.07,-0.06,0.98,0.25
0.3076172,-4.974939E-5,-0.0010012724,-0.0023432844,-0.06,0.98,0.24,26835,9941.00,0,0,0,0.98,-2.59,-0.07,-0.06,0.98,0.24
0.3076172,9.5024984E-4,-0.0010012724,-0.0023432844,-0.06,0.98,0.24,26849,9941.00,0,0,165,1.05,-2.59,-0.07,-0.06,0.98,0.24
0.3076172,0.0019502509,-0.0010012724,-0.0023432844,-0.06,0.98,0.25,26857,9941.00,0,0,0,1.12,-2.59,-0.07,-0.06,0.98,0.25
0.3076172,0.0019502509,-0.0010012724,-0.0023432844,-0.06,0.98,0.24,26872,9941.00,0,0,165,1.12,-2.59,-0.07,-0.06,0.98,0.24
0.3076172,9.5024984E-4,-1.270324E-6,-0.0013432844,-0.06,0.98,0.24,26887,9941.00,0,0,0,1.05,-2.52,0.00,-0.06,0.98,0.24
0.3076172,-0.00404975,9.98728E-4,-3.4328434E-4,-0.06,0.98,0.24,26910,9941.00,0,0,165,0.70,-2.45,0.07,-0.06,0.98,0.24
1.2080078,-0.00404975,-1.270324E-6,-0.0023432844,-0.06,0.98,0.24,26911,9941.90,0,0,0,0.70,-2.52,-0.07,-0.06,0.98,0.24
-0.6923828,-0.0020497506,-1.270324E-6,-0.0013432844,-0.06,0.98,0.25,26917,9940.00,0,0,165,0.84,-2.52,0.00,-0.06,0.98,0.25
-0.6923828,-4.974939E-5,-0.0010012724,-0.0023432844,-0.06,0.98,0.24,26932,9940.00,0,0,0,0.98,-2.59,-0.07,-0.06,0.98,0.24
-0.6923828,0.002950251,-1.270324E-6,-3.4328434E-4,-0.06,0.98,0.24,26947,9940.00,0,0,165,1.19,-2.52,0.07,-0.06,0.98,0.24
0.3076172,0.0039502494,-1.270324E-6,-3.4328434E-4,-0.06,0.98,0.24,26954,9941.00,0,0,0,1.26,-2.52,0.07,-0.06,0.98,0.24
-0.6923828,-0.0010497496,-0.0010012724,-0.0023432844,-0.06,0.98,0.24,26970,9940.00,0,0,165,0.91,-2.59,-0.07,-0.06,0.98,0.24
-0.6923828,-0.008049751,9.98728E-4,-0.0033432846,-0.06,0.98,0.25,26985,9940.00,0,0,0,0.42,-2.45,-0.14,-0.06,0.98,0.25
-0.6923828,-0.00904975,9.98728E-4,-0.0013432844,-0.06,0.98,0.25,26992,9940.00,0,0,165,0.35,-2.45,0.00,-0.06,0.98,0.25
0.3076172,-0.0060497494,-0.0010012724,-0.0033432846,-0.06,0.98,0.24,27007,9941.00,0,0,0,0.56,-2.59,-0.14,-0.06,0.98,0.24
0.3076172,-0.0020497506,9.98728E-4,-0.0043432843,-0.06,0.98,0.24,27022,9941.00,0,0,165,0.84,-2.45,-0.21,-0.06,0.98,0.24
0.3076172,0.002950251,-1.270324E-6,-3.4328434E-4,-0.06,0.98,0.25,27029,9941.00,0,0,0,1.19,-2.52,0.07,-0.06,0.98,0.25
-0.6923828,0.002950251,-1.270324E-6,-0.0023432844,-0.06,0.98,0.25,27045,9940.00,0,0,165,1.19,-2.52,-0.07,-0.06,0.98,0.25
0.3076172,-0.0020497506,-1.270324E-6,-0.0033432846,-0.06,0.98,0.24,27060,9941.00,0,0,0,0.84,-2.52,-0.14,-0.06,0.98,0.24
0.3076172,-0.008049751,-0.0010012724,-0.0023432844,-0.06,0.98,0.24,27067,9941.00,0,0,165,0.42,-2.59,-0.07,-0.06,0.98,0.24
0.3076172,-0.0070497496,-1.270324E-6,-0.0033432846,-0.06,0.98,0.25,27082,9941.00,0,0,0,0.49,-2.52,-0.14,-0.06,0.98,0.25
1.2080078,-0.0070497496,-1.270324E-6,-0.0023432844,-0.06,0.98,0.25,27097,9941.90,0,0,165,0.49,-2.52,-0.07,-0.06,0.98,0.25
-0.6923828,0.0019502509,-1.270324E-6,-0.0033432846,-0.06,0.98,0.24,27104,9940.00,0,0,0,1.12,-2.52,-0.14,-0.06,0.98,0.24
-1.6923828,0.0059502497,-1.270324E-6,-0.0023432844,-0.06,0.98,0.24,27121,9939.00,0,0,165,1.40,-2.52,-0.07,-0.06,0.98,0.24
-0.6923828,0.0049502514,-1.270324E-6,-3.4328434E-4,-0.06,0.98,0.24,27142,9940.00,0,0,0,1.33,-2.52,0.07,-0.06,0.98,0.24
0.3076172,-4.974939E-5,9.98728E-4,-0.0013432844,-0.06,0.98,0.24,27143,9941.00,0,0,165,0.98,-2.45,0.00,-0.06,0.98,0.24
0.3076172,-0.0030497499,-1.270324E-6,-0.0013432844,-0.06,0.98,0.24,27157,9941.00,0,0,0,0.77,-2.52,0.00,-0.06,0.98,0.24
1.2080078,-0.00504975,-0.0010012724,-0.0023432844,-0.06,0.98,0.24,27172,9941.90,0,0,165,0.63,-2.59,-0.07,-0.06,0.98,0.24
0.3076172,-0.0020497506,-1.270324E-6,-0.0013432844,-0.06,0.98,0.24,27180,9941.00,0,0,0,0.84,-2.52,0.00,-0.06,0.98,0.24
-0.6923828,9.5024984E-4,-0.0010012724,-0.0013432844,-0.06,0.98,0.25,27195,9940.00,0,0,165,1.05,-2.59,0.00,-0.06,0.98,0.25
0.3076172,0.0039502494,-0.0010012724,-0.0013432844,-0.06,0.98,0.24,27210,9941.00,0,0,0,1.26,-2.59,0.00,-0.06,0.98,0.24
1.2080078,0.002950251,-0.0010012724,-0.0023432844,-0.06,0.98,0.24,27217,9941.90,0,0,165,1.19,-2.59,-0.07,-0.06,0.98,0.24
0.3076172,-0.0010497496,-1.270324E-6,6.567157E-4,-0.06,0.98,0.24,27232,9941.00,0,0,0,0.91,-2.52,0.14,-0.06,0.98,0.24
0.3076172,-0.00404975,-1.270324E-6,-0.0013432844,-0.06,0.98,0.24,27240,9941.00,0,0,165,0.70,-2.52,0.00,-0.06,0.98,0.24
0.3076172,-0.00504975,9.98728E-4,-3.4328434E-4,-0.06,0.98,0.25,27262,9941.00,0,0,0,0.63,-2.45,0.07,-0.06,0.98,0.25
0.3076172,-0.00504975,-0.0010012724,-0.0033432846,-0.06,0.98,0.25,27271,9941.00,0,0,165,0.63,-2.59,-0.14,-0.06,0.98,0.25
0.3076172,-0.0020497506,-0.0010012724,-0.0013432844,-0.06,0.98,0.25,27277,9941.00,0,0,0,0.84,-2.59,0.00,-0.06,0.98,0.25
-0.6923828,-4.974939E-5,-0.0010012724,-0.0013432844,-0.06,0.98,0.24,27292,9940.00,0,0,165,0.98,-2.59,0.00,-0.06,0.98,0.24
0.3076172,9.5024984E-4,-0.0010012724,-0.0023432844,-0.06,0.98,0.25,27307,9941.00,0,0,0,1.05,-2.59,-0.07,-0.06,0.98,0.25
-0.6923828,9.5024984E-4,-1.270324E-6,-0.0023432844,-0.06,0.98,0.25,27322,9940.00,0,0,165,1.05,-2.52,-0.07,-0.06,0.98,0.25
0.3076172,-0.0020497506,9.98728E-4,-0.0023432844,-0.06,0.98,0.24,27330,9941.00,0,0,0,0.84,-2.45,-0.07,-0.06,0.98,0.24
0.3076172,-0.0010497496,-1.270324E-6,-0.0013432844,-0.06,0.98,0.24,27345,9941.00,0,0,165,0.91,-2.52,0.00,-0.06,0.98,0.24
0.3076172,-0.0010497496,9.98728E-4,6.567157E-4,-0.06,0.98,0.24,27352,9941.00,0,0,0,0.91,-2.45,0.14,-0.06,0.98,0.24
0.3076172,9.5024984E-4,9.98728E-4,6.567157E-4,-0.06,0.98,0.25,27367,9941.00,0,0,165,1.05,-2.45,0.14,-0.06,0.98,0.25
0.3076172,0.002950251,-1.270324E-6,6.567157E-4,-0.06,0.98,0.24,27382,9941.00,0,0,0,1.19,-2.52,0.14,-0.06,0.98,0.24
0.6074219,0.002950251,0.0029987283,-3.4328434E-4,-0.06,0.98,0.24,27390,9941.30,0,0,165,1.19,-2.31,0.07,-0.06,0.98,0.24
0.3076172,-0.0010497496,-1.270324E-6,-0.0043432843,-0.06,0.98,0.24,27405,9941.00,0,0,0,0.91,-2.52,-0.21,-0.06,0.98,0.24
0.3076172,-0.0010497496,-1.270324E-6,-0.0023432844,-0.06,0.98,0.24,27420,9941.00,0,0,165,0.91,-2.52,-0.07,-0.06,0.98,0.24
0.3076172,-0.0030497499,-0.0010012724,0.002656716,-0.06,0.98,0.24,27427,9941.00,0,0,0,0.77,-2.59,0.28,-0.06,0.98,0.24
0.3076172,-0.008049751,-0.0010012724,0.0016567154,-0.06,0.98,0.25,27442,9941.00,0,0,165,0.42,-2.59,0.21,-0.06,0.98,0.25
-0.6923828,-0.00504975,-1.270324E-6,0.0016567154,-0.06,0.98,0.25,27457,9940.00,0,0,0,0.63,-2.52,0.21,-0.06,0.98,0.25
0.3076172,9.5024984E-4,0.0019987263,-0.0013432844,-0.06,0.98,0.25,27472,9941.00,0,0,165,1.05,-2.38,0.00,-0.06,0.98,0.25
-0.6923828,0.0019502509,9.98728E-4,-0.0053432845,-0.06,0.98,0.24,27479,9940.00,0,0,0,1.12,-2.45,-0.28,-0.06,0.98,0.24
0.3076172,9.5024984E-4,-1.270324E-6,-0.0053432845,-0.06,0.98,0.24,27495,9941.00,0,0,165,1.05,-2.52,-0.28,-0.06,0.98,0.24
0.3076172,-0.0020497506,-0.0020012744,-0.0013432844,-0.06,0.98,0.24,27502,9941.00,0,0,0,0.84,-2.66,0.00,-0.06,0.98,0.24
0.90722656,-0.008049751,-0.0050012693,6.567157E-4,-0.06,0.98,0.24,27517,9941.60,0,0,165,0.42,-2.87,0.14,-0.06,0.98,0.24
1.2080078,-0.0070497496,-0.004001271,-0.25634328,-0.06,0.98,0.24,27532,9941.90,0,0,0,0.49,-2.80,-17.85,-0.06,0.98,0.24
0.6074219,-0.0010497496,-0.0010012724,-0.0023432844,-0.06,0.98,0.24,27540,9941.30,0,0,165,0.91,-2.59,-0.07,-0.06,0.98,0.24
-0.6923828,0.00895025,-0.0010012724,-0.0033432846,-0.06,0.98,0.24,27554,9940.00,0,0,0,1.61,-2.59,-0.14,-0.06,0.98,0.24
0.3076172,0.00895025,-0.0010012724,-0.0033432846,-0.06,0.98,0.24,27571,9941.00,0,0,165,1.61,-2.59,-0.14,-0.06,0.98,0.24
-0.6923828,0.0039502494,-0.0020012744,-3.4328434E-4,-0.06,0.98,0.24,27576,9940.00,0,0,0,1.26,-2.66,0.07,-0.06,0.98,0.24
0.3076172,-0.008049751,-0.0020012744,-3.4328434E-4,-0.06,0.98,0.24,27591,9941.00,0,0,165,0.42,-2.66,0.07,-0.06,0.98,0.24
0.3076172,-0.01804975,-0.0020012744,6.567157E-4,-0.06,0.97,0.24,27607,9941.00,0,0,0,-0.28,-2.66,0.14,-0.06,0.97,0.24
0.3076172,-0.01404975,-0.0020012744,-3.4328434E-4,-0.06,0.98,0.25,27614,9941.00,0,0,165,0.00,-2.66,0.07,-0.06,0.98,0.25
0.6074219,0.0039502494,-0.0010012724,-0.0023432844,-0.06,0.98,0.25,27630,9941.30,0,0,0,1.26,-2.59,-0.07,-0.06,0.98,0.25
0.3076172,0.01895025,9.98728E-4,6.567157E-4,-0.06,0.98,0.25,27645,9941.00,0,0,165,2.31,-2.45,0.14,-0.06,0.98,0.25
1.2080078,0.014950249,-1.270324E-6,-3.4328434E-4,-0.06,0.98,0.24,27660,9941.90,0,0,0,2.03,-2.52,0.07,-0.06,0.98,0.24
0.3076172,-0.0020497506,-1.270324E-6,-3.4328434E-4,-0.06,0.98,0.24,27667,9941.00,0,0,165,0.84,-2.52,0.07,-0.06,0.98,0.24
-0.6923828,-0.01804975,0.0019987263,-3.4328434E-4,-0.06,0.98,0.24,27682,9940.00,0,0,0,-0.28,-2.38,0.07,-0.06,0.98,0.24
-0.6923828,-0.01604975,-0.0010012724,-3.4328434E-4,-0.06,0.98,0.25,27691,9940.00,0,0,165,-0.14,-2.59,0.07,-0.06,0.98,0.25
-0.6923828,-0.0010497496,-0.0010012724,-0.0013432844,-0.06,0.98,0.25,27704,9940.00,0,0,0,0.91,-2.59,0.00,-0.06,0.98,0.25
0.3076172,0.012950251,9.98728E-4,-3.4328434E-4,-0.06,0.98,0.25,27720,9941.00,0,0,165,1.89,-2.45,0.07,-0.06,0.98,0.25
0.3076172,0.016950252,0.0019987263,0.0016567154,-0.06,0.98,0.24,27726,9941.00,0,0,0,2.17,-2.38,0.21,-0.06,0.98,0.24
-0.39257812,0.0039502494,0.0019987263,0.0016567154,-0.06,0.98,0.24,27742,9940.30,0,0,165,1.26,-2.38,0.21,-0.06,0.98,0.24
0.3076172,-0.010049749,0.0019987263,0.002656716,-0.06,0.98,0.24,27757,9941.00,0,0,0,0.28,-2.38,0.28,-0.06,0.98,0.24
1.2080078,-0.01504975,9.98728E-4,-3.4328434E-4,-0.06,0.98,0.24,27764,9941.90,0,0,165,-0.07,-2.45,0.07,-0.06,0.98,0.24
-0.6923828,-0.01104975,-0.0010012724,-0.0023432844,-0.06,0.98,0.24,27787,9940.00,0,0,0,0.21,-2.59,-0.07,-0.06,0.98,0.24
-0.6923828,-4.974939E-5,-0.0010012724,-0.0043432843,-0.06,0.98,0.25,27794,9940.00,0,0,165,0.98,-2.59,-0.21,-0.06,0.98,0.25
0.3076172,0.0049502514,-1.270324E-6,-0.0023432844,-0.06,0.98,0.25,27802,9941.00,0,0,0,1.33,-2.52,-0.07,-0.06,0.98,0.25
0.3076172,0.002950251,9.98728E-4,-0.0043432843,-0.06,0.98,0.25,27816,9941.00,0,0,165,1.19,-2.45,-0.21,-0.06,0.98,0.25
-0.6923828,-0.0020497506,0.0019987263,-0.0023432844,-0.06,0.98,0.24,27832,9940.00,0,0,0,0.84,-2.38,-0.07,-0.06,0.98,0.24
0.3076172,-0.0070497496,-1.270324E-6,-0.0023432844,-0.06,0.98,0.24,27841,9941.00,0,0,165,0.49,-2.52,-0.07,-0.06,0.98,0.24
0.3076172,-0.0070497496,-0.0010012724,0.0016567154,-0.06,0.98,0.24,27862,9941.00,0,0,0,0.49,-2.59,0.21,-0.06,0.98,0.24
0.3076172,-0.008049751,-0.0010012724,0.0036567156,-0.06,0.97,0.25,27871,9941.00,0,0,165,0.42,-2.59,0.35,-0.06,0.97,0.25
0.3076172,-0.0030497499,-0.0020012744,0.002656716,-0.06,0.98,0.25,27877,9941.00,0,0,0,0.77,-2.66,0.28,-0.06,0.98,0.25
-0.6923828,0.0049502514,-1.270324E-6,0.0046567153,-0.06,0.97,0.25,27892,9940.00,0,0,165,1.33,-2.52,0.42,-0.06,0.97,0.25
-0.6923828,0.012950251,-0.0010012724,0.0076567153,-0.06,0.98,0.25,27907,9940.00,0,0,0,1.89,-2.59,0.63,-0.06,0.98,0.25
-0.6923828,0.017950252,-0.0010012724,0.009656715,-0.06,0.98,0.25,27914,9940.00,0,0,165,2.24,-2.59,0.77,-0.06,0.98,0.25
-0.6923828,0.023950253,-1.270324E-6,0.014656716,-0.05,0.97,0.25,27929,9940.00,0,0,0,2.66,-2.52,1.12,-0.05,0.97,0.25
0.6074219,0.024950251,9.98728E-4,0.013656715,-0.05,0.97,0.25,27945,9941.30,0,0,165,2.73,-2.45,1.05,-0.05,0.97,0.25
0.6074219,0.019950252,-0.0010012724,0.008656715,-0.05,0.98,0.25,27960,9941.30,0,0,0,2.38,-2.59,0.70,-0.05,0.98,0.25
-0.39257812,0.01895025,-1.270324E-6,0.011656716,-0.04,0.98,0.25,27966,9940.30,0,0,165,2.31,-2.52,0.91,-0.04,0.98,0.25
0.3076172,0.019950252,0.0029987283,0.0046567153,-0.05,0.98,0.25,27982,9941.00,0,0,0,2.38,-2.31,0.42,-0.05,0.98,0.25
0.3076172,0.023950253,0.005998729,-0.007343284,-0.05,0.98,0.24,27997,9941.00,0,0,165,2.66,-2.10,-0.42,-0.05,0.98,0.24
0.3076172,0.026950248,0.008998727,-0.016343284,-0.06,0.98,0.23,28005,9941.00,0,0,0,2.87,-1.89,-1.05,-0.06,0.98,0.23
0.3076172,0.030950252,0.012998728,-0.016343284,-0.05,0.99,0.22,28020,9941.00,0,0,165,3.15,-1.61,-1.05,-0.05,0.99,0.22
-0.6923828,0.017950252,0.01199873,-0.015343285,-0.06,0.99,0.21,28027,9940.00,0,0,0,2.24,-1.68,-0.98,-0.06,0.99,0.21
-0.39257812,-0.010049749,0.004998727,-0.014343285,-0.06,0.99,0.21,28043,9940.30,0,0,165,0.28,-2.17,-0.91,-0.06,0.99,0.21
0.6074219,-0.03104975,-0.0030012727,-0.013343284,-0.07,0.99,0.22,28056,9941.30,0,0,0,-1.19,-2.73,-0.84,-0.07,0.99,0.22
-0.6923828,-0.039049752,-0.013001274,-0.021343283,-0.07,0.99,0.22,28064,9940.00,0,0,165,-1.75,-3.43,-1.40,-0.07,0.99,0.22
-0.6923828,-0.03304975,-0.023001272,-0.034343284,-0.07,0.98,0.23,28079,9940.00,0,0,0,-1.33,-4.13,-2.31,-0.07,0.98,0.23
0.6074219,-0.04104975,-0.031001274,-0.051343285,-0.06,0.99,0.22,28095,9941.30,0,0,165,-1.89,-4.69,-3.50,-0.06,0.99,0.22
0.3076172,-0.044049747,-0.029001277,-0.058343284,-0.06,0.99,0.22,28102,9941.00,0,0,0,-2.10,-4.55,-3.99,-0.06,0.99,0.22
-1.6923828,-0.07104975,-0.039001275,-0.056343284,-0.06,0.99,0.22,28117,9939.00,0,0,165,-3.99,-5.25,-3.85,-0.06,0.99,0.22
0.90722656,-0.11604975,-0.04400127,-0.059343282,-0.05,0.98,0.23,28132,9941.60,0,0,0,-7.14,-5.60,-4.06,-0.05,0.98,0.23
-0.39257812,-0.13404974,-0.050001275,-0.061343282,-0.05,0.98,0.24,28140,9940.30,0,0,165,-8.40,-6.02,-4.20,-0.05,0.98,0.24
0.3076172,-0.113049746,-0.04800127,-0.06434329,-0.06,0.98,0.26,28154,9941.00,0,0,0,-6.93,-5.88,-4.41,-0.06,0.98,0.26
-0.39257812,-0.069049746,-0.039001275,-0.06434329,-0.06,0.98,0.27,28170,9940.30,0,0,165,-3.85,-5.25,-4.41,-0.06,0.98,0.27
0.6074219,-0.00904975,-0.029001277,-0.059343282,-0.06,0.98,0.27,28177,9941.30,0,0,0,0.35,-4.55,-4.06,-0.06,0.98,0.27
0.6074219,0.0099502485,-0.020001274,-0.054343283,-0.05,0.97,0.27,28192,9941.30,0,0,165,1.68,-3.92,-3.71,-0.05,0.97,0.27
