Pressure_Rel,GyroX_Rel,GyroY_Rel,GyroZ_Rel,AccX_Rel,AccY_Rel,AccZ_Rel,Timestamp,Pressure_abs,HeartRate,Oxygen,Status,GyroX,GyroY,GyroZ,AccX,AccY,AccZ
0.0,0.0,0.0,0.0,0.0,0.0,0.0,4063,9940.50,0,0,165,0.70,-2.52,0.28,-0.06,0.98,0.22
0.0,0.0,0.0,0.0,0.0,0.0,0.0,4072,9940.50,0,0,0,1.12,-2.45,0.14,-0.06,0.98,0.23
0.0,0.0,0.0,0.0,0.0,0.0,0.0,4088,9940.80,0,0,165,1.47,-2.52,0.07,-0.06,0.98,0.23
0.0,0.0,0.0,0.0,0.0,0.0,0.0,4094,9939.50,0,0,0,1.54,-2.66,-0.07,-0.06,0.98,0.23
0.0,0.0,0.0,0.0,0.0,0.0,0.0,4109,9940.50,0,0,165,0.84,-2.73,0.00,-0.06,0.98,0.23
0.0,0.0,0.0,0.0,0.0,0.0,0.0,4125,9940.50,0,0,0,-0.21,-2.66,-0.14,-0.06,0.98,0.23
0.0,0.0,0.0,0.0,0.0,0.0,0.0,4136,9940.50,0,0,165,0.07,-2.73,0.07,-0.06,0.98,0.23
0.0,0.0,0.0,0.0,0.0,0.0,0.0,4146,9940.50,0,0,0,0.98,-2.73,0.21,-0.06,0.98,0.23
0.0,0.0,0.0,0.0,0.0,0.0,0.0,4162,9939.50,0,0,165,1.89,-2.59,0.14,-0.06,0.98,0.23
0.0,0.0,0.0,0.0,0.0,0.0,0.0,4169,9940.50,0,0,0,1.82,-2.59,0.00,-0.06,0.98,0.23
0.0,0.0,0.0,0.0,0.0,0.0,0.0,4185,9939.50,0,0,165,0.77,-2.66,0.07,-0.06,0.98,0.23
0.0,0.0,0.0,0.0,0.0,0.0,0.0,4199,9940.20,0,0,0,0.21,-2.45,0.14,-0.06,0.98,0.22
0.0,0.0,0.0,0.0,0.0,0.0,0.0,4206,9940.50,0,0,165,0.00,-2.38,0.14,-0.06,0.98,0.23
0.0,0.0,0.0,0.0,0.0,0.0,0.0,4222,9940.80,0,0,0,0.49,-2.45,0.07,-0.06,0.98,0.23
0.0,0.0,0.0,0.0,0.0,0.0,0.0,4237,9940.50,0,0,165,1.26,-2.59,0.28,-0.06,0.98,0.23
0.0,0.0,0.0,0.0,0.0,0.0,0.0,4244,9940.80,0,0,0,2.03,-2.24,0.42,-0.06,0.98,0.23
0.0,0.0,0.0,0.0,0.0,0.0,0.0,4266,9940.80,0,0,165,1.68,-2.45,0.42,-0.06,0.98,0.23
0.0,0.0,0.0,0.0,0.0,0.0,0.0,4274,9940.50,0,0,0,0.70,-2.38,0.07,-0.06,0.98,0.22
0.0,0.0,0.0,0.0,0.0,0.0,0.0,4282,9939.90,0,0,165,0.28,-2.38,0.07,-0.06,0.98,0.23
0.0,0.0,0.0,0.0,0.0,0.0,0.0,4296,9940.50,0,0,0,0.49,-2.38,-0.21,-0.06,0.98,0.22
0.0,0.0,0.0,0.0,0.0,0.0,0.0,4320,9940.50,0,0,165,1.19,-2.45,-0.14,-0.06,0.98,0.23
0.0,0.0,0.0,0.0,0.0,0.0,0.0,4321,9940.50,0,0,0,1.61,-2.45,0.14,-0.06,0.98,0.22
0.0,0.0,0.0,0.0,0.0,0.0,0.0,4335,9940.50,0,0,165,1.12,-2.45,0.28,-0.06,0.98,0.22
0.0,0.0,0.0,0.0,0.0,0.0,0.0,4349,9940.50,0,0,0,0.56,-2.31,0.14,-0.06,0.98,0.23
0.0,0.0,0.0,0.0,0.0,0.0,0.0,4357,9940.80,0,0,165,0.49,-2.59,-0.07,-0.06,0.98,0.23
0.0,0.0,0.0,0.0,0.0,0.0,0.0,4373,9940.80,0,0,0,0.84,-2.38,0.07,-0.06,0.98,0.23
0.0,0.0,0.0,0.0,0.0,0.0,0.0,4387,9940.80,0,0,165,1.26,-2.45,0.21,-0.06,0.98,0.23
0.0,0.0,0.0,0.0,0.0,0.0,0.0,4394,9940.80,0,0,0,1.19,-2.66,-0.07,-0.06,0.98,0.22
0.0,0.0,0.0,0.0,0.0,0.0,0.0,4409,9940.80,0,0,165,0.91,-2.52,0.07,-0.06,0.98,0.22
0.0,0.0,0.0,0.0,0.0,0.0,0.0,4424,9939.90,0,0,0,0.70,-2.66,0.42,-0.05,0.98,0.23
0.0,0.0,0.0,0.0,0.0,0.0,0.0,4432,9940.80,0,0,165,0.56,-2.52,0.49,-0.06,0.98,0.23
0.0,0.0,0.0,0.0,0.0,0.0,0.0,4447,9938.60,0,0,0,0.49,-2.52,-0.07,-0.05,0.98,0.23
0.0,0.0,0.0,0.0,0.0,0.0,0.0,4462,9940.80,0,0,165,0.56,-2.52,-0.14,-0.06,0.98,0.23
0.0,0.0,0.0,0.0,0.0,0.0,0.0,4469,9939.90,0,0,0,1.26,-2.66,-0.14,-0.06,0.98,0.23
0.0,0.0,0.0,0.0,0.0,0.0,0.0,4484,9940.80,0,0,165,1.05,-2.66,0.00,-0.06,0.98,0.23
0.0,0.0,0.0,0.0,0.0,0.0,0.0,4499,9939.90,0,0,0,0.77,-2.66,-0.07,-0.06,0.98,0.23
0.0,0.0,0.0,0.0,0.0,0.0,0.0,4514,9940.80,0,0,165,0.14,-2.66,-0.21,-0.06,0.98,0.23
0.0,0.0,0.0,0.0,0.0,0.0,0.0,4522,9939.90,0,0,0,0.21,-2.66,-0.35,-0.06,0.98,0.23
0.0,0.0,0.0,0.0,0.0,0.0,0.0,4537,9940.80,0,0,165,1.05,-2.59,-0.28,-0.06,0.98,0.23
0.0,0.0,0.0,0.0,0.0,0.0,0.0,4553,9939.90,0,0,0,1.40,-2.59,-0.07,-0.06,0.98,0.22
0.0,0.0,0.0,0.0,0.0,0.0,0.0,4559,9939.90,0,0,165,1.12,-2.59,-0.14,-0.06,0.98,0.22
0.0,0.0,0.0,0.0,0.0,0.0,0.0,4574,9940.80,0,0,0,0.21,-2.73,-0.35,-0.06,0.98,0.22
0.0,0.0,0.0,0.0,0.0,0.0,0.0,4582,9939.90,0,0,165,-0.21,-2.73,-0.28,-0.06,0.98,0.23
0.0,0.0,0.0,0.0,0.0,0.0,0.0,4597,9940.80,0,0,0,-0.07,-2.73,-0.35,-0.06,0.98,0.23
0.0,0.0,0.0,0.0,0.0,0.0,0.0,4612,9940.80,0,0,165,0.49,-2.59,-0.56,-0.06,0.98,0.23
0.0,0.0,0.0,0.0,0.0,0.0,0.0,4620,9940.80,0,0,0,0.91,-2.52,-0.56,-0.06,0.98,0.23
0.0,0.0,0.0,0.0,0.0,0.0,0.0,4634,9940.80,0,0,165,0.77,-2.66,-0.56,-0.06,0.98,0.23
0.0,0.0,0.0,0.0,0.0,0.0,0.0,4649,9939.90,0,0,0,0.35,-2.59,-0.35,-0.06,0.98,0.23
0.0,0.0,0.0,0.0,0.0,0.0,0.0,4656,9940.80,0,0,165,-0.21,-2.66,-0.28,-0.06,0.98,0.23
0.0,0.0,0.0,0.0,0.0,0.0,0.0,4679,9940.80,0,0,0,-0.28,-2.66,-0.35,-0.06,0.98,0.23
0.0,0.0,0.0,0.0,0.0,0.0,0.0,4687,9939.90,0,0,165,-0.21,-2.73,-0.56,-0.06,0.98,0.23
0.0,0.0,0.0,0.0,0.0,0.0,0.0,4694,9939.90,0,0,0,0.28,-2.66,-0.35,-0.06,0.98,0.23
0.0,0.0,0.0,0.0,0.0,0.0,0.0,4708,9939.90,0,0,165,0.63,-2.80,-0.35,-0.06,0.98,0.23
0.0,0.0,0.0,0.0,0.0,0.0,0.0,4725,9941.20,0,0,0,0.42,-2.59,-0.14,-0.06,0.98,0.23
0.0,0.0,0.0,0.0,0.0,0.0,0.0,4732,9939.90,0,0,165,0.21,-2.52,-0.14,-0.06,0.98,0.23
0.0,0.0,0.0,0.0,0.0,0.0,0.0,4747,9940.80,0,0,0,0.00,-2.73,0.00,-0.06,0.98,0.23
0.0,0.0,0.0,0.0,0.0,0.0,0.0,4764,9939.90,0,0,165,0.21,-2.52,0.00,-0.06,0.98,0.23
0.0,0.0,0.0,0.0,0.0,0.0,0.0,4769,9940.80,0,0,0,0.56,-2.59,-0.21,-0.06,0.98,0.23
0.0,0.0,0.0,0.0,0.0,0.0,0.0,4785,9939.90,0,0,165,0.84,-2.52,-0.28,-0.06,0.98,0.23
0.0,0.0,0.0,0.0,0.0,0.0,0.0,4799,9939.90,0,0,0,1.12,-2.52,-0.21,-0.06,0.99,0.23
0.0,0.0,0.0,0.0,0.0,0.0,0.0,4807,9940.80,0,0,165,1.33,-2.66,-0.28,-0.06,0.99,0.23
0.0,0.0,0.0,0.0,0.0,0.0,0.0,4822,9939.90,0,0,0,1.33,-2.45,0.00,-0.06,0.98,0.22
0.0,0.0,0.0,0.0,0.0,0.0,0.0,4837,9940.20,0,0,165,0.84,-2.45,0.14,-0.07,0.98,0.23
0.0,0.0,0.0,0.0,0.0,0.0,0.0,4844,9940.80,0,0,0,0.42,-2.52,0.00,-0.06,0.98,0.23
0.0,0.0,0.0,0.0,0.0,0.0,0.0,4866,9940.80,0,0,165,0.63,-2.38,0.00,-0.07,0.98,0.22
0.0,0.0,0.0,0.0,0.0,0.0,0.0,4888,9939.90,0,0,0,1.19,-2.52,-0.07,-0.06,0.98,0.22
0.0,0.0,0.0,0.0,0.0,0.0,0.0,4892,9941.20,0,0,165,1.47,-2.66,-0.21,-0.06,0.98,0.23
0.0,0.0,0.0,0.0,0.0,0.0,0.0,4896,9940.80,0,0,0,1.40,-2.73,-0.07,-0.06,0.98,0.23
0.0,0.0,0.0,0.0,0.0,0.0,0.0,4912,9940.50,0,0,165,0.84,-2.73,-0.14,-0.06,0.98,0.23
0.0,0.0,0.0,0.0,0.0,0.0,0.0,4919,9939.90,0,0,0,0.28,-2.59,17.78,-0.06,0.98,0.23
0.0,0.0,0.0,0.0,0.0,0.0,0.0,4942,9940.20,0,0,165,-0.07,-2.52,0.00,-0.06,0.98,0.23
0.0,0.0,0.0,0.0,0.0,0.0,0.0,4956,9940.80,0,0,0,0.07,-2.52,0.14,-0.06,0.98,0.23
0.0,0.0,0.0,0.0,0.0,0.0,0.0,4958,9940.80,0,0,165,0.84,-2.52,0.00,-0.06,0.98,0.23
0.0,0.0,0.0,0.0,0.0,0.0,0.0,4972,9939.90,0,0,0,1.61,-2.52,0.00,-0.06,0.98,0.23
0.0,0.0,0.0,0.0,0.0,0.0,0.0,4978,9940.20,0,0,165,1.96,-2.52,0.00,-0.06,0.98,0.23
0.0,0.0,0.0,0.0,0.0,0.0,0.0,4994,9941.20,0,0,0,1.26,-2.38,0.14,-0.06,0.98,0.23
0.0,0.0,0.0,0.0,0.0,0.0,0.0,5018,9939.90,0,0,165,0.70,-2.45,-0.07,-0.06,0.98,0.23
0.0,0.0,0.0,0.0,0.0,0.0,0.0,5020,9939.90,0,0,0,0.84,-2.31,0.28,-0.05,0.98,0.23
0.0,0.0,0.0,0.0,0.0,0.0,0.0,5032,9940.80,0,0,165,1.19,-2.45,0.28,-0.06,0.98,0.23
0.0,0.0,0.0,0.0,0.0,0.0,0.0,5055,9939.90,0,0,0,1.75,-2.45,0.07,-0.05,0.98,0.23
0.0,0.0,0.0,0.0,0.0,0.0,0.0,5056,9939.50,0,0,165,1.75,-2.52,-0.21,-0.05,0.98,0.23
0.0,0.0,0.0,0.0,0.0,0.0,0.0,5069,9940.20,0,0,0,1.05,-2.80,-0.35,-0.06,0.98,0.23
-0.8720703,-0.0025390368,0.0023481958,-0.0018240393,-0.06,0.98,0.23,15096,9939.60,0,0,0,0.70,-2.38,-0.14,-0.06,0.98,0.23
0.028320312,0.0104609635,-6.5180287E-4,-0.0018240393,-0.06,0.98,0.23,15113,9940.50,0,0,165,1.61,-2.59,-0.14,-0.06,0.98,0.23
0.028320312,0.013460964,-6.5180287E-4,0.0011759609,-0.06,0.98,0.23,15143,9940.50,0,0,0,1.82,-2.59,0.07,-0.06,0.98,0.23
0.028320312,4.609637E-4,-6.5180287E-4,1.759608E-4,-0.06,0.98,0.23,15145,9940.50,0,0,165,0.91,-2.59,0.00,-0.06,0.98,0.23
0.028320312,-0.014539037,-6.5180287E-4,0.0011759609,-0.06,0.98,0.23,15149,9940.50,0,0,0,-0.14,-2.59,0.07,-0.06,0.98,0.23
-0.27148438,-0.014539037,3.4819916E-4,0.0031759606,-0.06,0.98,0.23,15157,9940.20,0,0,165,-0.14,-2.52,0.21,-0.06,0.98,0.23
0.028320312,-5.390374E-4,0.0013481975,0.0011759609,-0.05,0.98,0.23,15172,9940.50,0,0,0,0.84,-2.45,0.07,-0.05,0.98,0.23
0.028320312,0.0104609635,-6.5180287E-4,1.759608E-4,-0.06,0.98,0.23,15204,9940.50,0,0,165,1.61,-2.59,0.00,-0.06,0.98,0.23
0.028320312,0.017460963,3.4819916E-4,1.759608E-4,-0.06,0.98,0.23,15205,9940.50,0,0,0,2.10,-2.52,0.00,-0.06,0.98,0.23
1.0283203,0.013460964,0.0013481975,0.002175961,-0.06,0.98,0.22,15220,9941.50,0,0,165,1.82,-2.45,0.14,-0.06,0.98,0.22
0.028320312,-0.003539037,0.0023481958,0.0031759606,-0.06,0.98,0.22,15236,9940.50,0,0,0,0.63,-2.38,0.21,-0.06,0.98,0.22
0.028320312,-0.012539037,0.0013481975,1.759608E-4,-0.06,0.98,0.22,15245,9940.50,0,0,165,0.00,-2.45,0.00,-0.06,0.98,0.22
-0.27148438,-0.011539036,-6.5180287E-4,-0.0018240393,-0.06,0.98,0.23,15248,9940.20,0,0,0,0.07,-2.59,-0.14,-0.06,0.98,0.23
0.028320312,-0.003539037,3.4819916E-4,-0.0038240394,-0.06,0.98,0.22,15263,9940.50,0,0,165,0.63,-2.52,-0.28,-0.06,0.98,0.22
-0.27148438,0.0044609644,-6.5180287E-4,-0.004824039,-0.06,0.98,0.23,15269,9940.20,0,0,0,1.19,-2.59,-0.35,-0.06,0.98,0.23
-0.8720703,0.0014609639,0.0013481975,-8.240392E-4,-0.06,0.98,0.23,15292,9939.60,0,0,165,0.98,-2.45,-0.07,-0.06,0.98,0.23
-0.8720703,-0.003539037,0.0013481975,-8.240392E-4,-0.06,0.98,0.23,15299,9939.60,0,0,0,0.63,-2.45,-0.07,-0.06,0.98,0.23
1.0283203,-0.0055390364,0.0013481975,1.759608E-4,-0.06,0.98,0.23,15306,9941.50,0,0,165,0.49,-2.45,0.00,-0.06,0.98,0.23
-0.8720703,-0.0025390368,0.0013481975,0.002175961,-0.06,0.98,0.23,15329,9939.60,0,0,0,0.70,-2.45,0.14,-0.06,0.98,0.23
0.028320312,0.0014609639,3.4819916E-4,0.0011759609,-0.06,0.98,0.23,15336,9940.50,0,0,165,0.98,-2.52,0.07,-0.06,0.98,0.23
0.42871094,0.002460963,3.4819916E-4,0.0011759609,-0.06,0.98,0.23,15361,9940.90,0,0,0,1.05,-2.52,0.07,-0.06,0.98,0.23
-0.27148438,0.002460963,-0.0016518049,0.0031759606,-0.06,0.98,0.23,15364,9940.20,0,0,165,1.05,-2.66,0.21,-0.06,0.98,0.23
1.0283203,-5.390374E-4,-6.5180287E-4,1.759608E-4,-0.06,0.98,0.23,15374,9941.50,0,0,0,0.84,-2.59,0.00,-0.06,0.98,0.23
1.0283203,-0.0015390366,-6.5180287E-4,0.0011759609,-0.06,0.98,0.23,15381,9941.50,0,0,165,0.77,-2.59,0.07,-0.06,0.98,0.23
0.028320312,-5.390374E-4,0.0013481975,0.0011759609,-0.06,0.98,0.23,15399,9940.50,0,0,0,0.84,-2.45,0.07,-0.06,0.98,0.23
1.0283203,4.609637E-4,0.0013481975,-8.240392E-4,-0.06,0.98,0.22,15404,9941.50,0,0,165,0.91,-2.45,-0.07,-0.06,0.98,0.22
1.0283203,0.0034609642,0.0013481975,0.0011759609,-0.06,0.98,0.22,15426,9941.50,0,0,0,1.12,-2.45,0.07,-0.06,0.98,0.22
1.0283203,0.0034609642,0.0013481975,0.0011759609,-0.06,0.98,0.23,15434,9941.50,0,0,165,1.12,-2.45,0.07,-0.06,0.98,0.23
0.028320312,4.609637E-4,3.4819916E-4,0.0011759609,-0.06,0.98,0.23,15442,9940.50,0,0,0,0.91,-2.52,0.07,-0.06,0.98,0.23
0.028320312,-5.390374E-4,-6.5180287E-4,1.759608E-4,-0.06,0.98,0.22,15456,9940.50,0,0,165,0.84,-2.59,0.00,-0.06,0.98,0.22
0.028320312,-0.0025390368,-6.5180287E-4,1.759608E-4,-0.06,0.98,0.23,15471,9940.50,0,0,0,0.70,-2.59,0.00,-0.06,0.98,0.23
-0.8720703,4.609637E-4,0.0013481975,0.0011759609,-0.06,0.98,0.22,15478,9939.60,0,0,165,0.91,-2.45,0.07,-0.06,0.98,0.22
-0.8720703,-0.0015390366,3.4819916E-4,-0.0018240393,-0.06,0.98,0.23,15495,9939.60,0,0,0,0.77,-2.52,-0.14,-0.06,0.98,0.23
0.028320312,-5.390374E-4,-6.5180287E-4,-0.0018240393,-0.06,0.98,0.22,15509,9940.50,0,0,165,0.84,-2.59,-0.14,-0.06,0.98,0.22
0.028320312,-5.390374E-4,0.0013481975,-0.0018240393,-0.06,0.98,0.23,15524,9940.50,0,0,0,0.84,-2.45,-0.14,-0.06,0.98,0.23
0.028320312,-0.0015390366,-6.5180287E-4,-0.002824039,-0.06,0.98,0.22,15539,9940.50,0,0,165,0.77,-2.59,-0.21,-0.06,0.98,0.22
0.028320312,-0.0015390366,-6.5180287E-4,-8.240392E-4,-0.06,0.98,0.22,15546,9940.50,0,0,0,0.77,-2.59,-0.07,-0.06,0.98,0.22
0.028320312,-0.0015390366,0.0013481975,0.0011759609,-0.06,0.98,0.23,15554,9940.50,0,0,165,0.77,-2.45,0.07,-0.06,0.98,0.23
1.0283203,4.609637E-4,3.4819916E-4,-8.240392E-4,-0.06,0.98,0.22,15568,9941.50,0,0,0,0.91,-2.52,-0.07,-0.06,0.98,0.22
-0.8720703,4.609637E-4,3.4819916E-4,-0.0018240393,-0.06,0.98,0.23,15585,9939.60,0,0,165,0.91,-2.52,-0.14,-0.06,0.98,0.23
0.028320312,-5.390374E-4,3.4819916E-4,0.0011759609,-0.06,0.98,0.22,15591,9940.50,0,0,0,0.84,-2.52,0.07,-0.06,0.98,0.22
1.0283203,-0.003539037,3.4819916E-4,1.759608E-4,-0.06,0.98,0.23,15606,9941.50,0,0,165,0.63,-2.52,0.00,-0.06,0.98,0.23
0.028320312,-0.003539037,-0.0016518049,1.759608E-4,-0.06,0.98,0.22,15621,9940.50,0,0,0,0.63,-2.66,0.00,-0.06,0.98,0.22
0.028320312,-5.390374E-4,3.4819916E-4,1.759608E-4,-0.06,0.98,0.23,15629,9940.50,0,0,165,0.84,-2.52,0.00,-0.06,0.98,0.23
-0.8720703,0.0044609644,3.4819916E-4,0.0011759609,-0.06,0.98,0.23,15644,9939.60,0,0,0,1.19,-2.52,0.07,-0.06,0.98,0.23
-0.27148438,0.0054609627,0.0013481975,1.759608E-4,-0.06,0.98,0.23,15676,9940.20,0,0,165,1.26,-2.45,0.00,-0.06,0.98,0.23
0.028320312,0.0014609639,3.4819916E-4,0.002175961,-0.06,0.98,0.23,15677,9940.50,0,0,0,0.98,-2.52,0.14,-0.06,0.98,0.23
0.42871094,-0.0025390368,-6.5180287E-4,1.759608E-4,-0.06,0.98,0.23,15681,9940.90,0,0,165,0.70,-2.59,0.00,-0.06,0.98,0.23
0.028320312,-0.003539037,-6.5180287E-4,0.002175961,-0.06,0.98,0.23,15696,9940.50,0,0,0,0.63,-2.59,0.14,-0.06,0.98,0.23
-0.57128906,-0.0025390368,-6.5180287E-4,0.0011759609,-0.06,0.98,0.23,15705,9939.90,0,0,165,0.70,-2.59,0.07,-0.06,0.98,0.23
0.028320312,0.002460963,3.4819916E-4,0.0011759609,-0.06,0.98,0.22,15719,9940.50,0,0,0,1.05,-2.52,0.07,-0.06,0.98,0.22
-0.8720703,0.0044609644,-6.5180287E-4,-0.0018240393,-0.06,0.98,0.22,15734,9939.60,0,0,165,1.19,-2.59,-0.14,-0.06,0.98,0.22
1.0283203,0.0044609644,0.0013481975,-0.0018240393,-0.06,0.98,0.23,15742,9941.50,0,0,0,1.19,-2.45,-0.14,-0.06,0.98,0.23
-0.8720703,4.609637E-4,3.4819916E-4,-8.240392E-4,-0.06,0.98,0.22,15757,9939.60,0,0,165,0.91,-2.52,-0.07,-0.06,0.98,0.22
0.028320312,-0.003539037,3.4819916E-4,-8.240392E-4,-0.06,0.98,0.22,15771,9940.50,0,0,0,0.63,-2.52,-0.07,-0.06,0.98,0.22
0.028320312,4.609637E-4,-0.0016518049,-8.240392E-4,-0.06,0.98,0.23,15787,9940.50,0,0,165,0.91,-2.66,-0.07,-0.06,0.98,0.23
1.0283203,0.0034609642,3.4819916E-4,-0.002824039,-0.06,0.98,0.22,15794,9941.50,0,0,0,1.12,-2.52,-0.21,-0.06,0.98,0.22
1.0283203,0.0014609639,-6.5180287E-4,-8.240392E-4,-0.06,0.98,0.23,15809,9941.50,0,0,165,0.98,-2.59,-0.07,-0.06,0.98,0.23
0.028320312,-0.0015390366,3.4819916E-4,-0.0018240393,-0.06,0.98,0.23,15816,9940.50,0,0,0,0.77,-2.52,-0.14,-0.06,0.98,0.23
-0.8720703,-0.006539037,-6.5180287E-4,-8.240392E-4,-0.06,0.98,0.23,15832,9939.60,0,0,165,0.42,-2.59,-0.07,-0.06,0.98,0.23
0.028320312,-0.0055390364,3.4819916E-4,0.0011759609,-0.06,0.98,0.23,15846,9940.50,0,0,0,0.49,-2.52,0.07,-0.06,0.98,0.23
1.0283203,0.0034609642,0.0023481958,0.002175961,-0.06,0.98,0.23,15863,9941.50,0,0,165,1.12,-2.38,0.14,-0.06,0.98,0.23
-0.8720703,0.011460962,0.0023481958,1.759608E-4,-0.06,0.98,0.22,15869,9939.60,0,0,0,1.68,-2.38,0.00,-0.06,0.98,0.22
0.028320312,0.009460963,0.0023481958,-0.0018240393,-0.06,0.99,0.23,15877,9940.50,0,0,165,1.54,-2.38,-0.14,-0.06,0.99,0.23
0.028320312,0.0014609639,-0.0016518049,-0.002824039,-0.06,0.98,0.22,15891,9940.50,0,0,0,0.98,-2.66,-0.21,-0.06,0.98,0.22
1.0283203,-0.0075390367,-6.5180287E-4,-0.0018240393,-0.06,0.98,0.23,15906,9941.50,0,0,165,0.35,-2.59,-0.14,-0.06,0.98,0.23
0.028320312,-0.010539036,-0.0016518049,0.002175961,-0.06,0.98,0.23,15913,9940.50,0,0,0,0.14,-2.66,0.14,-0.06,0.98,0.23
0.028320312,-0.0025390368,3.4819916E-4,0.0031759606,-0.06,0.98,0.23,15931,9940.50,0,0,165,0.70,-2.52,0.21,-0.06,0.98,0.23
1.0283203,0.013460964,-6.5180287E-4,-0.0018240393,-0.06,0.98,0.23,15944,9941.50,0,0,0,1.82,-2.59,-0.14,-0.06,0.98,0.23
-0.8720703,0.018460965,-6.5180287E-4,-0.0018240393,-0.06,0.98,0.22,15958,9939.60,0,0,165,2.17,-2.59,-0.14,-0.06,0.98,0.22
0.028320312,0.013460964,-0.0026518032,-0.0018240393,-0.06,0.98,0.22,15966,9940.50,0,0,0,1.82,-2.73,-0.14,-0.06,0.98,0.22
-0.57128906,-0.0015390366,-0.0026518032,0.0011759609,-0.06,0.98,0.22,15982,9939.90,0,0,165,0.77,-2.73,0.07,-0.06,0.98,0.22
0.028320312,-0.015539036,3.4819916E-4,0.0031759606,-0.06,0.98,0.22,15989,9940.50,0,0,0,-0.21,-2.52,0.21,-0.06,0.98,0.22
0.028320312,-0.017539036,-0.0016518049,-0.25582406,-0.06,0.98,0.23,16004,9940.50,0,0,165,-0.35,-2.66,-17.92,-0.06,0.98,0.23
0.028320312,0.002460963,3.4819916E-4,0.0011759609,-0.06,0.98,0.23,16019,9940.50,0,0,0,1.05,-2.52,0.07,-0.06,0.98,0.23
0.028320312,0.018460965,-0.0016518049,0.0011759609,-0.06,0.98,0.23,16026,9940.50,0,0,165,2.17,-2.66,0.07,-0.06,0.98,0.23
0.42871094,0.014460964,-6.5180287E-4,-8.240392E-4,-0.06,0.98,0.22,16042,9940.90,0,0,0,1.89,-2.59,-0.07,-0.06,0.98,0.22
0.028320312,-0.003539037,-6.5180287E-4,0.0011759609,-0.06,0.98,0.22,16056,9940.50,0,0,165,0.63,-2.59,0.07,-0.06,0.98,0.22
0.028320312,-0.019539036,-0.0016518049,0.0011759609,-0.06,0.98,0.22,16064,9940.50,0,0,0,-0.49,-2.66,0.07,-0.06,0.98,0.22
0.42871094,-0.014539037,0.0013481975,1.759608E-4,-0.06,0.98,0.23,16086,9940.90,0,0,165,-0.14,-2.45,0.00,-0.06,0.98,0.23
0.028320312,0.0014609639,-6.5180287E-4,0.0011759609,-0.06,0.98,0.23,16094,9940.50,0,0,0,0.98,-2.59,0.07,-0.06,0.98,0.23
0.028320312,0.014460964,3.4819916E-4,-8.240392E-4,-0.06,0.98,0.23,16109,9940.50,0,0,165,1.89,-2.52,-0.07,-0.06,0.98,0.23
0.42871094,0.018460965,0.0013481975,1.759608E-4,-0.06,0.98,0.23,16116,9940.90,0,0,0,2.17,-2.45,0.00,-0.06,0.98,0.23
-0.8720703,0.007460963,0.0033481978,0.0031759606,-0.06,0.98,0.22,16133,9939.60,0,0,165,1.40,-2.31,0.21,-0.06,0.98,0.22
0.028320312,-0.011539036,0.0023481958,0.002175961,-0.06,0.98,0.23,16139,9940.50,0,0,0,0.07,-2.38,0.14,-0.06,0.98,0.23
-0.57128906,-0.019539036,0.0013481975,-0.0018240393,-0.06,0.98,0.22,16169,9939.90,0,0,165,-0.49,-2.45,-0.14,-0.06,0.98,0.22
-0.8720703,-0.008539036,-6.5180287E-4,-8.240392E-4,-0.06,0.98,0.23,16171,9939.60,0,0,0,0.28,-2.59,-0.07,-0.06,0.98,0.23
0.028320312,0.0034609642,-0.0016518049,-0.0038240394,-0.06,0.98,0.23,16176,9940.50,0,0,165,1.12,-2.66,-0.28,-0.06,0.98,0.23
-0.57128906,0.0104609635,-6.5180287E-4,-0.0018240393,-0.06,0.98,0.22,16192,9939.90,0,0,0,1.61,-2.59,-0.14,-0.06,0.98,0.22
0.42871094,0.0064609647,0.0013481975,0.002175961,-0.06,0.98,0.23,16206,9940.90,0,0,165,1.33,-2.45,0.14,-0.06,0.98,0.23
0.42871094,-0.006539037,0.0033481978,0.0011759609,-0.06,0.98,0.23,16214,9940.90,0,0,0,0.42,-2.31,0.07,-0.06,0.98,0.23
1.0283203,-0.011539036,0.0023481958,-8.240392E-4,-0.06,0.98,0.23,16229,9941.50,0,0,165,0.07,-2.38,-0.07,-0.06,0.98,0.23
-0.57128906,-0.0075390367,0.0013481975,0.002175961,-0.06,0.98,0.23,16243,9939.90,0,0,0,0.35,-2.45,0.14,-0.06,0.98,0.23
-0.57128906,0.0034609642,0.0013481975,-8.240392E-4,-0.06,0.98,0.22,16254,9939.90,0,0,165,1.12,-2.45,-0.07,-0.06,0.98,0.22
0.028320312,0.0054609627,-0.0016518049,-8.240392E-4,-0.06,0.98,0.22,16282,9940.50,0,0,0,1.26,-2.66,-0.07,-0.06,0.98,0.22
0.42871094,0.0034609642,-6.5180287E-4,1.759608E-4,-0.06,0.98,0.23,16283,9940.90,0,0,165,1.12,-2.59,0.00,-0.06,0.98,0.23
0.028320312,-0.0015390366,-0.0016518049,1.759608E-4,-0.06,0.98,0.23,16288,9940.50,0,0,0,0.77,-2.66,0.00,-0.06,0.98,0.23
-0.57128906,-0.0055390364,0.0013481975,-8.240392E-4,-0.06,0.98,0.22,16304,9939.90,0,0,165,0.49,-2.45,-0.07,-0.06,0.98,0.22
0.42871094,-0.0025390368,-6.5180287E-4,0.0011759609,-0.06,0.98,0.23,16319,9940.90,0,0,0,0.70,-2.59,0.07,-0.06,0.98,0.23
0.028320312,0.0044609644,0.0013481975,0.0011759609,-0.06,0.98,0.22,16326,9940.50,0,0,165,1.19,-2.45,0.07,-0.06,0.98,0.22
0.42871094,0.007460963,3.4819916E-4,-8.240392E-4,-0.06,0.98,0.22,16341,9940.90,0,0,0,1.40,-2.52,-0.07,-0.06,0.98,0.22
-0.8720703,0.0034609642,-0.0016518049,-0.0018240393,-0.06,0.98,0.23,16356,9939.60,0,0,165,1.12,-2.66,-0.14,-0.06,0.98,0.23
0.42871094,-0.003539037,-0.0016518049,0.0011759609,-0.06,0.98,0.23,16363,9940.90,0,0,0,0.63,-2.66,0.07,-0.06,0.98,0.23
-0.57128906,-0.006539037,-0.0016518049,-0.0018240393,-0.06,0.98,0.23,16379,9939.90,0,0,165,0.42,-2.66,-0.14,-0.06,0.98,0.23
-0.57128906,-0.0025390368,-6.5180287E-4,0.25517595,-0.06,0.98,0.23,16394,9939.90,0,0,0,0.70,-2.59,17.85,-0.06,0.98,0.23
0.42871094,0.002460963,3.4819916E-4,0.002175961,-0.06,0.98,0.23,16403,9940.90,0,0,165,1.05,-2.52,0.14,-0.06,0.98,0.23
0.028320312,0.0034609642,0.0013481975,0.0011759609,-0.06,0.98,0.23,16416,9940.50,0,0,0,1.12,-2.45,0.07,-0.06,0.98,0.23
-0.57128906,0.002460963,3.4819916E-4,0.0011759609,-0.06,0.98,0.23,16433,9939.90,0,0,165,1.05,-2.52,0.07,-0.06,0.98,0.23
-0.57128906,0.0014609639,0.0013481975,0.0011759609,-0.06,0.98,0.23,16439,9939.90,0,0,0,0.98,-2.45,0.07,-0.06,0.98,0.23
-0.57128906,-0.0025390368,-6.5180287E-4,1.759608E-4,-0.06,0.98,0.23,16464,9939.90,0,0,165,0.70,-2.59,0.00,-0.06,0.98,0.23
-0.57128906,-0.0015390366,0.0013481975,-8.240392E-4,-0.06,0.98,0.23,16469,9939.90,0,0,0,0.77,-2.45,-0.07,-0.06,0.98,0.23
0.42871094,-5.390374E-4,-6.5180287E-4,1.759608E-4,-0.06,0.98,0.23,16476,9940.90,0,0,165,0.84,-2.59,0.00,-0.06,0.98,0.23
-0.57128906,0.002460963,3.4819916E-4,-8.240392E-4,-0.06,0.98,0.23,16493,9939.90,0,0,0,1.05,-2.52,-0.07,-0.06,0.98,0.23
0.42871094,0.0014609639,3.4819916E-4,1.759608E-4,-0.06,0.98,0.23,16506,9940.90,0,0,165,0.98,-2.52,0.00,-0.06,0.98,0.23
0.028320312,4.609637E-4,-6.5180287E-4,-8.240392E-4,-0.06,0.98,0.23,16516,9940.50,0,0,0,0.91,-2.59,-0.07,-0.06,0.98,0.23
0.42871094,-0.0015390366,0.0013481975,-0.0018240393,-0.06,0.98,0.23,16528,9940.90,0,0,165,0.77,-2.45,-0.14,-0.06,0.98,0.23
-0.57128906,-0.0015390366,0.0013481975,1.759608E-4,-0.06,0.98,0.23,16544,9939.90,0,0,0,0.77,-2.45,0.00,-0.06,0.98,0.23
0.42871094,0.002460963,0.0013481975,1.759608E-4,-0.06,0.98,0.23,16554,9940.90,0,0,165,1.05,-2.45,0.00,-0.06,0.98,0.23
0.42871094,0.0014609639,3.4819916E-4,0.002175961,-0.06,0.98,0.23,16566,9940.90,0,0,0,0.98,-2.52,0.14,-0.06,0.98,0.23
0.028320312,0.0034609642,3.4819916E-4,1.759608E-4,-0.06,0.98,0.22,16582,9940.50,0,0,165,1.12,-2.52,0.00,-0.06,0.98,0.22
0.42871094,-0.0015390366,3.4819916E-4,0.0011759609,-0.06,0.98,0.23,16589,9940.90,0,0,0,0.77,-2.52,0.07,-0.06,0.98,0.23
0.42871094,-5.390374E-4,0.0013481975,0.0011759609,-0.06,0.98,0.23,16604,9940.90,0,0,165,0.84,-2.45,0.07,-0.06,0.98,0.23
0.42871094,-5.390374E-4,3.4819916E-4,1.759608E-4,-0.06,0.98,0.23,16619,9940.90,0,0,0,0.84,-2.52,0.00,-0.06,0.98,0.23
-0.57128906,0.0034609642,3.4819916E-4,0.0011759609,-0.06,0.98,0.22,16627,9939.90,0,0,165,1.12,-2.52,0.07,-0.06,0.98,0.22
0.42871094,0.0034609642,-6.5180287E-4,1.759608E-4,-0.06,0.98,0.22,16643,9940.90,0,0,0,1.12,-2.59,0.00,-0.06,0.98,0.22
0.42871094,4.609637E-4,3.4819916E-4,0.0011759609,-0.06,0.98,0.22,16656,9940.90,0,0,165,0.91,-2.52,0.07,-0.06,0.98,0.22
-0.57128906,-5.390374E-4,3.4819916E-4,1.759608E-4,-0.06,0.98,0.23,16663,9939.90,0,0,0,0.84,-2.52,0.00,-0.06,0.98,0.23
0.42871094,-0.003539037,-6.5180287E-4,0.0011759609,-0.06,0.98,0.23,16678,9940.90,0,0,165,0.63,-2.59,0.07,-0.06,0.98,0.23
1.6279297,-0.0025390368,0.0013481975,0.0011759609,-0.06,0.98,0.23,16696,9942.10,0,0,0,0.70,-2.45,0.07,-0.06,0.98,0.23
0.42871094,-0.0015390366,-6.5180287E-4,-0.0018240393,-0.06,0.98,0.23,16701,9940.90,0,0,165,0.77,-2.59,-0.14,-0.06,0.98,0.23
1.6279297,4.609637E-4,-6.5180287E-4,0.0011759609,-0.06,0.98,0.23,16732,9942.10,0,0,0,0.91,-2.59,0.07,-0.06,0.98,0.23
0.42871094,4.609637E-4,3.4819916E-4,-0.002824039,-0.06,0.98,0.23,16733,9940.90,0,0,165,0.91,-2.52,-0.21,-0.06,0.98,0.23
0.42871094,0.002460963,-6.5180287E-4,1.759608E-4,-0.06,0.98,0.23,16739,9940.90,0,0,0,1.05,-2.59,0.00,-0.06,0.98,0.23
0.42871094,4.609637E-4,-6.5180287E-4,0.002175961,-0.06,0.98,0.23,16754,9940.90,0,0,165,0.91,-2.59,0.14,-0.06,0.98,0.23
0.42871094,-0.0025390368,-6.5180287E-4,-8.240392E-4,-0.06,0.98,0.23,16776,9940.90,0,0,0,0.70,-2.59,-0.07,-0.06,0.98,0.23
-0.8720703,-5.390374E-4,3.4819916E-4,0.0011759609,-0.06,0.98,0.23,16777,9939.60,0,0,165,0.84,-2.52,0.07,-0.06,0.98,0.23
-0.57128906,0.002460963,0.0013481975,-8.240392E-4,-0.06,0.98,0.23,16793,9939.90,0,0,0,1.05,-2.45,-0.07,-0.06,0.98,0.23
0.42871094,0.0044609644,3.4819916E-4,-8.240392E-4,-0.06,0.98,0.22,16806,9940.90,0,0,165,1.19,-2.52,-0.07,-0.06,0.98,0.22
0.42871094,0.0014609639,3.4819916E-4,0.0011759609,-0.06,0.98,0.23,16813,9940.90,0,0,0,0.98,-2.52,0.07,-0.06,0.98,0.23
-0.57128906,-5.390374E-4,0.0023481958,0.0011759609,-0.06,0.98,0.23,16829,9939.90,0,0,165,0.84,-2.38,0.07,-0.06,0.98,0.23
0.42871094,0.0014609639,0.0013481975,0.0011759609,-0.06,0.98,0.22,16836,9940.90,0,0,0,0.98,-2.45,0.07,-0.06,0.98,0.22
0.42871094,-0.0015390366,3.4819916E-4,0.0011759609,-0.06,0.98,0.23,16853,9940.90,0,0,165,0.77,-2.52,0.07,-0.06,0.98,0.23
-0.57128906,0.002460963,0.0013481975,0.002175961,-0.06,0.98,0.23,16866,9939.90,0,0,0,1.05,-2.45,0.14,-0.06,0.98,0.23
-0.57128906,4.609637E-4,-6.5180287E-4,0.002175961,-0.06,0.98,0.22,16874,9939.90,0,0,165,0.91,-2.59,0.14,-0.06,0.98,0.22
0.42871094,0.0014609639,0.0013481975,1.759608E-4,-0.06,0.98,0.23,16889,9940.90,0,0,0,0.98,-2.45,0.00,-0.06,0.98,0.23
-0.57128906,0.002460963,3.4819916E-4,0.002175961,-0.06,0.98,0.22,16904,9939.90,0,0,165,1.05,-2.52,0.14,-0.06,0.98,0.22
-0.57128906,0.0014609639,0.0013481975,0.002175961,-0.06,0.98,0.23,16913,9939.90,0,0,0,0.98,-2.45,0.14,-0.06,0.98,0.23
-0.57128906,-0.0015390366,3.4819916E-4,0.002175961,-0.06,0.98,0.23,16926,9939.90,0,0,165,0.77,-2.52,0.14,-0.06,0.98,0.23
0.42871094,4.609637E-4,0.0013481975,1.759608E-4,-0.06,0.98,0.23,16949,9940.90,0,0,0,0.91,-2.45,0.00,-0.06,0.98,0.23
0.42871094,4.609637E-4,-6.5180287E-4,-8.240392E-4,-0.06,0.98,0.23,16952,9940.90,0,0,165,0.91,-2.59,-0.07,-0.06,0.98,0.23
-0.57128906,-5.390374E-4,-0.0016518049,-0.0018240393,-0.06,0.98,0.22,16964,9939.90,0,0,0,0.84,-2.66,-0.14,-0.06,0.98,0.22
0.42871094,-0.004539036,-6.5180287E-4,1.759608E-4,-0.06,0.98,0.23,16978,9940.90,0,0,165,0.56,-2.59,0.00,-0.06,0.98,0.23
-0.57128906,-0.004539036,-6.5180287E-4,0.0031759606,-0.06,0.98,0.23,16986,9939.90,0,0,0,0.56,-2.59,0.21,-0.06,0.98,0.23
-0.57128906,4.609637E-4,3.4819916E-4,0.004175961,-0.06,0.98,0.23,17002,9939.90,0,0,165,0.91,-2.52,0.28,-0.06,0.98,0.23
-0.57128906,0.008460963,0.0013481975,0.002175961,-0.06,0.98,0.23,17023,9939.90,0,0,0,1.47,-2.45,0.14,-0.06,0.98,0.23
0.42871094,0.012460964,0.0033481978,0.0031759606,-0.06,0.98,0.22,17024,9940.90,0,0,165,1.75,-2.31,0.21,-0.06,0.98,0.22
-0.57128906,0.007460963,3.4819916E-4,-8.240392E-4,-0.06,0.98,0.22,17039,9939.90,0,0,0,1.40,-2.52,-0.07,-0.06,0.98,0.22
0.42871094,0.0034609642,-0.0016518049,-8.240392E-4,-0.06,0.98,0.22,17054,9940.90,0,0,165,1.12,-2.66,-0.07,-0.06,0.98,0.22
0.7285156,-0.003539037,-0.0016518049,0.002175961,-0.06,0.98,0.22,17061,9941.20,0,0,0,0.63,-2.66,0.14,-0.06,0.98,0.22
0.42871094,-0.0015390366,3.4819916E-4,0.0011759609,-0.06,0.98,0.22,17076,9940.90,0,0,165,0.77,-2.52,0.07,-0.06,0.98,0.22
0.028320312,0.0044609644,0.0013481975,1.759608E-4,-0.06,0.98,0.22,17091,9940.50,0,0,0,1.19,-2.45,0.00,-0.06,0.98,0.22
-0.57128906,0.012460964,0.0023481958,1.759608E-4,-0.06,0.98,0.23,17098,9939.90,0,0,165,1.75,-2.38,0.00,-0.06,0.98,0.23
-0.57128906,0.017460963,0.0013481975,-8.240392E-4,-0.06,0.98,0.22,17114,9939.90,0,0,0,2.10,-2.45,-0.07,-0.06,0.98,0.22
0.42871094,0.008460963,0.0013481975,1.759608E-4,-0.06,0.98,0.22,17122,9940.90,0,0,165,1.47,-2.45,0.00,-0.06,0.98,0.22
0.028320312,-0.006539037,-6.5180287E-4,1.759608E-4,-0.06,0.98,0.23,17137,9940.50,0,0,0,0.42,-2.59,0.00,-0.06,0.98,0.23
0.42871094,-0.017539036,3.4819916E-4,0.002175961,-0.05,0.98,0.23,17152,9940.90,0,0,165,-0.35,-2.52,0.14,-0.05,0.98,0.23
0.42871094,-0.010539036,-6.5180287E-4,0.0011759609,-0.06,0.98,0.23,17159,9940.90,0,0,0,0.14,-2.59,0.07,-0.06,0.98,0.23
-0.57128906,0.0064609647,3.4819916E-4,0.002175961,-0.06,0.98,0.23,17173,9939.90,0,0,165,1.33,-2.52,0.14,-0.06,0.98,0.23
-0.57128906,0.023460962,0.0023481958,0.0031759606,-0.06,0.98,0.23,17189,9939.90,0,0,0,2.52,-2.38,0.21,-0.06,0.98,0.23
0.42871094,0.015460964,3.4819916E-4,0.0011759609,-0.05,0.98,0.22,17197,9940.90,0,0,165,1.96,-2.52,0.07,-0.05,0.98,0.22
0.42871094,-0.010539036,-0.0016518049,-8.240392E-4,-0.06,0.98,0.22,17212,9940.90,0,0,0,0.14,-2.66,-0.07,-0.06,0.98,0.22
-0.57128906,-0.020539038,-6.5180287E-4,0.0011759609,-0.05,0.98,0.23,17226,9939.90,0,0,165,-0.56,-2.59,0.07,-0.05,0.98,0.23
0.42871094,-0.016539037,3.4819916E-4,0.002175961,-0.05,0.98,0.23,17234,9940.90,0,0,0,-0.28,-2.52,0.14,-0.05,0.98,0.23
-0.27148438,-5.390374E-4,0.0013481975,0.0031759606,-0.06,0.98,0.23,17248,9940.20,0,0,165,0.84,-2.45,0.21,-0.06,0.98,0.23
-0.57128906,0.018460965,-6.5180287E-4,0.0011759609,-0.06,0.98,0.23,17264,9939.90,0,0,0,2.17,-2.59,0.07,-0.06,0.98,0.23
-1.2714844,0.021460965,0.0013481975,0.004175961,-0.06,0.98,0.23,17273,9939.20,0,0,165,2.38,-2.45,0.28,-0.06,0.98,0.23
-0.57128906,0.008460963,0.0013481975,0.004175961,-0.06,0.98,0.22,17286,9939.90,0,0,0,1.47,-2.45,0.28,-0.06,0.98,0.22
0.42871094,-0.0055390364,0.0013481975,0.004175961,-0.06,0.98,0.22,17301,9940.90,0,0,165,0.49,-2.45,0.28,-0.06,0.98,0.22
0.42871094,-0.011539036,0.0023481958,0.0031759606,-0.06,0.98,0.22,17309,9940.90,0,0,0,0.07,-2.38,0.21,-0.06,0.98,0.22
0.42871094,-0.0055390364,3.4819916E-4,0.0031759606,-0.06,0.98,0.22,17323,9940.90,0,0,165,0.49,-2.52,0.21,-0.06,0.98,0.22
-0.57128906,0.002460963,-6.5180287E-4,-8.240392E-4,-0.05,0.98,0.23,17338,9939.90,0,0,0,1.05,-2.59,-0.07,-0.05,0.98,0.23
-0.27148438,0.0034609642,3.4819916E-4,-8.240392E-4,-0.06,0.98,0.22,17346,9940.20,0,0,165,1.12,-2.52,-0.07,-0.06,0.98,0.22
-0.27148438,-0.0015390366,-6.5180287E-4,-8.240392E-4,-0.06,0.98,0.23,17362,9940.20,0,0,0,0.77,-2.59,-0.07,-0.06,0.98,0.23
-0.27148438,-0.0075390367,3.4819916E-4,1.759608E-4,-0.05,0.98,0.23,17376,9940.20,0,0,165,0.35,-2.52,0.00,-0.05,0.98,0.23
0.028320312,-0.009539037,0.0013481975,-8.240392E-4,-0.06,0.98,0.23,17385,9940.50,0,0,0,0.21,-2.45,-0.07,-0.06,0.98,0.23
0.42871094,-0.006539037,0.0023481958,0.0031759606,-0.06,0.98,0.23,17398,9940.90,0,0,165,0.42,-2.38,0.21,-0.06,0.98,0.23
0.42871094,0.002460963,0.0023481958,0.0031759606,-0.06,0.98,0.23,17414,9940.90,0,0,0,1.05,-2.38,0.21,-0.06,0.98,0.23
0.42871094,0.0054609627,0.0013481975,0.004175961,-0.06,0.98,0.23,17421,9940.90,0,0,165,1.26,-2.45,0.28,-0.06,0.98,0.23
0.42871094,0.0014609639,0.0013481975,0.004175961,-0.06,0.98,0.23,17436,9940.90,0,0,0,0.98,-2.45,0.28,-0.06,0.98,0.23
0.42871094,-0.0015390366,0.0013481975,0.004175961,-0.06,0.98,0.23,17459,9940.90,0,0,165,0.77,-2.45,0.28,-0.06,0.98,0.23
0.7285156,-0.0025390368,0.0023481958,0.0031759606,-0.06,0.98,0.23,17460,9941.20,0,0,0,0.70,-2.38,0.21,-0.06,0.98,0.23
1.328125,0.0014609639,0.0023481958,0.0061759604,-0.06,0.98,0.23,17473,9941.80,0,0,165,0.98,-2.38,0.42,-0.06,0.98,0.23
0.42871094,0.0014609639,0.0023481958,0.007175961,-0.06,0.98,0.23,17489,9940.90,0,0,0,0.98,-2.38,0.49,-0.06,0.98,0.23
-1.5712891,0.0034609642,0.0033481978,0.0061759604,-0.06,0.98,0.22,17497,9938.90,0,0,165,1.12,-2.31,0.42,-0.06,0.98,0.22
0.42871094,0.0014609639,0.0033481978,0.004175961,-0.06,0.98,0.22,17511,9940.90,0,0,0,0.98,-2.31,0.28,-0.06,0.98,0.22
0.42871094,-5.390374E-4,0.0023481958,0.007175961,-0.06,0.98,0.22,17542,9940.90,0,0,165,0.84,-2.38,0.49,-0.06,0.98,0.22
0.7285156,4.609637E-4,0.0013481975,0.0051759607,-0.06,0.98,0.22,17543,9941.20,0,0,0,0.91,-2.45,0.35,-0.06,0.98,0.22
0.7285156,4.609637E-4,-6.5180287E-4,0.004175961,-0.05,0.98,0.22,17548,9941.20,0,0,165,0.91,-2.59,0.28,-0.05,0.98,0.22
0.42871094,-5.390374E-4,0.0013481975,0.002175961,-0.05,0.98,0.22,17565,9940.90,0,0,0,0.84,-2.45,0.14,-0.05,0.98,0.22
0.028320312,-0.0025390368,-6.5180287E-4,-8.240392E-4,-0.05,0.98,0.22,17571,9940.50,0,0,165,0.70,-2.59,-0.07,-0.05,0.98,0.22
-0.57128906,-0.003539037,-6.5180287E-4,1.759608E-4,-0.06,0.98,0.23,17586,9939.90,0,0,0,0.63,-2.59,0.00,-0.06,0.98,0.23
0.42871094,-0.004539036,3.4819916E-4,0.0011759609,-0.05,0.98,0.23,17603,9940.90,0,0,165,0.56,-2.52,0.07,-0.05,0.98,0.23
-0.27148438,-0.004539036,-6.5180287E-4,-0.0018240393,-0.06,0.98,0.23,17609,9940.20,0,0,0,0.56,-2.59,-0.14,-0.06,0.98,0.23
-0.27148438,-5.390374E-4,0.0013481975,-0.0018240393,-0.06,0.98,0.23,17623,9940.20,0,0,165,0.84,-2.45,-0.14,-0.06,0.98,0.23
0.7285156,4.609637E-4,3.4819916E-4,-8.240392E-4,-0.05,0.98,0.22,17646,9941.20,0,0,0,0.91,-2.52,-0.07,-0.05,0.98,0.22
-0.27148438,0.0044609644,3.4819916E-4,1.759608E-4,-0.06,0.98,0.22,17648,9940.20,0,0,165,1.19,-2.52,0.00,-0.06,0.98,0.22
0.42871094,0.002460963,3.4819916E-4,-8.240392E-4,-0.06,0.98,0.22,17662,9940.90,0,0,0,1.05,-2.52,-0.07,-0.06,0.98,0.22
-0.57128906,-0.004539036,-0.0016518049,-0.004824039,-0.06,0.98,0.22,17684,9939.90,0,0,165,0.56,-2.66,-0.35,-0.06,0.98,0.22
-0.57128906,-0.009539037,-0.0016518049,-0.0058240388,-0.06,0.98,0.22,17686,9939.90,0,0,0,0.21,-2.66,-0.42,-0.06,0.98,0.22
0.42871094,-0.0075390367,-0.0026518032,-0.004824039,-0.06,0.98,0.23,17699,9940.90,0,0,165,0.35,-2.73,-0.35,-0.06,0.98,0.23
-0.27148438,-0.004539036,-0.0016518049,-0.0058240388,-0.06,0.98,0.23,17713,9940.20,0,0,0,0.56,-2.66,-0.42,-0.06,0.98,0.23
-0.57128906,-5.390374E-4,-0.0016518049,-0.002824039,-0.06,0.98,0.23,17721,9939.90,0,0,165,0.84,-2.66,-0.21,-0.06,0.98,0.23
1.6279297,-0.0015390366,-0.0016518049,-0.002824039,-0.06,0.98,0.23,17736,9942.10,0,0,0,0.77,-2.66,-0.21,-0.06,0.98,0.23
0.7285156,-0.003539037,-0.0026518032,-0.0038240394,-0.06,0.98,0.23,17743,9941.20,0,0,165,0.63,-2.73,-0.28,-0.06,0.98,0.23
0.7285156,-0.010539036,-6.5180287E-4,-0.002824039,-0.06,0.98,0.23,17759,9941.20,0,0,0,0.14,-2.59,-0.21,-0.06,0.98,0.23
0.7285156,-0.009539037,-6.5180287E-4,-8.240392E-4,-0.06,0.98,0.23,17774,9941.20,0,0,165,0.21,-2.59,-0.07,-0.06,0.98,0.23
-0.27148438,-0.003539037,3.4819916E-4,1.759608E-4,-0.06,0.98,0.23,17781,9940.20,0,0,0,0.63,-2.52,0.00,-0.06,0.98,0.23
1.328125,-0.0015390366,-0.0016518049,-0.0018240393,-0.06,0.98,0.23,17796,9941.80,0,0,165,0.77,-2.66,-0.14,-0.06,0.98,0.23
0.42871094,0.0014609639,-0.0016518049,1.759608E-4,-0.06,0.98,0.23,17812,9940.90,0,0,0,0.98,-2.66,0.00,-0.06,0.98,0.23
-0.27148438,0.0014609639,-6.5180287E-4,-0.0018240393,-0.06,0.98,0.23,17819,9940.20,0,0,165,0.98,-2.59,-0.14,-0.06,0.98,0.23
-0.57128906,-0.0055390364,-0.0016518049,0.0011759609,-0.06,0.98,0.23,17834,9939.90,0,0,0,0.49,-2.66,0.07,-0.06,0.98,0.23
0.7285156,-0.008539036,3.4819916E-4,0.0011759609,-0.06,0.98,0.23,17841,9941.20,0,0,165,0.28,-2.52,0.07,-0.06,0.98,0.23
-0.27148438,-0.0075390367,3.4819916E-4,1.759608E-4,-0.06,0.98,0.23,17856,9940.20,0,0,0,0.35,-2.52,0.00,-0.06,0.98,0.23
-0.27148438,0.0034609642,0.0033481978,0.002175961,-0.06,0.98,0.23,17871,9940.20,0,0,165,1.12,-2.31,0.14,-0.06,0.98,0.23
1.328125,0.007460963,0.0033481978,-0.0018240393,-0.06,0.98,0.23,17878,9941.80,0,0,0,1.40,-2.31,-0.14,-0.06,0.98,0.23
0.7285156,0.008460963,0.0013481975,1.759608E-4,-0.06,0.98,0.22,17903,9941.20,0,0,165,1.47,-2.45,0.00,-0.06,0.98,0.22
-0.27148438,0.0044609644,3.4819916E-4,-8.240392E-4,-0.06,0.98,0.22,17908,9940.20,0,0,0,1.19,-2.52,-0.07,-0.06,0.98,0.22
0.42871094,-0.004539036,3.4819916E-4,1.759608E-4,-0.05,0.98,0.22,17916,9940.90,0,0,165,0.56,-2.52,0.00,-0.05,0.98,0.22
-0.27148438,-0.009539037,3.4819916E-4,-8.240392E-4,-0.06,0.98,0.22,17931,9940.20,0,0,0,0.21,-2.52,-0.07,-0.06,0.98,0.22
0.7285156,-0.0055390364,3.4819916E-4,-0.002824039,-0.06,0.98,0.23,17946,9941.20,0,0,165,0.49,-2.52,-0.21,-0.06,0.98,0.23
-0.27148438,-0.0015390366,-6.5180287E-4,-0.002824039,-0.06,0.98,0.23,17955,9940.20,0,0,0,0.77,-2.59,-0.21,-0.06,0.98,0.23
-0.57128906,0.0014609639,3.4819916E-4,-8.240392E-4,-0.06,0.98,0.23,17968,9939.90,0,0,165,0.98,-2.52,-0.07,-0.06,0.98,0.23
-0.57128906,4.609637E-4,-6.5180287E-4,0.0011759609,-0.06,0.98,0.22,17983,9939.90,0,0,0,0.91,-2.59,0.07,-0.06,0.98,0.22
0.42871094,4.609637E-4,3.4819916E-4,-0.0018240393,-0.06,0.98,0.23,17991,9940.90,0,0,165,0.91,-2.52,-0.14,-0.06,0.98,0.23
-0.27148438,-5.390374E-4,3.4819916E-4,0.002175961,-0.06,0.98,0.23,18006,9940.20,0,0,0,0.84,-2.52,0.14,-0.06,0.98,0.23
0.7285156,4.609637E-4,0.0013481975,0.002175961,-0.06,0.98,0.22,18028,9941.20,0,0,165,0.91,-2.45,0.14,-0.06,0.98,0.22
0.7285156,0.002460963,-0.0016518049,-8.240392E-4,-0.05,0.98,0.23,18030,9941.20,0,0,0,1.05,-2.66,-0.07,-0.05,0.98,0.23
-1.5712891,0.0064609647,-0.0016518049,1.759608E-4,-0.06,0.98,0.22,18053,9938.90,0,0,165,1.33,-2.66,0.00,-0.06,0.98,0.22
2.6279297,0.002460963,3.4819916E-4,0.0011759609,-0.06,0.98,0.23,18067,9943.10,0,0,0,1.05,-2.52,0.07,-0.06,0.98,0.23
0.7285156,-0.003539037,-0.0016518049,1.759608E-4,-0.06,0.98,0.23,18068,9941.20,0,0,165,0.63,-2.66,0.00,-0.06,0.98,0.23
0.7285156,-0.0055390364,3.4819916E-4,0.0011759609,-0.06,0.98,0.23,18082,9941.20,0,0,0,0.49,-2.52,0.07,-0.06,0.98,0.23
-0.27148438,-5.390374E-4,-6.5180287E-4,-8.240392E-4,-0.06,0.98,0.23,18096,9940.20,0,0,165,0.84,-2.59,-0.07,-0.06,0.98,0.23
-0.27148438,0.0064609647,-6.5180287E-4,0.0011759609,-0.06,0.98,0.23,18103,9940.20,0,0,0,1.33,-2.59,0.07,-0.06,0.98,0.23
0.7285156,0.007460963,0.0013481975,1.759608E-4,-0.06,0.98,0.23,18119,9941.20,0,0,165,1.40,-2.45,0.00,-0.06,0.98,0.23
-0.27148438,0.0014609639,-6.5180287E-4,-0.0018240393,-0.06,0.98,0.23,18134,9940.20,0,0,0,0.98,-2.59,-0.14,-0.06,0.98,0.23
-0.27148438,-0.0025390368,0.0013481975,1.759608E-4,-0.05,0.98,0.23,18142,9940.20,0,0,165,0.70,-2.45,0.00,-0.05,0.98,0.23
0.028320312,-0.008539036,-0.0016518049,-8.240392E-4,-0.06,0.98,0.23,18164,9940.50,0,0,0,0.28,-2.66,-0.07,-0.06,0.98,0.23
-0.27148438,-0.004539036,3.4819916E-4,0.004175961,-0.06,0.98,0.23,18179,9940.20,0,0,165,0.56,-2.52,0.28,-0.06,0.98,0.23
-0.27148438,0.0054609627,0.0023481958,0.004175961,-0.06,0.98,0.23,18180,9940.20,0,0,0,1.26,-2.38,0.28,-0.06,0.98,0.23
0.7285156,0.008460963,0.0033481978,0.0011759609,-0.06,0.98,0.22,18204,9941.20,0,0,165,1.47,-2.31,0.07,-0.06,0.98,0.22
-0.27148438,0.0064609647,0.0013481975,-0.0018240393,-0.06,0.98,0.22,18208,9940.20,0,0,0,1.33,-2.45,-0.14,-0.06,0.98,0.22
-0.27148438,0.0014609639,3.4819916E-4,-8.240392E-4,-0.06,0.98,0.22,18219,9940.20,0,0,165,0.98,-2.52,-0.07,-0.06,0.98,0.22
0.7285156,-0.003539037,-6.5180287E-4,1.759608E-4,-0.06,0.98,0.22,18253,9941.20,0,0,0,0.63,-2.59,0.00,-0.06,0.98,0.22
0.028320312,-0.004539036,-6.5180287E-4,0.0011759609,-0.05,0.98,0.22,18256,9940.50,0,0,165,0.56,-2.59,0.07,-0.05,0.98,0.22
-0.27148438,0.0014609639,3.4819916E-4,0.0011759609,-0.06,0.98,0.23,18263,9940.20,0,0,0,0.98,-2.52,0.07,-0.06,0.98,0.23
0.7285156,0.007460963,3.4819916E-4,-0.0018240393,-0.06,0.98,0.23,18269,9941.20,0,0,165,1.40,-2.52,-0.14,-0.06,0.98,0.23
-0.27148438,0.008460963,3.4819916E-4,-0.0038240394,-0.06,0.98,0.23,18276,9940.20,0,0,0,1.47,-2.52,-0.28,-0.06,0.98,0.23
-0.27148438,0.008460963,-6.5180287E-4,-8.240392E-4,-0.06,0.98,0.22,18291,9940.20,0,0,165,1.47,-2.59,-0.07,-0.06,0.98,0.22
0.7285156,-0.003539037,-0.0016518049,0.0011759609,-0.06,0.98,0.23,18310,9941.20,0,0,0,0.63,-2.66,0.07,-0.06,0.98,0.23
-0.27148438,-0.010539036,-6.5180287E-4,0.002175961,-0.06,0.98,0.23,18314,9940.20,0,0,165,0.14,-2.59,0.14,-0.06,0.98,0.23
-0.27148438,-0.013539037,-6.5180287E-4,0.002175961,-0.06,0.98,0.23,18328,9940.20,0,0,0,-0.07,-2.59,0.14,-0.06,0.98,0.23
0.7285156,4.609637E-4,-6.5180287E-4,1.759608E-4,-0.06,0.98,0.23,18346,9941.20,0,0,165,0.91,-2.59,0.00,-0.06,0.98,0.23
-0.27148438,0.0104609635,0.0013481975,0.004175961,-0.06,0.98,0.23,18355,9940.20,0,0,0,1.61,-2.45,0.28,-0.06,0.98,0.23
-0.27148438,0.016460963,3.4819916E-4,0.0031759606,-0.06,0.98,0.22,18370,9940.20,0,0,165,2.03,-2.52,0.21,-0.06,0.98,0.22
-0.27148438,0.0034609642,-6.5180287E-4,-0.0018240393,-0.06,0.98,0.22,18390,9940.20,0,0,0,1.12,-2.59,-0.14,-0.06,0.98,0.22
-0.27148438,-0.015539036,-0.0026518032,-8.240392E-4,-0.05,0.98,0.23,18391,9940.20,0,0,165,-0.21,-2.73,-0.07,-0.05,0.98,0.23
-0.57128906,-0.020539038,-0.0016518049,0.0011759609,-0.05,0.98,0.23,18404,9939.90,0,0,0,-0.56,-2.66,0.07,-0.05,0.98,0.23
-0.27148438,-0.009539037,-0.0016518049,-0.0018240393,-0.06,0.98,0.23,18418,9940.20,0,0,165,0.21,-2.66,-0.14,-0.06,0.98,0.23
-0.27148438,0.0064609647,3.4819916E-4,-8.240392E-4,-0.06,0.98,0.23,18434,9940.20,0,0,0,1.33,-2.52,-0.07,-0.06,0.98,0.23
-0.27148438,0.014460964,-6.5180287E-4,-0.0018240393,-0.06,0.98,0.23,18441,9940.20,0,0,165,1.89,-2.59,-0.14,-0.06,0.98,0.23
-0.27148438,0.011460962,0.0023481958,1.759608E-4,-0.06,0.98,0.22,18457,9940.20,0,0,0,1.68,-2.38,0.00,-0.06,0.98,0.22
-0.27148438,-5.390374E-4,0.0013481975,0.002175961,-0.06,0.98,0.23,18463,9940.20,0,0,165,0.84,-2.45,0.14,-0.06,0.98,0.23
0.7285156,-0.009539037,0.0013481975,0.002175961,-0.06,0.98,0.23,18486,9941.20,0,0,0,0.21,-2.45,0.14,-0.06,0.98,0.23
-0.27148438,-0.009539037,0.0013481975,1.759608E-4,-0.05,0.98,0.23,18493,9940.20,0,0,165,0.21,-2.45,0.00,-0.05,0.98,0.23
-0.27148438,-0.0025390368,3.4819916E-4,-0.0038240394,-0.05,0.98,0.23,18502,9940.20,0,0,0,0.70,-2.52,-0.28,-0.05,0.98,0.23
0.7285156,0.0044609644,-6.5180287E-4,-0.002824039,-0.06,0.98,0.22,18523,9941.20,0,0,165,1.19,-2.59,-0.21,-0.06,0.98,0.22
-0.27148438,0.0064609647,0.0023481958,1.759608E-4,-0.06,0.98,0.23,18531,9940.20,0,0,0,1.33,-2.38,0.00,-0.06,0.98,0.23
0.7285156,-5.390374E-4,3.4819916E-4,-8.240392E-4,-0.06,0.98,0.23,18538,9941.20,0,0,165,0.84,-2.52,-0.07,-0.06,0.98,0.23
-0.27148438,-0.008539036,0.0023481958,-8.240392E-4,-0.06,0.98,0.23,18553,9940.20,0,0,0,0.28,-2.38,-0.07,-0.06,0.98,0.23
0.7285156,-0.006539037,-6.5180287E-4,-8.240392E-4,-0.06,0.98,0.23,18569,9941.20,0,0,165,0.42,-2.59,-0.07,-0.06,0.98,0.23
-0.27148438,-0.003539037,0.0013481975,1.759608E-4,-0.06,0.98,0.23,18575,9940.20,0,0,0,0.63,-2.45,0.00,-0.06,0.98,0.23
-0.27148438,0.0014609639,-0.0016518049,-0.0018240393,-0.06,0.98,0.23,18598,9940.20,0,0,165,0.98,-2.66,-0.14,-0.06,0.98,0.23
0.028320312,0.002460963,3.4819916E-4,0.002175961,-0.06,0.98,0.23,18606,9940.50,0,0,0,1.05,-2.52,0.14,-0.06,0.98,0.23
-1.2714844,-5.390374E-4,0.0013481975,0.0011759609,-0.06,0.98,0.23,18622,9939.20,0,0,165,0.84,-2.45,0.07,-0.06,0.98,0.23
-0.27148438,4.609637E-4,3.4819916E-4,0.0011759609,-0.06,0.98,0.23,18629,9940.20,0,0,0,0.91,-2.52,0.07,-0.06,0.98,0.23
0.7285156,4.609637E-4,3.4819916E-4,0.0011759609,-0.06,0.98,0.23,18643,9941.20,0,0,165,0.91,-2.52,0.07,-0.06,0.98,0.23
-0.27148438,0.002460963,0.0013481975,0.0011759609,-0.06,0.98,0.23,18652,9940.20,0,0,0,1.05,-2.45,0.07,-0.06,0.98,0.23
0.7285156,0.0044609644,0.0023481958,0.0031759606,-0.06,0.98,0.22,18666,9941.20,0,0,165,1.19,-2.38,0.21,-0.06,0.98,0.22
0.7285156,0.0034609642,3.4819916E-4,0.002175961,-0.06,0.98,0.23,18681,9941.20,0,0,0,1.12,-2.52,0.14,-0.06,0.98,0.23
-0.27148438,4.609637E-4,3.4819916E-4,0.0031759606,-0.06,0.98,0.23,18689,9940.20,0,0,165,0.91,-2.52,0.21,-0.06,0.98,0.23
-0.27148438,-0.0025390368,-6.5180287E-4,-0.002824039,-0.05,0.98,0.23,18712,9940.20,0,0,0,0.70,-2.59,-0.21,-0.05,0.98,0.23
-0.27148438,-0.0015390366,3.4819916E-4,-8.240392E-4,-0.06,0.98,0.23,18718,9940.20,0,0,165,0.77,-2.52,-0.07,-0.06,0.98,0.23
0.7285156,-5.390374E-4,0.0013481975,-8.240392E-4,-0.05,0.98,0.23,18726,9941.20,0,0,0,0.84,-2.45,-0.07,-0.05,0.98,0.23
-0.27148438,-0.0025390368,-0.0016518049,-8.240392E-4,-0.06,0.98,0.23,18742,9940.20,0,0,165,0.70,-2.66,-0.07,-0.06,0.98,0.23
-0.27148438,-5.390374E-4,-6.5180287E-4,0.0011759609,-0.06,0.98,0.23,18756,9940.20,0,0,0,0.84,-2.59,0.07,-0.06,0.98,0.23
0.42871094,-5.390374E-4,-6.5180287E-4,1.759608E-4,-0.06,0.98,0.23,18771,9940.90,0,0,165,0.84,-2.59,0.00,-0.06,0.98,0.23
-0.27148438,0.0014609639,3.4819916E-4,-8.240392E-4,-0.06,0.98,0.23,18778,9940.20,0,0,0,0.98,-2.52,-0.07,-0.06,0.98,0.23
-1.2714844,-5.390374E-4,0.0013481975,-8.240392E-4,-0.06,0.98,0.23,18794,9939.20,0,0,165,0.84,-2.45,-0.07,-0.06,0.98,0.23
-0.27148438,-0.0015390366,-0.0016518049,-0.0018240393,-0.06,0.98,0.23,18809,9940.20,0,0,0,0.77,-2.66,-0.14,-0.06,0.98,0.23
0.7285156,-5.390374E-4,-0.0016518049,-0.0018240393,-0.06,0.98,0.23,18816,9941.20,0,0,165,0.84,-2.66,-0.14,-0.06,0.98,0.23
0.028320312,0.002460963,-6.5180287E-4,-0.002824039,-0.06,0.98,0.23,18831,9940.50,0,0,0,1.05,-2.59,-0.21,-0.06,0.98,0.23
-0.27148438,0.009460963,-6.5180287E-4,1.759608E-4,-0.06,0.98,0.23,18846,9940.20,0,0,165,1.54,-2.59,0.00,-0.06,0.98,0.23
-0.27148438,0.0044609644,3.4819916E-4,0.002175961,-0.06,0.98,0.22,18854,9940.20,0,0,0,1.19,-2.52,0.14,-0.06,0.98,0.22
-0.27148438,0.0034609642,0.0023481958,0.002175961,-0.06,0.98,0.23,18869,9940.20,0,0,165,1.12,-2.38,0.14,-0.06,0.98,0.23
0.7285156,-0.0025390368,3.4819916E-4,0.002175961,-0.06,0.98,0.23,18884,9941.20,0,0,0,0.70,-2.52,0.14,-0.06,0.98,0.23
-0.8720703,-0.0015390366,-0.0016518049,0.002175961,-0.06,0.98,0.23,18892,9939.60,0,0,165,0.77,-2.66,0.14,-0.06,0.98,0.23
-0.27148438,0.0064609647,3.4819916E-4,0.0011759609,-0.06,0.98,0.22,18906,9940.20,0,0,0,1.33,-2.52,0.07,-0.06,0.98,0.22
-0.27148438,0.007460963,0.0013481975,0.002175961,-0.06,0.98,0.23,18922,9940.20,0,0,165,1.40,-2.45,0.14,-0.06,0.98,0.23
-0.27148438,0.002460963,3.4819916E-4,0.0031759606,-0.06,0.98,0.23,18929,9940.20,0,0,0,1.05,-2.52,0.21,-0.06,0.98,0.23
0.7285156,-5.390374E-4,3.4819916E-4,0.002175961,-0.06,0.98,0.23,18944,9941.20,0,0,165,0.84,-2.52,0.14,-0.06,0.98,0.23
0.028320312,-5.390374E-4,0.0013481975,0.002175961,-0.05,0.98,0.23,18966,9940.50,0,0,0,0.84,-2.45,0.14,-0.05,0.98,0.23
0.028320312,-5.390374E-4,0.0013481975,1.759608E-4,-0.06,0.98,0.23,18967,9940.50,0,0,165,0.84,-2.45,0.00,-0.06,0.98,0.23
1.0283203,0.0064609647,3.4819916E-4,-8.240392E-4,-0.06,0.98,0.23,18981,9941.50,0,0,0,1.33,-2.52,-0.07,-0.06,0.98,0.23
-0.57128906,0.008460963,0.0013481975,0.0011759609,-0.06,0.98,0.23,18988,9939.90,0,0,165,1.47,-2.45,0.07,-0.06,0.98,0.23
-0.27148438,0.0034609642,0.0013481975,1.759608E-4,-0.06,0.98,0.23,19003,9940.20,0,0,0,1.12,-2.45,0.00,-0.06,0.98,0.23
0.028320312,0.0044609644,3.4819916E-4,0.004175961,-0.05,0.98,0.23,19019,9940.50,0,0,165,1.19,-2.52,0.28,-0.05,0.98,0.23
1.0283203,-0.0015390366,0.0013481975,0.002175961,-0.06,0.98,0.23,19026,9941.50,0,0,0,0.77,-2.45,0.14,-0.06,0.98,0.23
0.7285156,-0.0025390368,0.0013481975,0.0011759609,-0.06,0.98,0.23,19041,9941.20,0,0,165,0.70,-2.45,0.07,-0.06,0.98,0.23
-0.27148438,0.0014609639,0.0013481975,1.759608E-4,-0.06,0.98,0.23,19056,9940.20,0,0,0,0.98,-2.45,0.00,-0.06,0.98,0.23
0.028320312,0.0034609642,3.4819916E-4,0.002175961,-0.06,0.98,0.23,19064,9940.50,0,0,165,1.12,-2.52,0.14,-0.06,0.98,0.23
0.028320312,0.0104609635,3.4819916E-4,1.759608E-4,-0.06,0.98,0.22,19078,9940.50,0,0,0,1.61,-2.52,0.00,-0.06,0.98,0.22
1.0283203,0.009460963,0.0013481975,0.0011759609,-0.06,0.98,0.22,19094,9941.50,0,0,165,1.54,-2.45,0.07,-0.06,0.98,0.22
-0.27148438,0.002460963,3.4819916E-4,0.002175961,-0.06,0.98,0.22,19102,9940.20,0,0,0,1.05,-2.52,0.14,-0.06,0.98,0.22
1.0283203,-0.0015390366,3.4819916E-4,0.004175961,-0.05,0.98,0.23,19116,9941.50,0,0,165,0.77,-2.52,0.28,-0.05,0.98,0.23
-0.27148438,-0.0015390366,0.0013481975,0.0031759606,-0.05,0.98,0.22,19132,9940.20,0,0,0,0.77,-2.45,0.21,-0.05,0.98,0.22
0.028320312,-0.0015390366,3.4819916E-4,0.0011759609,-0.06,0.98,0.23,19138,9940.50,0,0,165,0.77,-2.52,0.07,-0.06,0.98,0.23
0.028320312,4.609637E-4,-0.0026518032,-0.0018240393,-0.06,0.98,0.23,19153,9940.50,0,0,0,0.91,-2.73,-0.14,-0.06,0.98,0.23
-0.27148438,4.609637E-4,-0.0016518049,-0.002824039,-0.06,0.98,0.23,19169,9940.20,0,0,165,0.91,-2.66,-0.21,-0.06,0.98,0.23
0.7285156,-5.390374E-4,-0.0016518049,-8.240392E-4,-0.06,0.98,0.23,19176,9941.20,0,0,0,0.84,-2.66,-0.07,-0.06,0.98,0.23
-0.27148438,4.609637E-4,3.4819916E-4,0.0011759609,-0.06,0.98,0.23,19192,9940.20,0,0,165,0.91,-2.52,0.07,-0.06,0.98,0.23
0.7285156,-0.003539037,3.4819916E-4,-8.240392E-4,-0.06,0.98,0.23,19206,9941.20,0,0,0,0.63,-2.52,-0.07,-0.06,0.98,0.23
1.0283203,-5.390374E-4,0.0023481958,0.0011759609,-0.06,0.98,0.23,19213,9941.50,0,0,165,0.84,-2.38,0.07,-0.06,0.98,0.23
-0.27148438,0.0054609627,0.0023481958,1.759608E-4,-0.06,0.98,0.23,19229,9940.20,0,0,0,1.26,-2.38,0.00,-0.06,0.98,0.23
1.6279297,0.011460962,0.0023481958,0.002175961,-0.06,0.98,0.22,19253,9942.10,0,0,165,1.68,-2.38,0.14,-0.06,0.98,0.22
0.028320312,0.009460963,-6.5180287E-4,1.759608E-4,-0.06,0.98,0.22,19254,9940.50,0,0,0,1.54,-2.59,0.00,-0.06,0.98,0.22
0.7285156,0.0044609644,-6.5180287E-4,0.002175961,-0.06,0.98,0.23,19266,9941.20,0,0,165,1.19,-2.59,0.14,-0.06,0.98,0.23
-0.27148438,-0.0075390367,-0.0016518049,-8.240392E-4,-0.06,0.99,0.23,19281,9940.20,0,0,0,0.35,-2.66,-0.07,-0.06,0.99,0.23
1.0283203,-0.012539037,-0.0026518032,-8.240392E-4,-0.06,0.98,0.23,19288,9941.50,0,0,165,0.00,-2.73,-0.07,-0.06,0.98,0.23
0.7285156,-0.0055390364,-0.0036518015,-0.0038240394,-0.06,0.98,0.23,19304,9941.20,0,0,0,0.49,-2.80,-0.28,-0.06,0.98,0.23
0.028320312,0.002460963,3.4819916E-4,-0.0018240393,-0.06,0.98,0.23,19319,9940.50,0,0,165,1.05,-2.52,-0.14,-0.06,0.98,0.23
-0.27148438,0.009460963,3.4819916E-4,-0.002824039,-0.05,0.98,0.23,19326,9940.20,0,0,0,1.54,-2.52,-0.21,-0.05,0.98,0.23
0.028320312,0.011460962,-6.5180287E-4,-0.002824039,-0.06,0.98,0.22,19342,9940.50,0,0,165,1.68,-2.59,-0.21,-0.06,0.98,0.22
0.7285156,0.008460963,0.0013481975,1.759608E-4,-0.06,0.98,0.22,19355,9941.20,0,0,0,1.47,-2.45,0.00,-0.06,0.98,0.22
0.7285156,4.609637E-4,3.4819916E-4,0.0011759609,-0.06,0.98,0.22,19364,9941.20,0,0,165,0.91,-2.52,0.07,-0.06,0.98,0.22
-0.27148438,-0.013539037,-6.5180287E-4,0.0011759609,-0.06,0.98,0.22,19379,9940.20,0,0,0,-0.07,-2.59,0.07,-0.06,0.98,0.22
0.42871094,-0.013539037,3.4819916E-4,0.0011759609,-0.06,0.98,0.22,19394,9940.90,0,0,165,-0.07,-2.52,0.07,-0.06,0.98,0.22
0.028320312,-0.003539037,3.4819916E-4,-8.240392E-4,-0.06,0.98,0.23,19403,9940.50,0,0,0,0.63,-2.52,-0.07,-0.06,0.98,0.23
-0.27148438,0.009460963,0.0013481975,0.002175961,-0.06,0.98,0.23,19416,9940.20,0,0,165,1.54,-2.45,0.14,-0.06,0.98,0.23
-0.8720703,0.015460964,-6.5180287E-4,-8.240392E-4,-0.06,0.98,0.23,19432,9939.60,0,0,0,1.96,-2.59,-0.07,-0.06,0.98,0.23
0.028320312,0.0064609647,-6.5180287E-4,-8.240392E-4,-0.06,0.98,0.23,19439,9940.50,0,0,165,1.33,-2.59,-0.07,-0.06,0.98,0.23
-0.27148438,-0.0055390364,3.4819916E-4,0.0011759609,-0.05,0.98,0.22,19454,9940.20,0,0,0,0.49,-2.52,0.07,-0.05,0.98,0.22
1.0283203,-0.013539037,3.4819916E-4,0.25517595,-0.06,0.98,0.22,19469,9941.50,0,0,165,-0.07,-2.52,17.85,-0.06,0.98,0.22
0.028320312,-0.013539037,3.4819916E-4,1.759608E-4,-0.05,0.98,0.23,19476,9940.50,0,0,0,-0.07,-2.52,0.00,-0.05,0.98,0.23
0.028320312,4.609637E-4,3.4819916E-4,1.759608E-4,-0.06,0.98,0.23,19492,9940.50,0,0,165,0.91,-2.52,0.00,-0.06,0.98,0.23
0.028320312,0.009460963,3.4819916E-4,1.759608E-4,-0.06,0.98,0.23,19506,9940.50,0,0,0,1.54,-2.52,0.00,-0.06,0.98,0.23
0.028320312,0.009460963,3.4819916E-4,-8.240392E-4,-0.06,0.98,0.23,19513,9940.50,0,0,165,1.54,-2.52,-0.07,-0.06,0.98,0.23
0.028320312,-0.0055390364,3.4819916E-4,-0.0018240393,-0.06,0.98,0.22,19536,9940.50,0,0,0,0.49,-2.52,-0.14,-0.06,0.98,0.22
0.028320312,-0.014539037,3.4819916E-4,-0.0018240393,-0.06,0.98,0.23,19543,9940.50,0,0,165,-0.14,-2.52,-0.14,-0.06,0.98,0.23
0.028320312,-0.0075390367,-6.5180287E-4,-8.240392E-4,-0.06,0.98,0.23,19551,9940.50,0,0,0,0.35,-2.59,-0.07,-0.06,0.98,0.23
-0.8720703,0.0034609642,0.0013481975,1.759608E-4,-0.06,0.98,0.23,19566,9939.60,0,0,165,1.12,-2.45,0.00,-0.06,0.98,0.23
0.028320312,0.009460963,0.0013481975,-0.0038240394,-0.06,0.98,0.22,19582,9940.50,0,0,0,1.54,-2.45,-0.28,-0.06,0.98,0.22
-0.27148438,0.007460963,-6.5180287E-4,-0.002824039,-0.06,0.98,0.22,19596,9940.20,0,0,165,1.40,-2.59,-0.21,-0.06,0.98,0.22
-0.27148438,0.002460963,0.0013481975,1.759608E-4,-0.06,0.99,0.22,19603,9940.20,0,0,0,1.05,-2.45,0.00,-0.06,0.99,0.22
1.0283203,-0.0025390368,-6.5180287E-4,0.004175961,-0.06,0.98,0.22,19619,9941.50,0,0,165,0.70,-2.59,0.28,-0.06,0.98,0.22
-0.27148438,-0.0025390368,-6.5180287E-4,1.759608E-4,-0.06,0.98,0.22,19626,9940.20,0,0,0,0.70,-2.59,0.00,-0.06,0.98,0.22
0.028320312,4.609637E-4,-0.0016518049,-8.240392E-4,-0.06,0.98,0.23,19641,9940.50,0,0,165,0.91,-2.66,-0.07,-0.06,0.98,0.23
-0.27148438,0.002460963,-0.0026518032,-8.240392E-4,-0.06,0.98,0.22,19656,9940.20,0,0,0,1.05,-2.73,-0.07,-0.06,0.98,0.22
0.028320312,0.002460963,-0.0026518032,-8.240392E-4,-0.06,0.98,0.23,19664,9940.50,0,0,165,1.05,-2.73,-0.07,-0.06,0.98,0.23
0.028320312,-5.390374E-4,3.4819916E-4,0.0011759609,-0.06,0.98,0.23,19678,9940.50,0,0,0,0.84,-2.52,0.07,-0.06,0.98,0.23
0.028320312,-0.0055390364,3.4819916E-4,-0.0018240393,-0.06,0.98,0.23,19693,9940.50,0,0,165,0.49,-2.52,-0.14,-0.06,0.98,0.23
1.0283203,-0.008539036,-6.5180287E-4,-8.240392E-4,-0.05,0.98,0.23,19701,9941.50,0,0,0,0.28,-2.59,-0.07,-0.05,0.98,0.23
1.328125,-0.003539037,3.4819916E-4,1.759608E-4,-0.05,0.98,0.23,19716,9941.80,0,0,165,0.63,-2.52,0.00,-0.05,0.98,0.23
0.028320312,0.002460963,-6.5180287E-4,1.759608E-4,-0.06,0.98,0.23,19732,9940.50,0,0,0,1.05,-2.59,0.00,-0.06,0.98,0.23
1.0283203,0.008460963,0.0013481975,0.0031759606,-0.05,0.98,0.23,19739,9941.50,0,0,165,1.47,-2.45,0.21,-0.05,0.98,0.23
1.0283203,0.0014609639,0.0013481975,-8.240392E-4,-0.05,0.98,0.22,19754,9941.50,0,0,0,0.98,-2.45,-0.07,-0.05,0.98,0.22
0.028320312,-0.003539037,3.4819916E-4,-8.240392E-4,-0.06,0.98,0.23,19769,9940.50,0,0,165,0.63,-2.52,-0.07,-0.06,0.98,0.23
1.0283203,-0.0025390368,0.0013481975,-8.240392E-4,-0.06,0.98,0.23,19776,9941.50,0,0,0,0.70,-2.45,-0.07,-0.06,0.98,0.23
0.028320312,4.609637E-4,0.0013481975,0.0011759609,-0.06,0.98,0.22,19791,9940.50,0,0,165,0.91,-2.45,0.07,-0.06,0.98,0.22
0.028320312,0.0014609639,3.4819916E-4,-8.240392E-4,-0.06,0.98,0.23,19806,9940.50,0,0,0,0.98,-2.52,-0.07,-0.06,0.98,0.23
0.028320312,-0.0015390366,0.0023481958,0.0011759609,-0.06,0.98,0.23,19822,9940.50,0,0,165,0.77,-2.38,0.07,-0.06,0.98,0.23
0.028320312,4.609637E-4,-0.0016518049,-0.0018240393,-0.06,0.98,0.22,19828,9940.50,0,0,0,0.91,-2.66,-0.14,-0.06,0.98,0.22
0.028320312,0.0014609639,3.4819916E-4,-8.240392E-4,-0.06,0.98,0.23,19844,9940.50,0,0,165,0.98,-2.52,-0.07,-0.06,0.98,0.23
0.028320312,4.609637E-4,0.0023481958,1.759608E-4,-0.06,0.98,0.23,19853,9940.50,0,0,0,0.91,-2.38,0.00,-0.06,0.98,0.23
0.028320312,0.002460963,3.4819916E-4,1.759608E-4,-0.06,0.98,0.22,19866,9940.50,0,0,165,1.05,-2.52,0.00,-0.06,0.98,0.22
1.0283203,0.0014609639,3.4819916E-4,1.759608E-4,-0.06,0.98,0.22,19883,9941.50,0,0,0,0.98,-2.52,0.00,-0.06,0.98,0.22
0.028320312,-5.390374E-4,3.4819916E-4,-8.240392E-4,-0.06,0.98,0.22,19888,9940.50,0,0,165,0.84,-2.52,-0.07,-0.06,0.98,0.22
0.028320312,-0.0055390364,3.4819916E-4,1.759608E-4,-0.06,0.98,0.22,19904,9940.50,0,0,0,0.49,-2.52,0.00,-0.06,0.98,0.22
0.028320312,-0.0055390364,-6.5180287E-4,-0.002824039,-0.06,0.98,0.23,19919,9940.50,0,0,165,0.49,-2.59,-0.21,-0.06,0.98,0.23
-0.27148438,-0.004539036,-0.0016518049,-0.002824039,-0.06,0.98,0.23,19926,9940.20,0,0,0,0.56,-2.66,-0.21,-0.06,0.98,0.23
1.0283203,-5.390374E-4,-0.0016518049,-0.002824039,-0.06,0.98,0.23,19942,9941.50,0,0,165,0.84,-2.66,-0.21,-0.06,0.98,0.23
0.028320312,0.0014609639,-0.0016518049,0.0011759609,-0.06,0.98,0.23,19956,9940.50,0,0,0,0.98,-2.66,0.07,-0.06,0.98,0.23
0.028320312,-0.0015390366,3.4819916E-4,0.002175961,-0.06,0.98,0.23,19963,9940.50,0,0,165,0.77,-2.52,0.14,-0.06,0.98,0.23
0.028320312,-0.003539037,-6.5180287E-4,-0.0018240393,-0.06,0.98,0.23,19978,9940.50,0,0,0,0.63,-2.59,-0.14,-0.06,0.98,0.23
1.0283203,0.0014609639,-6.5180287E-4,1.759608E-4,-0.06,0.98,0.23,19994,9941.50,0,0,165,0.98,-2.59,0.00,-0.06,0.98,0.23
0.028320312,0.0064609647,-6.5180287E-4,-8.240392E-4,-0.06,0.98,0.23,20003,9940.50,0,0,0,1.33,-2.59,-0.07,-0.06,0.98,0.23
0.028320312,0.008460963,0.0013481975,0.0011759609,-0.06,0.98,0.22,20023,9940.50,0,0,165,1.47,-2.45,0.07,-0.06,0.98,0.22
-0.8720703,0.0034609642,3.4819916E-4,-0.002824039,-0.06,0.98,0.22,20032,9939.60,0,0,0,1.12,-2.52,-0.21,-0.06,0.98,0.22
-0.8720703,-0.003539037,-6.5180287E-4,-0.002824039,-0.06,0.98,0.23,20039,9939.60,0,0,165,0.63,-2.59,-0.21,-0.06,0.98,0.23
0.028320312,-0.004539036,-0.0016518049,1.759608E-4,-0.06,0.98,0.23,20054,9940.50,0,0,0,0.56,-2.66,0.00,-0.06,0.98,0.23
0.028320312,-5.390374E-4,-0.0016518049,-0.002824039,-0.06,0.98,0.23,20069,9940.50,0,0,165,0.84,-2.66,-0.21,-0.06,0.98,0.23
0.028320312,0.0014609639,-6.5180287E-4,0.0011759609,-0.06,0.98,0.23,20076,9940.50,0,0,0,0.98,-2.59,0.07,-0.06,0.98,0.23
-0.8720703,-0.0015390366,-6.5180287E-4,0.0011759609,-0.06,0.98,0.23,20090,9939.60,0,0,165,0.77,-2.59,0.07,-0.06,0.98,0.23
0.028320312,4.609637E-4,0.0023481958,0.004175961,-0.06,0.99,0.23,20106,9940.50,0,0,0,0.91,-2.38,0.28,-0.06,0.99,0.23
0.028320312,-5.390374E-4,0.0023481958,0.0031759606,-0.06,0.98,0.23,20122,9940.50,0,0,165,0.84,-2.38,0.21,-0.06,0.98,0.23
2.0283203,0.0044609644,0.0033481978,0.004175961,-0.06,0.98,0.23,20129,9942.50,0,0,0,1.19,-2.31,0.28,-0.06,0.98,0.23
0.028320312,0.007460963,0.0033481978,0.0061759604,-0.06,0.98,0.22,20144,9940.50,0,0,165,1.40,-2.31,0.42,-0.06,0.98,0.22
0.028320312,0.007460963,0.004348196,0.0011759609,-0.05,0.98,0.22,20152,9940.50,0,0,0,1.40,-2.24,0.07,-0.05,0.98,0.22
0.028320312,0.0014609639,3.4819916E-4,-0.002824039,-0.06,0.98,0.23,20167,9940.50,0,0,165,0.98,-2.52,-0.21,-0.06,0.98,0.23
-0.8720703,-0.0025390368,-0.0026518032,-0.0038240394,-0.06,0.98,0.22,20181,9939.60,0,0,0,0.70,-2.73,-0.28,-0.06,0.98,0.22
0.028320312,-0.004539036,-0.0026518032,-0.0018240393,-0.06,0.98,0.22,20189,9940.50,0,0,165,0.56,-2.73,-0.14,-0.06,0.98,0.22
0.028320312,-0.0055390364,-6.5180287E-4,-0.0018240393,-0.06,0.98,0.22,20204,9940.50,0,0,0,0.49,-2.59,-0.14,-0.06,0.98,0.22
0.028320312,-5.390374E-4,0.0013481975,0.0011759609,-0.06,0.98,0.23,20219,9940.50,0,0,165,0.84,-2.45,0.07,-0.06,0.98,0.23
1.0283203,0.008460963,-6.5180287E-4,-8.240392E-4,-0.06,0.98,0.23,20226,9941.50,0,0,0,1.47,-2.59,-0.07,-0.06,0.98,0.23
1.0283203,0.016460963,-6.5180287E-4,1.759608E-4,-0.06,0.98,0.22,20241,9941.50,0,0,165,2.03,-2.59,0.00,-0.06,0.98,0.22
0.028320312,0.012460964,-0.0016518049,0.0011759609,-0.06,0.99,0.23,20256,9940.50,0,0,0,1.75,-2.66,0.07,-0.06,0.99,0.23
0.028320312,-5.390374E-4,-6.5180287E-4,0.0031759606,-0.06,0.98,0.22,20263,9940.50,0,0,165,0.84,-2.59,0.21,-0.06,0.98,0.22
1.0283203,-0.017539036,-6.5180287E-4,1.759608E-4,-0.06,0.98,0.23,20279,9941.50,0,0,0,-0.35,-2.59,0.00,-0.06,0.98,0.23
1.0283203,-0.017539036,3.4819916E-4,-0.0018240393,-0.05,0.98,0.23,20294,9941.50,0,0,165,-0.35,-2.52,-0.14,-0.05,0.98,0.23
0.028320312,-0.0015390366,-0.0016518049,-0.0018240393,-0.06,0.98,0.23,20302,9940.50,0,0,0,0.77,-2.66,-0.14,-0.06,0.98,0.23
0.42871094,0.014460964,3.4819916E-4,-8.240392E-4,-0.06,0.98,0.23,20323,9940.90,0,0,165,1.89,-2.52,-0.07,-0.06,0.98,0.23
0.028320312,0.0104609635,-6.5180287E-4,-0.0018240393,-0.06,0.98,0.23,20332,9940.50,0,0,0,1.61,-2.59,-0.14,-0.06,0.98,0.23
0.028320312,-0.003539037,-0.0016518049,-0.002824039,-0.06,0.98,0.22,20338,9940.50,0,0,165,0.63,-2.66,-0.21,-0.06,0.98,0.22
-0.8720703,-0.017539036,-0.0026518032,0.0011759609,-0.06,0.98,0.23,20353,9939.60,0,0,0,-0.35,-2.73,0.07,-0.06,0.98,0.23
0.028320312,-0.013539037,0.0013481975,0.0011759609,-0.05,0.98,0.23,20368,9940.50,0,0,165,-0.07,-2.45,0.07,-0.05,0.98,0.23
-0.8720703,4.609637E-4,0.0013481975,-8.240392E-4,-0.06,0.98,0.23,20376,9939.60,0,0,0,0.91,-2.45,-0.07,-0.06,0.98,0.23
0.028320312,0.018460965,0.0013481975,-8.240392E-4,-0.06,0.98,0.23,20392,9940.50,0,0,165,2.17,-2.45,-0.07,-0.06,0.98,0.23
0.028320312,0.017460963,3.4819916E-4,0.0011759609,-0.06,0.98,0.22,20406,9940.50,0,0,0,2.10,-2.52,0.07,-0.06,0.98,0.22
1.0283203,0.0064609647,-6.5180287E-4,0.0011759609,-0.06,0.98,0.23,20413,9941.50,0,0,165,1.33,-2.59,0.07,-0.06,0.98,0.23
0.42871094,-0.011539036,3.4819916E-4,0.002175961,-0.06,0.98,0.23,20429,9940.90,0,0,0,0.07,-2.52,0.14,-0.06,0.98,0.23
0.42871094,-0.015539036,-6.5180287E-4,1.759608E-4,-0.06,0.98,0.23,20444,9940.90,0,0,165,-0.21,-2.59,0.00,-0.06,0.98,0.23
0.42871094,-0.010539036,-6.5180287E-4,-0.0038240394,-0.06,0.98,0.23,20451,9940.90,0,0,0,0.14,-2.59,-0.28,-0.06,0.98,0.23
0.028320312,0.002460963,-0.0016518049,-0.004824039,-0.06,0.98,0.23,20466,9940.50,0,0,165,1.05,-2.66,-0.35,-0.06,0.98,0.23
0.028320312,0.008460963,3.4819916E-4,-0.002824039,-0.06,0.98,0.22,20488,9940.50,0,0,0,1.47,-2.52,-0.21,-0.06,0.98,0.22
0.42871094,0.002460963,0.0013481975,-0.0018240393,-0.06,0.98,0.22,20490,9940.90,0,0,165,1.05,-2.45,-0.14,-0.06,0.98,0.22
0.028320312,-0.0075390367,0.0023481958,-8.240392E-4,-0.06,0.98,0.22,20503,9940.50,0,0,0,0.35,-2.38,-0.07,-0.06,0.98,0.22
0.028320312,-0.012539037,0.0033481978,1.759608E-4,-0.06,0.98,0.22,20511,9940.50,0,0,165,0.00,-2.31,0.00,-0.06,0.98,0.22
-0.8720703,-0.006539037,3.4819916E-4,-0.0018240393,-0.06,0.98,0.23,20533,9939.60,0,0,0,0.42,-2.52,-0.14,-0.06,0.98,0.23
0.028320312,0.0014609639,0.0013481975,1.759608E-4,-0.06,0.98,0.23,20542,9940.50,0,0,165,0.98,-2.45,0.00,-0.06,0.98,0.23
0.42871094,0.008460963,3.4819916E-4,1.759608E-4,-0.06,0.98,0.23,20549,9940.90,0,0,0,1.47,-2.52,0.00,-0.06,0.98,0.23
0.028320312,0.0054609627,-6.5180287E-4,0.0011759609,-0.06,0.98,0.23,20564,9940.50,0,0,165,1.26,-2.59,0.07,-0.06,0.98,0.23
0.42871094,-0.0015390366,-6.5180287E-4,1.759608E-4,-0.06,0.98,0.23,20579,9940.90,0,0,0,0.77,-2.59,0.00,-0.06,0.98,0.23
-0.27148438,-0.004539036,-6.5180287E-4,0.0011759609,-0.06,0.98,0.22,20586,9940.20,0,0,165,0.56,-2.59,0.07,-0.06,0.98,0.22
0.028320312,-0.0015390366,3.4819916E-4,1.759608E-4,-0.06,0.98,0.23,20601,9940.50,0,0,0,0.77,-2.52,0.00,-0.06,0.98,0.23
0.42871094,0.0034609642,0.0013481975,1.759608E-4,-0.06,0.98,0.22,20616,9940.90,0,0,165,1.12,-2.45,0.00,-0.06,0.98,0.22
0.42871094,0.007460963,3.4819916E-4,0.0031759606,-0.06,0.98,0.22,20624,9940.90,0,0,0,1.40,-2.52,0.21,-0.06,0.98,0.22
-0.57128906,0.0064609647,3.4819916E-4,0.0011759609,-0.06,0.98,0.22,20638,9939.90,0,0,165,1.33,-2.52,0.07,-0.06,0.98,0.22
0.42871094,-5.390374E-4,3.4819916E-4,-8.240392E-4,-0.06,0.98,0.23,20653,9940.90,0,0,0,0.84,-2.52,-0.07,-0.06,0.98,0.23
0.028320312,-0.004539036,-0.0016518049,-8.240392E-4,-0.06,0.98,0.23,20662,9940.50,0,0,165,0.56,-2.66,-0.07,-0.06,0.98,0.23
0.028320312,-0.0025390368,-6.5180287E-4,0.0011759609,-0.06,0.98,0.23,20676,9940.50,0,0,0,0.70,-2.59,0.07,-0.06,0.98,0.23
1.0283203,0.0014609639,-6.5180287E-4,0.002175961,-0.06,0.98,0.23,20692,9941.50,0,0,165,0.98,-2.59,0.14,-0.06,0.98,0.23
0.028320312,0.0054609627,0.0013481975,0.0011759609,-0.06,0.98,0.23,20698,9940.50,0,0,0,1.26,-2.45,0.07,-0.06,0.98,0.23
0.028320312,0.002460963,3.4819916E-4,0.0011759609,-0.05,0.98,0.23,20714,9940.50,0,0,165,1.05,-2.52,0.07,-0.05,0.98,0.23
0.028320312,-5.390374E-4,0.0013481975,1.759608E-4,-0.06,0.98,0.23,20728,9940.50,0,0,0,0.84,-2.45,0.00,-0.06,0.98,0.23
0.028320312,-0.0055390364,-6.5180287E-4,1.759608E-4,-0.06,0.98,0.23,20736,9940.50,0,0,165,0.49,-2.59,0.00,-0.06,0.98,0.23
0.42871094,-0.0025390368,0.0023481958,-8.240392E-4,-0.06,0.98,0.23,20751,9940.90,0,0,0,0.70,-2.38,-0.07,-0.06,0.98,0.23
-0.57128906,4.609637E-4,3.4819916E-4,-0.002824039,-0.06,0.98,0.23,20766,9939.90,0,0,165,0.91,-2.52,-0.21,-0.06,0.98,0.23
0.42871094,0.0044609644,3.4819916E-4,-8.240392E-4,-0.06,0.98,0.23,20774,9940.90,0,0,0,1.19,-2.52,-0.07,-0.06,0.98,0.23
0.028320312,0.0044609644,3.4819916E-4,-0.0018240393,-0.06,0.98,0.23,20789,9940.50,0,0,165,1.19,-2.52,-0.14,-0.06,0.98,0.23
-0.57128906,0.002460963,3.4819916E-4,1.759608E-4,-0.06,0.98,0.23,20804,9939.90,0,0,0,1.05,-2.52,0.00,-0.06,0.98,0.23
1.0283203,-0.0015390366,-0.0016518049,-8.240392E-4,-0.06,0.98,0.23,20812,9941.50,0,0,165,0.77,-2.66,-0.07,-0.06,0.98,0.23
0.42871094,-0.0025390368,3.4819916E-4,1.759608E-4,-0.06,0.98,0.22,20833,9940.90,0,0,0,0.70,-2.52,0.00,-0.06,0.98,0.22
-0.57128906,-5.390374E-4,0.0013481975,1.759608E-4,-0.06,0.98,0.22,20841,9939.90,0,0,165,0.84,-2.45,0.00,-0.06,0.98,0.22
0.42871094,0.0054609627,0.0023481958,1.759608E-4,-0.06,0.98,0.23,20848,9940.90,0,0,0,1.26,-2.38,0.00,-0.06,0.98,0.23
-0.57128906,0.0044609644,3.4819916E-4,0.0011759609,-0.06,0.98,0.22,20863,9939.90,0,0,165,1.19,-2.52,0.07,-0.06,0.98,0.22
-0.57128906,0.0034609642,0.0023481958,1.759608E-4,-0.06,0.98,0.23,20879,9939.90,0,0,0,1.12,-2.38,0.00,-0.06,0.98,0.23
0.028320312,-0.0075390367,-6.5180287E-4,-8.240392E-4,-0.06,0.98,0.23,20887,9940.50,0,0,165,0.35,-2.59,-0.07,-0.06,0.98,0.23
2.928711,-0.009539037,0.0013481975,0.0011759609,-0.05,0.98,0.23,20902,9943.40,0,0,0,0.21,-2.45,0.07,-0.05,0.98,0.23
-0.57128906,-0.006539037,-6.5180287E-4,0.0031759606,-0.06,0.98,0.23,20917,9939.90,0,0,165,0.42,-2.59,0.21,-0.06,0.98,0.23
1.328125,0.0014609639,0.0023481958,0.004175961,-0.06,0.98,0.23,20931,9941.80,0,0,0,0.98,-2.38,0.28,-0.06,0.98,0.23
-0.57128906,0.008460963,0.0023481958,0.0011759609,-0.06,0.98,0.23,20939,9939.90,0,0,165,1.47,-2.38,0.07,-0.06,0.98,0.23
0.42871094,0.011460962,0.0033481978,-8.240392E-4,-0.06,0.98,0.23,20954,9940.90,0,0,0,1.68,-2.31,-0.07,-0.06,0.98,0.23
0.42871094,0.0064609647,3.4819916E-4,-8.240392E-4,-0.06,0.98,0.22,20960,9940.90,0,0,165,1.33,-2.52,-0.07,-0.06,0.98,0.22
0.42871094,-0.0015390366,0.0013481975,1.759608E-4,-0.06,0.98,0.22,20976,9940.90,0,0,0,0.77,-2.45,0.00,-0.06,0.98,0.22
-0.8720703,-0.0075390367,-6.5180287E-4,-8.240392E-4,-0.06,0.98,0.23,20991,9939.60,0,0,165,0.35,-2.59,-0.07,-0.06,0.98,0.23
0.42871094,-0.0025390368,-6.5180287E-4,-8.240392E-4,-0.06,0.98,0.23,20998,9940.90,0,0,0,0.70,-2.59,-0.07,-0.06,0.98,0.23
1.328125,0.009460963,3.4819916E-4,-0.0038240394,-0.06,0.98,0.23,21013,9941.80,0,0,165,1.54,-2.52,-0.28,-0.06,0.98,0.23
1.328125,0.016460963,0.0013481975,-0.002824039,-0.06,0.98,0.23,21029,9941.80,0,0,0,2.03,-2.45,-0.21,-0.06,0.98,0.23
0.028320312,0.009460963,-0.0026518032,-0.002824039,-0.06,0.98,0.22,21036,9940.50,0,0,165,1.54,-2.73,-0.21,-0.06,0.98,0.22
0.42871094,0.0014609639,3.4819916E-4,0.002175961,-0.06,0.98,0.22,21052,9940.90,0,0,0,0.98,-2.52,0.14,-0.06,0.98,0.22
0.42871094,-0.009539037,-0.0016518049,1.759608E-4,-0.06,0.98,0.22,21066,9940.90,0,0,165,0.21,-2.66,0.00,-0.06,0.98,0.22
0.42871094,-0.010539036,-0.0026518032,1.759608E-4,-0.06,0.98,0.23,21073,9940.90,0,0,0,0.14,-2.73,0.00,-0.06,0.98,0.23
-0.57128906,-0.0015390366,3.4819916E-4,0.002175961,-0.06,0.98,0.23,21088,9939.90,0,0,165,0.77,-2.52,0.14,-0.06,0.98,0.23
-0.57128906,0.014460964,-6.5180287E-4,0.0011759609,-0.06,0.99,0.23,21104,9939.90,0,0,0,1.89,-2.59,0.07,-0.06,0.99,0.23
0.7285156,0.0104609635,-0.0016518049,-0.0018240393,-0.06,0.98,0.23,21113,9941.20,0,0,165,1.61,-2.66,-0.14,-0.06,0.98,0.23
0.42871094,-0.0025390368,-6.5180287E-4,0.0011759609,-0.06,0.98,0.23,21126,9940.90,0,0,0,0.70,-2.59,0.07,-0.06,0.98,0.23
-0.8720703,-0.010539036,-0.0016518049,1.759608E-4,-0.06,0.98,0.23,21141,9939.60,0,0,165,0.14,-2.66,0.00,-0.06,0.98,0.23
0.42871094,-0.0075390367,3.4819916E-4,0.0011759609,-0.06,0.98,0.23,21149,9940.90,0,0,0,0.35,-2.52,0.07,-0.06,0.98,0.23
-0.57128906,0.0014609639,0.0013481975,0.0011759609,-0.06,0.98,0.23,21164,9939.90,0,0,165,0.98,-2.45,0.07,-0.06,0.98,0.23
0.42871094,0.0104609635,0.0023481958,0.0011759609,-0.06,0.98,0.23,21178,9940.90,0,0,0,1.61,-2.38,0.07,-0.06,0.98,0.23
0.028320312,0.016460963,0.0033481978,0.004175961,-0.06,0.98,0.23,21187,9940.50,0,0,165,2.03,-2.31,0.28,-0.06,0.98,0.23
-0.57128906,0.008460963,0.0023481958,0.0031759606,-0.06,0.98,0.22,21201,9939.90,0,0,0,1.47,-2.38,0.21,-0.06,0.98,0.22
0.028320312,-0.004539036,0.0033481978,0.0031759606,-0.06,0.98,0.22,21216,9940.50,0,0,165,0.56,-2.31,0.21,-0.06,0.98,0.22
-0.57128906,-0.010539036,-6.5180287E-4,0.0011759609,-0.06,0.98,0.23,21223,9939.90,0,0,0,0.14,-2.59,0.07,-0.06,0.98,0.23
0.42871094,-0.006539037,3.4819916E-4,-8.240392E-4,-0.05,0.98,0.22,21238,9940.90,0,0,165,0.42,-2.52,-0.07,-0.05,0.98,0.22
0.42871094,0.0034609642,3.4819916E-4,-0.0018240393,-0.06,0.98,0.23,21261,9940.90,0,0,0,1.12,-2.52,-0.14,-0.06,0.98,0.23
0.42871094,0.008460963,3.4819916E-4,-8.240392E-4,-0.06,0.98,0.22,21262,9940.90,0,0,165,1.47,-2.52,-0.07,-0.06,0.98,0.22
-0.57128906,0.0054609627,0.0013481975,-8.240392E-4,-0.06,0.98,0.23,21276,9939.90,0,0,0,1.26,-2.45,-0.07,-0.06,0.98,0.23
0.42871094,-0.0055390364,0.0013481975,-8.240392E-4,-0.06,0.98,0.22,21291,9940.90,0,0,165,0.49,-2.45,-0.07,-0.06,0.98,0.22
1.328125,-0.008539036,3.4819916E-4,-8.240392E-4,-0.06,0.99,0.23,21299,9941.80,0,0,0,0.28,-2.52,-0.07,-0.06,0.99,0.23
0.42871094,-0.006539037,-6.5180287E-4,0.0011759609,-0.06,0.98,0.23,21313,9940.90,0,0,165,0.42,-2.59,0.07,-0.06,0.98,0.23
-0.57128906,4.609637E-4,-0.0016518049,0.0011759609,-0.06,0.98,0.23,21329,9939.90,0,0,0,0.91,-2.66,0.07,-0.06,0.98,0.23
0.7285156,0.0034609642,-0.0016518049,-0.002824039,-0.06,0.98,0.23,21336,9941.20,0,0,165,1.12,-2.66,-0.21,-0.06,0.98,0.23
0.42871094,4.609637E-4,-6.5180287E-4,-0.0018240393,-0.06,0.98,0.23,21351,9940.90,0,0,0,0.91,-2.59,-0.14,-0.06,0.98,0.23
-0.57128906,-0.0015390366,-6.5180287E-4,1.759608E-4,-0.06,0.98,0.23,21366,9939.90,0,0,165,0.77,-2.59,0.00,-0.06,0.98,0.23
-0.57128906,-0.0015390366,-6.5180287E-4,0.0011759609,-0.06,0.98,0.22,21380,9939.90,0,0,0,0.77,-2.59,0.07,-0.06,0.98,0.22
-0.27148438,-5.390374E-4,3.4819916E-4,0.0031759606,-0.06,0.98,0.23,21396,9940.20,0,0,165,0.84,-2.52,0.21,-0.06,0.98,0.23
0.42871094,0.002460963,0.0023481958,0.0031759606,-0.06,0.98,0.23,21404,9940.90,0,0,0,1.05,-2.38,0.21,-0.06,0.98,0.23
0.42871094,0.0044609644,0.0013481975,0.002175961,-0.06,0.98,0.22,21411,9940.90,0,0,165,1.19,-2.45,0.14,-0.06,0.98,0.22
0.42871094,0.0034609642,0.0013481975,0.0011759609,-0.06,0.98,0.23,21426,9940.90,0,0,0,1.12,-2.45,0.07,-0.06,0.98,0.23
0.42871094,0.0014609639,0.0013481975,0.002175961,-0.06,0.98,0.23,21442,9940.90,0,0,165,0.98,-2.45,0.14,-0.06,0.98,0.23
0.42871094,-0.0015390366,-6.5180287E-4,0.002175961,-0.06,0.98,0.23,21448,9940.90,0,0,0,0.77,-2.59,0.14,-0.06,0.98,0.23
-0.57128906,-0.0025390368,-0.0016518049,-8.240392E-4,-0.06,0.98,0.23,21464,9939.90,0,0,165,0.70,-2.66,-0.07,-0.06,0.98,0.23
0.42871094,4.609637E-4,-0.0016518049,-8.240392E-4,-0.06,0.98,0.23,21479,9940.90,0,0,0,0.91,-2.66,-0.07,-0.06,0.98,0.23
-0.57128906,0.0014609639,3.4819916E-4,0.002175961,-0.06,0.98,0.23,21486,9939.90,0,0,165,0.98,-2.52,0.14,-0.06,0.98,0.23
-0.27148438,-5.390374E-4,3.4819916E-4,0.002175961,-0.06,0.98,0.23,21501,9940.20,0,0,0,0.84,-2.52,0.14,-0.06,0.98,0.23
0.42871094,-0.004539036,3.4819916E-4,0.0011759609,-0.06,0.98,0.23,21518,9940.90,0,0,165,0.56,-2.52,0.07,-0.06,0.98,0.23
-0.57128906,-0.0055390364,0.0013481975,0.0011759609,-0.06,0.98,0.23,21527,9939.90,0,0,0,0.49,-2.45,0.07,-0.06,0.98,0.23
0.42871094,-0.003539037,0.0013481975,1.759608E-4,-0.06,0.98,0.23,21546,9940.90,0,0,165,0.63,-2.45,0.00,-0.06,0.98,0.23
-0.57128906,0.002460963,-6.5180287E-4,1.759608E-4,-0.06,0.98,0.22,21554,9939.90,0,0,0,1.05,-2.59,0.00,-0.06,0.98,0.22
0.7285156,0.0034609642,3.4819916E-4,0.0011759609,-0.06,0.98,0.23,21560,9941.20,0,0,165,1.12,-2.52,0.07,-0.06,0.98,0.23
-0.57128906,0.002460963,-6.5180287E-4,1.759608E-4,-0.06,0.99,0.22,21576,9939.90,0,0,0,1.05,-2.59,0.00,-0.06,0.99,0.22
0.42871094,-0.0025390368,3.4819916E-4,-8.240392E-4,-0.05,0.98,0.23,21591,9940.90,0,0,165,0.70,-2.52,-0.07,-0.05,0.98,0.23
0.42871094,-5.390374E-4,3.4819916E-4,-8.240392E-4,-0.05,0.98,0.23,21614,9940.90,0,0,0,0.84,-2.52,-0.07,-0.05,0.98,0.23
0.42871094,0.0014609639,0.0033481978,0.0011759609,-0.06,0.98,0.23,21615,9940.90,0,0,165,0.98,-2.31,0.07,-0.06,0.98,0.23
-0.57128906,0.0044609644,0.0013481975,0.002175961,-0.06,0.98,0.23,21628,9939.90,0,0,0,1.19,-2.45,0.14,-0.06,0.98,0.23
0.42871094,0.0054609627,0.0023481958,0.002175961,-0.05,0.98,0.23,21636,9940.90,0,0,165,1.26,-2.38,0.14,-0.05,0.98,0.23
-0.57128906,0.002460963,0.0013481975,0.002175961,-0.06,0.98,0.23,21651,9939.90,0,0,0,1.05,-2.45,0.14,-0.06,0.98,0.23
0.42871094,-5.390374E-4,-6.5180287E-4,0.0011759609,-0.06,0.98,0.23,21674,9940.90,0,0,165,0.84,-2.59,0.07,-0.06,0.98,0.23
-0.27148438,4.609637E-4,0.0013481975,-8.240392E-4,-0.06,0.98,0.23,21675,9940.20,0,0,0,0.91,-2.45,-0.07,-0.06,0.98,0.23
0.42871094,4.609637E-4,0.0013481975,0.0011759609,-0.06,0.98,0.22,21688,9940.90,0,0,165,0.91,-2.45,0.07,-0.06,0.98,0.22
0.42871094,0.0034609642,3.4819916E-4,-8.240392E-4,-0.06,0.98,0.22,21703,9940.90,0,0,0,1.12,-2.52,-0.07,-0.06,0.98,0.22
0.42871094,0.0044609644,0.0013481975,0.002175961,-0.06,0.98,0.22,21712,9940.90,0,0,165,1.19,-2.45,0.14,-0.06,0.98,0.22
0.42871094,0.002460963,0.0013481975,-8.240392E-4,-0.06,0.98,0.22,21726,9940.90,0,0,0,1.05,-2.45,-0.07,-0.06,0.98,0.22
0.42871094,0.0014609639,3.4819916E-4,0.0011759609,-0.06,0.98,0.23,21740,9940.90,0,0,165,0.98,-2.52,0.07,-0.06,0.98,0.23
0.42871094,-0.0055390364,-0.0016518049,-0.0018240393,-0.06,0.98,0.22,21748,9940.90,0,0,0,0.49,-2.66,-0.14,-0.06,0.98,0.22
-1.5712891,-0.006539037,-0.0016518049,-8.240392E-4,-0.06,0.98,0.22,21764,9938.90,0,0,165,0.42,-2.66,-0.07,-0.06,0.98,0.22
0.7285156,-0.0025390368,-0.0016518049,1.759608E-4,-0.06,0.98,0.23,21779,9941.20,0,0,0,0.70,-2.66,0.00,-0.06,0.98,0.23
0.42871094,0.002460963,3.4819916E-4,0.0011759609,-0.06,0.98,0.23,21786,9940.90,0,0,165,1.05,-2.52,0.07,-0.06,0.98,0.23
-0.57128906,0.0064609647,0.0013481975,0.0011759609,-0.06,0.98,0.23,21801,9939.90,0,0,0,1.33,-2.45,0.07,-0.06,0.98,0.23
0.42871094,0.008460963,0.0023481958,0.0011759609,-0.05,0.98,0.22,21816,9940.90,0,0,165,1.47,-2.38,0.07,-0.05,0.98,0.22
0.42871094,0.0054609627,3.4819916E-4,-8.240392E-4,-0.06,0.98,0.23,21824,9940.90,0,0,0,1.26,-2.52,-0.07,-0.06,0.98,0.23
0.42871094,-5.390374E-4,3.4819916E-4,1.759608E-4,-0.06,0.98,0.22,21839,9940.90,0,0,165,0.84,-2.52,0.00,-0.06,0.98,0.22
-0.57128906,-0.0025390368,-0.0016518049,0.0011759609,-0.06,0.98,0.22,21854,9939.90,0,0,0,0.70,-2.66,0.07,-0.06,0.98,0.22
0.42871094,-5.390374E-4,-6.5180287E-4,1.759608E-4,-0.06,0.98,0.23,21869,9940.90,0,0,165,0.84,-2.59,0.00,-0.06,0.98,0.23
-0.57128906,0.002460963,3.4819916E-4,1.759608E-4,-0.05,0.98,0.23,21876,9939.90,0,0,0,1.05,-2.52,0.00,-0.05,0.98,0.23
1.328125,0.007460963,3.4819916E-4,-8.240392E-4,-0.06,0.98,0.23,21892,9941.80,0,0,165,1.40,-2.52,-0.07,-0.06,0.98,0.23
-0.57128906,0.0104609635,3.4819916E-4,-8.240392E-4,-0.06,0.98,0.22,21899,9939.90,0,0,0,1.61,-2.52,-0.07,-0.06,0.98,0.22
0.42871094,0.0054609627,-6.5180287E-4,0.0011759609,-0.06,0.98,0.22,21914,9940.90,0,0,165,1.26,-2.59,0.07,-0.06,0.98,0.22
-0.27148438,-0.004539036,-6.5180287E-4,0.002175961,-0.06,0.98,0.22,21929,9940.20,0,0,0,0.56,-2.59,0.14,-0.06,0.98,0.22
0.42871094,-0.0075390367,-6.5180287E-4,0.0031759606,-0.06,0.98,0.23,21935,9940.90,0,0,165,0.35,-2.59,0.21,-0.06,0.98,0.23
-0.57128906,-0.003539037,-6.5180287E-4,0.002175961,-0.06,0.98,0.23,21952,9939.90,0,0,0,0.63,-2.59,0.14,-0.06,0.98,0.23
-0.57128906,0.0054609627,-6.5180287E-4,0.002175961,-0.06,0.98,0.23,21974,9939.90,0,0,165,1.26,-2.59,0.14,-0.06,0.98,0.23
0.42871094,0.008460963,-6.5180287E-4,0.0011759609,-0.06,0.98,0.22,21975,9940.90,0,0,0,1.47,-2.59,0.07,-0.06,0.98,0.22
-0.57128906,0.0014609639,-0.0016518049,-0.002824039,-0.06,0.98,0.23,21988,9939.90,0,0,165,0.98,-2.66,-0.21,-0.06,0.98,0.23
0.42871094,-0.009539037,-6.5180287E-4,-0.0018240393,-0.06,0.98,0.22,22003,9940.90,0,0,0,0.21,-2.59,-0.14,-0.06,0.98,0.22
0.42871094,-0.008539036,3.4819916E-4,0.002175961,-0.06,0.98,0.22,22012,9940.90,0,0,165,0.28,-2.52,0.14,-0.06,0.98,0.22
1.328125,-0.004539036,3.4819916E-4,0.0011759609,-0.06,0.98,0.23,22026,9941.80,0,0,0,0.56,-2.52,0.07,-0.06,0.98,0.23
-0.57128906,0.0044609644,3.4819916E-4,1.759608E-4,-0.06,0.98,0.23,22049,9939.90,0,0,165,1.19,-2.52,0.00,-0.06,0.98,0.23
0.42871094,0.012460964,3.4819916E-4,1.759608E-4,-0.06,0.98,0.23,22050,9940.90,0,0,0,1.75,-2.52,0.00,-0.06,0.98,0.23
-0.57128906,0.008460963,3.4819916E-4,-8.240392E-4,-0.06,0.98,0.22,22064,9939.90,0,0,165,1.47,-2.52,-0.07,-0.06,0.98,0.22
-1.171875,-0.0015390366,0.0013481975,0.0031759606,-0.06,0.98,0.22,22078,9939.30,0,0,0,0.77,-2.45,0.21,-0.06,0.98,0.22
-0.57128906,-0.006539037,0.0023481958,0.0011759609,-0.06,0.98,0.23,22086,9939.90,0,0,165,0.42,-2.38,0.07,-0.06,0.98,0.23
-0.57128906,-0.008539036,0.0013481975,1.759608E-4,-0.06,0.98,0.22,22101,9939.90,0,0,0,0.28,-2.45,0.00,-0.06,0.98,0.22
0.42871094,-0.0015390366,-0.0016518049,-0.0058240388,-0.06,0.98,0.22,22116,9940.90,0,0,165,0.77,-2.66,-0.42,-0.06,0.98,0.22
-0.27148438,0.0044609644,-6.5180287E-4,-0.002824039,-0.06,0.98,0.22,22123,9940.20,0,0,0,1.19,-2.59,-0.21,-0.06,0.98,0.22
-0.57128906,0.0054609627,3.4819916E-4,-8.240392E-4,-0.06,0.98,0.23,22139,9939.90,0,0,165,1.26,-2.52,-0.07,-0.06,0.98,0.23
0.7285156,-0.0025390368,3.4819916E-4,-0.0018240393,-0.06,0.98,0.22,22153,9941.20,0,0,0,0.70,-2.52,-0.14,-0.06,0.98,0.22
0.42871094,-0.009539037,3.4819916E-4,-0.0018240393,-0.06,0.98,0.22,22161,9940.90,0,0,165,0.21,-2.52,-0.14,-0.06,0.98,0.22
0.42871094,-0.009539037,3.4819916E-4,-0.0018240393,-0.06,0.98,0.22,22176,9940.90,0,0,0,0.21,-2.52,-0.14,-0.06,0.98,0.22
-0.57128906,-0.003539037,-6.5180287E-4,-0.0018240393,-0.06,0.98,0.23,22199,9939.90,0,0,165,0.63,-2.59,-0.14,-0.06,0.98,0.23
0.7285156,0.0034609642,3.4819916E-4,-0.002824039,-0.06,0.98,0.23,22200,9941.20,0,0,0,1.12,-2.52,-0.21,-0.06,0.98,0.23
-0.27148438,0.0054609627,-6.5180287E-4,-8.240392E-4,-0.06,0.98,0.22,22213,9940.20,0,0,165,1.26,-2.59,-0.07,-0.06,0.98,0.22
0.7285156,0.0014609639,-6.5180287E-4,-8.240392E-4,-0.05,0.98,0.23,22228,9941.20,0,0,0,0.98,-2.59,-0.07,-0.05,0.98,0.23
0.42871094,-0.0015390366,-6.5180287E-4,0.002175961,-0.06,0.98,0.23,22236,9940.90,0,0,165,0.77,-2.59,0.14,-0.06,0.98,0.23
0.7285156,-0.0015390366,3.4819916E-4,0.002175961,-0.06,0.98,0.23,22251,9941.20,0,0,0,0.77,-2.52,0.14,-0.06,0.98,0.23
1.328125,0.002460963,0.0013481975,0.002175961,-0.06,0.98,0.23,22266,9941.80,0,0,165,1.05,-2.45,0.14,-0.06,0.98,0.23
0.7285156,0.0064609647,0.0023481958,0.002175961,-0.06,0.98,0.22,22273,9941.20,0,0,0,1.33,-2.38,0.14,-0.06,0.98,0.22
-0.57128906,0.0044609644,0.0023481958,0.0031759606,-0.06,0.98,0.22,22288,9939.90,0,0,165,1.19,-2.38,0.21,-0.06,0.98,0.22
0.7285156,4.609637E-4,3.4819916E-4,-8.240392E-4,-0.06,0.98,0.22,22304,9941.20,0,0,0,0.91,-2.52,-0.07,-0.06,0.98,0.22
-0.27148438,-0.0015390366,3.4819916E-4,1.759608E-4,-0.06,0.98,0.22,22311,9940.20,0,0,165,0.77,-2.52,0.00,-0.06,0.98,0.22
-0.57128906,-0.0055390364,-0.0016518049,1.759608E-4,-0.06,0.99,0.22,22326,9939.90,0,0,0,0.49,-2.66,0.00,-0.06,0.99,0.22
-1.171875,-0.0015390366,3.4819916E-4,1.759608E-4,-0.06,0.98,0.23,22341,9939.30,0,0,165,0.77,-2.52,0.00,-0.06,0.98,0.23
0.42871094,-0.0015390366,3.4819916E-4,-0.0018240393,-0.06,0.98,0.23,22349,9940.90,0,0,0,0.77,-2.52,-0.14,-0.06,0.98,0.23
-0.27148438,0.0014609639,-6.5180287E-4,0.0011759609,-0.06,0.98,0.22,22363,9940.20,0,0,165,0.98,-2.59,0.07,-0.06,0.98,0.22
1.0283203,0.0014609639,-6.5180287E-4,-8.240392E-4,-0.06,0.98,0.22,22379,9941.50,0,0,0,0.98,-2.59,-0.07,-0.06,0.98,0.22
0.7285156,4.609637E-4,0.0013481975,1.759608E-4,-0.06,0.98,0.22,22388,9941.20,0,0,165,0.91,-2.45,0.00,-0.06,0.98,0.22
-0.27148438,-0.0025390368,3.4819916E-4,-0.0018240393,-0.06,0.98,0.22,22404,9940.20,0,0,0,0.70,-2.52,-0.14,-0.06,0.98,0.22
-0.27148438,-0.0025390368,3.4819916E-4,1.759608E-4,-0.06,0.98,0.22,22418,9940.20,0,0,165,0.70,-2.52,0.00,-0.06,0.98,0.22
0.7285156,-0.0015390366,-6.5180287E-4,-0.0018240393,-0.06,0.98,0.22,22424,9941.20,0,0,0,0.77,-2.59,-0.14,-0.06,0.98,0.22
1.0283203,-0.0015390366,-6.5180287E-4,-8.240392E-4,-0.06,0.98,0.22,22439,9941.50,0,0,165,0.77,-2.59,-0.07,-0.06,0.98,0.22
0.7285156,-5.390374E-4,-6.5180287E-4,0.0011759609,-0.06,0.98,0.23,22453,9941.20,0,0,0,0.84,-2.59,0.07,-0.06,0.98,0.23
-0.27148438,-5.390374E-4,3.4819916E-4,-0.0018240393,-0.06,0.98,0.22,22461,9940.20,0,0,165,0.84,-2.52,-0.14,-0.06,0.98,0.22
-0.27148438,4.609637E-4,3.4819916E-4,-0.0018240393,-0.06,0.98,0.23,22476,9940.20,0,0,0,0.91,-2.52,-0.14,-0.06,0.98,0.23
-0.57128906,-0.0025390368,3.4819916E-4,-8.240392E-4,-0.05,0.98,0.23,22493,9939.90,0,0,165,0.70,-2.52,-0.07,-0.05,0.98,0.23
-0.27148438,0.0014609639,0.0013481975,0.0011759609,-0.06,0.98,0.22,22499,9940.20,0,0,0,0.98,-2.45,0.07,-0.06,0.98,0.22
0.7285156,0.0014609639,3.4819916E-4,-8.240392E-4,-0.06,0.98,0.23,22514,9941.20,0,0,165,0.98,-2.52,-0.07,-0.06,0.98,0.23
0.42871094,-0.0015390366,3.4819916E-4,1.759608E-4,-0.06,0.98,0.23,22528,9940.90,0,0,0,0.77,-2.52,0.00,-0.06,0.98,0.23
-0.8720703,-5.390374E-4,3.4819916E-4,1.759608E-4,-0.06,0.98,0.23,22535,9939.60,0,0,165,0.84,-2.52,0.00,-0.06,0.98,0.23
0.7285156,0.0014609639,3.4819916E-4,0.0011759609,-0.06,0.98,0.23,22551,9941.20,0,0,0,0.98,-2.52,0.07,-0.06,0.98,0.23
-0.27148438,0.0014609639,3.4819916E-4,0.25517595,-0.06,0.98,0.23,22566,9940.20,0,0,165,0.98,-2.52,17.85,-0.06,0.98,0.23
0.42871094,0.0044609644,3.4819916E-4,0.0011759609,-0.06,0.98,0.22,22573,9940.90,0,0,0,1.19,-2.52,0.07,-0.06,0.98,0.22
-0.57128906,4.609637E-4,0.0013481975,-8.240392E-4,-0.06,0.98,0.22,22596,9939.90,0,0,165,0.91,-2.45,-0.07,-0.06,0.98,0.22
-1.5712891,4.609637E-4,3.4819916E-4,1.759608E-4,-0.06,0.98,0.23,22603,9938.90,0,0,0,0.91,-2.52,0.00,-0.06,0.98,0.23
0.7285156,-5.390374E-4,0.0013481975,-8.240392E-4,-0.06,0.98,0.23,22611,9941.20,0,0,165,0.84,-2.45,-0.07,-0.06,0.98,0.23
0.7285156,-5.390374E-4,0.0013481975,0.0011759609,-0.06,0.98,0.23,22626,9941.20,0,0,0,0.84,-2.45,0.07,-0.06,0.98,0.23
1.7285156,-5.390374E-4,3.4819916E-4,0.0011759609,-0.06,0.98,0.22,22641,9942.20,0,0,165,0.84,-2.52,0.07,-0.06,0.98,0.22
0.7285156,4.609637E-4,3.4819916E-4,0.002175961,-0.06,0.98,0.23,22656,9941.20,0,0,0,0.91,-2.52,0.14,-0.06,0.98,0.23
-0.27148438,0.0014609639,3.4819916E-4,0.0011759609,-0.06,0.98,0.22,22663,9940.20,0,0,165,0.98,-2.52,0.07,-0.06,0.98,0.22
-0.27148438,0.0044609644,0.0013481975,-8.240392E-4,-0.06,0.98,0.22,22679,9940.20,0,0,0,1.19,-2.45,-0.07,-0.06,0.98,0.22
0.7285156,0.002460963,3.4819916E-4,1.759608E-4,-0.06,0.98,0.23,22686,9941.20,0,0,165,1.05,-2.52,0.00,-0.06,0.98,0.23
0.7285156,0.0014609639,3.4819916E-4,-8.240392E-4,-0.06,0.98,0.23,22702,9941.20,0,0,0,0.98,-2.52,-0.07,-0.06,0.98,0.23
-0.27148438,4.609637E-4,3.4819916E-4,0.0011759609,-0.06,0.98,0.23,22717,9940.20,0,0,165,0.91,-2.52,0.07,-0.06,0.98,0.23
-0.27148438,-0.003539037,-0.0016518049,1.759608E-4,-0.06,0.98,0.22,22723,9940.20,0,0,0,0.63,-2.66,0.00,-0.06,0.98,0.22
-0.27148438,-5.390374E-4,3.4819916E-4,1.759608E-4,-0.05,0.98,0.23,22739,9940.20,0,0,165,0.84,-2.52,0.00,-0.05,0.98,0.23
0.7285156,0.0054609627,0.0013481975,0.0011759609,-0.06,0.98,0.22,22753,9941.20,0,0,0,1.26,-2.45,0.07,-0.06,0.98,0.22
0.7285156,0.0044609644,-6.5180287E-4,1.759608E-4,-0.06,0.98,0.23,22762,9941.20,0,0,165,1.19,-2.59,0.00,-0.06,0.98,0.23
-1.171875,0.0014609639,-6.5180287E-4,1.759608E-4,-0.06,0.98,0.23,22776,9939.30,0,0,0,0.98,-2.59,0.00,-0.06,0.98,0.23
0.7285156,-0.0025390368,3.4819916E-4,0.002175961,-0.06,0.98,0.22,22791,9941.20,0,0,165,0.70,-2.52,0.14,-0.06,0.98,0.22
1.0283203,-0.004539036,3.4819916E-4,1.759608E-4,-0.06,0.98,0.23,22798,9941.50,0,0,0,0.56,-2.52,0.00,-0.06,0.98,0.23
0.7285156,0.0014609639,-6.5180287E-4,1.759608E-4,-0.06,0.98,0.23,22814,9941.20,0,0,165,0.98,-2.59,0.00,-0.06,0.98,0.23
-0.57128906,0.002460963,3.4819916E-4,1.759608E-4,-0.06,0.98,0.23,22828,9939.90,0,0,0,1.05,-2.52,0.00,-0.06,0.98,0.23
-0.27148438,0.0034609642,3.4819916E-4,0.0011759609,-0.06,0.98,0.23,22836,9940.20,0,0,165,1.12,-2.52,0.07,-0.06,0.98,0.23
0.7285156,0.0014609639,0.0013481975,0.002175961,-0.06,0.98,0.23,22852,9941.20,0,0,0,0.98,-2.45,0.14,-0.06,0.98,0.23
-0.27148438,4.609637E-4,-6.5180287E-4,0.0011759609,-0.06,0.98,0.23,22858,9940.20,0,0,165,0.91,-2.59,0.07,-0.06,0.98,0.23
-0.27148438,-0.0025390368,0.0013481975,0.0011759609,-0.06,0.98,0.23,22873,9940.20,0,0,0,0.70,-2.45,0.07,-0.06,0.98,0.23
0.7285156,-5.390374E-4,-6.5180287E-4,1.759608E-4,-0.06,0.98,0.23,22888,9941.20,0,0,165,0.84,-2.59,0.00,-0.06,0.98,0.23
-0.27148438,0.0014609639,-0.0016518049,1.759608E-4,-0.06,0.98,0.23,22896,9940.20,0,0,0,0.98,-2.66,0.00,-0.06,0.98,0.23
-0.27148438,0.0014609639,3.4819916E-4,0.0011759609,-0.06,0.98,0.23,22912,9940.20,0,0,165,0.98,-2.52,0.07,-0.06,0.98,0.23
-0.27148438,0.0014609639,-6.5180287E-4,1.759608E-4,-0.06,0.98,0.22,22926,9940.20,0,0,0,0.98,-2.59,0.00,-0.06,0.98,0.22
0.7285156,0.002460963,-6.5180287E-4,0.002175961,-0.06,0.98,0.23,22934,9941.20,0,0,165,1.05,-2.59,0.14,-0.06,0.98,0.23
-0.27148438,0.0014609639,-6.5180287E-4,-0.0018240393,-0.06,0.98,0.23,22949,9940.20,0,0,0,0.98,-2.59,-0.14,-0.06,0.98,0.23
-0.27148438,-0.003539037,-6.5180287E-4,-0.0018240393,-0.06,0.98,0.22,22956,9940.20,0,0,165,0.63,-2.59,-0.14,-0.06,0.98,0.22
-0.27148438,-0.0055390364,-0.0036518015,1.759608E-4,-0.06,0.98,0.22,22971,9940.20,0,0,0,0.49,-2.80,0.00,-0.06,0.98,0.22
-0.27148438,-0.0055390364,-6.5180287E-4,0.0031759606,-0.06,0.98,0.23,22987,9940.20,0,0,165,0.49,-2.59,0.21,-0.06,0.98,0.23
-0.27148438,-0.003539037,3.4819916E-4,0.002175961,-0.06,0.98,0.23,22993,9940.20,0,0,0,0.63,-2.52,0.14,-0.06,0.98,0.23
0.028320312,0.0044609644,0.0013481975,0.002175961,-0.06,0.98,0.23,23008,9940.50,0,0,165,1.19,-2.45,0.14,-0.06,0.98,0.23
-0.27148438,0.0104609635,0.004348196,1.759608E-4,-0.06,0.98,0.22,23024,9940.20,0,0,0,1.61,-2.24,0.00,-0.06,0.98,0.22
0.028320312,0.0064609647,0.0013481975,-0.002824039,-0.05,0.98,0.22,23031,9940.50,0,0,165,1.33,-2.45,-0.21,-0.05,0.98,0.22
0.7285156,-0.0015390366,-0.0026518032,-0.002824039,-0.05,0.98,0.22,23046,9941.20,0,0,0,0.77,-2.73,-0.21,-0.05,0.98,0.22
-0.27148438,-0.006539037,-0.0036518015,-0.0018240393,-0.06,0.98,0.22,23061,9940.20,0,0,165,0.42,-2.80,-0.14,-0.06,0.98,0.22
-0.27148438,-0.0075390367,-0.0026518032,0.002175961,-0.06,0.98,0.23,23068,9940.20,0,0,0,0.35,-2.73,0.14,-0.06,0.98,0.23
0.7285156,0.0034609642,3.4819916E-4,0.0031759606,-0.06,0.99,0.23,23083,9941.20,0,0,165,1.12,-2.52,0.21,-0.06,0.99,0.23
-0.27148438,0.011460962,-6.5180287E-4,-8.240392E-4,-0.06,0.98,0.22,23099,9940.20,0,0,0,1.68,-2.59,-0.07,-0.06,0.98,0.22
0.028320312,0.017460963,-0.0016518049,-0.002824039,-0.06,0.98,0.22,23106,9940.50,0,0,165,2.10,-2.66,-0.21,-0.06,0.98,0.22
-0.27148438,0.011460962,-0.0026518032,-0.0018240393,-0.06,0.98,0.22,23122,9940.20,0,0,0,1.68,-2.73,-0.14,-0.06,0.98,0.22
1.7285156,-0.0015390366,-0.0016518049,0.002175961,-0.06,0.98,0.22,23136,9942.20,0,0,165,0.77,-2.66,0.14,-0.06,0.98,0.22
-0.27148438,-0.017539036,-6.5180287E-4,0.002175961,-0.06,0.98,0.22,23144,9940.20,0,0,0,-0.35,-2.59,0.14,-0.06,0.98,0.22
-0.27148438,-0.016539037,-0.0016518049,1.759608E-4,-0.06,0.98,0.23,23158,9940.20,0,0,165,-0.28,-2.66,0.00,-0.06,0.98,0.23
0.7285156,0.0044609644,-6.5180287E-4,1.759608E-4,-0.06,0.98,0.23,23174,9941.20,0,0,0,1.19,-2.59,0.00,-0.06,0.98,0.23
0.7285156,0.021460965,0.0013481975,0.0011759609,-0.06,0.98,0.23,23181,9941.20,0,0,165,2.38,-2.45,0.07,-0.06,0.98,0.23
0.7285156,0.020460963,0.0013481975,1.759608E-4,-0.06,0.98,0.22,23196,9941.20,0,0,0,2.31,-2.45,0.00,-0.06,0.98,0.22
0.028320312,0.002460963,3.4819916E-4,1.759608E-4,-0.06,0.98,0.22,23211,9940.50,0,0,165,1.05,-2.52,0.00,-0.06,0.98,0.22
0.7285156,-0.016539037,3.4819916E-4,0.002175961,-0.06,0.98,0.22,23226,9941.20,0,0,0,-0.28,-2.52,0.14,-0.06,0.98,0.22
-0.27148438,-0.020539038,3.4819916E-4,0.004175961,-0.06,0.98,0.23,23233,9940.20,0,0,165,-0.56,-2.52,0.28,-0.06,0.98,0.23
-0.27148438,-0.0075390367,3.4819916E-4,1.759608E-4,-0.06,0.98,0.23,23249,9940.20,0,0,0,0.35,-2.52,0.00,-0.06,0.98,0.23
-0.27148438,0.012460964,0.0013481975,0.002175961,-0.06,0.98,0.23,23256,9940.20,0,0,165,1.75,-2.45,0.14,-0.06,0.98,0.23
0.7285156,0.025460966,0.0023481958,1.759608E-4,-0.06,0.98,0.23,23270,9941.20,0,0,0,2.66,-2.38,0.00,-0.06,0.98,0.23
-0.27148438,0.014460964,0.0023481958,0.002175961,-0.06,0.98,0.22,23278,9940.20,0,0,165,1.89,-2.38,0.14,-0.06,0.98,0.22
-0.27148438,-5.390374E-4,0.0033481978,0.0011759609,-0.06,0.98,0.22,23293,9940.20,0,0,0,0.84,-2.31,0.07,-0.06,0.98,0.22
0.7285156,-0.016539037,3.4819916E-4,-0.0018240393,-0.06,0.98,0.22,23308,9941.20,0,0,165,-0.28,-2.52,-0.14,-0.06,0.98,0.22
-0.27148438,-0.014539037,-6.5180287E-4,-0.0018240393,-0.06,0.98,0.22,23316,9940.20,0,0,0,-0.14,-2.59,-0.14,-0.06,0.98,0.22
-0.27148438,-0.0015390366,-6.5180287E-4,-8.240392E-4,-0.06,0.98,0.23,23331,9940.20,0,0,165,0.77,-2.59,-0.07,-0.06,0.98,0.23
-0.27148438,0.007460963,-6.5180287E-4,-0.002824039,-0.06,0.98,0.23,23346,9940.20,0,0,0,1.40,-2.59,-0.21,-0.06,0.98,0.23
0.028320312,0.0054609627,0.0013481975,-0.004824039,-0.06,0.98,0.23,23354,9940.50,0,0,165,1.26,-2.45,-0.35,-0.06,0.98,0.23
0.7285156,-0.0025390368,3.4819916E-4,-0.0018240393,-0.06,0.98,0.22,23369,9941.20,0,0,0,0.70,-2.52,-0.14,-0.06,0.98,0.22
0.7285156,-0.006539037,0.0013481975,-0.0038240394,-0.06,0.98,0.23,23384,9941.20,0,0,165,0.42,-2.45,-0.28,-0.06,0.98,0.23
-0.27148438,-0.009539037,-0.0016518049,-8.240392E-4,-0.05,0.98,0.22,23390,9940.20,0,0,0,0.21,-2.66,-0.07,-0.05,0.98,0.22
-0.27148438,-0.0025390368,3.4819916E-4,1.759608E-4,-0.05,0.98,0.22,23406,9940.20,0,0,165,0.70,-2.52,0.00,-0.05,0.98,0.22
-0.27148438,0.002460963,-0.0016518049,-8.240392E-4,-0.06,0.98,0.23,23421,9940.20,0,0,0,1.05,-2.66,-0.07,-0.06,0.98,0.23
-0.27148438,0.0064609647,-6.5180287E-4,0.0011759609,-0.06,0.98,0.23,23428,9940.20,0,0,165,1.33,-2.59,0.07,-0.06,0.98,0.23
-0.27148438,0.0044609644,-6.5180287E-4,-0.002824039,-0.06,0.98,0.22,23443,9940.20,0,0,0,1.19,-2.59,-0.21,-0.06,0.98,0.22
-0.27148438,-5.390374E-4,-6.5180287E-4,1.759608E-4,-0.06,0.98,0.23,23459,9940.20,0,0,165,0.84,-2.59,0.00,-0.06,0.98,0.23
0.7285156,-0.0015390366,0.0013481975,0.0011759609,-0.06,0.98,0.22,23466,9941.20,0,0,0,0.77,-2.45,0.07,-0.06,0.98,0.22
-0.27148438,-0.0015390366,0.0013481975,0.0011759609,-0.06,0.98,0.23,23481,9940.20,0,0,165,0.77,-2.45,0.07,-0.06,0.98,0.23
-0.27148438,0.002460963,3.4819916E-4,0.0011759609,-0.06,0.98,0.23,23496,9940.20,0,0,0,1.05,-2.52,0.07,-0.06,0.98,0.23
1.0283203,0.0054609627,-6.5180287E-4,1.759608E-4,-0.06,0.98,0.22,23504,9941.50,0,0,165,1.26,-2.59,0.00,-0.06,0.98,0.22
0.7285156,0.0064609647,3.4819916E-4,1.759608E-4,-0.06,0.98,0.22,23518,9941.20,0,0,0,1.33,-2.52,0.00,-0.06,0.98,0.22
-0.27148438,0.0014609639,-6.5180287E-4,-0.0018240393,-0.06,0.98,0.22,23542,9940.20,0,0,165,0.98,-2.59,-0.14,-0.06,0.98,0.22
0.028320312,-0.0015390366,-6.5180287E-4,1.759608E-4,-0.06,0.98,0.22,23544,9940.50,0,0,0,0.77,-2.59,0.00,-0.06,0.98,0.22
0.028320312,-0.0055390364,-6.5180287E-4,0.0011759609,-0.06,0.98,0.22,23556,9940.50,0,0,165,0.49,-2.59,0.07,-0.06,0.98,0.22
-1.171875,-0.004539036,3.4819916E-4,1.759608E-4,-0.06,0.98,0.23,23572,9939.30,0,0,0,0.56,-2.52,0.00,-0.06,0.98,0.23
0.028320312,-5.390374E-4,-6.5180287E-4,-8.240392E-4,-0.06,0.98,0.23,23578,9940.50,0,0,165,0.84,-2.59,-0.07,-0.06,0.98,0.23
-0.27148438,0.002460963,3.4819916E-4,-8.240392E-4,-0.06,0.98,0.23,23593,9940.20,0,0,0,1.05,-2.52,-0.07,-0.06,0.98,0.23
0.42871094,0.0014609639,0.0013481975,-8.240392E-4,-0.06,0.98,0.23,23608,9940.90,0,0,165,0.98,-2.45,-0.07,-0.06,0.98,0.23
-0.8720703,-5.390374E-4,0.0013481975,0.0011759609,-0.06,0.98,0.23,23616,9939.60,0,0,0,0.84,-2.45,0.07,-0.06,0.98,0.23
-0.27148438,-0.0015390366,0.0023481958,1.759608E-4,-0.06,0.98,0.23,23639,9940.20,0,0,165,0.77,-2.38,0.00,-0.06,0.98,0.23
0.028320312,-0.0015390366,3.4819916E-4,-8.240392E-4,-0.06,0.98,0.23,23646,9940.50,0,0,0,0.77,-2.52,-0.07,-0.06,0.98,0.23
0.028320312,-5.390374E-4,3.4819916E-4,1.759608E-4,-0.06,0.98,0.22,23654,9940.50,0,0,165,0.84,-2.52,0.00,-0.06,0.98,0.22
1.0283203,0.002460963,0.0023481958,1.759608E-4,-0.06,0.98,0.22,23668,9941.50,0,0,0,1.05,-2.38,0.00,-0.06,0.98,0.22
-0.27148438,0.002460963,0.0023481958,0.0011759609,-0.06,0.98,0.22,23676,9940.20,0,0,165,1.05,-2.38,0.07,-0.06,0.98,0.22
0.028320312,0.0034609642,0.0013481975,1.759608E-4,-0.06,0.98,0.22,23691,9940.50,0,0,0,1.12,-2.45,0.00,-0.06,0.98,0.22
1.0283203,0.002460963,3.4819916E-4,1.759608E-4,-0.06,0.98,0.22,23706,9941.50,0,0,165,1.05,-2.52,0.00,-0.06,0.98,0.22
-0.27148438,0.0014609639,0.0013481975,1.759608E-4,-0.06,0.98,0.23,23713,9940.20,0,0,0,0.98,-2.45,0.00,-0.06,0.98,0.23
0.42871094,-5.390374E-4,0.0013481975,0.002175961,-0.06,0.98,0.22,23728,9940.90,0,0,165,0.84,-2.45,0.14,-0.06,0.98,0.22
-0.57128906,-0.0025390368,3.4819916E-4,-8.240392E-4,-0.06,0.98,0.23,23743,9939.90,0,0,0,0.70,-2.52,-0.07,-0.06,0.98,0.23
1.0283203,-0.0015390366,-6.5180287E-4,0.25517595,-0.05,0.98,0.23,23753,9941.50,0,0,165,0.77,-2.59,17.85,-0.05,0.98,0.23
1.0283203,4.609637E-4,3.4819916E-4,0.0011759609,-0.06,0.98,0.23,23766,9941.50,0,0,0,0.91,-2.52,0.07,-0.06,0.98,0.23
1.0283203,4.609637E-4,3.4819916E-4,1.759608E-4,-0.06,0.98,0.23,23781,9941.50,0,0,165,0.91,-2.52,0.00,-0.06,0.98,0.23
1.0283203,-0.0015390366,3.4819916E-4,1.759608E-4,-0.06,0.98,0.23,23788,9941.50,0,0,0,0.77,-2.52,0.00,-0.06,0.98,0.23
1.0283203,-0.0015390366,3.4819916E-4,1.759608E-4,-0.06,0.98,0.23,23803,9941.50,0,0,165,0.77,-2.52,0.00,-0.06,0.98,0.23
0.028320312,4.609637E-4,0.0013481975,1.759608E-4,-0.06,0.98,0.23,23819,9940.50,0,0,0,0.91,-2.45,0.00,-0.06,0.98,0.23
-1.171875,-5.390374E-4,-6.5180287E-4,1.759608E-4,-0.06,0.98,0.23,23827,9939.30,0,0,165,0.84,-2.59,0.00,-0.06,0.98,0.23
0.028320312,4.609637E-4,3.4819916E-4,1.759608E-4,-0.06,0.98,0.23,23841,9940.50,0,0,0,0.91,-2.52,0.00,-0.06,0.98,0.23
-0.57128906,-5.390374E-4,-6.5180287E-4,-0.0018240393,-0.06,0.98,0.23,23856,9939.90,0,0,165,0.84,-2.59,-0.14,-0.06,0.98,0.23
1.0283203,-5.390374E-4,-6.5180287E-4,-0.002824039,-0.06,0.98,0.22,23868,9941.50,0,0,0,0.84,-2.59,-0.21,-0.06,0.98,0.22
-0.27148438,-5.390374E-4,-6.5180287E-4,-0.0018240393,-0.06,0.98,0.23,23878,9940.20,0,0,165,0.84,-2.59,-0.14,-0.06,0.98,0.23
-0.27148438,-5.390374E-4,-6.5180287E-4,-8.240392E-4,-0.06,0.98,0.23,23894,9940.20,0,0,0,0.84,-2.59,-0.07,-0.06,0.98,0.23
0.7285156,4.609637E-4,3.4819916E-4,0.25517595,-0.06,0.98,0.23,23901,9941.20,0,0,165,0.91,-2.52,17.85,-0.06,0.98,0.23
0.7285156,0.0034609642,0.0013481975,0.0011759609,-0.06,0.98,0.22,23918,9941.20,0,0,0,1.12,-2.45,0.07,-0.06,0.98,0.22
0.028320312,0.0034609642,0.0013481975,0.002175961,-0.06,0.98,0.22,23930,9940.50,0,0,165,1.12,-2.45,0.14,-0.06,0.98,0.22
0.028320312,0.0014609639,3.4819916E-4,1.759608E-4,-0.06,0.98,0.22,23939,9940.50,0,0,0,0.98,-2.52,0.00,-0.06,0.98,0.22
0.7285156,-0.0015390366,3.4819916E-4,1.759608E-4,-0.06,0.98,0.22,23954,9941.20,0,0,165,0.77,-2.52,0.00,-0.06,0.98,0.22
0.7285156,-0.004539036,-0.0016518049,0.0011759609,-0.06,0.98,0.23,23969,9941.20,0,0,0,0.56,-2.66,0.07,-0.06,0.98,0.23
0.028320312,-0.004539036,3.4819916E-4,0.0031759606,-0.06,0.98,0.23,23976,9940.50,0,0,165,0.56,-2.52,0.21,-0.06,0.98,0.23
-0.27148438,4.609637E-4,0.0013481975,0.004175961,-0.06,0.98,0.23,23993,9940.20,0,0,0,0.91,-2.45,0.28,-0.06,0.98,0.23
0.028320312,0.008460963,0.004348196,0.0031759606,-0.06,0.98,0.23,24005,9940.50,0,0,165,1.47,-2.24,0.21,-0.06,0.98,0.23
-0.8720703,0.0104609635,0.0033481978,-0.0018240393,-0.06,0.98,0.22,24014,9939.60,0,0,0,1.61,-2.31,-0.14,-0.06,0.98,0.22
-0.27148438,0.008460963,0.0023481958,-0.0018240393,-0.06,0.98,0.22,24028,9940.20,0,0,165,1.47,-2.38,-0.14,-0.06,0.98,0.22
1.0283203,4.609637E-4,-0.0026518032,-8.240392E-4,-0.06,0.98,0.22,24044,9941.50,0,0,0,0.91,-2.73,-0.07,-0.06,0.98,0.22
0.028320312,-0.0055390364,-6.5180287E-4,0.002175961,-0.05,0.98,0.22,24053,9940.50,0,0,165,0.49,-2.59,0.14,-0.05,0.98,0.22
0.028320312,-0.004539036,-6.5180287E-4,0.0031759606,-0.06,0.98,0.23,24066,9940.50,0,0,0,0.56,-2.59,0.21,-0.06,0.98,0.23
0.028320312,0.0034609642,3.4819916E-4,0.0011759609,-0.06,0.98,0.23,24083,9940.50,0,0,165,1.12,-2.52,0.07,-0.06,0.98,0.23
0.028320312,0.013460964,0.0013481975,-0.002824039,-0.06,0.98,0.23,24088,9940.50,0,0,0,1.82,-2.45,-0.21,-0.06,0.98,0.23
-0.27148438,0.014460964,-6.5180287E-4,-0.0018240393,-0.06,0.98,0.22,24104,9940.20,0,0,165,1.89,-2.59,-0.14,-0.06,0.98,0.22
0.028320312,0.0044609644,-0.0026518032,-8.240392E-4,-0.06,0.98,0.22,24118,9940.50,0,0,0,1.19,-2.73,-0.07,-0.06,0.98,0.22
0.028320312,-0.0075390367,3.4819916E-4,0.002175961,-0.06,0.98,0.22,24125,9940.50,0,0,165,0.35,-2.52,0.14,-0.06,0.98,0.22
1.0283203,-0.013539037,-6.5180287E-4,0.002175961,-0.05,0.98,0.22,24141,9941.50,0,0,0,-0.07,-2.59,0.14,-0.05,0.98,0.22
0.028320312,-0.0055390364,-6.5180287E-4,0.002175961,-0.06,0.98,0.23,24155,9940.50,0,0,165,0.49,-2.59,0.14,-0.06,0.98,0.23
0.028320312,0.011460962,-6.5180287E-4,0.0011759609,-0.06,0.99,0.23,24163,9940.50,0,0,0,1.68,-2.59,0.07,-0.06,0.99,0.23
0.028320312,0.017460963,-6.5180287E-4,1.759608E-4,-0.06,0.98,0.22,24182,9940.50,0,0,165,2.10,-2.59,0.00,-0.06,0.98,0.22
-0.8720703,0.008460963,-0.0026518032,-8.240392E-4,-0.06,0.98,0.22,24193,9939.60,0,0,0,1.47,-2.73,-0.07,-0.06,0.98,0.22
-0.8720703,-0.008539036,-0.0036518015,1.759608E-4,-0.06,0.98,0.22,24204,9939.60,0,0,165,0.28,-2.80,0.00,-0.06,0.98,0.22
0.028320312,-0.018539036,0.0013481975,0.0011759609,-0.06,0.98,0.22,24215,9940.50,0,0,0,-0.42,-2.45,0.07,-0.06,0.98,0.22
0.028320312,-0.008539036,-6.5180287E-4,0.0011759609,-0.06,0.98,0.23,24230,9940.50,0,0,165,0.28,-2.59,0.07,-0.06,0.98,0.23
0.42871094,0.0064609647,3.4819916E-4,0.0011759609,-0.06,0.98,0.23,24253,9940.90,0,0,0,1.33,-2.52,0.07,-0.06,0.98,0.23
0.028320312,0.018460965,0.0013481975,1.759608E-4,-0.06,0.98,0.23,24255,9940.50,0,0,165,2.17,-2.45,0.00,-0.06,0.98,0.23
0.028320312,0.016460963,0.0013481975,0.0031759606,-0.06,0.98,0.22,24269,9940.50,0,0,0,2.03,-2.45,0.21,-0.06,0.98,0.22
0.028320312,0.0044609644,0.0033481978,0.004175961,-0.05,0.98,0.22,24276,9940.50,0,0,165,1.19,-2.31,0.28,-0.05,0.98,0.22
0.028320312,-0.013539037,0.0023481958,0.002175961,-0.06,0.98,0.22,24292,9940.50,0,0,0,-0.07,-2.38,0.14,-0.06,0.98,0.22
1.0283203,-0.013539037,3.4819916E-4,0.0011759609,-0.06,0.98,0.23,24306,9941.50,0,0,165,-0.07,-2.52,0.07,-0.06,0.98,0.23
0.028320312,-0.003539037,0.0013481975,-8.240392E-4,-0.05,0.98,0.23,24313,9940.50,0,0,0,0.63,-2.45,-0.07,-0.05,0.98,0.23
-0.8720703,0.0044609644,-6.5180287E-4,-0.004824039,-0.06,0.98,0.23,24335,9939.60,0,0,165,1.19,-2.59,-0.35,-0.06,0.98,0.23
0.028320312,0.009460963,3.4819916E-4,-0.0018240393,-0.06,0.98,0.23,24343,9940.50,0,0,0,1.54,-2.52,-0.14,-0.06,0.98,0.23
-0.27148438,4.609637E-4,-6.5180287E-4,-0.0018240393,-0.06,0.98,0.22,24351,9940.20,0,0,165,0.91,-2.59,-0.14,-0.06,0.98,0.22
0.028320312,-0.0075390367,-6.5180287E-4,-8.240392E-4,-0.06,0.98,0.22,24366,9940.50,0,0,0,0.35,-2.59,-0.07,-0.06,0.98,0.22
0.7285156,-0.009539037,3.4819916E-4,0.0011759609,-0.06,0.98,0.22,24380,9941.20,0,0,165,0.21,-2.52,0.07,-0.06,0.98,0.22
1.0283203,-0.003539037,3.4819916E-4,1.759608E-4,-0.06,0.98,0.23,24388,9941.50,0,0,0,0.63,-2.52,0.00,-0.06,0.98,0.23
-0.27148438,0.0014609639,3.4819916E-4,0.0011759609,-0.06,0.98,0.22,24404,9940.20,0,0,165,0.98,-2.52,0.07,-0.06,0.98,0.22
0.028320312,0.0044609644,-6.5180287E-4,-8.240392E-4,-0.05,0.98,0.22,24418,9940.50,0,0,0,1.19,-2.59,-0.07,-0.05,0.98,0.22
2.6279297,0.0034609642,-0.0016518049,0.002175961,-0.06,0.98,0.22,24425,9943.10,0,0,165,1.12,-2.66,0.14,-0.06,0.98,0.22
-0.8720703,4.609637E-4,3.4819916E-4,0.002175961,-0.06,0.98,0.23,24441,9939.60,0,0,0,0.91,-2.52,0.14,-0.06,0.98,0.23
0.028320312,-0.0015390366,-6.5180287E-4,0.0011759609,-0.06,0.98,0.22,24455,9940.50,0,0,165,0.77,-2.59,0.07,-0.06,0.98,0.22
-0.8720703,4.609637E-4,0.0013481975,1.759608E-4,-0.06,0.98,0.23,24463,9939.60,0,0,0,0.91,-2.45,0.00,-0.06,0.98,0.23
0.028320312,0.0014609639,3.4819916E-4,0.0011759609,-0.06,0.98,0.22,24479,9940.50,0,0,165,0.98,-2.52,0.07,-0.06,0.98,0.22
0.028320312,0.002460963,-6.5180287E-4,0.002175961,-0.06,0.98,0.23,24494,9940.50,0,0,0,1.05,-2.59,0.14,-0.06,0.98,0.23
0.028320312,0.002460963,3.4819916E-4,1.759608E-4,-0.06,0.98,0.23,24503,9940.50,0,0,165,1.05,-2.52,0.00,-0.06,0.98,0.23
0.028320312,-0.0025390368,3.4819916E-4,0.0011759609,-0.06,0.98,0.23,24515,9940.50,0,0,0,0.70,-2.52,0.07,-0.06,0.98,0.23
-0.8720703,-0.0015390366,-0.0016518049,-8.240392E-4,-0.06,0.98,0.22,24530,9939.60,0,0,165,0.77,-2.66,-0.07,-0.06,0.98,0.22
0.028320312,-0.0025390368,-6.5180287E-4,0.0011759609,-0.06,0.98,0.22,24538,9940.50,0,0,0,0.70,-2.59,0.07,-0.06,0.98,0.22
-0.8720703,0.0014609639,3.4819916E-4,0.0011759609,-0.06,0.98,0.22,24553,9939.60,0,0,165,0.98,-2.52,0.07,-0.06,0.98,0.22
0.028320312,0.002460963,3.4819916E-4,-8.240392E-4,-0.06,0.98,0.23,24568,9940.50,0,0,0,1.05,-2.52,-0.07,-0.06,0.98,0.23
0.028320312,-5.390374E-4,-0.0016518049,-8.240392E-4,-0.05,0.98,0.22,24575,9940.50,0,0,165,0.84,-2.66,-0.07,-0.05,0.98,0.22
0.028320312,-5.390374E-4,-6.5180287E-4,-8.240392E-4,-0.06,0.98,0.23,24591,9940.50,0,0,0,0.84,-2.59,-0.07,-0.06,0.98,0.23
0.028320312,-0.003539037,3.4819916E-4,-0.0018240393,-0.06,0.98,0.22,24606,9940.50,0,0,165,0.63,-2.52,-0.14,-0.06,0.98,0.22
-0.8720703,-0.003539037,-6.5180287E-4,-0.0018240393,-0.06,0.98,0.23,24613,9939.60,0,0,0,0.63,-2.59,-0.14,-0.06,0.98,0.23
0.028320312,4.609637E-4,3.4819916E-4,-0.0018240393,-0.06,0.98,0.23,24628,9940.50,0,0,165,0.91,-2.52,-0.14,-0.06,0.98,0.23
0.028320312,-0.0015390366,0.0013481975,1.759608E-4,-0.06,0.98,0.23,24643,9940.50,0,0,0,0.77,-2.45,0.00,-0.06,0.98,0.23
0.028320312,4.609637E-4,3.4819916E-4,1.759608E-4,-0.06,0.98,0.22,24653,9940.50,0,0,165,0.91,-2.52,0.00,-0.06,0.98,0.22
0.028320312,-0.0025390368,3.4819916E-4,1.759608E-4,-0.06,0.98,0.23,24666,9940.50,0,0,0,0.70,-2.52,0.00,-0.06,0.98,0.23
1.0283203,4.609637E-4,3.4819916E-4,0.0011759609,-0.06,0.99,0.22,24681,9941.50,0,0,165,0.91,-2.52,0.07,-0.06,0.99,0.22
0.028320312,0.002460963,-6.5180287E-4,0.002175961,-0.05,0.98,0.22,24689,9940.50,0,0,0,1.05,-2.59,0.14,-0.05,0.98,0.22
1.0283203,0.0034609642,3.4819916E-4,0.002175961,-0.06,0.98,0.23,24704,9941.50,0,0,165,1.12,-2.52,0.14,-0.06,0.98,0.23
0.028320312,0.002460963,-0.0016518049,1.759608E-4,-0.06,0.99,0.22,24719,9940.50,0,0,0,1.05,-2.66,0.00,-0.06,0.99,0.22
0.028320312,-0.0025390368,-6.5180287E-4,0.002175961,-0.05,0.98,0.22,24726,9940.50,0,0,165,0.70,-2.59,0.14,-0.05,0.98,0.22
-0.57128906,-0.0025390368,-6.5180287E-4,1.759608E-4,-0.06,0.98,0.23,24741,9939.90,0,0,0,0.70,-2.59,0.00,-0.06,0.98,0.23
0.42871094,-0.0015390366,0.0013481975,0.0011759609,-0.06,0.98,0.23,24756,9940.90,0,0,165,0.77,-2.45,0.07,-0.06,0.98,0.23
0.42871094,0.002460963,3.4819916E-4,1.759608E-4,-0.06,0.98,0.22,24763,9940.90,0,0,0,1.05,-2.52,0.00,-0.06,0.98,0.22
0.028320312,0.002460963,-6.5180287E-4,1.759608E-4,-0.06,0.98,0.23,24779,9940.50,0,0,165,1.05,-2.59,0.00,-0.06,0.98,0.23
-0.27148438,0.002460963,0.0013481975,1.759608E-4,-0.06,0.98,0.22,24786,9940.20,0,0,0,1.05,-2.45,0.00,-0.06,0.98,0.22
1.0283203,-5.390374E-4,-6.5180287E-4,0.0011759609,-0.06,0.98,0.22,24801,9941.50,0,0,165,0.84,-2.59,0.07,-0.06,0.98,0.22
0.028320312,-5.390374E-4,3.4819916E-4,0.002175961,-0.06,0.98,0.22,24816,9940.50,0,0,0,0.84,-2.52,0.14,-0.06,0.98,0.22
0.028320312,-0.0015390366,0.0013481975,1.759608E-4,-0.05,0.98,0.23,24824,9940.50,0,0,165,0.77,-2.45,0.00,-0.05,0.98,0.23
-0.8720703,-5.390374E-4,0.0013481975,1.759608E-4,-0.05,0.98,0.23,24837,9939.60,0,0,0,0.84,-2.45,0.00,-0.05,0.98,0.23
0.42871094,4.609637E-4,3.4819916E-4,-8.240392E-4,-0.06,0.98,0.23,24853,9940.90,0,0,165,0.91,-2.52,-0.07,-0.06,0.98,0.23
-0.8720703,0.0014609639,-6.5180287E-4,-8.240392E-4,-0.06,0.98,0.22,24862,9939.60,0,0,0,0.98,-2.59,-0.07,-0.06,0.98,0.22
0.028320312,0.002460963,3.4819916E-4,1.759608E-4,-0.06,0.98,0.23,24876,9940.50,0,0,165,1.05,-2.52,0.00,-0.06,0.98,0.23
0.028320312,4.609637E-4,-6.5180287E-4,-8.240392E-4,-0.06,0.98,0.23,24891,9940.50,0,0,0,0.91,-2.59,-0.07,-0.06,0.98,0.23
0.028320312,4.609637E-4,0.0013481975,0.0011759609,-0.05,0.98,0.22,24906,9940.50,0,0,165,0.91,-2.45,0.07,-0.05,0.98,0.22
0.028320312,4.609637E-4,3.4819916E-4,-0.0018240393,-0.05,0.98,0.22,24914,9940.50,0,0,0,0.91,-2.52,-0.14,-0.05,0.98,0.22
-0.57128906,-5.390374E-4,3.4819916E-4,0.002175961,-0.06,0.98,0.22,24928,9939.90,0,0,165,0.84,-2.52,0.14,-0.06,0.98,0.22
0.028320312,0.002460963,0.0023481958,0.004175961,-0.06,0.98,0.22,24936,9940.50,0,0,0,1.05,-2.38,0.28,-0.06,0.98,0.22
0.42871094,4.609637E-4,-6.5180287E-4,0.0011759609,-0.06,0.98,0.22,24952,9940.90,0,0,165,0.91,-2.59,0.07,-0.06,0.98,0.22
-0.8720703,0.002460963,3.4819916E-4,0.002175961,-0.06,0.98,0.23,24966,9939.60,0,0,0,1.05,-2.52,0.14,-0.06,0.98,0.23
0.028320312,0.0054609627,0.0023481958,0.0011759609,-0.05,0.98,0.22,24973,9940.50,0,0,165,1.26,-2.38,0.07,-0.05,0.98,0.22
0.028320312,0.0014609639,0.0013481975,1.759608E-4,-0.06,0.98,0.22,24988,9940.50,0,0,0,0.98,-2.45,0.00,-0.06,0.98,0.22
0.028320312,-5.390374E-4,-6.5180287E-4,0.0011759609,-0.05,0.98,0.22,25004,9940.50,0,0,165,0.84,-2.59,0.07,-0.05,0.98,0.22
0.42871094,-0.003539037,-6.5180287E-4,0.002175961,-0.06,0.98,0.23,25012,9940.90,0,0,0,0.63,-2.59,0.14,-0.06,0.98,0.23
1.0283203,-0.0055390364,-0.0016518049,0.0011759609,-0.06,0.98,0.22,25026,9941.50,0,0,165,0.49,-2.66,0.07,-0.06,0.98,0.22
0.028320312,0.002460963,3.4819916E-4,0.0031759606,-0.06,0.98,0.23,25042,9940.50,0,0,0,1.05,-2.52,0.21,-0.06,0.98,0.23
0.028320312,0.0034609642,0.0013481975,0.002175961,-0.06,0.98,0.23,25048,9940.50,0,0,165,1.12,-2.45,0.14,-0.06,0.98,0.23
1.0283203,0.0064609647,0.0023481958,1.759608E-4,-0.06,0.98,0.22,25064,9941.50,0,0,0,1.33,-2.38,0.00,-0.06,0.98,0.22
0.028320312,0.0034609642,3.4819916E-4,1.759608E-4,-0.06,0.98,0.22,25079,9940.50,0,0,165,1.12,-2.52,0.00,-0.06,0.98,0.22
1.0283203,-0.0015390366,-0.0026518032,1.759608E-4,-0.06,0.98,0.22,25086,9941.50,0,0,0,0.77,-2.73,0.00,-0.06,0.98,0.22
1.328125,-0.003539037,-0.0016518049,0.0011759609,-0.06,0.98,0.22,25101,9941.80,0,0,165,0.63,-2.66,0.07,-0.06,0.98,0.22
-0.57128906,-5.390374E-4,-6.5180287E-4,0.0011759609,-0.06,0.98,0.23,25115,9939.90,0,0,0,0.84,-2.59,0.07,-0.06,0.98,0.23
1.328125,0.0044609644,3.4819916E-4,1.759608E-4,-0.06,0.98,0.23,25124,9941.80,0,0,165,1.19,-2.52,0.00,-0.06,0.98,0.23
0.028320312,0.012460964,-6.5180287E-4,-0.0018240393,-0.06,0.98,0.22,25138,9940.50,0,0,0,1.75,-2.59,-0.14,-0.06,0.98,0.22
0.028320312,0.014460964,3.4819916E-4,-8.240392E-4,-0.06,0.98,0.22,25154,9940.50,0,0,165,1.89,-2.52,-0.07,-0.06,0.98,0.22
0.028320312,0.0044609644,-6.5180287E-4,1.759608E-4,-0.06,0.98,0.22,25161,9940.50,0,0,0,1.19,-2.59,0.00,-0.06,0.98,0.22
-0.8720703,-0.011539036,-6.5180287E-4,1.759608E-4,-0.06,0.98,0.22,25176,9939.60,0,0,165,0.07,-2.59,0.00,-0.06,0.98,0.22
0.028320312,-0.013539037,-0.0026518032,1.759608E-4,-0.06,0.98,0.23,25191,9940.50,0,0,0,-0.07,-2.73,0.00,-0.06,0.98,0.23
-0.57128906,-0.0025390368,-0.0016518049,0.002175961,-0.06,0.98,0.23,25198,9939.90,0,0,165,0.70,-2.66,0.14,-0.06,0.98,0.23
0.028320312,0.013460964,3.4819916E-4,1.759608E-4,-0.06,0.98,0.23,25213,9940.50,0,0,0,1.82,-2.52,0.00,-0.06,0.98,0.23
0.028320312,0.018460965,-6.5180287E-4,1.759608E-4,-0.06,0.98,0.22,25228,9940.50,0,0,165,2.17,-2.59,0.00,-0.06,0.98,0.22
0.42871094,0.0044609644,3.4819916E-4,-8.240392E-4,-0.06,0.98,0.22,25236,9940.90,0,0,0,1.19,-2.52,-0.07,-0.06,0.98,0.22
1.0283203,-0.013539037,-0.0016518049,-8.240392E-4,-0.05,0.98,0.22,25251,9941.50,0,0,165,-0.07,-2.66,-0.07,-0.05,0.98,0.22
-0.8720703,-0.019539036,-0.0016518049,-8.240392E-4,-0.05,0.98,0.23,25265,9939.60,0,0,0,-0.49,-2.66,-0.07,-0.05,0.98,0.23
2.328125,-0.011539036,3.4819916E-4,0.0011759609,-0.05,0.98,0.23,25273,9942.80,0,0,165,0.07,-2.52,0.07,-0.05,0.98,0.23
0.028320312,0.009460963,0.0013481975,0.0011759609,-0.06,0.98,0.22,25288,9940.50,0,0,0,1.54,-2.45,0.07,-0.06,0.98,0.22
2.328125,0.018460965,0.0013481975,1.759608E-4,-0.06,0.98,0.23,25303,9942.80,0,0,165,2.17,-2.45,0.00,-0.06,0.98,0.23
0.028320312,0.017460963,0.0013481975,0.0031759606,-0.06,0.99,0.22,25319,9940.50,0,0,0,2.10,-2.45,0.21,-0.06,0.99,0.22
0.42871094,0.0034609642,0.0013481975,0.0031759606,-0.05,0.98,0.22,25326,9940.90,0,0,165,1.12,-2.45,0.21,-0.05,0.98,0.22
0.42871094,-0.011539036,0.0023481958,0.0011759609,-0.06,0.98,0.22,25340,9940.90,0,0,0,0.07,-2.38,0.07,-0.06,0.98,0.22
-0.57128906,-0.013539037,3.4819916E-4,-0.0018240393,-0.06,0.98,0.23,25348,9939.90,0,0,165,-0.07,-2.52,-0.14,-0.06,0.98,0.23
1.0283203,-0.0015390366,3.4819916E-4,-0.0018240393,-0.06,0.98,0.22,25363,9941.50,0,0,0,0.77,-2.52,-0.14,-0.06,0.98,0.22
0.42871094,0.0034609642,-0.0016518049,-0.0038240394,-0.06,0.99,0.22,25378,9940.90,0,0,165,1.12,-2.66,-0.28,-0.06,0.99,0.22
0.42871094,0.0054609627,3.4819916E-4,-0.002824039,-0.06,0.98,0.23,25386,9940.90,0,0,0,1.26,-2.52,-0.21,-0.06,0.98,0.23
1.328125,-0.0015390366,0.0023481958,-8.240392E-4,-0.06,0.98,0.23,25402,9941.80,0,0,165,0.77,-2.38,-0.07,-0.06,0.98,0.23
0.42871094,-0.008539036,0.0033481978,-8.240392E-4,-0.06,0.98,0.23,25417,9940.90,0,0,0,0.28,-2.31,-0.07,-0.06,0.98,0.23
0.028320312,-0.008539036,-6.5180287E-4,-8.240392E-4,-0.06,0.98,0.22,25426,9940.50,0,0,165,0.28,-2.59,-0.07,-0.06,0.98,0.22
-0.57128906,-0.0015390366,3.4819916E-4,1.759608E-4,-0.06,0.98,0.23,25438,9939.90,0,0,0,0.77,-2.52,0.00,-0.06,0.98,0.23
0.42871094,0.0044609644,-6.5180287E-4,0.0011759609,-0.05,0.98,0.23,25454,9940.90,0,0,165,1.19,-2.59,0.07,-0.05,0.98,0.23
0.42871094,0.0044609644,-6.5180287E-4,1.759608E-4,-0.06,0.98,0.22,25460,9940.90,0,0,0,1.19,-2.59,0.00,-0.06,0.98,0.22
0.42871094,-5.390374E-4,-6.5180287E-4,-0.25582406,-0.06,0.98,0.22,25476,9940.90,0,0,165,0.84,-2.59,-17.92,-0.06,0.98,0.22
0.42871094,-0.003539037,-0.0016518049,0.0011759609,-0.06,0.98,0.23,25492,9940.90,0,0,0,0.63,-2.66,0.07,-0.06,0.98,0.23
-0.57128906,-0.0055390364,-0.0016518049,1.759608E-4,-0.06,0.98,0.23,25498,9939.90,0,0,165,0.49,-2.66,0.00,-0.06,0.98,0.23
0.42871094,0.0014609639,3.4819916E-4,0.0031759606,-0.06,0.98,0.22,25513,9940.90,0,0,0,0.98,-2.52,0.21,-0.06,0.98,0.22
0.028320312,0.0034609642,0.0013481975,0.0011759609,-0.06,0.98,0.23,25529,9940.50,0,0,165,1.12,-2.45,0.07,-0.06,0.98,0.23
0.42871094,0.0044609644,3.4819916E-4,0.002175961,-0.06,0.98,0.22,25536,9940.90,0,0,0,1.19,-2.52,0.14,-0.06,0.98,0.22
-0.8720703,4.609637E-4,3.4819916E-4,1.759608E-4,-0.06,0.98,0.22,25550,9939.60,0,0,165,0.91,-2.52,0.00,-0.06,0.98,0.22
-0.57128906,-0.0025390368,-6.5180287E-4,-0.0018240393,-0.06,0.98,0.23,25566,9939.90,0,0,0,0.70,-2.59,-0.14,-0.06,0.98,0.23
-0.57128906,-0.004539036,-0.0016518049,-0.002824039,-0.06,0.98,0.22,25573,9939.90,0,0,165,0.56,-2.66,-0.21,-0.06,0.98,0.22
-0.57128906,-0.0015390366,-6.5180287E-4,1.759608E-4,-0.06,0.98,0.23,25588,9939.90,0,0,0,0.77,-2.59,0.00,-0.06,0.98,0.23
0.42871094,-5.390374E-4,-0.0016518049,-8.240392E-4,-0.06,0.98,0.23,25604,9940.90,0,0,165,0.84,-2.66,-0.07,-0.06,0.98,0.23
0.42871094,4.609637E-4,-6.5180287E-4,0.0011759609,-0.06,0.98,0.23,25611,9940.90,0,0,0,0.91,-2.59,0.07,-0.06,0.98,0.23
0.42871094,4.609637E-4,-6.5180287E-4,1.759608E-4,-0.06,0.98,0.23,25626,9940.90,0,0,165,0.91,-2.59,0.00,-0.06,0.98,0.23
0.42871094,0.002460963,0.0013481975,1.759608E-4,-0.06,0.98,0.23,25641,9940.90,0,0,0,1.05,-2.45,0.00,-0.06,0.98,0.23
0.42871094,0.0014609639,0.0013481975,1.759608E-4,-0.06,0.98,0.23,25648,9940.90,0,0,165,0.98,-2.45,0.00,-0.06,0.98,0.23
-0.57128906,4.609637E-4,3.4819916E-4,-8.240392E-4,-0.06,0.98,0.22,25663,9939.90,0,0,0,0.91,-2.52,-0.07,-0.06,0.98,0.22
1.328125,4.609637E-4,3.4819916E-4,-0.0018240393,-0.06,0.98,0.23,25679,9941.80,0,0,165,0.91,-2.52,-0.14,-0.06,0.98,0.23
0.42871094,-0.0025390368,3.4819916E-4,0.002175961,-0.06,0.98,0.22,25686,9940.90,0,0,0,0.70,-2.52,0.14,-0.06,0.98,0.22
0.42871094,-5.390374E-4,3.4819916E-4,1.759608E-4,-0.06,0.98,0.23,25702,9940.90,0,0,165,0.84,-2.52,0.00,-0.06,0.98,0.23
-0.57128906,-0.0025390368,-6.5180287E-4,-0.0018240393,-0.06,0.98,0.23,25716,9939.90,0,0,0,0.70,-2.59,-0.14,-0.06,0.98,0.23
0.42871094,-5.390374E-4,3.4819916E-4,1.759608E-4,-0.06,0.98,0.22,25723,9940.90,0,0,165,0.84,-2.52,0.00,-0.06,0.98,0.22
0.42871094,0.002460963,3.4819916E-4,-8.240392E-4,-0.06,0.98,0.22,25739,9940.90,0,0,0,1.05,-2.52,-0.07,-0.06,0.98,0.22
0.42871094,0.0034609642,3.4819916E-4,0.0011759609,-0.06,0.98,0.22,25753,9940.90,0,0,165,1.12,-2.52,0.07,-0.06,0.98,0.22
1.0283203,0.0014609639,3.4819916E-4,0.0011759609,-0.06,0.98,0.22,25761,9941.50,0,0,0,0.98,-2.52,0.07,-0.06,0.98,0.22
1.328125,-0.0015390366,3.4819916E-4,1.759608E-4,-0.06,0.98,0.22,25776,9941.80,0,0,165,0.77,-2.52,0.00,-0.06,0.98,0.22
0.42871094,-0.003539037,-6.5180287E-4,0.002175961,-0.06,0.98,0.23,25791,9940.90,0,0,0,0.63,-2.59,0.14,-0.06,0.98,0.23
0.42871094,-5.390374E-4,-6.5180287E-4,1.759608E-4,-0.06,0.98,0.22,25798,9940.90,0,0,165,0.84,-2.59,0.00,-0.06,0.98,0.22
0.42871094,0.0014609639,-6.5180287E-4,0.0011759609,-0.06,0.98,0.22,25813,9940.90,0,0,0,0.98,-2.59,0.07,-0.06,0.98,0.22
0.42871094,0.0064609647,0.0023481958,0.0011759609,-0.06,0.98,0.23,25828,9940.90,0,0,165,1.33,-2.38,0.07,-0.06,0.98,0.23
-0.57128906,0.0034609642,3.4819916E-4,0.0011759609,-0.06,0.98,0.23,25835,9939.90,0,0,0,1.12,-2.52,0.07,-0.06,0.98,0.23
-0.57128906,0.0014609639,0.0013481975,1.759608E-4,-0.06,0.98,0.22,25852,9939.90,0,0,165,0.98,-2.45,0.00,-0.06,0.98,0.22
-0.57128906,-0.004539036,3.4819916E-4,1.759608E-4,-0.06,0.98,0.22,25866,9939.90,0,0,0,0.56,-2.52,0.00,-0.06,0.98,0.22
0.42871094,-0.003539037,-6.5180287E-4,1.759608E-4,-0.06,0.98,0.22,25874,9940.90,0,0,165,0.63,-2.59,0.00,-0.06,0.98,0.22
0.42871094,-5.390374E-4,-6.5180287E-4,0.0011759609,-0.06,0.98,0.22,25888,9940.90,0,0,0,0.84,-2.59,0.07,-0.06,0.98,0.22
-0.57128906,0.002460963,-0.0016518049,1.759608E-4,-0.06,0.98,0.23,25904,9939.90,0,0,165,1.05,-2.66,0.00,-0.06,0.98,0.23
0.42871094,0.0044609644,3.4819916E-4,-8.240392E-4,-0.06,0.98,0.22,25911,9940.90,0,0,0,1.19,-2.52,-0.07,-0.06,0.98,0.22
0.42871094,0.0014609639,-6.5180287E-4,-8.240392E-4,-0.06,0.98,0.23,25926,9940.90,0,0,165,0.98,-2.59,-0.07,-0.06,0.98,0.23
0.42871094,-5.390374E-4,-6.5180287E-4,-8.240392E-4,-0.06,0.98,0.22,25941,9940.90,0,0,0,0.84,-2.59,-0.07,-0.06,0.98,0.22
-0.27148438,-0.0025390368,-6.5180287E-4,0.0011759609,-0.06,0.98,0.22,25949,9940.20,0,0,165,0.70,-2.59,0.07,-0.06,0.98,0.22
0.42871094,-5.390374E-4,0.0013481975,0.0011759609,-0.06,0.98,0.23,25964,9940.90,0,0,0,0.84,-2.45,0.07,-0.06,0.98,0.23
1.328125,0.002460963,3.4819916E-4,0.0011759609,-0.05,0.98,0.22,25978,9941.80,0,0,165,1.05,-2.52,0.07,-0.05,0.98,0.22
1.328125,0.0014609639,-0.0016518049,1.759608E-4,-0.06,0.98,0.22,25986,9941.80,0,0,0,0.98,-2.66,0.00,-0.06,0.98,0.22
-0.57128906,4.609637E-4,3.4819916E-4,0.0011759609,-0.06,0.98,0.22,26002,9939.90,0,0,165,0.91,-2.52,0.07,-0.06,0.98,0.22
-0.57128906,-0.0015390366,3.4819916E-4,1.759608E-4,-0.06,0.98,0.23,26015,9939.90,0,0,0,0.77,-2.52,0.00,-0.06,0.98,0.23
-0.57128906,4.609637E-4,-6.5180287E-4,0.0031759606,-0.06,0.98,0.22,26024,9939.90,0,0,165,0.91,-2.59,0.21,-0.06,0.98,0.22
1.328125,4.609637E-4,-6.5180287E-4,1.759608E-4,-0.06,0.98,0.22,26038,9941.80,0,0,0,0.91,-2.59,0.00,-0.06,0.98,0.22
-0.57128906,4.609637E-4,3.4819916E-4,1.759608E-4,-0.06,0.98,0.23,26054,9939.90,0,0,165,0.91,-2.52,0.00,-0.06,0.98,0.23
-0.57128906,0.0064609647,0.0013481975,0.0011759609,-0.06,0.98,0.23,26061,9939.90,0,0,0,1.33,-2.45,0.07,-0.06,0.98,0.23
0.42871094,-0.0015390366,-6.5180287E-4,-0.0018240393,-0.05,0.98,0.22,26075,9940.90,0,0,165,0.77,-2.59,-0.14,-0.05,0.98,0.22
-0.57128906,-0.004539036,-0.0026518032,1.759608E-4,-0.06,0.98,0.22,26091,9939.90,0,0,0,0.56,-2.73,0.00,-0.06,0.98,0.22
0.42871094,-0.004539036,-6.5180287E-4,0.004175961,-0.06,0.98,0.23,26098,9940.90,0,0,165,0.56,-2.59,0.28,-0.06,0.98,0.23
-0.57128906,-0.004539036,-6.5180287E-4,0.0031759606,-0.06,0.98,0.22,26113,9939.90,0,0,0,0.56,-2.59,0.21,-0.06,0.98,0.22
-0.57128906,0.0044609644,0.0023481958,0.0031759606,-0.06,0.98,0.23,26128,9939.90,0,0,165,1.19,-2.38,0.21,-0.06,0.98,0.23
0.42871094,0.011460962,0.004348196,0.0011759609,-0.06,0.98,0.23,26136,9940.90,0,0,0,1.68,-2.24,0.07,-0.06,0.98,0.23
-0.57128906,0.0104609635,0.0023481958,-0.0018240393,-0.05,0.98,0.22,26151,9939.90,0,0,165,1.61,-2.38,-0.14,-0.05,0.98,0.22
1.328125,0.002460963,-6.5180287E-4,-8.240392E-4,-0.05,0.98,0.22,26166,9941.80,0,0,0,1.05,-2.59,-0.07,-0.05,0.98,0.22
-0.57128906,-0.008539036,-0.0036518015,0.002175961,-0.05,0.98,0.23,26173,9939.90,0,0,165,0.28,-2.80,0.14,-0.05,0.98,0.23
0.42871094,-0.012539037,-0.0026518032,-8.240392E-4,-0.06,0.98,0.22,26188,9940.90,0,0,0,0.00,-2.73,-0.07,-0.06,0.98,0.22
-0.57128906,-0.006539037,-6.5180287E-4,0.002175961,-0.06,0.98,0.23,26203,9939.90,0,0,165,0.42,-2.59,0.14,-0.06,0.98,0.23
0.42871094,0.009460963,-0.0016518049,-0.0018240393,-0.06,0.98,0.22,26211,9940.90,0,0,0,1.54,-2.66,-0.14,-0.06,0.98,0.22
0.7285156,0.018460965,0.0013481975,-0.002824039,-0.06,0.98,0.22,26226,9941.20,0,0,165,2.17,-2.45,-0.21,-0.06,0.98,0.22
-0.57128906,0.015460964,-0.0016518049,-0.0018240393,-0.06,0.99,0.22,26242,9939.90,0,0,0,1.96,-2.66,-0.14,-0.06,0.99,0.22
0.42871094,0.002460963,-0.0026518032,1.759608E-4,-0.06,0.98,0.22,26249,9940.90,0,0,165,1.05,-2.73,0.00,-0.06,0.98,0.22
-0.57128906,-0.012539037,-0.0026518032,0.0031759606,-0.06,0.98,0.22,26263,9939.90,0,0,0,0.00,-2.73,0.21,-0.06,0.98,0.22
-1.5712891,-0.017539036,-6.5180287E-4,0.002175961,-0.06,0.98,0.23,26278,9938.90,0,0,165,-0.35,-2.59,0.14,-0.06,0.98,0.23
-0.57128906,-0.009539037,3.4819916E-4,1.759608E-4,-0.06,0.98,0.23,26286,9939.90,0,0,0,0.21,-2.52,0.00,-0.06,0.98,0.23
-0.57128906,0.0064609647,-6.5180287E-4,0.0011759609,-0.06,0.98,0.23,26301,9939.90,0,0,165,1.33,-2.59,0.07,-0.06,0.98,0.23
-0.57128906,0.022460964,0.0023481958,-8.240392E-4,-0.06,0.98,0.22,26316,9939.90,0,0,0,2.45,-2.38,-0.07,-0.06,0.98,0.22
0.42871094,0.012460964,-6.5180287E-4,0.0011759609,-0.06,0.98,0.22,26323,9940.90,0,0,165,1.75,-2.59,0.07,-0.06,0.98,0.22
0.42871094,-0.0075390367,-6.5180287E-4,1.759608E-4,-0.06,0.98,0.22,26338,9940.90,0,0,0,0.35,-2.59,0.00,-0.06,0.98,0.22
0.42871094,-0.019539036,-6.5180287E-4,0.0031759606,-0.05,0.98,0.22,26354,9940.90,0,0,165,-0.49,-2.59,0.21,-0.05,0.98,0.22
0.42871094,-0.014539037,3.4819916E-4,0.0011759609,-0.05,0.98,0.23,26361,9940.90,0,0,0,-0.14,-2.52,0.07,-0.05,0.98,0.23
-0.27148438,0.002460963,3.4819916E-4,0.0011759609,-0.06,0.98,0.23,26376,9940.20,0,0,165,1.05,-2.52,0.07,-0.06,0.98,0.23
0.42871094,0.018460965,3.4819916E-4,0.0031759606,-0.05,0.98,0.23,26392,9940.90,0,0,0,2.17,-2.52,0.21,-0.05,0.98,0.23
-0.57128906,0.023460962,0.0033481978,1.759608E-4,-0.06,0.98,0.22,26398,9939.90,0,0,165,2.52,-2.31,0.00,-0.06,0.98,0.22
-0.57128906,0.0044609644,0.0023481958,0.0011759609,-0.06,0.98,0.22,26413,9939.90,0,0,0,1.19,-2.38,0.07,-0.06,0.98,0.22
-0.57128906,-0.012539037,0.0013481975,-0.0018240393,-0.06,0.98,0.22,26428,9939.90,0,0,165,0.00,-2.45,-0.14,-0.06,0.98,0.22
0.42871094,-0.021539036,-0.0016518049,0.0011759609,-0.06,0.98,0.23,26436,9940.90,0,0,0,-0.63,-2.66,0.07,-0.06,0.98,0.23
-0.57128906,0.24246097,-0.0016518049,-8.240392E-4,-0.06,0.98,0.23,26451,9939.90,0,0,165,17.85,-2.66,-0.07,-0.06,0.98,0.23
-0.57128906,0.0054609627,3.4819916E-4,-8.240392E-4,-0.05,0.98,0.23,26465,9939.90,0,0,0,1.26,-2.52,-0.07,-0.05,0.98,0.23
-0.57128906,0.012460964,3.4819916E-4,-0.0018240393,-0.06,0.98,0.23,26474,9939.90,0,0,165,1.75,-2.52,-0.14,-0.06,0.98,0.23
-0.57128906,0.0064609647,3.4819916E-4,-0.0038240394,-0.06,0.98,0.23,26488,9939.90,0,0,0,1.33,-2.52,-0.28,-0.06,0.98,0.23
0.42871094,-0.003539037,3.4819916E-4,-0.002824039,-0.06,0.98,0.22,26503,9940.90,0,0,165,0.63,-2.52,-0.21,-0.06,0.98,0.22
0.7285156,-0.008539036,3.4819916E-4,0.0011759609,-0.06,0.98,0.22,26510,9941.20,0,0,0,0.28,-2.52,0.07,-0.06,0.98,0.22
0.42871094,-0.0075390367,3.4819916E-4,0.002175961,-0.06,0.98,0.23,26525,9940.90,0,0,165,0.35,-2.52,0.14,-0.06,0.98,0.23
0.42871094,-0.0015390366,3.4819916E-4,-8.240392E-4,-0.05,0.98,0.22,26540,9940.90,0,0,0,0.77,-2.52,-0.07,-0.05,0.98,0.22
0.7285156,0.0034609642,-0.0016518049,0.0011759609,-0.05,0.98,0.23,26548,9941.20,0,0,165,1.12,-2.66,0.07,-0.05,0.98,0.23
-0.57128906,0.007460963,3.4819916E-4,1.759608E-4,-0.06,0.98,0.23,26563,9939.90,0,0,0,1.40,-2.52,0.00,-0.06,0.98,0.23
0.7285156,0.0044609644,3.4819916E-4,1.759608E-4,-0.05,0.98,0.23,26579,9941.20,0,0,165,1.19,-2.52,0.00,-0.05,0.98,0.23
0.7285156,-0.0025390368,3.4819916E-4,1.759608E-4,-0.06,0.98,0.22,26594,9941.20,0,0,0,0.70,-2.52,0.00,-0.06,0.98,0.22
-0.57128906,-0.0055390364,3.4819916E-4,1.759608E-4,-0.05,0.98,0.23,26602,9939.90,0,0,165,0.49,-2.52,0.00,-0.05,0.98,0.23
-0.57128906,-0.003539037,-6.5180287E-4,0.0011759609,-0.06,0.98,0.23,26616,9939.90,0,0,0,0.63,-2.59,0.07,-0.06,0.98,0.23
-0.57128906,0.002460963,-0.0016518049,1.759608E-4,-0.06,0.98,0.23,26630,9939.90,0,0,165,1.05,-2.66,0.00,-0.06,0.98,0.23
0.42871094,0.0054609627,-6.5180287E-4,-8.240392E-4,-0.06,0.98,0.22,26638,9940.90,0,0,0,1.26,-2.59,-0.07,-0.06,0.98,0.22
-0.27148438,0.002460963,3.4819916E-4,-0.0018240393,-0.05,0.98,0.22,26654,9940.20,0,0,165,1.05,-2.52,-0.14,-0.05,0.98,0.22
-0.57128906,-5.390374E-4,3.4819916E-4,0.0011759609,-0.06,0.98,0.23,26661,9939.90,0,0,0,0.84,-2.52,0.07,-0.06,0.98,0.23
0.42871094,-0.003539037,0.0013481975,0.0011759609,-0.06,0.98,0.23,26675,9940.90,0,0,165,0.63,-2.45,0.07,-0.06,0.98,0.23
0.42871094,-0.003539037,-6.5180287E-4,-0.0018240393,-0.06,0.98,0.22,26691,9940.90,0,0,0,0.63,-2.59,-0.14,-0.06,0.98,0.22
0.7285156,-0.0025390368,0.0013481975,-8.240392E-4,-0.06,0.98,0.22,26699,9941.20,0,0,165,0.70,-2.45,-0.07,-0.06,0.98,0.22
0.42871094,0.0014609639,3.4819916E-4,0.0011759609,-0.06,0.98,0.23,26713,9940.90,0,0,0,0.98,-2.52,0.07,-0.06,0.98,0.23
-0.27148438,4.609637E-4,-6.5180287E-4,1.759608E-4,-0.06,0.98,0.22,26728,9940.20,0,0,165,0.91,-2.59,0.00,-0.06,0.98,0.22
0.7285156,-5.390374E-4,3.4819916E-4,0.0011759609,-0.06,0.98,0.23,26736,9941.20,0,0,0,0.84,-2.52,0.07,-0.06,0.98,0.23
0.7285156,-5.390374E-4,0.0013481975,1.759608E-4,-0.06,0.98,0.23,26752,9941.20,0,0,165,0.84,-2.45,0.00,-0.06,0.98,0.23
0.42871094,-0.0015390366,0.0013481975,-8.240392E-4,-0.06,0.98,0.22,26766,9940.90,0,0,0,0.77,-2.45,-0.07,-0.06,0.98,0.22
0.7285156,-5.390374E-4,3.4819916E-4,-0.0018240393,-0.06,0.98,0.22,26774,9941.20,0,0,165,0.84,-2.52,-0.14,-0.06,0.98,0.22
-0.57128906,4.609637E-4,3.4819916E-4,-8.240392E-4,-0.06,0.98,0.22,26788,9939.90,0,0,0,0.91,-2.52,-0.07,-0.06,0.98,0.22
0.7285156,-5.390374E-4,3.4819916E-4,-8.240392E-4,-0.06,0.98,0.23,26804,9941.20,0,0,165,0.84,-2.52,-0.07,-0.06,0.98,0.23
0.7285156,-0.0025390368,3.4819916E-4,1.759608E-4,-0.06,0.98,0.22,26811,9941.20,0,0,0,0.70,-2.52,0.00,-0.06,0.98,0.22
0.7285156,-5.390374E-4,3.4819916E-4,1.759608E-4,-0.05,0.98,0.23,26826,9941.20,0,0,165,0.84,-2.52,0.00,-0.05,0.98,0.23
0.7285156,0.002460963,3.4819916E-4,1.759608E-4,-0.06,0.98,0.23,26842,9941.20,0,0,0,1.05,-2.52,0.00,-0.06,0.98,0.23
1.328125,4.609637E-4,-6.5180287E-4,-8.240392E-4,-0.06,0.98,0.23,26848,9941.80,0,0,165,0.91,-2.59,-0.07,-0.06,0.98,0.23
-0.57128906,0.0014609639,3.4819916E-4,0.0011759609,-0.06,0.98,0.22,26864,9939.90,0,0,0,0.98,-2.52,0.07,-0.06,0.98,0.22
