Pressure_Rel,GyroX_Rel,GyroY_Rel,GyroZ_Rel,AccX_Rel,AccY_Rel,AccZ_Rel,Timestamp,Pressure_abs,HeartRate,Oxygen,Status,GyroX,GyroY,GyroZ,AccX,AccY,AccZ
0.0,0.0,0.0,0.0,0.0,0.0,0.0,2792,10137.20,0,0,0,-24.29,-12.46,18.20,-0.26,-0.97,0.09
0.0,0.0,0.0,0.0,0.0,0.0,0.0,2800,10136.60,0,0,0,-154.07,-112.35,13.79,-0.25,-0.97,0.09
0.0,0.0,0.0,0.0,0.0,0.0,0.0,2815,10137.50,0,0,165,-0.14,-1.96,0.91,-0.25,-0.97,0.09
0.0,0.0,0.0,0.0,0.0,0.0,0.0,2830,10136.60,0,0,0,0.42,-3.08,0.14,-0.26,-0.97,0.09
0.0,0.0,0.0,0.0,0.0,0.0,0.0,2837,10137.50,0,0,165,0.28,-3.08,0.14,-0.26,-0.97,0.10
0.0,0.0,0.0,0.0,0.0,0.0,0.0,2852,10137.50,0,0,0,0.42,-3.08,0.00,-0.26,-0.97,0.10
0.0,0.0,0.0,0.0,0.0,0.0,0.0,2867,10137.50,0,0,165,0.28,-3.15,0.07,-0.26,-0.97,0.10
0.0,0.0,0.0,0.0,0.0,0.0,0.0,2874,10136.60,0,0,0,0.35,-3.15,0.07,-0.26,-0.97,0.10
0.0,0.0,0.0,0.0,0.0,0.0,0.0,2890,10136.60,0,0,165,0.28,-3.22,0.07,-0.26,-0.97,0.10
0.0,0.0,0.0,0.0,0.0,0.0,0.0,2904,10138.50,0,0,0,0.28,-3.15,0.00,-0.26,-0.97,0.10
0.0,0.0,0.0,0.0,0.0,0.0,0.0,2911,10136.20,0,0,165,0.21,-3.15,0.07,-0.26,-0.97,0.10
0.0,0.0,0.0,0.0,0.0,0.0,0.0,2926,10136.60,0,0,0,0.21,-3.01,0.07,-0.25,-0.97,0.10
0.0,0.0,0.0,0.0,0.0,0.0,0.0,2941,10136.60,0,0,165,0.28,-3.15,0.14,-0.26,-0.97,0.10
0.0,0.0,0.0,0.0,0.0,0.0,0.0,2949,10136.60,0,0,0,0.35,-3.08,0.21,-0.25,-0.97,0.10
0.0,0.0,0.0,0.0,0.0,0.0,0.0,2965,10137.50,0,0,165,0.35,-3.08,0.35,-0.25,-0.97,0.10
0.0,0.0,0.0,0.0,0.0,0.0,0.0,2980,10137.50,0,0,0,0.21,-3.15,0.21,-0.26,-0.97,0.10
0.0,0.0,0.0,0.0,0.0,0.0,0.0,2987,10137.50,0,0,165,0.28,-3.15,0.07,-0.25,-0.97,0.10
0.0,0.0,0.0,0.0,0.0,0.0,0.0,3002,10137.50,0,0,0,0.35,-3.22,0.14,-0.25,-0.97,0.10
0.0,0.0,0.0,0.0,0.0,0.0,0.0,3017,10136.60,0,0,165,0.21,-3.08,0.07,-0.26,-0.97,0.10
0.0,0.0,0.0,0.0,0.0,0.0,0.0,3024,10137.50,0,0,0,0.21,-3.08,0.00,-0.25,-0.97,0.10
0.0,0.0,0.0,0.0,0.0,0.0,0.0,3039,10137.50,0,0,165,0.35,-3.01,-0.07,-0.25,-0.97,0.10
0.0,0.0,0.0,0.0,0.0,0.0,0.0,3054,10137.50,0,0,0,0.35,-3.08,0.14,-0.26,-0.97,0.10
0.0,0.0,0.0,0.0,0.0,0.0,0.0,3062,10136.60,0,0,165,0.35,-3.15,0.28,-0.25,-0.97,0.10
0.0,0.0,0.0,0.0,0.0,0.0,0.0,3077,10137.50,0,0,0,0.35,-3.15,0.14,-0.25,-0.97,0.10
0.0,0.0,0.0,0.0,0.0,0.0,0.0,3091,10137.50,0,0,165,0.28,-3.22,0.07,-0.25,-0.97,0.10
0.0,0.0,0.0,0.0,0.0,0.0,0.0,3099,10137.50,0,0,0,0.28,-3.15,0.21,-0.26,-0.97,0.10
0.0,0.0,0.0,0.0,0.0,0.0,0.0,3114,10136.60,0,0,165,0.28,-3.15,0.14,-0.26,-0.97,0.10
0.0,0.0,0.0,0.0,0.0,0.0,0.0,3129,10137.50,0,0,0,0.21,-3.08,0.21,-0.26,-0.97,0.10
0.0,0.0,0.0,0.0,0.0,0.0,0.0,3137,10137.90,0,0,165,0.35,-3.01,0.07,-0.25,-0.97,0.10
0.0,0.0,0.0,0.0,0.0,0.0,0.0,3152,10137.50,0,0,0,0.28,-3.08,0.14,-0.25,-0.97,0.10
0.0,0.0,0.0,0.0,0.0,0.0,0.0,3167,10137.50,0,0,165,0.28,-3.08,0.14,-0.26,-0.97,0.10
0.0,0.0,0.0,0.0,0.0,0.0,0.0,3174,10137.50,0,0,0,0.35,-3.15,0.14,-0.25,-0.97,0.10
0.0,0.0,0.0,0.0,0.0,0.0,0.0,3189,10136.90,0,0,165,0.35,-3.15,0.07,-0.25,-0.97,0.10
0.0,0.0,0.0,0.0,0.0,0.0,0.0,3204,10136.60,0,0,0,0.35,-3.08,0.21,-0.26,-0.97,0.10
0.0,0.0,0.0,0.0,0.0,0.0,0.0,3211,10137.50,0,0,165,0.35,-3.22,0.21,-0.26,-0.97,0.10
0.0,0.0,0.0,0.0,0.0,0.0,0.0,3226,10136.60,0,0,0,0.28,-3.08,0.14,-0.26,-0.97,0.10
0.0,0.0,0.0,0.0,0.0,0.0,0.0,3241,10137.50,0,0,165,0.28,-3.08,0.14,-0.25,-0.97,0.10
0.0,0.0,0.0,0.0,0.0,0.0,0.0,3249,10136.60,0,0,0,0.14,-3.15,0.21,-0.26,-0.97,0.10
0.0,0.0,0.0,0.0,0.0,0.0,0.0,3264,10136.90,0,0,165,0.28,-3.08,0.00,-0.25,-0.97,0.10
0.0,0.0,0.0,0.0,0.0,0.0,0.0,3280,10138.80,0,0,0,0.21,-3.15,0.21,-0.26,-0.97,0.10
0.0,0.0,0.0,0.0,0.0,0.0,0.0,3287,10136.90,0,0,165,0.35,-3.22,0.21,-0.26,-0.97,0.10
0.0,0.0,0.0,0.0,0.0,0.0,0.0,3301,10136.90,0,0,0,0.14,-3.01,0.07,-0.26,-0.97,0.10
0.0,0.0,0.0,0.0,0.0,0.0,0.0,3316,10136.90,0,0,165,0.28,-3.15,0.14,-0.26,-0.97,0.10
0.0,0.0,0.0,0.0,0.0,0.0,0.0,3323,10137.50,0,0,0,0.35,-3.15,0.21,-0.25,-0.97,0.10
0.0,0.0,0.0,0.0,0.0,0.0,0.0,3339,10136.60,0,0,165,0.35,-3.15,0.21,-0.26,-0.97,0.10
0.0,0.0,0.0,0.0,0.0,0.0,0.0,3362,10136.60,0,0,0,0.35,-3.15,0.28,-0.25,-0.97,0.10
0.0,0.0,0.0,0.0,0.0,0.0,0.0,3363,10137.50,0,0,165,0.35,-3.22,0.14,-0.26,-0.97,0.10
0.0,0.0,0.0,0.0,0.0,0.0,0.0,3376,10137.90,0,0,0,0.21,-3.15,0.21,-0.26,-0.97,0.10
0.0,0.0,0.0,0.0,0.0,0.0,0.0,3392,10136.90,0,0,165,0.28,-3.15,0.21,-0.26,-0.97,0.10
0.0,0.0,0.0,0.0,0.0,0.0,0.0,3399,10137.90,0,0,0,0.42,-3.08,0.28,-0.26,-0.97,0.10
0.0,0.0,0.0,0.0,0.0,0.0,0.0,3415,10137.50,0,0,165,0.28,-3.08,0.14,-0.26,-0.97,0.10
0.0,0.0,0.0,0.0,0.0,0.0,0.0,3429,10136.60,0,0,0,0.35,-3.15,0.21,-0.26,-0.97,0.10
0.0,0.0,0.0,0.0,0.0,0.0,0.0,3436,10137.50,0,0,165,0.35,-3.29,0.07,-0.25,-0.97,0.10
0.0,0.0,0.0,0.0,0.0,0.0,0.0,3451,10137.90,0,0,0,0.28,-3.15,0.28,-0.25,-0.97,0.10
0.0,0.0,0.0,0.0,0.0,0.0,0.0,3466,10136.90,0,0,165,0.28,-3.08,0.21,-0.26,-0.97,0.10
0.0,0.0,0.0,0.0,0.0,0.0,0.0,3473,10136.90,0,0,0,0.28,-3.15,0.21,-0.26,-0.97,0.10
0.0,0.0,0.0,0.0,0.0,0.0,0.0,3489,10136.60,0,0,165,0.28,-3.08,-0.07,-0.26,-0.97,0.10
0.0,0.0,0.0,0.0,0.0,0.0,0.0,3506,10136.60,0,0,0,0.21,-3.08,0.07,-0.25,-0.97,0.10
0.0,0.0,0.0,0.0,0.0,0.0,0.0,3512,10137.90,0,0,165,0.35,-3.08,0.21,-0.25,-0.97,0.10
0.0,0.0,0.0,0.0,0.0,0.0,0.0,3527,10137.50,0,0,0,0.28,-3.01,0.14,-0.25,-0.97,0.10
0.0,0.0,0.0,0.0,0.0,0.0,0.0,3542,10136.60,0,0,165,0.28,-3.01,0.28,-0.25,-0.97,0.10
0.0,0.0,0.0,0.0,0.0,0.0,0.0,3549,10136.90,0,0,0,0.35,-3.08,0.28,-0.25,-0.97,0.10
0.0,0.0,0.0,0.0,0.0,0.0,0.0,3564,10137.50,0,0,165,0.42,-3.22,0.07,-0.26,-0.97,0.10
0.0,0.0,0.0,0.0,0.0,0.0,0.0,3579,10136.60,0,0,0,0.28,-3.08,0.00,-0.26,-0.97,0.10
0.0,0.0,0.0,0.0,0.0,0.0,0.0,3586,10137.50,0,0,165,0.42,-3.01,0.21,-0.26,-0.97,0.10
0.0,0.0,0.0,0.0,0.0,0.0,0.0,3602,10137.50,0,0,0,0.49,-3.22,0.42,-0.26,-0.97,0.10
0.0,0.0,0.0,0.0,0.0,0.0,0.0,3617,10136.60,0,0,165,0.21,-3.01,0.00,-0.26,-0.97,0.10
0.0,0.0,0.0,0.0,0.0,0.0,0.0,3623,10137.90,0,0,0,0.21,-3.15,0.07,-0.25,-0.97,0.10
0.0,0.0,0.0,0.0,0.0,0.0,0.0,3639,10136.60,0,0,165,0.35,-3.15,0.07,-0.26,-0.98,0.10
0.0,0.0,0.0,0.0,0.0,0.0,0.0,3654,10138.50,0,0,0,0.21,-3.08,-0.14,-0.25,-0.97,0.10
0.0,0.0,0.0,0.0,0.0,0.0,0.0,3661,10137.90,0,0,165,0.35,-3.08,0.14,-0.25,-0.97,0.10
0.0,0.0,0.0,0.0,0.0,0.0,0.0,3676,10136.90,0,0,0,0.35,-3.15,0.21,-0.25,-0.98,0.10
0.0,0.0,0.0,0.0,0.0,0.0,0.0,3692,10137.90,0,0,165,0.28,-2.94,0.14,-0.25,-0.97,0.10
0.0,0.0,0.0,0.0,0.0,0.0,0.0,3699,10137.90,0,0,0,0.42,-3.08,0.35,-0.25,-0.97,0.10
0.0,0.0,0.0,0.0,0.0,0.0,0.0,3714,10137.90,0,0,165,0.42,-3.15,0.35,-0.25,-0.97,0.10
0.0,0.0,0.0,0.0,0.0,0.0,0.0,3729,10136.60,0,0,0,0.28,-3.15,0.21,-0.26,-0.97,0.10
0.0,0.0,0.0,0.0,0.0,0.0,0.0,3736,10137.90,0,0,165,0.28,-3.22,0.14,-0.26,-0.97,0.10
0.0,0.0,0.0,0.0,0.0,0.0,0.0,3751,10137.90,0,0,0,0.28,-3.15,0.07,-0.26,-0.97,0.10
0.0,0.0,0.0,0.0,0.0,0.0,0.0,3766,10136.90,0,0,165,0.21,-3.08,0.00,-0.26,-0.97,0.10
0.0,0.0,0.0,0.0,0.0,0.0,0.0,3774,10136.90,0,0,0,0.28,-3.08,0.07,-0.26,-0.97,0.10
0.0,0.0,0.0,0.0,0.0,0.0,0.0,3790,10136.90,0,0,165,0.21,-3.08,0.07,-0.25,-0.97,0.10
0.0,0.0,0.0,0.0,0.0,0.0,0.0,3804,10137.90,0,0,0,0.14,-3.08,0.14,-0.25,-0.97,0.10
0.0,0.0,0.0,0.0,0.0,0.0,0.0,3811,10137.90,0,0,165,0.28,-3.08,0.21,-0.25,-0.97,0.10
0.0,0.0,0.0,0.0,0.0,0.0,0.0,3826,10137.90,0,0,0,0.35,-3.15,0.21,-0.25,-0.97,0.10
0.0,0.0,0.0,0.0,0.0,0.0,0.0,3841,10137.50,0,0,165,0.28,-3.08,0.07,-0.25,-0.97,0.10
0.0,0.0,0.0,0.0,0.0,0.0,0.0,3849,10136.90,0,0,0,0.42,-3.15,0.35,-0.25,-0.97,0.10
0.0,0.0,0.0,0.0,0.0,0.0,0.0,3864,10136.90,0,0,165,0.49,-3.15,0.28,-0.26,-0.97,0.10
0.0,0.0,0.0,0.0,0.0,0.0,0.0,3879,10137.90,0,0,0,0.28,-3.15,0.14,-0.26,-0.97,0.10
0.0,0.0,0.0,0.0,0.0,0.0,0.0,3887,10136.90,0,0,165,0.28,-3.22,0.14,-0.26,-0.97,0.10
0.0,0.0,0.0,0.0,0.0,0.0,0.0,3901,10137.50,0,0,0,0.21,-3.08,0.07,-0.25,-0.97,0.10
0.0,0.0,0.0,0.0,0.0,0.0,0.0,3924,10137.50,0,0,165,0.28,-3.15,0.21,-0.26,-0.97,0.10
0.0,0.0,0.0,0.0,0.0,0.0,0.0,3926,10136.90,0,0,0,0.28,-3.08,0.07,-0.25,-0.97,0.10
0.0,0.0,0.0,0.0,0.0,0.0,0.0,3938,10136.90,0,0,165,0.21,-3.15,0.14,-0.25,-0.97,0.10
0.0,0.0,0.0,0.0,0.0,0.0,0.0,3953,10136.90,0,0,0,0.28,-3.08,0.14,-0.25,-0.97,0.10
0.0,0.0,0.0,0.0,0.0,0.0,0.0,3960,10136.90,0,0,165,0.28,-3.08,0.28,-0.25,-0.97,0.10
0.0,0.0,0.0,0.0,0.0,0.0,0.0,3976,10136.60,0,0,0,0.35,-3.15,0.28,-0.25,-0.97,0.10
0.0,0.0,0.0,0.0,0.0,0.0,0.0,3992,10137.90,0,0,165,0.35,-3.08,0.21,-0.25,-0.97,0.10
0.0,0.0,0.0,0.0,0.0,0.0,0.0,4006,10136.60,0,0,0,0.21,-3.15,0.14,-0.26,-0.97,0.10
0.0,0.0,0.0,0.0,0.0,0.0,0.0,4013,10136.90,0,0,165,0.35,-3.15,0.21,-0.25,-0.97,0.10
0.0,0.0,0.0,0.0,0.0,0.0,0.0,4028,10137.90,0,0,0,0.35,-3.15,0.28,-0.26,-0.97,0.10
0.0,0.0,0.0,0.0,0.0,0.0,0.0,4036,10136.90,0,0,165,0.14,-3.08,0.00,-0.26,-0.97,0.10
0.0,0.0,0.0,0.0,0.0,0.0,0.0,4052,10136.90,0,0,0,0.21,-3.08,0.07,-0.25,-0.97,0.10
0.0,0.0,0.0,0.0,0.0,0.0,0.0,4066,10137.90,0,0,165,0.35,-3.08,0.21,-0.26,-0.97,0.10
0.0,0.0,0.0,0.0,0.0,0.0,0.0,4074,10136.90,0,0,0,0.28,-3.01,0.14,-0.25,-0.97,0.10
0.0,0.0,0.0,0.0,0.0,0.0,0.0,4089,10137.90,0,0,165,0.35,-3.15,0.14,-0.25,-0.97,0.10
0.0,0.0,0.0,0.0,0.0,0.0,0.0,4103,10136.90,0,0,0,0.35,-3.08,0.14,-0.25,-0.97,0.10
0.0,0.0,0.0,0.0,0.0,0.0,0.0,4111,10137.90,0,0,165,0.21,-3.08,0.00,-0.25,-0.97,0.10
0.0,0.0,0.0,0.0,0.0,0.0,0.0,4125,10137.90,0,0,0,0.42,-3.15,0.14,-0.25,-0.97,0.10
0.0,0.0,0.0,0.0,0.0,0.0,0.0,4141,10136.90,0,0,165,0.35,-3.15,0.21,-0.25,-0.97,0.10
0.0,0.0,0.0,0.0,0.0,0.0,0.0,4148,10136.60,0,0,0,0.35,-3.08,0.14,-0.26,-0.97,0.10
0.0,0.0,0.0,0.0,0.0,0.0,0.0,4163,10136.60,0,0,165,0.28,-3.15,0.07,-0.25,-0.97,0.10
0.0,0.0,0.0,0.0,0.0,0.0,0.0,4178,10136.60,0,0,0,0.21,-3.15,0.21,-0.25,-0.97,0.10
0.0,0.0,0.0,0.0,0.0,0.0,0.0,4186,10136.90,0,0,165,0.21,-3.15,0.14,-0.25,-0.97,0.10
0.0,0.0,0.0,0.0,0.0,0.0,0.0,4201,10137.90,0,0,0,0.35,-3.15,0.21,-0.26,-0.97,0.10
0.0,0.0,0.0,0.0,0.0,0.0,0.0,4216,10136.90,0,0,165,0.35,-3.08,0.21,-0.25,-0.97,0.10
0.0,0.0,0.0,0.0,0.0,0.0,0.0,4224,10136.90,0,0,0,0.35,-3.15,-0.07,-0.26,-0.97,0.10
0.0,0.0,0.0,0.0,0.0,0.0,0.0,4239,10136.90,0,0,165,0.21,-3.15,0.14,-0.26,-0.97,0.10
0.0,0.0,0.0,0.0,0.0,0.0,0.0,4254,10137.50,0,0,0,0.35,-3.08,0.14,-0.26,-0.97,0.10
0.0,0.0,0.0,0.0,0.0,0.0,0.0,4261,10136.90,0,0,165,0.42,-3.08,0.21,-0.25,-0.97,0.10
0.0,0.0,0.0,0.0,0.0,0.0,0.0,4276,10136.90,0,0,0,0.35,-3.15,0.00,-0.25,-0.97,0.10
0.0,0.0,0.0,0.0,0.0,0.0,0.0,4291,10136.90,0,0,165,0.21,-3.08,0.14,-0.25,-0.97,0.10
0.0,0.0,0.0,0.0,0.0,0.0,0.0,4298,10136.90,0,0,0,0.28,-3.15,0.07,-0.26,-0.97,0.10
0.0,0.0,0.0,0.0,0.0,0.0,0.0,4313,10137.90,0,0,165,0.28,-3.15,0.21,-0.25,-0.97,0.10
0.0,0.0,0.0,0.0,0.0,0.0,0.0,4329,10137.90,0,0,0,0.28,-3.15,0.14,-0.25,-0.97,0.10
0.0,0.0,0.0,0.0,0.0,0.0,0.0,4336,10136.90,0,0,165,0.35,-3.08,0.21,-0.25,-0.97,0.10
0.0,0.0,0.0,0.0,0.0,0.0,0.0,4351,10136.90,0,0,0,0.35,-3.15,0.21,-0.26,-0.97,0.10
0.0,0.0,0.0,0.0,0.0,0.0,0.0,4366,10136.90,0,0,165,0.35,-3.08,0.28,-0.26,-0.97,0.10
0.0,0.0,0.0,0.0,0.0,0.0,0.0,4373,10136.90,0,0,0,0.21,-3.15,0.07,-0.26,-0.97,0.10
0.0,0.0,0.0,0.0,0.0,0.0,0.0,4388,10136.90,0,0,165,0.42,-3.15,0.21,-0.26,-0.97,0.10
0.0,0.0,0.0,0.0,0.0,0.0,0.0,4404,10137.90,0,0,0,0.35,-3.22,0.21,-0.26,-0.97,0.10
0.0,0.0,0.0,0.0,0.0,0.0,0.0,4411,10137.90,0,0,165,0.28,-3.08,0.07,-0.25,-0.97,0.10
0.0,0.0,0.0,0.0,0.0,0.0,0.0,4426,10136.90,0,0,0,0.28,-3.08,0.07,-0.25,-0.97,0.10
0.0,0.0,0.0,0.0,0.0,0.0,0.0,4441,10136.60,0,0,165,0.28,-3.08,0.14,-0.26,-0.97,0.10
0.0,0.0,0.0,0.0,0.0,0.0,0.0,4449,10137.90,0,0,0,0.21,-3.08,0.07,-0.25,-0.97,0.10
0.0,0.0,0.0,0.0,0.0,0.0,0.0,4464,10137.90,0,0,165,0.42,-3.15,0.14,-0.25,-0.97,0.10
0.0,0.0,0.0,0.0,0.0,0.0,0.0,4479,10136.90,0,0,0,0.28,-3.15,0.07,-0.26,-0.97,0.10
0.0,0.0,0.0,0.0,0.0,0.0,0.0,4486,10137.90,0,0,165,0.35,-3.08,0.21,-0.25,-0.97,0.10
0.0,0.0,0.0,0.0,0.0,0.0,0.0,4501,10137.90,0,0,0,0.35,-3.08,0.14,-0.26,-0.97,0.10
0.0,0.0,0.0,0.0,0.0,0.0,0.0,4516,10136.90,0,0,165,0.21,-3.08,0.14,-0.25,-0.97,0.10
0.0,0.0,0.0,0.0,0.0,0.0,0.0,4524,10136.90,0,0,0,0.49,-3.08,0.28,-0.25,-0.97,0.10
0.0,0.0,0.0,0.0,0.0,0.0,0.0,4539,10136.90,0,0,165,0.35,-3.08,0.21,-0.26,-0.97,0.10
0.0,0.0,0.0,0.0,0.0,0.0,0.0,4554,10137.90,0,0,0,0.21,-3.08,0.00,-0.25,-0.97,0.10
0.0,0.0,0.0,0.0,0.0,0.0,0.0,4561,10136.90,0,0,165,0.28,-3.08,0.07,-0.26,-0.97,0.10
0.0,0.0,0.0,0.0,0.0,0.0,0.0,4577,10136.90,0,0,0,0.35,-3.15,0.21,-0.26,-0.97,0.10
0.0,0.0,0.0,0.0,0.0,0.0,0.0,4592,10137.50,0,0,165,0.21,-3.01,0.14,-0.25,-0.97,0.10
0.0,0.0,0.0,0.0,0.0,0.0,0.0,4599,10136.90,0,0,0,0.28,-3.08,0.21,-0.25,-0.97,0.10
0.0,0.0,0.0,0.0,0.0,0.0,0.0,4614,10137.20,0,0,165,0.21,-3.08,0.00,-0.25,-0.97,0.10
0.0,0.0,0.0,0.0,0.0,0.0,0.0,4628,10136.90,0,0,0,0.35,-3.15,0.21,-0.25,-0.97,0.10
0.0,0.0,0.0,0.0,0.0,0.0,0.0,4636,10136.90,0,0,165,0.35,-3.15,0.21,-0.26,-0.97,0.10
0.0,0.0,0.0,0.0,0.0,0.0,0.0,4651,10136.90,0,0,0,0.21,-3.08,0.00,-0.26,-0.98,0.10
0.0,0.0,0.0,0.0,0.0,0.0,0.0,4666,10137.90,0,0,165,0.35,-3.22,0.21,-0.25,-0.97,0.10
0.0,0.0,0.0,0.0,0.0,0.0,0.0,4674,10136.90,0,0,0,0.35,-3.08,0.07,-0.25,-0.97,0.10
0.0,0.0,0.0,0.0,0.0,0.0,0.0,4688,10137.90,0,0,165,0.07,-3.50,-0.49,-0.26,-0.97,0.10
0.0,0.0,0.0,0.0,0.0,0.0,0.0,4703,10135.90,0,0,0,-0.28,-3.29,-0.91,-0.26,-0.97,0.10
0.0,0.0,0.0,0.0,0.0,0.0,0.0,4711,10136.90,0,0,165,0.00,-3.01,-0.42,-0.25,-0.97,0.10
0.0,0.0,0.0,0.0,0.0,0.0,0.0,4726,10136.90,0,0,0,0.42,-3.15,0.56,-0.25,-0.97,0.10
0.0,0.0,0.0,0.0,0.0,0.0,0.0,4741,10136.90,0,0,165,0.63,-3.22,0.70,-0.26,-0.97,0.10
0.0,0.0,0.0,0.0,0.0,0.0,0.0,4748,10137.20,0,0,0,0.21,-3.15,-17.92,-0.26,-0.97,0.10
0.0,0.0,0.0,0.0,0.0,0.0,0.0,4764,10136.90,0,0,165,0.21,-2.94,-0.49,-0.26,-0.97,0.10
0.0,0.0,0.0,0.0,0.0,0.0,0.0,4779,10137.90,0,0,0,0.28,-3.08,0.00,-0.25,-0.97,0.10
0.0,0.0,0.0,0.0,0.0,0.0,0.0,4786,10136.90,0,0,165,0.42,-3.08,0.49,-0.25,-0.97,0.10
0.0,0.0,0.0,0.0,0.0,0.0,0.0,4801,10136.90,0,0,0,0.42,-3.15,0.21,-0.25,-0.97,0.10
0.0,0.0,0.0,0.0,0.0,0.0,0.0,4816,10137.90,0,0,165,0.14,-3.01,0.00,-0.25,-0.97,0.10
0.0,0.0,0.0,0.0,0.0,0.0,0.0,4823,10136.90,0,0,0,0.21,-3.08,0.00,-0.25,-0.97,0.10
0.0,0.0,0.0,0.0,0.0,0.0,0.0,4838,10136.30,0,0,165,0.49,-3.08,0.35,-0.26,-0.97,0.10
0.0,0.0,0.0,0.0,0.0,0.0,0.0,4853,10136.90,0,0,0,0.42,-3.08,0.35,-0.26,-0.97,0.10
0.0,0.0,0.0,0.0,0.0,0.0,0.0,4861,10136.60,0,0,165,0.42,-3.15,0.28,-0.26,-0.97,0.10
0.0,0.0,0.0,0.0,0.0,0.0,0.0,4876,10136.90,0,0,0,0.21,-3.08,0.07,-0.26,-0.97,0.10
0.0,0.0,0.0,0.0,0.0,0.0,0.0,4892,10136.90,0,0,165,0.21,-3.08,-0.14,-0.25,-0.97,0.10
0.0,0.0,0.0,0.0,0.0,0.0,0.0,4899,10137.90,0,0,0,0.28,-3.08,0.14,-0.25,-0.97,0.10
0.0,0.0,0.0,0.0,0.0,0.0,0.0,4913,10137.90,0,0,165,0.35,-3.08,0.07,-0.25,-0.97,0.10
0.0,0.0,0.0,0.0,0.0,0.0,0.0,4928,10137.90,0,0,0,0.28,-3.15,-0.14,-0.25,-0.97,0.10
0.0,0.0,0.0,0.0,0.0,0.0,0.0,4935,10136.90,0,0,165,0.35,-3.15,0.21,-0.25,-0.97,0.10
0.0,0.0,0.0,0.0,0.0,0.0,0.0,4952,10136.90,0,0,0,0.35,-3.08,0.21,-0.26,-0.97,0.10
0.0,0.0,0.0,0.0,0.0,0.0,0.0,4966,10136.90,0,0,165,0.35,-3.08,0.21,-0.25,-0.97,0.10
0.0,0.0,0.0,0.0,0.0,0.0,0.0,4974,10136.90,0,0,0,0.21,-3.08,0.35,-0.25,-0.97,0.10
0.0,0.0,0.0,0.0,0.0,0.0,0.0,4988,10136.90,0,0,165,0.28,-3.08,0.14,-0.25,-0.97,0.10
0.0,0.0,0.0,0.0,0.0,0.0,0.0,5004,10137.90,0,0,0,0.35,-3.08,0.00,-0.26,-0.97,0.10
0.0,0.0,0.0,0.0,0.0,0.0,0.0,5011,10136.90,0,0,165,0.35,-3.08,0.00,-0.25,-0.97,0.10
0.0,0.0,0.0,0.0,0.0,0.0,0.0,5027,10137.90,0,0,0,0.35,-3.15,0.14,-0.25,-0.97,0.10
0.0,0.0,0.0,0.0,0.0,0.0,0.0,5041,10136.90,0,0,165,0.35,-3.15,0.14,-0.25,-0.97,0.10
0.0,0.0,0.0,0.0,0.0,0.0,0.0,5049,10136.90,0,0,0,0.35,-3.08,0.21,-0.25,-0.97,0.10
0.0,0.0,0.0,0.0,0.0,0.0,0.0,5064,10136.90,0,0,165,0.28,-3.08,0.14,-0.25,-0.97,0.10
0.0,0.0,0.0,0.0,0.0,0.0,0.0,5079,10137.90,0,0,0,0.28,-3.08,0.07,-0.25,-0.97,0.10
0.0,0.0,0.0,0.0,0.0,0.0,0.0,5086,10137.90,0,0,165,0.21,-3.08,0.07,-0.25,-0.97,0.10
0.0,0.0,0.0,0.0,0.0,0.0,0.0,5101,10137.90,0,0,0,0.35,-3.08,0.28,-0.25,-0.97,0.10
0.0,0.0,0.0,0.0,0.0,0.0,0.0,5116,10137.20,0,0,165,0.35,-3.22,0.14,-0.26,-0.97,0.10
0.0,0.0,0.0,0.0,0.0,0.0,0.0,5124,10136.90,0,0,0,0.21,-3.08,0.21,-0.26,-0.97,0.10
0.0,0.0,0.0,0.0,0.0,0.0,0.0,5139,10136.90,0,0,165,0.28,-3.08,0.21,-0.25,-0.97,0.10
0.0,0.0,0.0,0.0,0.0,0.0,0.0,5154,10137.90,0,0,0,0.28,-3.08,0.21,-0.26,-0.97,0.10
0.0,0.0,0.0,0.0,0.0,0.0,0.0,5161,10137.90,0,0,165,0.35,-3.08,0.28,-0.25,-0.97,0.10
0.0,0.0,0.0,0.0,0.0,0.0,0.0,5176,10136.90,0,0,0,0.21,-3.08,0.00,-0.25,-0.97,0.10
0.0,0.0,0.0,0.0,0.0,0.0,0.0,5191,10136.90,0,0,165,0.28,-3.08,-0.07,-0.25,-0.97,0.10
0.0,0.0,0.0,0.0,0.0,0.0,0.0,5199,10136.90,0,0,0,0.28,-3.15,0.00,-0.25,-0.97,0.10
0.0,0.0,0.0,0.0,0.0,0.0,0.0,5214,10136.90,0,0,165,0.28,-3.15,0.21,-0.25,-0.97,0.10
0.0,0.0,0.0,0.0,0.0,0.0,0.0,5230,10136.90,0,0,0,0.35,-3.15,0.21,-0.25,-0.97,0.10
0.0,0.0,0.0,0.0,0.0,0.0,0.0,5241,10136.90,0,0,165,0.42,-2.94,0.28,-0.26,-0.97,0.10
0.0,0.0,0.0,0.0,0.0,0.0,0.0,5251,10136.90,0,0,0,0.35,-3.01,0.14,-0.25,-0.97,0.10
0.0,0.0,0.0,0.0,0.0,0.0,0.0,5266,10136.90,0,0,165,0.28,-3.08,0.07,-0.25,-0.97,0.10
0.0,0.0,0.0,0.0,0.0,0.0,0.0,5273,10136.30,0,0,0,0.35,-3.22,0.14,-0.25,-0.97,0.10
0.0,0.0,0.0,0.0,0.0,0.0,0.0,5289,10137.90,0,0,165,0.35,-3.08,0.14,-0.25,-0.97,0.10
0.0,0.0,0.0,0.0,0.0,0.0,0.0,5304,10136.90,0,0,0,0.28,-3.08,0.07,-0.25,-0.97,0.10
0.0,0.0,0.0,0.0,0.0,0.0,0.0,5311,10135.90,0,0,165,0.42,-3.08,0.14,-0.25,-0.97,0.10
0.0,0.0,0.0,0.0,0.0,0.0,0.0,5326,10136.90,0,0,0,0.35,-3.08,0.21,-0.25,-0.97,0.10
0.0,0.0,0.0,0.0,0.0,0.0,0.0,5341,10136.90,0,0,165,0.28,-3.15,0.21,-0.25,-0.97,0.10
0.0,0.0,0.0,0.0,0.0,0.0,0.0,5348,10136.90,0,0,0,0.28,-3.22,0.28,-0.25,-0.97,0.10
0.0,0.0,0.0,0.0,0.0,0.0,0.0,5364,10137.20,0,0,165,0.35,-3.22,0.14,-0.25,-0.97,0.10
0.0,0.0,0.0,0.0,0.0,0.0,0.0,5379,10136.90,0,0,0,0.21,-3.08,-0.07,-0.26,-0.97,0.10
0.0,0.0,0.0,0.0,0.0,0.0,0.0,5387,10136.90,0,0,165,0.28,-3.15,0.00,-0.25,-0.97,0.10
0.0,0.0,0.0,0.0,0.0,0.0,0.0,5401,10136.90,0,0,0,0.35,-3.15,0.35,-0.25,-0.97,0.10
0.0,0.0,0.0,0.0,0.0,0.0,0.0,5416,10136.90,0,0,165,0.42,-3.15,0.14,-0.26,-0.97,0.10
0.0,0.0,0.0,0.0,0.0,0.0,0.0,5423,10137.90,0,0,0,0.14,-3.08,-0.14,-0.26,-0.97,0.10
0.0,0.0,0.0,0.0,0.0,0.0,0.0,5438,10136.90,0,0,165,0.28,-3.15,0.21,-0.25,-0.97,0.10
0.0,0.0,0.0,0.0,0.0,0.0,0.0,5454,10137.90,0,0,0,0.42,-3.22,0.21,-0.26,-0.97,0.10
0.0,0.0,0.0,0.0,0.0,0.0,0.0,5461,10136.90,0,0,165,0.28,-3.08,0.28,-0.26,-0.98,0.10
0.0,0.0,0.0,0.0,0.0,0.0,0.0,5476,10136.90,0,0,0,0.28,-3.01,0.07,-0.25,-0.97,0.10
0.0,0.0,0.0,0.0,0.0,0.0,0.0,5491,10137.90,0,0,165,0.35,-3.08,17.71,-0.25,-0.97,0.10
0.0,0.0,0.0,0.0,0.0,0.0,0.0,5499,10136.90,0,0,0,0.35,-3.08,0.28,-0.25,-0.98,0.10
0.0,0.0,0.0,0.0,0.0,0.0,0.0,5514,10137.20,0,0,165,0.42,-3.08,0.28,-0.25,-0.97,0.10
0.0,0.0,0.0,0.0,0.0,0.0,0.0,5529,10136.90,0,0,0,0.49,-3.15,0.00,-0.25,-0.97,0.10
0.0,0.0,0.0,0.0,0.0,0.0,0.0,5536,10136.90,0,0,165,0.21,-3.08,0.28,-0.25,-0.97,0.10
0.0,0.0,0.0,0.0,0.0,0.0,0.0,5551,10136.90,0,0,0,0.21,-3.08,0.07,-0.25,-0.97,0.10
0.0,0.0,0.0,0.0,0.0,0.0,0.0,5566,10135.90,0,0,165,0.42,-3.08,0.28,-0.25,-0.97,0.10
0.0,0.0,0.0,0.0,0.0,0.0,0.0,5573,10136.90,0,0,0,0.28,-3.08,0.00,-0.26,-0.97,0.10
0.0,0.0,0.0,0.0,0.0,0.0,0.0,5589,10138.20,0,0,165,0.14,-3.15,0.07,-0.25,-0.97,0.10
0.0,0.0,0.0,0.0,0.0,0.0,0.0,5604,10136.90,0,0,0,0.28,-3.15,0.21,-0.25,-0.97,0.10
0.0,0.0,0.0,0.0,0.0,0.0,0.0,5611,10136.90,0,0,165,0.28,-3.08,0.07,-0.26,-0.97,0.10
0.0,0.0,0.0,0.0,0.0,0.0,0.0,5626,10136.90,0,0,0,0.28,-3.15,0.00,-0.25,-0.97,0.10
0.0,0.0,0.0,0.0,0.0,0.0,0.0,5641,10136.90,0,0,165,0.28,-3.08,0.00,-0.25,-0.97,0.10
0.0,0.0,0.0,0.0,0.0,0.0,0.0,5648,10137.20,0,0,0,0.28,-3.15,0.00,-0.25,-0.97,0.10
0.0,0.0,0.0,0.0,0.0,0.0,0.0,5664,10137.20,0,0,165,0.28,-3.15,0.21,-0.25,-0.97,0.10
0.0,0.0,0.0,0.0,0.0,0.0,0.0,5679,10137.90,0,0,0,0.35,-3.08,0.21,-0.25,-0.97,0.10
0.0,0.0,0.0,0.0,0.0,0.0,0.0,5686,10137.20,0,0,165,0.21,-3.08,0.21,-0.25,-0.97,0.10
0.0,0.0,0.0,0.0,0.0,0.0,0.0,5701,10136.90,0,0,0,0.35,-3.01,0.14,-0.26,-0.97,0.10
0.0,0.0,0.0,0.0,0.0,0.0,0.0,5717,10136.90,0,0,165,0.21,-3.15,0.21,-0.25,-0.97,0.10
0.0,0.0,0.0,0.0,0.0,0.0,0.0,5724,10137.90,0,0,0,0.35,-3.08,0.21,-0.25,-0.97,0.10
0.0,0.0,0.0,0.0,0.0,0.0,0.0,5738,10138.20,0,0,165,0.35,-3.15,0.14,-0.25,-0.97,0.10
0.0,0.0,0.0,0.0,0.0,0.0,0.0,5753,10136.90,0,0,0,0.21,-3.08,0.00,-0.25,-0.97,0.10
0.0,0.0,0.0,0.0,0.0,0.0,0.0,5761,10136.90,0,0,165,0.21,-3.08,0.07,-0.25,-0.97,0.10
0.0,0.0,0.0,0.0,0.0,0.0,0.0,5776,10136.90,0,0,0,0.35,-3.01,0.14,-0.25,-0.97,0.10
0.0,0.0,0.0,0.0,0.0,0.0,0.0,5790,10136.90,0,0,165,0.42,-3.08,0.14,-0.25,-0.97,0.10
0.0,0.0,0.0,0.0,0.0,0.0,0.0,5798,10136.90,0,0,0,0.28,-3.08,0.28,-0.25,-0.97,0.10
0.0,0.0,0.0,0.0,0.0,0.0,0.0,5814,10135.60,0,0,165,0.28,-3.15,0.07,-0.25,-0.97,0.10
0.0,0.0,0.0,0.0,0.0,0.0,0.0,5828,10137.20,0,0,0,0.35,-3.08,0.14,-0.25,-0.97,0.10
0.0,0.0,0.0,0.0,0.0,0.0,0.0,5836,10136.90,0,0,165,0.28,-3.15,0.14,-0.26,-0.97,0.10
0.0,0.0,0.0,0.0,0.0,0.0,0.0,5851,10136.90,0,0,0,0.28,-3.15,0.14,-0.25,-0.97,0.10
0.0,0.0,0.0,0.0,0.0,0.0,0.0,5868,10136.90,0,0,165,0.28,-3.08,0.14,-0.25,-0.97,0.10
0.0,0.0,0.0,0.0,0.0,0.0,0.0,5873,10137.20,0,0,0,0.28,-3.15,0.14,-0.25,-0.97,0.10
0.0,0.0,0.0,0.0,0.0,0.0,0.0,5889,10136.90,0,0,165,0.35,-3.08,0.28,-0.25,-0.97,0.10
0.0,0.0,0.0,0.0,0.0,0.0,0.0,5903,10137.90,0,0,0,0.35,-3.08,0.14,-0.25,-0.97,0.10
0.0,0.0,0.0,0.0,0.0,0.0,0.0,5911,10136.90,0,0,165,0.21,-3.08,0.07,-0.25,-0.97,0.10
0.0,0.0,0.0,0.0,0.0,0.0,0.0,5926,10136.90,0,0,0,0.35,-3.15,0.07,-0.25,-0.97,0.10
0.0,0.0,0.0,0.0,0.0,0.0,0.0,5941,10136.90,0,0,165,0.28,-3.15,0.14,-0.25,-0.97,0.10
0.0,0.0,0.0,0.0,0.0,0.0,0.0,5949,10136.90,0,0,0,0.35,-3.22,0.28,-0.25,-0.97,0.10
0.0,0.0,0.0,0.0,0.0,0.0,0.0,5963,10136.90,0,0,165,0.21,-3.22,0.21,-0.25,-0.97,0.10
0.0,0.0,0.0,0.0,0.0,0.0,0.0,5979,10136.90,0,0,0,0.28,-3.15,0.14,-0.26,-0.97,0.10
0.0,0.0,0.0,0.0,0.0,0.0,0.0,5986,10136.90,0,0,165,0.35,-3.08,0.21,-0.25,-0.97,0.10
0.0,0.0,0.0,0.0,0.0,0.0,0.0,6001,10136.90,0,0,0,0.35,-3.22,0.21,-0.25,-0.97,0.10
0.0,0.0,0.0,0.0,0.0,0.0,0.0,6017,10137.90,0,0,165,0.28,-3.08,-0.21,-0.26,-0.97,0.11
0.0,0.0,0.0,0.0,0.0,0.0,0.0,6024,10137.20,0,0,0,0.21,-3.29,0.28,-0.25,-0.97,0.10
0.0,0.0,0.0,0.0,0.0,0.0,0.0,6039,10136.90,0,0,165,0.35,-3.15,0.49,-0.25,-0.97,0.10
0.0,0.0,0.0,0.0,0.0,0.0,0.0,6054,10137.20,0,0,0,0.21,-3.08,-0.14,-0.25,-0.97,0.10
0.0,0.0,0.0,0.0,0.0,0.0,0.0,6061,10137.90,0,0,165,0.35,-3.08,0.14,-0.25,-0.97,0.10
0.0,0.0,0.0,0.0,0.0,0.0,0.0,6076,10137.90,0,0,0,0.35,-3.08,0.35,-0.26,-0.97,0.10
0.0,0.0,0.0,0.0,0.0,0.0,0.0,6092,10136.90,0,0,165,0.28,-3.08,0.21,-0.25,-0.97,0.10
0.0,0.0,0.0,0.0,0.0,0.0,0.0,6106,10137.20,0,0,0,0.35,-3.15,0.14,-0.26,-0.97,0.10
0.0,0.0,0.0,0.0,0.0,0.0,0.0,6113,10136.90,0,0,165,0.28,-3.15,0.00,-0.25,-0.97,0.10
0.0,0.0,0.0,0.0,0.0,0.0,0.0,6128,10136.90,0,0,0,0.21,-3.15,0.07,-0.25,-0.97,0.10
0.0,0.0,0.0,0.0,0.0,0.0,0.0,6136,10136.90,0,0,165,0.35,-3.15,0.35,-0.25,-0.97,0.10
0.0,0.0,0.0,0.0,0.0,0.0,0.0,6151,10137.90,0,0,0,0.42,-3.22,-0.07,-0.26,-0.98,0.11
0.0,0.0,0.0,0.0,0.0,0.0,0.0,6166,10137.90,0,0,165,0.07,-3.01,0.00,-0.25,-0.97,0.10
0.0,0.0,0.0,0.0,0.0,0.0,0.0,6173,10136.90,0,0,0,0.42,-3.08,0.49,-0.25,-0.97,0.10
0.0,0.0,0.0,0.0,0.0,0.0,0.0,6189,10136.90,0,0,165,0.28,-3.15,-0.07,-0.26,-0.98,0.10
0.0,0.0,0.0,0.0,0.0,0.0,0.0,6204,10136.90,0,0,0,0.21,-3.22,0.07,-0.25,-0.97,0.10
0.0,0.0,0.0,0.0,0.0,0.0,0.0,6211,10136.90,0,0,165,0.35,-3.15,0.07,-0.25,-0.97,0.10
0.0,0.0,0.0,0.0,0.0,0.0,0.0,6226,10136.90,0,0,0,0.28,-3.08,-0.07,-0.25,-0.97,0.10
0.0,0.0,0.0,0.0,0.0,0.0,0.0,6241,10136.90,0,0,165,0.28,-3.08,0.21,-0.25,-0.97,0.10
0.0,0.0,0.0,0.0,0.0,0.0,0.0,6248,10136.90,0,0,0,0.35,-3.15,0.21,-0.26,-0.97,0.10
0.0,0.0,0.0,0.0,0.0,0.0,0.0,6263,10136.90,0,0,165,0.42,-3.08,0.14,-0.26,-0.97,0.10
0.0,0.0,0.0,0.0,0.0,0.0,0.0,6278,10138.20,0,0,0,0.35,-3.15,0.21,-0.25,-0.97,0.10
0.0,0.0,0.0,0.0,0.0,0.0,0.0,6286,10136.90,0,0,165,0.28,-3.15,0.21,-0.25,-0.97,0.10
0.0,0.0,0.0,0.0,0.0,0.0,0.0,6301,10136.90,0,0,0,0.35,-3.15,0.07,-0.25,-0.97,0.10
0.0,0.0,0.0,0.0,0.0,0.0,0.0,6316,10137.20,0,0,165,0.21,-3.22,0.07,-0.26,-0.97,0.10
0.0,0.0,0.0,0.0,0.0,0.0,0.0,6323,10137.20,0,0,0,0.28,-3.15,0.21,-0.26,-0.97,0.10
0.0,0.0,0.0,0.0,0.0,0.0,0.0,6339,10137.20,0,0,165,0.21,-3.08,0.14,-0.26,-0.97,0.10
0.0,0.0,0.0,0.0,0.0,0.0,0.0,6354,10136.90,0,0,0,0.28,-3.08,0.07,-0.25,-0.97,0.10
0.0,0.0,0.0,0.0,0.0,0.0,0.0,6361,10136.90,0,0,165,0.28,-3.01,0.07,-0.25,-0.97,0.10
0.0,0.0,0.0,0.0,0.0,0.0,0.0,6376,10136.90,0,0,0,0.28,-3.15,0.07,-0.25,-0.97,0.10
0.0,0.0,0.0,0.0,0.0,0.0,0.0,6391,10137.90,0,0,165,0.35,-3.15,0.14,-0.25,-0.97,0.10
0.0,0.0,0.0,0.0,0.0,0.0,0.0,6398,10137.90,0,0,0,0.42,-3.08,0.21,-0.25,-0.97,0.10
0.0,0.0,0.0,0.0,0.0,0.0,0.0,6413,10136.90,0,0,165,0.21,-3.08,0.14,-0.25,-0.97,0.10
0.0,0.0,0.0,0.0,0.0,0.0,0.0,6428,10137.90,0,0,0,0.35,-3.08,0.21,-0.25,-0.97,0.10
0.0,0.0,0.0,0.0,0.0,0.0,0.0,6436,10136.90,0,0,165,0.28,-3.15,0.28,-0.26,-0.97,0.10
0.0,0.0,0.0,0.0,0.0,0.0,0.0,6451,10137.20,0,0,0,0.28,-3.01,0.07,-0.25,-0.97,0.10
0.0,0.0,0.0,0.0,0.0,0.0,0.0,6466,10136.90,0,0,165,0.35,-3.01,0.21,-0.26,-0.97,0.10
0.0,0.0,0.0,0.0,0.0,0.0,0.0,6474,10137.90,0,0,0,0.21,-3.08,0.14,-0.26,-0.97,0.10
0.0,0.0,0.0,0.0,0.0,0.0,0.0,6488,10137.20,0,0,165,0.28,-3.15,0.14,-0.25,-0.97,0.10
0.0,0.0,0.0,0.0,0.0,0.0,0.0,6504,10136.90,0,0,0,0.28,-3.15,0.07,-0.25,-0.97,0.10
0.0,0.0,0.0,0.0,0.0,0.0,0.0,6511,10136.90,0,0,165,0.14,-3.01,-0.07,-0.25,-0.97,0.10
0.0,0.0,0.0,0.0,0.0,0.0,0.0,6526,10136.90,0,0,0,0.35,-3.15,0.14,-0.25,-0.97,0.10
0.0,0.0,0.0,0.0,0.0,0.0,0.0,6541,10136.90,0,0,165,0.35,-3.22,0.21,-0.25,-0.97,0.10
0.0,0.0,0.0,0.0,0.0,0.0,0.0,6548,10137.20,0,0,0,0.21,-3.15,0.00,-0.25,-0.97,0.10
0.0,0.0,0.0,0.0,0.0,0.0,0.0,6564,10138.20,0,0,165,0.35,-3.15,0.21,-0.25,-0.97,0.10
0.0,0.0,0.0,0.0,0.0,0.0,0.0,6579,10136.90,0,0,0,0.35,-3.22,0.21,-0.25,-0.97,0.10
0.0,0.0,0.0,0.0,0.0,0.0,0.0,6585,10137.20,0,0,165,0.42,-3.22,0.21,-0.25,-0.97,0.10
0.0,0.0,0.0,0.0,0.0,0.0,0.0,6601,10136.60,0,0,0,0.35,-3.08,0.07,-0.26,-0.97,0.10
0.0,0.0,0.0,0.0,0.0,0.0,0.0,6616,10136.90,0,0,165,0.28,-3.01,0.00,-0.25,-0.97,0.10
0.0,0.0,0.0,0.0,0.0,0.0,0.0,6623,10136.90,0,0,0,0.21,-3.15,0.07,-0.25,-0.97,0.10
0.0,0.0,0.0,0.0,0.0,0.0,0.0,6638,10137.20,0,0,165,0.35,-3.15,0.28,-0.25,-0.97,0.10
0.0,0.0,0.0,0.0,0.0,0.0,0.0,6654,10139.20,0,0,0,0.28,-3.15,0.07,-0.25,-0.97,0.10
0.0,0.0,0.0,0.0,0.0,0.0,0.0,6661,10136.90,0,0,165,0.28,-3.08,0.00,-0.25,-0.97,0.10
0.0,0.0,0.0,0.0,0.0,0.0,0.0,6676,10136.90,0,0,0,0.28,-3.15,0.00,-0.25,-0.97,0.10
0.0,0.0,0.0,0.0,0.0,0.0,0.0,6691,10136.90,0,0,165,0.21,-3.22,0.07,-0.25,-0.97,0.10
0.0,0.0,0.0,0.0,0.0,0.0,0.0,6699,10137.20,0,0,0,0.35,-3.08,0.14,-0.25,-0.97,0.10
0.0,0.0,0.0,0.0,0.0,0.0,0.0,6714,10137.20,0,0,165,0.35,-3.08,0.00,-0.26,-0.97,0.10
0.0,0.0,0.0,0.0,0.0,0.0,0.0,6729,10137.90,0,0,0,0.28,-3.15,0.14,-0.25,-0.97,0.10
0.0,0.0,0.0,0.0,0.0,0.0,0.0,6736,10136.90,0,0,165,0.28,-3.01,0.14,-0.25,-0.97,0.10
0.0,0.0,0.0,0.0,0.0,0.0,0.0,6751,10137.90,0,0,0,0.28,-3.15,0.14,-0.25,-0.97,0.10
0.0,0.0,0.0,0.0,0.0,0.0,0.0,6766,10136.90,0,0,165,0.28,-3.15,0.35,-0.25,-0.97,0.10
0.0,0.0,0.0,0.0,0.0,0.0,0.0,6773,10136.90,0,0,0,0.35,-3.15,0.07,-0.25,-0.97,0.10
0.0,0.0,0.0,0.0,0.0,0.0,0.0,6788,10136.90,0,0,165,0.28,-3.22,0.00,-0.25,-0.97,0.10
0.0,0.0,0.0,0.0,0.0,0.0,0.0,6803,10137.20,0,0,0,0.35,-3.08,0.14,-0.25,-0.97,0.10
0.0,0.0,0.0,0.0,0.0,0.0,0.0,6811,10138.20,0,0,165,0.35,-3.08,0.07,-0.25,-0.97,0.10
0.0,0.0,0.0,0.0,0.0,0.0,0.0,6826,10137.90,0,0,0,0.21,-3.08,0.28,-0.25,-0.97,0.10
0.0,0.0,0.0,0.0,0.0,0.0,0.0,6841,10135.90,0,0,165,0.28,-3.08,0.21,-0.25,-0.97,0.10
0.0,0.0,0.0,0.0,0.0,0.0,0.0,6848,10137.90,0,0,0,0.21,-3.15,0.00,-0.25,-0.97,0.10
0.0,0.0,0.0,0.0,0.0,0.0,0.0,6863,10136.90,0,0,165,0.21,-3.15,0.00,-0.25,-0.97,0.10
0.0,0.0,0.0,0.0,0.0,0.0,0.0,6878,10137.20,0,0,0,0.42,-3.08,0.21,-0.25,-0.97,0.10
0.0,0.0,0.0,0.0,0.0,0.0,0.0,6886,10136.90,0,0,165,0.28,-3.15,0.14,-0.25,-0.97,0.10
0.0,0.0,0.0,0.0,0.0,0.0,0.0,6901,10136.90,0,0,0,0.42,-3.08,0.28,-0.25,-0.97,0.10
0.0,0.0,0.0,0.0,0.0,0.0,0.0,6916,10136.90,0,0,165,0.21,-3.08,0.07,-0.25,-0.97,0.10
0.0,0.0,0.0,0.0,0.0,0.0,0.0,6924,10136.90,0,0,0,0.21,-3.08,0.14,-0.25,-0.97,0.10
0.0,0.0,0.0,0.0,0.0,0.0,0.0,6938,10136.90,0,0,165,0.42,-3.15,0.28,-0.26,-0.97,0.10
0.0,0.0,0.0,0.0,0.0,0.0,0.0,6953,10136.90,0,0,0,0.35,-3.22,0.21,-0.26,-0.97,0.10
0.0,0.0,0.0,0.0,0.0,0.0,0.0,6968,10137.90,0,0,165,0.28,-3.15,0.07,-0.25,-0.97,0.10
0.0,0.0,0.0,0.0,0.0,0.0,0.0,6976,10137.90,0,0,0,0.35,-3.15,0.14,-0.25,-0.97,0.10
0.0,0.0,0.0,0.0,0.0,0.0,0.0,6991,10136.90,0,0,165,0.21,-3.08,0.07,-0.25,-0.97,0.10
0.0,0.0,0.0,0.0,0.0,0.0,0.0,6998,10136.90,0,0,0,0.28,-3.15,0.14,-0.25,-0.97,0.10
0.0,0.0,0.0,0.0,0.0,0.0,0.0,7013,10135.90,0,0,165,0.14,-3.08,0.07,-0.25,-0.97,0.10
0.0,0.0,0.0,0.0,0.0,0.0,0.0,7028,10138.20,0,0,0,0.35,-3.08,0.00,-0.25,-0.97,0.10
0.0,0.0,0.0,0.0,0.0,0.0,0.0,7036,10136.90,0,0,165,0.42,-3.08,0.21,-0.25,-0.97,0.10
0.0,0.0,0.0,0.0,0.0,0.0,0.0,7051,10136.90,0,0,0,0.28,-3.22,0.35,-0.25,-0.97,0.10
0.0,0.0,0.0,0.0,0.0,0.0,0.0,7066,10137.20,0,0,165,0.21,-3.22,0.28,-0.25,-0.97,0.10
0.0,0.0,0.0,0.0,0.0,0.0,0.0,7073,10138.20,0,0,0,0.28,-3.15,0.07,-0.25,-0.97,0.10
0.0,0.0,0.0,0.0,0.0,0.0,0.0,7088,10137.20,0,0,165,0.28,-3.22,0.14,-0.26,-0.97,0.10
0.0,0.0,0.0,0.0,0.0,0.0,0.0,7111,10136.90,0,0,0,0.35,-3.08,0.21,-0.25,-0.97,0.10
0.0,0.0,0.0,0.0,0.0,0.0,0.0,7112,10135.90,0,0,165,0.14,-3.15,0.21,-0.26,-0.97,0.10
0.0,0.0,0.0,0.0,0.0,0.0,0.0,7126,10136.90,0,0,0,0.35,-3.08,0.00,-0.25,-0.97,0.10
0.0,0.0,0.0,0.0,0.0,0.0,0.0,7133,10137.20,0,0,165,0.21,-3.08,0.14,-0.25,-0.97,0.10
0.0,0.0,0.0,0.0,0.0,0.0,0.0,7148,10137.20,0,0,0,0.35,-3.08,0.07,-0.25,-0.97,0.10
0.0,0.0,0.0,0.0,0.0,0.0,0.0,7164,10137.20,0,0,165,0.14,-3.15,0.00,-0.25,-0.97,0.10
0.0,0.0,0.0,0.0,0.0,0.0,0.0,7171,10136.90,0,0,0,0.28,-3.15,0.07,-0.25,-0.97,0.10
0.0,0.0,0.0,0.0,0.0,0.0,0.0,7186,10137.20,0,0,165,0.21,-3.08,0.00,-0.25,-0.97,0.10
0.0,0.0,0.0,0.0,0.0,0.0,0.0,7201,10138.20,0,0,0,0.35,-3.08,0.28,-0.25,-0.97,0.10
0.0,0.0,0.0,0.0,0.0,0.0,0.0,7209,10136.90,0,0,165,0.35,-3.15,0.21,-0.25,-0.97,0.10
0.0,0.0,0.0,0.0,0.0,0.0,0.0,7224,10136.90,0,0,0,0.35,-3.08,0.14,-0.25,-0.97,0.10
0.0,0.0,0.0,0.0,0.0,0.0,0.0,7239,10137.90,0,0,165,0.42,-3.15,0.35,-0.26,-0.97,0.10
0.0,0.0,0.0,0.0,0.0,0.0,0.0,7247,10136.90,0,0,0,0.35,-3.15,0.07,-0.26,-0.97,0.10
0.0,0.0,0.0,0.0,0.0,0.0,0.0,7262,10136.90,0,0,165,0.28,-3.15,0.14,-0.25,-0.97,0.10
0.0,0.0,0.0,0.0,0.0,0.0,0.0,7276,10136.90,0,0,0,0.35,-3.08,0.28,-0.26,-0.97,0.10
0.0,0.0,0.0,0.0,0.0,0.0,0.0,7283,10137.90,0,0,165,0.14,-3.15,0.07,-0.26,-0.97,0.10
0.0,0.0,0.0,0.0,0.0,0.0,0.0,7299,10137.90,0,0,0,0.21,-3.08,0.00,-0.26,-0.97,0.10
0.0,0.0,0.0,0.0,0.0,0.0,0.0,7313,10137.20,0,0,165,0.28,-3.08,0.07,-0.25,-0.97,0.10
0.0,0.0,0.0,0.0,0.0,0.0,0.0,7321,10137.20,0,0,0,0.28,-3.08,0.07,-0.25,-0.97,0.10
0.0,0.0,0.0,0.0,0.0,0.0,0.0,7336,10138.80,0,0,165,0.28,-3.15,0.21,-0.25,-0.97,0.10
0.0,0.0,0.0,0.0,0.0,0.0,0.0,7351,10136.90,0,0,0,0.35,-3.15,0.21,-0.25,-0.97,0.10
0.0,0.0,0.0,0.0,0.0,0.0,0.0,7358,10136.90,0,0,165,0.28,-3.15,0.14,-0.25,-0.97,0.10
0.0,0.0,0.0,0.0,0.0,0.0,0.0,7373,10136.90,0,0,0,0.28,-3.15,0.28,-0.25,-0.97,0.10
0.0,0.0,0.0,0.0,0.0,0.0,0.0,7388,10136.90,0,0,165,0.42,-3.08,0.42,-0.25,-0.97,0.10
0.0,0.0,0.0,0.0,0.0,0.0,0.0,7396,10137.20,0,0,0,0.35,-3.08,0.28,-0.25,-0.97,0.10
0.0,0.0,0.0,0.0,0.0,0.0,0.0,7417,10136.90,0,0,165,0.21,-3.08,0.07,-0.26,-0.97,0.10
0.0,0.0,0.0,0.0,0.0,0.0,0.0,7426,10136.90,0,0,0,0.42,-3.08,0.00,-0.26,-0.97,0.10
0.0,0.0,0.0,0.0,0.0,0.0,0.0,7433,10136.90,0,0,165,0.35,-3.08,0.00,-0.26,-0.97,0.10
0.0,0.0,0.0,0.0,0.0,0.0,0.0,7448,10136.90,0,0,0,0.35,-3.15,0.21,-0.25,-0.97,0.10
0.0,0.0,0.0,0.0,0.0,0.0,0.0,7464,10136.90,0,0,165,0.35,-3.15,0.14,-0.25,-0.97,0.10
0.0,0.0,0.0,0.0,0.0,0.0,0.0,7471,10137.20,0,0,0,0.14,-3.22,0.00,-0.25,-0.97,0.10
0.0,0.0,0.0,0.0,0.0,0.0,0.0,7486,10137.20,0,0,165,0.21,-3.01,0.07,-0.25,-0.97,0.10
0.0,0.0,0.0,0.0,0.0,0.0,0.0,7501,10136.30,0,0,0,0.35,-3.08,0.21,-0.37,-0.97,0.10
0.0,0.0,0.0,0.0,0.0,0.0,0.0,7508,10136.30,0,0,165,0.35,-3.22,0.21,-0.25,-0.97,0.10
0.0,0.0,0.0,0.0,0.0,0.0,0.0,7524,10136.90,0,0,0,0.28,-3.22,0.21,-0.25,-0.97,0.10
0.0,0.0,0.0,0.0,0.0,0.0,0.0,7539,10137.90,0,0,165,0.21,-3.15,0.21,-0.25,-0.97,0.10
0.0,0.0,0.0,0.0,0.0,0.0,0.0,7546,10136.30,0,0,0,0.35,-3.15,0.14,-0.25,-0.97,0.10
0.0,0.0,0.0,0.0,0.0,0.0,0.0,7561,10137.20,0,0,165,0.35,-3.15,0.28,-0.25,-0.97,0.10
0.0,0.0,0.0,0.0,0.0,0.0,0.0,7576,10137.20,0,0,0,0.28,-3.08,0.35,-0.25,-0.97,0.10
0.0,0.0,0.0,0.0,0.0,0.0,0.0,7583,10137.90,0,0,165,0.28,-3.08,0.14,-0.26,-0.97,0.10
0.0,0.0,0.0,0.0,0.0,0.0,0.0,7598,10136.90,0,0,0,0.28,-3.15,0.00,-0.25,-0.97,0.10
0.0,0.0,0.0,0.0,0.0,0.0,0.0,7614,10135.90,0,0,165,0.14,-3.08,-0.07,-0.25,-0.97,0.10
0.0,0.0,0.0,0.0,0.0,0.0,0.0,7621,10136.90,0,0,0,0.28,-3.15,0.21,-0.25,-0.97,0.10
0.0,0.0,0.0,0.0,0.0,0.0,0.0,7636,10136.90,0,0,165,0.35,-3.15,0.28,-0.25,-0.97,0.10
0.0,0.0,0.0,0.0,0.0,0.0,0.0,7651,10136.90,0,0,0,0.21,-3.15,0.07,-0.25,-0.97,0.10
0.0,0.0,0.0,0.0,0.0,0.0,0.0,7658,10136.90,0,0,165,0.21,-3.08,0.14,-0.25,-0.97,0.10
0.0,0.0,0.0,0.0,0.0,0.0,0.0,7674,10136.90,0,0,0,0.42,-3.15,0.21,-0.25,-0.97,0.10
0.0,0.0,0.0,0.0,0.0,0.0,0.0,7688,10137.20,0,0,165,0.49,-3.15,0.21,-0.25,-0.97,0.10
0.0,0.0,0.0,0.0,0.0,0.0,0.0,7696,10136.30,0,0,0,0.35,-3.08,0.14,-0.25,-0.97,0.10
0.0,0.0,0.0,0.0,0.0,0.0,0.0,7711,10138.20,0,0,165,0.28,-3.15,0.14,-0.25,-0.97,0.10
0.0,0.0,0.0,0.0,0.0,0.0,0.0,7725,10136.90,0,0,0,0.35,-3.01,0.07,-0.25,-0.97,0.10
0.0,0.0,0.0,0.0,0.0,0.0,0.0,7733,10137.20,0,0,165,0.28,-3.15,0.21,-0.25,-0.97,0.10
0.0,0.0,0.0,0.0,0.0,0.0,0.0,7748,10136.90,0,0,0,0.35,-3.15,0.21,-0.25,-0.97,0.10
0.0,0.0,0.0,0.0,0.0,0.0,0.0,7763,10136.90,0,0,165,0.35,-3.15,0.14,-0.25,-0.97,0.10
0.0,0.0,0.0,0.0,0.0,0.0,0.0,7770,10136.90,0,0,0,0.21,-3.01,0.14,-0.25,-0.97,0.10
0.0,0.0,0.0,0.0,0.0,0.0,0.0,7786,10136.90,0,0,165,0.28,-3.08,0.14,-0.25,-0.97,0.10
0.0,0.0,0.0,0.0,0.0,0.0,0.0,7801,10136.90,0,0,0,0.35,-3.08,0.21,-0.26,-0.97,0.10
0.0,0.0,0.0,0.0,0.0,0.0,0.0,7808,10136.90,0,0,165,0.35,-3.08,0.21,-0.26,-0.97,0.10
0.0,0.0,0.0,0.0,0.0,0.0,0.0,7823,10138.20,0,0,0,0.21,-3.08,0.07,-0.25,-0.97,0.10
0.0,0.0,0.0,0.0,0.0,0.0,0.0,7838,10137.20,0,0,165,0.28,-3.15,0.07,-0.25,-0.97,0.10
0.0,0.0,0.0,0.0,0.0,0.0,0.0,7848,10138.20,0,0,0,0.28,-3.15,0.07,-0.25,-0.97,0.10
0.0,0.0,0.0,0.0,0.0,0.0,0.0,7861,10137.20,0,0,165,0.35,-3.08,0.14,-0.25,-0.97,0.10
0.0,0.0,0.0,0.0,0.0,0.0,0.0,7876,10136.30,0,0,0,0.35,-3.08,0.14,-0.25,-0.97,0.10
0.0,0.0,0.0,0.0,0.0,0.0,0.0,7884,10138.20,0,0,165,0.49,-3.08,0.28,-0.25,-0.97,0.10
0.0,0.0,0.0,0.0,0.0,0.0,0.0,7898,10135.90,0,0,0,0.35,-3.22,0.21,-0.25,-0.97,0.10
0.0,0.0,0.0,0.0,0.0,0.0,0.0,7916,10137.90,0,0,165,0.35,-3.15,0.35,-0.25,-0.97,0.10
0.0,0.0,0.0,0.0,0.0,0.0,0.0,7920,10137.20,0,0,0,0.21,-3.15,0.00,-0.26,-0.97,0.10
0.0,0.0,0.0,0.0,0.0,0.0,0.0,7936,10137.20,0,0,165,0.28,-3.08,0.14,-0.25,-0.97,0.10
0.0,0.0,0.0,0.0,0.0,0.0,0.0,7951,10137.90,0,0,0,0.21,-3.15,0.14,-0.26,-0.97,0.10
0.0,0.0,0.0,0.0,0.0,0.0,0.0,7958,10137.20,0,0,165,0.28,-3.08,0.07,-0.25,-0.97,0.10
0.0,0.0,0.0,0.0,0.0,0.0,0.0,7974,10138.20,0,0,0,0.28,-3.08,0.00,-0.25,-0.97,0.10
0.0,0.0,0.0,0.0,0.0,0.0,0.0,7989,10137.20,0,0,165,0.28,-3.08,0.07,-0.25,-0.97,0.10
0.0,0.0,0.0,0.0,0.0,0.0,0.0,7996,10136.90,0,0,0,0.28,-3.08,0.21,-0.25,-0.97,0.10
0.0,0.0,0.0,0.0,0.0,0.0,0.0,8011,10136.90,0,0,165,0.35,-3.15,0.28,-0.25,-0.97,0.10
0.0,0.0,0.0,0.0,0.0,0.0,0.0,8025,10137.20,0,0,0,0.42,-3.01,0.14,-0.25,-0.97,0.10
0.0,0.0,0.0,0.0,0.0,0.0,0.0,8033,10137.20,0,0,165,0.28,-3.08,0.07,-0.25,-0.97,0.10
0.0,0.0,0.0,0.0,0.0,0.0,0.0,8048,10136.30,0,0,0,0.35,-3.08,0.35,-0.26,-0.97,0.10
0.0,0.0,0.0,0.0,0.0,0.0,0.0,8063,10136.90,0,0,165,0.28,-3.08,0.21,-0.25,-0.97,0.10
0.0,0.0,0.0,0.0,0.0,0.0,0.0,8071,10136.90,0,0,0,0.35,-3.15,0.14,-0.25,-0.97,0.10
0.0,0.0,0.0,0.0,0.0,0.0,0.0,8086,10136.90,0,0,165,0.28,-3.15,0.14,-0.25,-0.97,0.10
0.0,0.0,0.0,0.0,0.0,0.0,0.0,8101,10137.20,0,0,0,0.21,-3.08,0.00,-0.25,-0.97,0.10
0.0,0.0,0.0,0.0,0.0,0.0,0.0,8109,10136.90,0,0,165,0.21,-3.15,-0.14,-0.25,-0.97,0.10
0.0,0.0,0.0,0.0,0.0,0.0,0.0,8124,10136.90,0,0,0,0.28,-3.01,0.07,-0.25,-0.97,0.10
0.0,0.0,0.0,0.0,0.0,0.0,0.0,8138,10137.90,0,0,165,0.28,-3.15,0.14,-0.25,-0.97,0.10
0.0,0.0,0.0,0.0,0.0,0.0,0.0,8146,10137.20,0,0,0,0.28,-3.08,0.28,-0.25,-0.97,0.10
0.0,0.0,0.0,0.0,0.0,0.0,0.0,8168,10136.90,0,0,165,0.35,-3.01,0.14,-0.25,-0.97,0.10
0.0,0.0,0.0,0.0,0.0,0.0,0.0,8175,10136.30,0,0,0,0.28,-3.15,0.21,-0.25,-0.97,0.10
0.0,0.0,0.0,0.0,0.0,0.0,0.0,8183,10137.20,0,0,165,0.35,-3.08,0.35,-0.25,-0.97,0.10
0.0,0.0,0.0,0.0,0.0,0.0,0.0,8199,10137.20,0,0,0,0.21,-3.08,0.21,-0.26,-0.97,0.10
0.0,0.0,0.0,0.0,0.0,0.0,0.0,8213,10136.90,0,0,165,0.28,-3.08,0.21,-0.26,-0.97,0.10
0.0,0.0,0.0,0.0,0.0,0.0,0.0,8221,10137.90,0,0,0,0.28,-3.08,0.21,-0.26,-0.97,0.10
0.0,0.0,0.0,0.0,0.0,0.0,0.0,8236,10137.20,0,0,165,0.21,-3.15,0.07,-0.25,-0.97,0.10
0.0,0.0,0.0,0.0,0.0,0.0,0.0,8251,10135.90,0,0,0,0.21,-3.08,0.07,-0.25,-0.97,0.10
0.0,0.0,0.0,0.0,0.0,0.0,0.0,8258,10137.20,0,0,165,0.21,-3.08,0.07,-0.25,-0.98,0.10
0.0,0.0,0.0,0.0,0.0,0.0,0.0,8273,10137.20,0,0,0,0.28,-3.15,0.14,-0.25,-0.97,0.10
0.0,0.0,0.0,0.0,0.0,0.0,0.0,8288,10137.20,0,0,165,0.35,-3.08,0.07,-0.25,-0.97,0.10
0.0,0.0,0.0,0.0,0.0,0.0,0.0,8295,10137.20,0,0,0,0.35,-3.08,0.00,-0.25,-0.97,0.10
0.0,0.0,0.0,0.0,0.0,0.0,0.0,8312,10137.20,0,0,165,0.35,-3.15,0.21,-0.25,-0.97,0.10
0.0,0.0,0.0,0.0,0.0,0.0,0.0,8326,10135.90,0,0,0,0.35,-3.01,0.35,-0.25,-0.97,0.10
0.0,0.0,0.0,0.0,0.0,0.0,0.0,8333,10137.20,0,0,165,0.28,-3.08,0.14,-0.25,-0.97,0.10
0.0,0.0,0.0,0.0,0.0,0.0,0.0,8348,10138.20,0,0,0,0.28,-3.22,0.14,-0.25,-0.97,0.10
0.0,0.0,0.0,0.0,0.0,0.0,0.0,8363,10136.90,0,0,165,0.28,-3.01,0.07,-0.25,-0.97,0.10
0.0,0.0,0.0,0.0,0.0,0.0,0.0,8371,10137.20,0,0,0,0.28,-3.15,0.07,-0.25,-0.97,0.10
0.0,0.0,0.0,0.0,0.0,0.0,0.0,8386,10138.20,0,0,165,0.28,-3.15,0.14,-0.25,-0.97,0.10
0.0,0.0,0.0,0.0,0.0,0.0,0.0,8401,10137.20,0,0,0,0.35,-3.08,0.21,-0.25,-0.97,0.10
0.0,0.0,0.0,0.0,0.0,0.0,0.0,8409,10136.90,0,0,165,0.35,-3.08,0.14,-0.25,-0.97,0.10
0.0,0.0,0.0,0.0,0.0,0.0,0.0,8423,10136.90,0,0,0,0.28,-3.15,0.14,-0.25,-0.97,0.10
0.0,0.0,0.0,0.0,0.0,0.0,0.0,8439,10137.20,0,0,165,0.35,-3.15,0.14,-0.25,-0.97,0.10
0.0,0.0,0.0,0.0,0.0,0.0,0.0,8446,10137.20,0,0,0,0.21,-3.08,0.14,-0.25,-0.97,0.10
0.0,0.0,0.0,0.0,0.0,0.0,0.0,8461,10138.20,0,0,165,0.35,-3.08,0.14,-0.25,-0.97,0.10
0.0,0.0,0.0,0.0,0.0,0.0,0.0,8476,10138.20,0,0,0,0.42,-3.22,0.14,-0.25,-0.97,0.10
0.0,0.0,0.0,0.0,0.0,0.0,0.0,8483,10136.90,0,0,165,0.35,-3.08,0.07,-0.25,-0.97,0.10
0.0,0.0,0.0,0.0,0.0,0.0,0.0,8499,10136.30,0,0,0,0.35,-3.08,0.21,-0.25,-0.97,0.10
0.0,0.0,0.0,0.0,0.0,0.0,0.0,8514,10138.20,0,0,165,0.35,-3.22,0.21,-0.25,-0.97,0.10
0.0,0.0,0.0,0.0,0.0,0.0,0.0,8521,10138.20,0,0,0,0.35,-3.15,0.21,-0.25,-0.97,0.10
0.0,0.0,0.0,0.0,0.0,0.0,0.0,8536,10137.20,0,0,165,0.35,-3.15,0.14,-0.26,-0.97,0.10
0.0,0.0,0.0,0.0,0.0,0.0,0.0,8551,10137.20,0,0,0,0.28,-3.08,0.14,-0.25,-0.97,0.10
0.0,0.0,0.0,0.0,0.0,0.0,0.0,8558,10136.90,0,0,165,0.28,-3.15,0.21,-0.25,-0.97,0.10
0.0,0.0,0.0,0.0,0.0,0.0,0.0,8574,10137.20,0,0,0,0.35,-3.01,0.21,-0.26,-0.97,0.10
0.0,0.0,0.0,0.0,0.0,0.0,0.0,8588,10137.90,0,0,165,0.35,-3.08,0.21,-0.25,-0.97,0.10
0.0,0.0,0.0,0.0,0.0,0.0,0.0,8596,10136.90,0,0,0,0.42,-3.01,0.21,-0.25,-0.97,0.10
0.0,0.0,0.0,0.0,0.0,0.0,0.0,8610,10136.90,0,0,165,0.28,-3.15,0.07,-0.25,-0.97,0.10
0.0,0.0,0.0,0.0,0.0,0.0,0.0,8626,10135.30,0,0,0,0.35,-3.08,0.07,-0.25,-0.97,0.10
0.0,0.0,0.0,0.0,0.0,0.0,0.0,8634,10137.20,0,0,165,0.28,-3.08,0.21,-0.25,-0.97,0.10
0.0,0.0,0.0,0.0,0.0,0.0,0.0,8648,10137.20,0,0,0,0.28,-3.15,0.21,-0.25,-0.97,0.10
0.0,0.0,0.0,0.0,0.0,0.0,0.0,8663,10137.20,0,0,165,0.42,-3.15,0.14,-0.25,-0.97,0.10
0.0,0.0,0.0,0.0,0.0,0.0,0.0,8671,10137.20,0,0,0,0.35,-3.01,0.14,-0.25,-0.97,0.10
0.0,0.0,0.0,0.0,0.0,0.0,0.0,8686,10136.90,0,0,165,0.28,-3.08,0.21,-0.25,-0.97,0.10
0.0,0.0,0.0,0.0,0.0,0.0,0.0,8701,10136.30,0,0,0,0.42,-3.15,0.28,-0.25,-0.97,0.10
0.0,0.0,0.0,0.0,0.0,0.0,0.0,8709,10137.20,0,0,165,0.42,-3.08,0.28,-0.25,-0.97,0.10
0.0,0.0,0.0,0.0,0.0,0.0,0.0,8724,10137.20,0,0,0,0.14,-3.08,0.00,-0.25,-0.97,0.10
0.0,0.0,0.0,0.0,0.0,0.0,0.0,8739,10137.20,0,0,165,0.21,-3.15,0.00,-0.25,-0.97,0.10
0.0,0.0,0.0,0.0,0.0,0.0,0.0,8746,10137.20,0,0,0,0.21,-3.08,0.07,-0.25,-0.97,0.10
0.0,0.0,0.0,0.0,0.0,0.0,0.0,8761,10137.20,0,0,165,0.28,-3.01,0.07,-0.25,-0.97,0.10
0.0,0.0,0.0,0.0,0.0,0.0,0.0,8776,10136.90,0,0,0,0.28,-3.15,0.14,-0.25,-0.97,0.10
0.0,0.0,0.0,0.0,0.0,0.0,0.0,8784,10137.20,0,0,165,0.35,-3.08,0.21,-0.25,-0.97,0.10
0.0,0.0,0.0,0.0,0.0,0.0,0.0,8798,10137.20,0,0,0,0.35,-3.15,0.21,-0.25,-0.97,0.10
0.0,0.0,0.0,0.0,0.0,0.0,0.0,8813,10137.20,0,0,165,0.28,-3.15,0.28,-0.25,-0.97,0.10
0.0,0.0,0.0,0.0,0.0,0.0,0.0,8821,10138.20,0,0,0,0.28,-3.15,0.07,-0.25,-0.97,0.10
0.0,0.0,0.0,0.0,0.0,0.0,0.0,8836,10137.20,0,0,165,0.28,-3.08,0.14,-0.25,-0.97,0.10
0.0,0.0,0.0,0.0,0.0,0.0,0.0,8850,10137.90,0,0,0,0.28,-3.22,0.21,-0.25,-0.97,0.10
0.0,0.0,0.0,0.0,0.0,0.0,0.0,8858,10137.20,0,0,165,0.28,-3.01,0.21,-0.25,-0.97,0.10
0.0,0.0,0.0,0.0,0.0,0.0,0.0,8873,10136.90,0,0,0,0.35,-3.08,0.14,-0.25,-0.97,0.10
0.0,0.0,0.0,0.0,0.0,0.0,0.0,8888,10137.20,0,0,165,0.28,-3.08,0.21,-0.25,-0.97,0.10
0.0,0.0,0.0,0.0,0.0,0.0,0.0,8895,10137.20,0,0,0,0.14,-3.01,0.07,-0.25,-0.97,0.10
0.0,0.0,0.0,0.0,0.0,0.0,0.0,8911,10137.20,0,0,165,0.35,-3.08,0.14,-0.25,-0.97,0.10
0.0,0.0,0.0,0.0,0.0,0.0,0.0,8926,10136.30,0,0,0,0.42,-3.08,0.14,-0.25,-0.97,0.10
0.0,0.0,0.0,0.0,0.0,0.0,0.0,8934,10138.20,0,0,165,0.35,-3.15,0.14,-0.25,-0.97,0.10
0.0,0.0,0.0,0.0,0.0,0.0,0.0,8948,10137.20,0,0,0,0.35,-3.15,0.28,-0.25,-0.97,0.10
0.0,0.0,0.0,0.0,0.0,0.0,0.0,8964,10137.20,0,0,165,0.28,-3.08,0.28,-0.25,-0.97,0.10
0.0,0.0,0.0,0.0,0.0,0.0,0.0,8971,10136.90,0,0,0,0.42,-3.08,0.28,-0.25,-0.97,0.10
0.0,0.0,0.0,0.0,0.0,0.0,0.0,8985,10138.20,0,0,165,0.28,-3.15,0.14,-0.26,-0.97,0.10
0.0,0.0,0.0,0.0,0.0,0.0,0.0,9000,10136.30,0,0,0,0.28,-3.15,0.07,-0.25,-0.97,0.10
0.0,0.0,0.0,0.0,0.0,0.0,0.0,9007,10137.20,0,0,165,0.35,-3.15,0.07,-0.25,-0.97,0.10
0.0,0.0,0.0,0.0,0.0,0.0,0.0,9023,10137.90,0,0,0,0.21,-3.08,0.14,-0.25,-0.97,0.10
0.0,0.0,0.0,0.0,0.0,0.0,0.0,9038,10138.20,0,0,165,0.35,-3.08,0.21,-0.25,-0.97,0.10
0.0,0.0,0.0,0.0,0.0,0.0,0.0,9046,10136.90,0,0,0,0.28,-3.08,0.14,-0.25,-0.97,0.10
0.0,0.0,0.0,0.0,0.0,0.0,0.0,9061,10136.90,0,0,165,0.42,-3.15,0.21,-0.25,-0.97,0.10
0.0,0.0,0.0,0.0,0.0,0.0,0.0,9075,10138.20,0,0,0,0.14,-3.08,0.14,-0.25,-0.97,0.10
0.0,0.0,0.0,0.0,0.0,0.0,0.0,9083,10137.20,0,0,165,0.35,-3.08,0.28,-0.25,-0.97,0.10
0.0,0.0,0.0,0.0,0.0,0.0,0.0,9098,10137.20,0,0,0,0.28,-3.08,0.14,-0.26,-0.97,0.10
0.0,0.0,0.0,0.0,0.0,0.0,0.0,9113,10137.20,0,0,165,0.28,-3.08,0.00,-0.25,-0.97,0.10
0.0,0.0,0.0,0.0,0.0,0.0,0.0,9121,10138.20,0,0,0,0.35,-3.22,0.14,-0.25,-0.97,0.10
0.0,0.0,0.0,0.0,0.0,0.0,0.0,9136,10138.20,0,0,165,0.28,-3.08,0.14,-0.25,-0.97,0.10
0.0,0.0,0.0,0.0,0.0,0.0,0.0,9151,10137.20,0,0,0,0.28,-3.08,0.14,-0.25,-0.97,0.10
0.0,0.0,0.0,0.0,0.0,0.0,0.0,9158,10136.90,0,0,165,0.28,-3.08,0.56,-0.25,-0.98,0.10
0.0,0.0,0.0,0.0,0.0,0.0,0.0,9173,10137.20,0,0,0,0.35,-3.15,0.14,-0.25,-0.97,0.10
0.0,0.0,0.0,0.0,0.0,0.0,0.0,9188,10136.90,0,0,165,0.28,-3.22,-0.07,-0.25,-0.97,0.10
0.0,0.0,0.0,0.0,0.0,0.0,0.0,9196,10137.20,0,0,0,0.35,-3.01,0.14,-0.25,-0.97,0.10
0.0,0.0,0.0,0.0,0.0,0.0,0.0,9211,10137.20,0,0,165,0.21,-3.08,0.14,-0.26,-0.97,0.10
0.0,0.0,0.0,0.0,0.0,0.0,0.0,9226,10137.20,0,0,0,0.21,-3.15,0.07,-0.25,-0.97,0.10
0.0,0.0,0.0,0.0,0.0,0.0,0.0,9234,10137.20,0,0,165,0.28,-3.15,0.14,-0.25,-0.97,0.10
0.0,0.0,0.0,0.0,0.0,0.0,0.0,9248,10137.20,0,0,0,0.21,-3.08,0.14,-0.26,-0.98,0.10
0.0,0.0,0.0,0.0,0.0,0.0,0.0,9263,10137.20,0,0,165,0.35,-3.22,0.35,-0.25,-0.97,0.10
0.0,0.0,0.0,0.0,0.0,0.0,0.0,9271,10137.20,0,0,0,0.35,-3.15,-0.21,-0.25,-0.97,0.10
0.84277344,-3.8244156E-4,-8.495413E-4,-1.3792817E-4,-0.25,-0.97,0.1,13276,10138.20,0,0,0,0.28,-3.15,0.14,-0.25,-0.97,0.10
-0.15722656,6.1755814E-4,0.001150459,8.620715E-4,-0.25,-0.97,0.1,13283,10137.20,0,0,165,0.35,-3.01,0.21,-0.25,-0.97,0.10
-0.15722656,6.1755814E-4,-8.495413E-4,-0.0011379282,-0.25,-0.97,0.1,13299,10137.20,0,0,0,0.35,-3.15,0.07,-0.25,-0.97,0.10
-1.0576172,-3.8244156E-4,-8.495413E-4,-1.3792817E-4,-0.25,-0.97,0.1,13313,10136.30,0,0,165,0.28,-3.15,0.14,-0.25,-0.97,0.10
-0.15722656,-3.8244156E-4,1.5046075E-4,-1.3792817E-4,-0.25,-0.97,0.1,13321,10137.20,0,0,0,0.28,-3.08,0.14,-0.25,-0.97,0.10
-1.0576172,6.1755814E-4,-8.495413E-4,-1.3792817E-4,-0.25,-0.97,0.1,13336,10136.30,0,0,165,0.35,-3.15,0.14,-0.25,-0.97,0.10
-0.15722656,0.0016175578,1.5046075E-4,0.0028620716,-0.25,-0.97,0.1,13350,10137.20,0,0,0,0.42,-3.08,0.35,-0.25,-0.97,0.10
-0.15722656,0.0016175578,0.001150459,-1.3792817E-4,-0.25,-0.97,0.1,13360,10137.20,0,0,165,0.42,-3.01,0.14,-0.25,-0.97,0.10
-0.15722656,6.1755814E-4,1.5046075E-4,-0.0011379282,-0.25,-0.97,0.1,13373,10137.20,0,0,0,0.35,-3.08,0.07,-0.25,-0.97,0.10
-0.15722656,0.0016175578,-8.495413E-4,-0.0011379282,-0.25,-0.97,0.1,13388,10137.20,0,0,165,0.42,-3.15,0.07,-0.25,-0.97,0.10
0.84277344,6.1755814E-4,0.002150461,-0.0011379282,-0.25,-0.97,0.1,13398,10138.20,0,0,0,0.35,-2.94,0.07,-0.25,-0.97,0.10
1.5429688,0.0016175578,-8.495413E-4,-1.3792817E-4,-0.25,-0.97,0.1,13411,10138.90,0,0,165,0.42,-3.15,0.14,-0.25,-0.97,0.10
-1.0576172,6.1755814E-4,1.5046075E-4,8.620715E-4,-0.25,-0.97,0.1,13425,10136.30,0,0,0,0.35,-3.08,0.21,-0.25,-0.97,0.10
-0.15722656,-3.8244156E-4,1.5046075E-4,8.620715E-4,-0.25,-0.97,0.1,13434,10137.20,0,0,165,0.28,-3.08,0.21,-0.25,-0.97,0.10
-0.15722656,-3.8244156E-4,0.001150459,8.620715E-4,-0.25,-0.97,0.1,13449,10137.20,0,0,0,0.28,-3.01,0.21,-0.25,-0.97,0.10
0.84277344,6.1755814E-4,1.5046075E-4,-1.3792817E-4,-0.25,-0.97,0.1,13463,10138.20,0,0,165,0.35,-3.08,0.14,-0.25,-0.97,0.10
-0.15722656,-3.8244156E-4,1.5046075E-4,8.620715E-4,-0.25,-0.97,0.1,13471,10137.20,0,0,0,0.28,-3.08,0.21,-0.25,-0.97,0.10
0.84277344,6.1755814E-4,1.5046075E-4,-0.0011379282,-0.25,-0.97,0.1,13486,10138.20,0,0,165,0.35,-3.08,0.07,-0.25,-0.97,0.10
0.84277344,-3.8244156E-4,1.5046075E-4,-0.0021379283,-0.25,-0.97,0.1,13501,10138.20,0,0,0,0.28,-3.08,0.00,-0.25,-0.97,0.10
0.2421875,-3.8244156E-4,1.5046075E-4,-0.0011379282,-0.25,-0.97,0.1,13508,10137.60,0,0,165,0.28,-3.08,0.07,-0.25,-0.97,0.10
0.84277344,-3.8244156E-4,1.5046075E-4,0.0018620719,-0.25,-0.97,0.1,13523,10138.20,0,0,0,0.28,-3.08,0.28,-0.25,-0.97,0.10
-0.15722656,6.1755814E-4,-8.495413E-4,-1.3792817E-4,-0.25,-0.97,0.1,13538,10137.20,0,0,165,0.35,-3.15,0.14,-0.25,-0.97,0.10
-0.15722656,0.0016175578,-8.495413E-4,8.620715E-4,-0.25,-0.97,0.1,13545,10137.20,0,0,0,0.42,-3.15,0.21,-0.25,-0.97,0.10
0.84277344,-0.001382442,0.002150461,-0.0011379282,-0.25,-0.97,0.1,13561,10138.20,0,0,165,0.21,-2.94,0.07,-0.25,-0.97,0.10
-0.15722656,6.1755814E-4,1.5046075E-4,8.620715E-4,-0.25,-0.97,0.1,13575,10137.20,0,0,0,0.35,-3.08,0.21,-0.25,-0.97,0.10
0.2421875,6.1755814E-4,-8.495413E-4,-1.3792817E-4,-0.25,-0.98,0.1,13583,10137.60,0,0,165,0.35,-3.15,0.14,-0.25,-0.98,0.10
0.84277344,-0.001382442,1.5046075E-4,-0.0031379284,-0.25,-0.97,0.1,13599,10138.20,0,0,0,0.21,-3.08,-0.07,-0.25,-0.97,0.10
-0.15722656,6.1755814E-4,1.5046075E-4,8.620715E-4,-0.25,-0.97,0.1,13616,10137.20,0,0,165,0.35,-3.08,0.21,-0.25,-0.97,0.10
-0.15722656,0.0016175578,-8.495413E-4,-1.3792817E-4,-0.25,-0.97,0.1,13621,10137.20,0,0,0,0.42,-3.15,0.14,-0.25,-0.97,0.10
-0.15722656,6.1755814E-4,0.001150459,8.620715E-4,-0.25,-0.97,0.1,13636,10137.20,0,0,165,0.35,-3.01,0.21,-0.25,-0.97,0.10
-0.15722656,0.0026175585,1.5046075E-4,8.620715E-4,-0.25,-0.97,0.1,13651,10137.20,0,0,0,0.49,-3.08,0.21,-0.25,-0.97,0.10
0.84277344,6.1755814E-4,1.5046075E-4,-0.0021379283,-0.25,-0.97,0.1,13658,10138.20,0,0,165,0.35,-3.08,0.00,-0.25,-0.97,0.10
-0.15722656,6.1755814E-4,0.001150459,-1.3792817E-4,-0.25,-0.97,0.1,13674,10137.20,0,0,0,0.35,-3.01,0.14,-0.25,-0.97,0.10
0.2421875,6.1755814E-4,1.5046075E-4,-0.0011379282,-0.25,-0.97,0.1,13688,10137.60,0,0,165,0.35,-3.08,0.07,-0.25,-0.97,0.10
-0.15722656,-3.8244156E-4,-8.495413E-4,-0.0011379282,-0.25,-0.97,0.1,13703,10137.20,0,0,0,0.28,-3.15,0.07,-0.25,-0.97,0.10
0.2421875,6.1755814E-4,1.5046075E-4,-1.3792817E-4,-0.25,-0.97,0.1,13711,10137.60,0,0,165,0.35,-3.08,0.14,-0.25,-0.97,0.10
-0.15722656,-3.8244156E-4,1.5046075E-4,8.620715E-4,-0.25,-0.97,0.1,13726,10137.20,0,0,0,0.28,-3.08,0.21,-0.25,-0.97,0.10
-0.15722656,-0.001382442,0.001150459,8.620715E-4,-0.25,-0.97,0.1,13733,10137.20,0,0,165,0.21,-3.01,0.21,-0.25,-0.97,0.10
0.2421875,6.1755814E-4,0.001150459,8.620715E-4,-0.25,-0.97,0.1,13748,10137.60,0,0,0,0.35,-3.01,0.21,-0.25,-0.97,0.10
0.2421875,-3.8244156E-4,0.001150459,-1.3792817E-4,-0.25,-0.97,0.1,13763,10137.60,0,0,165,0.28,-3.01,0.14,-0.25,-0.97,0.10
-0.15722656,6.1755814E-4,-8.495413E-4,-1.3792817E-4,-0.25,-0.97,0.1,13771,10137.20,0,0,0,0.35,-3.15,0.14,-0.25,-0.97,0.10
-0.15722656,0.0016175578,0.001150459,-0.0011379282,-0.25,-0.97,0.1,13786,10137.20,0,0,165,0.42,-3.01,0.07,-0.25,-0.97,0.10
-0.15722656,-3.8244156E-4,1.5046075E-4,-1.3792817E-4,-0.25,-0.97,0.1,13801,10137.20,0,0,0,0.28,-3.08,0.14,-0.25,-0.97,0.10
-0.15722656,6.1755814E-4,1.5046075E-4,8.620715E-4,-0.25,-0.97,0.1,13808,10137.20,0,0,165,0.35,-3.08,0.21,-0.25,-0.97,0.10
0.84277344,6.1755814E-4,1.5046075E-4,-1.3792817E-4,-0.25,-0.97,0.1,13823,10138.20,0,0,0,0.35,-3.08,0.14,-0.25,-0.97,0.10
0.84277344,-3.8244156E-4,1.5046075E-4,-1.3792817E-4,-0.25,-0.97,0.1,13838,10138.20,0,0,165,0.28,-3.08,0.14,-0.25,-0.97,0.10
-0.15722656,-3.8244156E-4,-0.0018495396,8.620715E-4,-0.25,-0.97,0.1,13845,10137.20,0,0,0,0.28,-3.22,0.21,-0.25,-0.97,0.10
-0.7578125,6.1755814E-4,1.5046075E-4,-0.0011379282,-0.25,-0.97,0.1,13860,10136.60,0,0,165,0.35,-3.08,0.07,-0.25,-0.97,0.10
0.84277344,-3.8244156E-4,-8.495413E-4,-0.0011379282,-0.25,-0.97,0.1,13875,10138.20,0,0,0,0.28,-3.15,0.07,-0.25,-0.97,0.10
-0.15722656,-3.8244156E-4,0.001150459,-1.3792817E-4,-0.25,-0.97,0.1,13883,10137.20,0,0,165,0.28,-3.01,0.14,-0.25,-0.97,0.10
-0.15722656,-3.8244156E-4,1.5046075E-4,-1.3792817E-4,-0.25,-0.97,0.1,13898,10137.20,0,0,0,0.28,-3.08,0.14,-0.25,-0.97,0.10
-0.15722656,-3.8244156E-4,-8.495413E-4,-1.3792817E-4,-0.25,-0.97,0.1,13913,10137.20,0,0,165,0.28,-3.15,0.14,-0.25,-0.97,0.10
-0.15722656,0.0016175578,1.5046075E-4,8.620715E-4,-0.25,-0.97,0.1,13921,10137.20,0,0,0,0.42,-3.08,0.21,-0.25,-0.97,0.10
-0.15722656,6.1755814E-4,1.5046075E-4,8.620715E-4,-0.25,-0.97,0.1,13935,10137.20,0,0,165,0.35,-3.08,0.21,-0.25,-0.97,0.10
-0.15722656,6.1755814E-4,-8.495413E-4,-1.3792817E-4,-0.25,-0.97,0.1,13951,10137.20,0,0,0,0.35,-3.15,0.14,-0.25,-0.97,0.10
-0.15722656,-3.8244156E-4,-8.495413E-4,-1.3792817E-4,-0.25,-0.97,0.1,13958,10137.20,0,0,165,0.28,-3.15,0.14,-0.25,-0.97,0.10
-0.15722656,0.0016175578,1.5046075E-4,-0.0011379282,-0.25,-0.97,0.1,13973,10137.20,0,0,0,0.42,-3.08,0.07,-0.25,-0.97,0.10
0.84277344,-0.001382442,-8.495413E-4,-1.3792817E-4,-0.25,-0.97,0.1,13988,10138.20,0,0,165,0.21,-3.15,0.14,-0.25,-0.97,0.10
-0.15722656,-3.8244156E-4,0.001150459,-1.3792817E-4,-0.25,-0.97,0.1,13996,10137.20,0,0,0,0.28,-3.01,0.14,-0.25,-0.97,0.10
0.84277344,-3.8244156E-4,1.5046075E-4,8.620715E-4,-0.25,-0.97,0.1,14011,10138.20,0,0,165,0.28,-3.08,0.21,-0.25,-0.97,0.10
0.84277344,0.0016175578,1.5046075E-4,0.0018620719,-0.25,-0.97,0.1,14031,10138.20,0,0,0,0.42,-3.08,0.28,-0.25,-0.97,0.10
-0.15722656,-3.8244156E-4,-8.495413E-4,-0.0011379282,-0.25,-0.97,0.1,14036,10137.20,0,0,165,0.28,-3.15,0.07,-0.25,-0.97,0.10
-0.15722656,-0.001382442,1.5046075E-4,-0.0011379282,-0.13,-0.97,0.1,14056,10137.20,0,0,0,0.21,-3.08,0.07,-0.13,-0.97,0.10
-0.15722656,-3.8244156E-4,-8.495413E-4,0.0018620719,-0.25,-0.97,0.1,14067,10137.20,0,0,165,0.28,-3.15,0.28,-0.25,-0.97,0.10
-0.15722656,6.1755814E-4,0.001150459,8.620715E-4,-0.25,-0.97,0.1,14071,10137.20,0,0,0,0.35,-3.01,0.21,-0.25,-0.97,0.10
-1.0576172,-3.8244156E-4,0.001150459,-0.0011379282,-0.25,-0.97,0.1,14085,10136.30,0,0,165,0.28,-3.01,0.07,-0.25,-0.97,0.10
-0.15722656,6.1755814E-4,1.5046075E-4,-0.0011379282,-0.25,-0.97,0.1,14101,10137.20,0,0,0,0.35,-3.08,0.07,-0.25,-0.97,0.10
-0.15722656,6.1755814E-4,1.5046075E-4,-1.3792817E-4,-0.25,-0.97,0.1,14108,10137.20,0,0,165,0.35,-3.08,0.14,-0.25,-0.97,0.10
-1.0576172,-3.8244156E-4,-8.495413E-4,0.0018620719,-0.25,-0.97,0.1,14124,10136.30,0,0,0,0.28,-3.15,0.28,-0.25,-0.97,0.10
0.2421875,6.1755814E-4,-8.495413E-4,-1.3792817E-4,-0.25,-0.97,0.1,14139,10137.60,0,0,165,0.35,-3.15,0.14,-0.25,-0.97,0.10
1.1425781,-3.8244156E-4,0.001150459,-0.0011379282,-0.25,-0.97,0.1,14146,10138.50,0,0,0,0.28,-3.01,0.07,-0.25,-0.97,0.10
0.84277344,-3.8244156E-4,-8.495413E-4,-0.0011379282,-0.25,-0.97,0.1,14161,10138.20,0,0,165,0.28,-3.15,0.07,-0.25,-0.97,0.10
1.1425781,-3.8244156E-4,-8.495413E-4,-1.3792817E-4,-0.25,-0.97,0.1,14176,10138.50,0,0,0,0.28,-3.15,0.14,-0.25,-0.97,0.10
-0.15722656,6.1755814E-4,-0.0018495396,8.620715E-4,-0.25,-0.97,0.1,14183,10137.20,0,0,165,0.35,-3.22,0.21,-0.25,-0.97,0.10
0.84277344,-3.8244156E-4,1.5046075E-4,8.620715E-4,-0.25,-0.97,0.1,14198,10138.20,0,0,0,0.28,-3.08,0.21,-0.25,-0.97,0.10
0.84277344,6.1755814E-4,1.5046075E-4,-0.0021379283,-0.25,-0.97,0.1,14213,10138.20,0,0,165,0.35,-3.08,0.00,-0.25,-0.97,0.10
-0.15722656,6.1755814E-4,1.5046075E-4,8.620715E-4,-0.25,-0.97,0.1,14221,10137.20,0,0,0,0.35,-3.08,0.21,-0.25,-0.97,0.10
-1.0576172,0.0016175578,1.5046075E-4,0.0028620716,-0.25,-0.97,0.1,14236,10136.30,0,0,165,0.42,-3.08,0.35,-0.25,-0.97,0.10
1.1425781,0.0016175578,1.5046075E-4,-1.3792817E-4,-0.25,-0.97,0.1,14250,10138.50,0,0,0,0.42,-3.08,0.14,-0.25,-0.97,0.10
0.84277344,-3.8244156E-4,0.001150459,-0.0021379283,-0.25,-0.97,0.1,14258,10138.20,0,0,165,0.28,-3.01,0.00,-0.25,-0.97,0.10
0.84277344,6.1755814E-4,1.5046075E-4,-1.3792817E-4,-0.25,-0.97,0.1,14273,10138.20,0,0,0,0.35,-3.08,0.14,-0.25,-0.97,0.10
-0.15722656,6.1755814E-4,1.5046075E-4,0.0018620719,-0.25,-0.97,0.1,14288,10137.20,0,0,165,0.35,-3.08,0.28,-0.25,-0.97,0.10
-0.15722656,6.1755814E-4,-8.495413E-4,-1.3792817E-4,-0.25,-0.97,0.1,14295,10137.20,0,0,0,0.35,-3.15,0.14,-0.25,-0.97,0.10
-0.15722656,-0.001382442,0.001150459,-1.3792817E-4,-0.25,-0.97,0.1,14311,10137.20,0,0,165,0.21,-3.01,0.14,-0.25,-0.97,0.10
0.84277344,-3.8244156E-4,1.5046075E-4,8.620715E-4,-0.25,-0.97,0.1,14326,10138.20,0,0,0,0.28,-3.08,0.21,-0.25,-0.97,0.10
-0.15722656,-3.8244156E-4,0.001150459,8.620715E-4,-0.25,-0.97,0.1,14333,10137.20,0,0,165,0.28,-3.01,0.21,-0.25,-0.97,0.10
-0.15722656,6.1755814E-4,-8.495413E-4,-0.0021379283,-0.25,-0.97,0.1,14348,10137.20,0,0,0,0.35,-3.15,0.00,-0.25,-0.97,0.10
-0.15722656,-0.001382442,1.5046075E-4,-0.0011379282,-0.25,-0.97,0.1,14364,10137.20,0,0,165,0.21,-3.08,0.07,-0.25,-0.97,0.10
0.2421875,-0.0023824417,0.001150459,-0.0011379282,-0.25,-0.97,0.1,14372,10137.60,0,0,0,0.14,-3.01,0.07,-0.25,-0.97,0.10
-0.15722656,6.1755814E-4,-8.495413E-4,-1.3792817E-4,-0.25,-0.97,0.1,14386,10137.20,0,0,165,0.35,-3.15,0.14,-0.25,-0.97,0.10
0.84277344,0.0016175578,0.001150459,0.0018620719,-0.25,-0.97,0.1,14401,10138.20,0,0,0,0.42,-3.01,0.28,-0.25,-0.97,0.10
-0.15722656,6.1755814E-4,0.001150459,-1.3792817E-4,-0.25,-0.97,0.1,14408,10137.20,0,0,165,0.35,-3.01,0.14,-0.25,-0.97,0.10
-0.15722656,-3.8244156E-4,1.5046075E-4,-0.0011379282,-0.25,-0.97,0.1,14423,10137.20,0,0,0,0.28,-3.08,0.07,-0.25,-0.97,0.10
1.1425781,-3.8244156E-4,0.001150459,-0.0011379282,-0.25,-0.97,0.1,14438,10138.50,0,0,165,0.28,-3.01,0.07,-0.25,-0.97,0.10
0.84277344,6.1755814E-4,1.5046075E-4,-1.3792817E-4,-0.25,-0.97,0.1,14446,10138.20,0,0,0,0.35,-3.08,0.14,-0.25,-0.97,0.10
0.84277344,6.1755814E-4,1.5046075E-4,0.0018620719,-0.25,-0.97,0.1,14461,10138.20,0,0,165,0.35,-3.08,0.28,-0.25,-0.97,0.10
-0.15722656,-3.8244156E-4,-8.495413E-4,-1.3792817E-4,-0.25,-0.97,0.1,14476,10137.20,0,0,0,0.28,-3.15,0.14,-0.25,-0.97,0.10
0.84277344,6.1755814E-4,1.5046075E-4,-0.0011379282,-0.25,-0.97,0.1,14483,10138.20,0,0,165,0.35,-3.08,0.07,-0.25,-0.97,0.10
-0.15722656,-3.8244156E-4,1.5046075E-4,8.620715E-4,-0.25,-0.97,0.1,14498,10137.20,0,0,0,0.28,-3.08,0.21,-0.25,-0.97,0.10
-0.15722656,6.1755814E-4,1.5046075E-4,8.620715E-4,-0.25,-0.97,0.1,14514,10137.20,0,0,165,0.35,-3.08,0.21,-0.25,-0.97,0.10
-0.15722656,-3.8244156E-4,1.5046075E-4,-0.0021379283,-0.25,-0.97,0.1,14521,10137.20,0,0,0,0.28,-3.08,0.00,-0.25,-0.97,0.10
-0.15722656,-3.8244156E-4,-8.495413E-4,-0.0021379283,-0.25,-0.97,0.1,14536,10137.20,0,0,165,0.28,-3.15,0.00,-0.25,-0.97,0.10
0.84277344,-0.001382442,1.5046075E-4,8.620715E-4,-0.25,-0.97,0.1,14551,10138.20,0,0,0,0.21,-3.08,0.21,-0.25,-0.97,0.10
-0.15722656,-3.8244156E-4,1.5046075E-4,-1.3792817E-4,-0.25,-0.97,0.1,14558,10137.20,0,0,165,0.28,-3.08,0.14,-0.25,-0.97,0.10
-0.15722656,0.0016175578,1.5046075E-4,-0.0011379282,-0.25,-0.97,0.1,14573,10137.20,0,0,0,0.42,-3.08,0.07,-0.25,-0.97,0.10
0.84277344,-3.8244156E-4,0.001150459,-1.3792817E-4,-0.25,-0.97,0.1,14588,10138.20,0,0,165,0.28,-3.01,0.14,-0.25,-0.97,0.10
0.84277344,6.1755814E-4,1.5046075E-4,-1.3792817E-4,-0.25,-0.97,0.1,14596,10138.20,0,0,0,0.35,-3.08,0.14,-0.25,-0.97,0.10
0.2421875,-3.8244156E-4,1.5046075E-4,-0.0011379282,-0.25,-0.97,0.1,14610,10137.60,0,0,165,0.28,-3.08,0.07,-0.25,-0.97,0.10
1.8427734,-0.001382442,1.5046075E-4,-0.0011379282,-0.25,-0.97,0.1,14625,10139.20,0,0,0,0.21,-3.08,0.07,-0.25,-0.97,0.10
-0.15722656,-3.8244156E-4,1.5046075E-4,-0.0011379282,-0.25,-0.97,0.1,14633,10137.20,0,0,165,0.28,-3.08,0.07,-0.25,-0.97,0.10
1.1425781,0.0016175578,1.5046075E-4,-1.3792817E-4,-0.25,-0.97,0.1,14648,10138.50,0,0,0,0.42,-3.08,0.14,-0.25,-0.97,0.10
-0.15722656,6.1755814E-4,-8.495413E-4,-0.0011379282,-0.25,-0.97,0.1,14663,10137.20,0,0,165,0.35,-3.15,0.07,-0.25,-0.97,0.10
-0.15722656,-3.8244156E-4,-8.495413E-4,0.0018620719,-0.25,-0.97,0.1,14670,10137.20,0,0,0,0.28,-3.15,0.28,-0.25,-0.97,0.10
-0.15722656,0.0016175578,-8.495413E-4,8.620715E-4,-0.25,-0.97,0.1,14685,10137.20,0,0,165,0.42,-3.15,0.21,-0.25,-0.97,0.10
-0.15722656,6.1755814E-4,-8.495413E-4,-0.0021379283,-0.25,-0.97,0.1,14700,10137.20,0,0,0,0.35,-3.15,0.00,-0.25,-0.97,0.10
0.84277344,6.1755814E-4,1.5046075E-4,-1.3792817E-4,-0.25,-0.97,0.1,14708,10138.20,0,0,165,0.35,-3.08,0.14,-0.25,-0.97,0.10
0.2421875,0.0016175578,1.5046075E-4,8.620715E-4,-0.25,-0.97,0.1,14723,10137.60,0,0,0,0.42,-3.08,0.21,-0.25,-0.97,0.10
0.84277344,6.1755814E-4,-8.495413E-4,8.620715E-4,-0.25,-0.97,0.1,14731,10138.20,0,0,165,0.35,-3.15,0.21,-0.25,-0.97,0.10
-0.15722656,-0.001382442,1.5046075E-4,8.620715E-4,-0.25,-0.97,0.1,14746,10137.20,0,0,0,0.21,-3.08,0.21,-0.25,-0.97,0.10
0.2421875,-0.001382442,1.5046075E-4,8.620715E-4,-0.25,-0.97,0.1,14761,10137.60,0,0,165,0.21,-3.08,0.21,-0.25,-0.97,0.10
-0.15722656,-3.8244156E-4,1.5046075E-4,-0.0011379282,-0.25,-0.97,0.1,14768,10137.20,0,0,0,0.28,-3.08,0.07,-0.25,-0.97,0.10
-0.15722656,0.0016175578,1.5046075E-4,8.620715E-4,-0.25,-0.97,0.1,14783,10137.20,0,0,165,0.42,-3.08,0.21,-0.25,-0.97,0.10
0.2421875,-3.8244156E-4,1.5046075E-4,8.620715E-4,-0.25,-0.97,0.1,14798,10137.60,0,0,0,0.28,-3.08,0.21,-0.25,-0.97,0.10
-0.15722656,-3.8244156E-4,1.5046075E-4,8.620715E-4,-0.25,-0.97,0.1,14805,10137.20,0,0,165,0.28,-3.08,0.21,-0.25,-0.97,0.10
-0.15722656,0.0016175578,-8.495413E-4,-1.3792817E-4,-0.25,-0.97,0.1,14820,10137.20,0,0,0,0.42,-3.15,0.14,-0.25,-0.97,0.10
0.84277344,6.1755814E-4,1.5046075E-4,-1.3792817E-4,-0.25,-0.97,0.1,14835,10138.20,0,0,165,0.35,-3.08,0.14,-0.25,-0.97,0.10
0.2421875,-3.8244156E-4,0.001150459,-1.3792817E-4,-0.25,-0.97,0.1,14843,10137.60,0,0,0,0.28,-3.01,0.14,-0.25,-0.97,0.10
-0.15722656,-3.8244156E-4,-8.495413E-4,-0.0011379282,-0.25,-0.97,0.1,14858,10137.20,0,0,165,0.28,-3.15,0.07,-0.25,-0.97,0.10
0.2421875,0.0016175578,1.5046075E-4,-1.3792817E-4,-0.25,-0.98,0.1,14873,10137.60,0,0,0,0.42,-3.08,0.14,-0.25,-0.98,0.10
-0.15722656,6.1755814E-4,-8.495413E-4,-1.3792817E-4,-0.25,-0.97,0.1,14881,10137.20,0,0,165,0.35,-3.15,0.14,-0.25,-0.97,0.10
-0.15722656,-0.0023824417,1.5046075E-4,-0.0011379282,-0.25,-0.98,0.1,14896,10137.20,0,0,0,0.14,-3.08,0.07,-0.25,-0.98,0.10
-0.15722656,-0.0023824417,0.001150459,-0.0061379285,-0.25,-0.97,0.1,14910,10137.20,0,0,165,0.14,-3.01,-0.28,-0.25,-0.97,0.10
-0.15722656,0.005617558,-8.495413E-4,0.0068620713,-0.25,-0.97,0.1,14918,10137.20,0,0,0,0.70,-3.15,0.63,-0.25,-0.97,0.10
-0.15722656,-3.8244156E-4,1.5046075E-4,-0.0011379282,-0.25,-0.97,0.1,14933,10137.20,0,0,165,0.28,-3.08,0.07,-0.25,-0.97,0.10
0.2421875,-0.001382442,0.002150461,-0.0021379283,-0.25,-0.96,0.1,14948,10137.60,0,0,0,0.21,-2.94,0.00,-0.25,-0.96,0.10
-0.15722656,0.0016175578,-8.495413E-4,0.0028620716,-0.25,-0.97,0.1,14955,10137.20,0,0,165,0.42,-3.15,0.35,-0.25,-0.97,0.10
-0.15722656,-0.001382442,1.5046075E-4,-0.0031379284,-0.25,-0.97,0.1,14970,10137.20,0,0,0,0.21,-3.08,-0.07,-0.25,-0.97,0.10
-0.15722656,-0.001382442,1.5046075E-4,8.620715E-4,-0.25,-0.97,0.1,14985,10137.20,0,0,165,0.21,-3.08,0.21,-0.25,-0.97,0.10
-0.15722656,0.0036175586,-8.495413E-4,0.005862072,-0.25,-0.97,0.1,14992,10137.20,0,0,0,0.56,-3.15,0.56,-0.25,-0.97,0.10
-0.15722656,-0.0023824417,1.5046075E-4,-0.0031379284,-0.25,-0.97,0.1,15008,10137.20,0,0,165,0.14,-3.08,-0.07,-0.25,-0.97,0.10
-0.15722656,-3.8244156E-4,-8.495413E-4,-0.0021379283,-0.25,-0.97,0.1,15023,10137.20,0,0,0,0.28,-3.15,0.00,-0.25,-0.97,0.10
-0.15722656,6.1755814E-4,-8.495413E-4,8.620715E-4,-0.26,-0.98,0.1,15031,10137.20,0,0,165,0.35,-3.15,0.21,-0.26,-0.98,0.10
-0.15722656,6.1755814E-4,1.5046075E-4,-0.0011379282,-0.25,-0.97,0.1,15046,10137.20,0,0,0,0.35,-3.08,0.07,-0.25,-0.97,0.10
-0.15722656,0.0026175585,1.5046075E-4,8.620715E-4,-0.25,-0.97,0.1,15061,10137.20,0,0,165,0.49,-3.08,0.21,-0.25,-0.97,0.10
0.84277344,-3.8244156E-4,1.5046075E-4,-0.0021379283,-0.25,-0.97,0.1,15068,10138.20,0,0,0,0.28,-3.08,0.00,-0.25,-0.97,0.10
0.84277344,-0.001382442,-8.495413E-4,8.620715E-4,-0.25,-0.97,0.1,15083,10138.20,0,0,165,0.21,-3.15,0.21,-0.25,-0.97,0.10
0.2421875,-3.8244156E-4,-8.495413E-4,8.620715E-4,-0.25,-0.97,0.1,15098,10137.60,0,0,0,0.28,-3.15,0.21,-0.25,-0.97,0.10
0.2421875,6.1755814E-4,0.001150459,-0.0021379283,-0.25,-0.97,0.1,15105,10137.60,0,0,165,0.35,-3.01,0.00,-0.25,-0.97,0.10
0.84277344,6.1755814E-4,1.5046075E-4,0.0028620716,-0.25,-0.98,0.1,15121,10138.20,0,0,0,0.35,-3.08,0.35,-0.25,-0.98,0.10
-0.15722656,6.1755814E-4,1.5046075E-4,-0.0011379282,-0.25,-0.97,0.1,15135,10137.20,0,0,165,0.35,-3.08,0.07,-0.25,-0.97,0.10
-0.15722656,-0.001382442,1.5046075E-4,-1.3792817E-4,-0.25,-0.97,0.1,15144,10137.20,0,0,0,0.21,-3.08,0.14,-0.25,-0.97,0.10
0.84277344,-3.8244156E-4,0.001150459,-0.0011379282,-0.25,-0.97,0.1,15158,10138.20,0,0,165,0.28,-3.01,0.07,-0.25,-0.97,0.10
-0.15722656,-3.8244156E-4,1.5046075E-4,8.620715E-4,-0.25,-0.97,0.1,15173,10137.20,0,0,0,0.28,-3.08,0.21,-0.25,-0.97,0.10
-0.15722656,0.0026175585,0.001150459,0.0028620716,-0.25,-0.97,0.1,15181,10137.20,0,0,165,0.49,-3.01,0.35,-0.25,-0.97,0.10
-0.15722656,6.1755814E-4,1.5046075E-4,-1.3792817E-4,-0.25,-0.97,0.1,15196,10137.20,0,0,0,0.35,-3.08,0.14,-0.25,-0.97,0.10
-0.15722656,-3.8244156E-4,-8.495413E-4,-0.0021379283,-0.25,-0.97,0.1,15210,10137.20,0,0,165,0.28,-3.15,0.00,-0.25,-0.97,0.10
-0.15722656,-3.8244156E-4,-8.495413E-4,-0.0021379283,-0.25,-0.97,0.1,15217,10137.20,0,0,0,0.28,-3.15,0.00,-0.25,-0.97,0.10
0.84277344,0.0016175578,-8.495413E-4,0.0018620719,-0.25,-0.97,0.1,15233,10138.20,0,0,165,0.42,-3.15,0.28,-0.25,-0.97,0.10
-0.15722656,6.1755814E-4,1.5046075E-4,-0.0021379283,-0.25,-0.97,0.1,15248,10137.20,0,0,0,0.35,-3.08,0.00,-0.25,-0.97,0.10
0.2421875,-3.8244156E-4,1.5046075E-4,-1.3792817E-4,-0.25,-0.97,0.1,15255,10137.60,0,0,165,0.28,-3.08,0.14,-0.25,-0.97,0.10
0.84277344,0.0016175578,-8.495413E-4,0.0028620716,-0.25,-0.98,0.1,15270,10138.20,0,0,0,0.42,-3.15,0.35,-0.25,-0.98,0.10
0.2421875,-3.8244156E-4,1.5046075E-4,-0.0011379282,-0.25,-0.97,0.1,15285,10137.60,0,0,165,0.28,-3.08,0.07,-0.25,-0.97,0.10
1.1425781,-3.8244156E-4,-8.495413E-4,-0.0021379283,-0.25,-0.97,0.1,15293,10138.50,0,0,0,0.28,-3.15,0.00,-0.25,-0.97,0.10
-0.15722656,0.0016175578,-8.495413E-4,-1.3792817E-4,-0.25,-0.97,0.1,15308,10137.20,0,0,165,0.42,-3.15,0.14,-0.25,-0.97,0.10
0.2421875,6.1755814E-4,0.001150459,-0.0011379282,-0.25,-0.97,0.1,15323,10137.60,0,0,0,0.35,-3.01,0.07,-0.25,-0.97,0.10
1.1425781,0.0016175578,1.5046075E-4,8.620715E-4,-0.25,-0.97,0.1,15338,10138.50,0,0,165,0.42,-3.08,0.21,-0.25,-0.97,0.10
-0.15722656,-3.8244156E-4,1.5046075E-4,0.0018620719,-0.25,-0.97,0.1,15345,10137.20,0,0,0,0.28,-3.08,0.28,-0.25,-0.97,0.10
1.1425781,6.1755814E-4,1.5046075E-4,8.620715E-4,-0.25,-0.97,0.1,15360,10138.50,0,0,165,0.35,-3.08,0.21,-0.25,-0.97,0.10
-0.15722656,-0.001382442,-8.495413E-4,-0.0011379282,-0.25,-0.97,0.1,15368,10137.20,0,0,0,0.21,-3.15,0.07,-0.25,-0.97,0.10
0.2421875,6.1755814E-4,1.5046075E-4,-1.3792817E-4,-0.25,-0.97,0.1,15383,10137.60,0,0,165,0.35,-3.08,0.14,-0.25,-0.97,0.10
0.84277344,6.1755814E-4,-8.495413E-4,0.0018620719,-0.25,-0.97,0.1,15398,10138.20,0,0,0,0.35,-3.15,0.28,-0.25,-0.97,0.10
-0.15722656,6.1755814E-4,1.5046075E-4,-1.3792817E-4,-0.25,-0.97,0.1,15405,10137.20,0,0,165,0.35,-3.08,0.14,-0.25,-0.97,0.10
-0.15722656,-3.8244156E-4,1.5046075E-4,-0.0011379282,-0.25,-0.97,0.1,15421,10137.20,0,0,0,0.28,-3.08,0.07,-0.25,-0.97,0.10
0.2421875,0.0016175578,-8.495413E-4,8.620715E-4,-0.25,-0.97,0.1,15436,10137.60,0,0,165,0.42,-3.15,0.21,-0.25,-0.97,0.10
1.1425781,6.1755814E-4,1.5046075E-4,0.0018620719,-0.25,-0.97,0.1,15443,10138.50,0,0,0,0.35,-3.08,0.28,-0.25,-0.97,0.10
0.2421875,6.1755814E-4,1.5046075E-4,-1.3792817E-4,-0.25,-0.97,0.1,15459,10137.60,0,0,165,0.35,-3.08,0.14,-0.25,-0.97,0.10
1.1425781,6.1755814E-4,-8.495413E-4,-0.0011379282,-0.25,-0.97,0.1,15474,10138.50,0,0,0,0.35,-3.15,0.07,-0.25,-0.97,0.10
-0.15722656,-0.001382442,-8.495413E-4,-1.3792817E-4,-0.25,-0.97,0.1,15481,10137.20,0,0,165,0.21,-3.15,0.14,-0.25,-0.97,0.10
0.84277344,6.1755814E-4,-8.495413E-4,-1.3792817E-4,-0.25,-0.97,0.1,15496,10138.20,0,0,0,0.35,-3.15,0.14,-0.25,-0.97,0.10
0.2421875,-3.8244156E-4,-8.495413E-4,-0.0011379282,-0.25,-0.97,0.1,15511,10137.60,0,0,165,0.28,-3.15,0.07,-0.25,-0.97,0.10
0.2421875,-3.8244156E-4,1.5046075E-4,8.620715E-4,-0.25,-0.97,0.1,15518,10137.60,0,0,0,0.28,-3.08,0.21,-0.25,-0.97,0.10
0.84277344,-0.001382442,1.5046075E-4,0.0018620719,-0.25,-0.97,0.1,15533,10138.20,0,0,165,0.21,-3.08,0.28,-0.25,-0.97,0.10
1.1425781,6.1755814E-4,1.5046075E-4,8.620715E-4,-0.25,-0.97,0.1,15548,10138.50,0,0,0,0.35,-3.08,0.21,-0.25,-0.97,0.10
0.2421875,-0.0033824416,1.5046075E-4,8.620715E-4,-0.25,-0.97,0.1,15556,10137.60,0,0,165,0.07,-3.08,0.21,-0.25,-0.97,0.10
-0.15722656,0.0016175578,-0.0018495396,8.620715E-4,-0.25,-0.97,0.1,15570,10137.20,0,0,0,0.42,-3.22,0.21,-0.25,-0.97,0.10
0.2421875,6.1755814E-4,-8.495413E-4,8.620715E-4,-0.25,-0.97,0.1,15586,10137.60,0,0,165,0.35,-3.15,0.21,-0.25,-0.97,0.10
-0.15722656,6.1755814E-4,1.5046075E-4,-0.0011379282,-0.25,-0.97,0.1,15595,10137.20,0,0,0,0.35,-3.08,0.07,-0.25,-0.97,0.10
0.2421875,6.1755814E-4,-8.495413E-4,8.620715E-4,-0.25,-0.97,0.1,15608,10137.60,0,0,165,0.35,-3.15,0.21,-0.25,-0.97,0.10
-0.15722656,-3.8244156E-4,1.5046075E-4,-1.3792817E-4,-0.25,-0.97,0.1,15623,10137.20,0,0,0,0.28,-3.08,0.14,-0.25,-0.97,0.10
-0.15722656,0.0016175578,0.001150459,8.620715E-4,-0.25,-0.97,0.1,15630,10137.20,0,0,165,0.42,-3.01,0.21,-0.25,-0.97,0.10
-0.15722656,6.1755814E-4,0.002150461,8.620715E-4,-0.25,-0.97,0.1,15646,10137.20,0,0,0,0.35,-2.94,0.21,-0.25,-0.97,0.10
-0.15722656,6.1755814E-4,1.5046075E-4,8.620715E-4,-0.25,-0.97,0.1,15661,10137.20,0,0,165,0.35,-3.08,0.21,-0.25,-0.97,0.10
-0.7578125,-3.8244156E-4,1.5046075E-4,-1.3792817E-4,-0.25,-0.97,0.1,15668,10136.60,0,0,0,0.28,-3.08,0.14,-0.25,-0.97,0.10
-0.15722656,6.1755814E-4,-0.0018495396,-0.0031379284,-0.25,-0.97,0.1,15683,10137.20,0,0,165,0.35,-3.22,-0.07,-0.25,-0.97,0.10
0.2421875,6.1755814E-4,-8.495413E-4,-0.0011379282,-0.25,-0.97,0.1,15698,10137.60,0,0,0,0.35,-3.15,0.07,-0.25,-0.97,0.10
0.2421875,-0.001382442,0.001150459,0.0018620719,-0.25,-0.97,0.1,15706,10137.60,0,0,165,0.21,-3.01,0.28,-0.25,-0.97,0.10
0.84277344,0.0016175578,0.001150459,-1.3792817E-4,-0.25,-0.97,0.1,15720,10138.20,0,0,0,0.42,-3.01,0.14,-0.25,-0.97,0.10
0.2421875,6.1755814E-4,-8.495413E-4,8.620715E-4,-0.25,-0.97,0.1,15736,10137.60,0,0,165,0.35,-3.15,0.21,-0.25,-0.97,0.10
0.2421875,-3.8244156E-4,1.5046075E-4,-0.0011379282,-0.25,-0.97,0.1,15742,10137.60,0,0,0,0.28,-3.08,0.07,-0.25,-0.97,0.10
-0.15722656,6.1755814E-4,1.5046075E-4,-1.3792817E-4,-0.25,-0.97,0.1,15758,10137.20,0,0,165,0.35,-3.08,0.14,-0.25,-0.97,0.10
1.1425781,-3.8244156E-4,0.001150459,-0.0011379282,-0.25,-0.97,0.1,15773,10138.50,0,0,0,0.28,-3.01,0.07,-0.25,-0.97,0.10
0.2421875,0.0016175578,0.001150459,-1.3792817E-4,-0.25,-0.97,0.1,15781,10137.60,0,0,165,0.42,-3.01,0.14,-0.25,-0.97,0.10
1.1425781,-3.8244156E-4,1.5046075E-4,8.620715E-4,-0.25,-0.97,0.1,15795,10138.50,0,0,0,0.28,-3.08,0.21,-0.25,-0.97,0.10
1.1425781,6.1755814E-4,1.5046075E-4,-1.3792817E-4,-0.25,-0.97,0.1,15811,10138.50,0,0,165,0.35,-3.08,0.14,-0.25,-0.97,0.10
1.1425781,0.0016175578,0.002150461,8.620715E-4,-0.25,-0.97,0.1,15818,10138.50,0,0,0,0.42,-2.94,0.21,-0.25,-0.97,0.10
-0.15722656,-3.8244156E-4,1.5046075E-4,-1.3792817E-4,-0.25,-0.97,0.1,15833,10137.20,0,0,165,0.28,-3.08,0.14,-0.25,-0.97,0.10
0.2421875,-3.8244156E-4,-0.0018495396,-0.0011379282,-0.25,-0.97,0.1,15848,10137.60,0,0,0,0.28,-3.22,0.07,-0.25,-0.97,0.10
0.2421875,-3.8244156E-4,-8.495413E-4,-0.0021379283,-0.25,-0.97,0.1,15856,10137.60,0,0,165,0.28,-3.15,0.00,-0.25,-0.97,0.10
1.1425781,6.1755814E-4,-8.495413E-4,-1.3792817E-4,-0.25,-0.97,0.1,15871,10138.50,0,0,0,0.35,-3.15,0.14,-0.25,-0.97,0.10
-0.15722656,-0.001382442,1.5046075E-4,-0.0021379283,-0.25,-0.97,0.1,15886,10137.20,0,0,165,0.21,-3.08,0.00,-0.25,-0.97,0.10
-0.15722656,-3.8244156E-4,1.5046075E-4,8.620715E-4,-0.25,-0.97,0.1,15893,10137.20,0,0,0,0.28,-3.08,0.21,-0.25,-0.97,0.10
-0.15722656,0.0036175586,-8.495413E-4,0.004862072,-0.25,-0.97,0.1,15908,10137.20,0,0,165,0.56,-3.15,0.49,-0.25,-0.97,0.10
0.84277344,6.1755814E-4,0.001150459,-0.0021379283,-0.25,-0.98,0.1,15923,10138.20,0,0,0,0.35,-3.01,0.00,-0.25,-0.98,0.10
-0.15722656,-0.001382442,0.001150459,-0.0021379283,-0.25,-0.97,0.1,15934,10137.20,0,0,165,0.21,-3.01,0.00,-0.25,-0.97,0.10
0.2421875,0.004617558,-8.495413E-4,0.0038620713,-0.25,-0.97,0.1,15945,10137.60,0,0,0,0.63,-3.15,0.42,-0.25,-0.97,0.10
1.1425781,-3.8244156E-4,-8.495413E-4,-0.0031379284,-0.25,-0.97,0.1,15954,10138.50,0,0,165,0.28,-3.15,-0.07,-0.25,-0.97,0.10
-0.15722656,-3.8244156E-4,-8.495413E-4,-0.0021379283,-0.25,-0.97,0.1,15968,10137.20,0,0,0,0.28,-3.15,0.00,-0.25,-0.97,0.10
0.84277344,6.1755814E-4,-8.495413E-4,0.0018620719,-0.25,-0.98,0.1,15990,10138.20,0,0,165,0.35,-3.15,0.28,-0.25,-0.98,0.10
-0.15722656,0.0016175578,1.5046075E-4,-0.0041379286,-0.25,-0.98,0.1,15991,10137.20,0,0,0,0.42,-3.08,-0.14,-0.25,-0.98,0.10
1.1425781,0.0016175578,-0.0028495379,-1.3792817E-4,-0.25,-0.97,0.1,16005,10138.50,0,0,165,0.42,-3.29,0.14,-0.25,-0.97,0.10
-0.15722656,-0.001382442,1.5046075E-4,-1.3792817E-4,-0.25,-0.97,0.1,16021,10137.20,0,0,0,0.21,-3.08,0.14,-0.25,-0.97,0.10
0.84277344,-3.8244156E-4,1.5046075E-4,0.0038620713,-0.25,-0.97,0.1,16028,10138.20,0,0,165,0.28,-3.08,0.42,-0.25,-0.97,0.10
0.2421875,0.0016175578,1.5046075E-4,0.004862072,-0.25,-0.98,0.1,16043,10137.60,0,0,0,0.42,-3.08,0.49,-0.25,-0.98,0.10
-0.15722656,-0.0023824417,1.5046075E-4,-0.0021379283,-0.26,-0.97,0.1,16058,10137.20,0,0,165,0.14,-3.08,0.00,-0.26,-0.97,0.10
0.2421875,-0.001382442,0.001150459,-0.0011379282,-0.25,-0.97,0.1,16066,10137.60,0,0,0,0.21,-3.01,0.07,-0.25,-0.97,0.10
1.1425781,0.0036175586,-8.495413E-4,0.004862072,-0.25,-0.98,0.1,16081,10138.50,0,0,165,0.56,-3.15,0.49,-0.25,-0.98,0.10
0.2421875,-0.001382442,0.001150459,-0.0031379284,-0.25,-0.97,0.1,16096,10137.60,0,0,0,0.21,-3.01,-0.07,-0.25,-0.97,0.10
1.1425781,-0.0023824417,0.002150461,-0.0031379284,-0.25,-0.97,0.1,16103,10138.50,0,0,165,0.14,-2.94,-0.07,-0.25,-0.97,0.10
0.2421875,0.0036175586,1.5046075E-4,0.004862072,-0.25,-0.97,0.1,16118,10137.60,0,0,0,0.56,-3.08,0.49,-0.25,-0.97,0.10
-0.15722656,-3.8244156E-4,0.001150459,-0.0021379283,-0.25,-0.98,0.1,16133,10137.20,0,0,165,0.28,-3.01,0.00,-0.25,-0.98,0.10
-0.15722656,-0.001382442,1.5046075E-4,-0.0041379286,-0.25,-0.97,0.1,16141,10137.20,0,0,0,0.21,-3.08,-0.14,-0.25,-0.97,0.10
1.1425781,0.004617558,-0.0028495379,0.004862072,-0.25,-0.97,0.1,16156,10138.50,0,0,165,0.63,-3.29,0.49,-0.25,-0.97,0.10
-1.0576172,6.1755814E-4,1.5046075E-4,-0.0041379286,-0.25,-0.98,0.1,16171,10136.30,0,0,0,0.35,-3.08,-0.14,-0.25,-0.98,0.10
0.2421875,-0.001382442,-0.0018495396,-0.0011379282,-0.25,-0.97,0.1,16178,10137.60,0,0,165,0.21,-3.22,0.07,-0.25,-0.97,0.10
0.2421875,0.0026175585,-8.495413E-4,0.0038620713,-0.25,-0.98,0.1,16193,10137.60,0,0,0,0.49,-3.15,0.42,-0.25,-0.98,0.10
-0.15722656,-0.001382442,1.5046075E-4,-0.0021379283,-0.25,-0.97,0.09,16208,10137.20,0,0,165,0.21,-3.08,0.00,-0.25,-0.97,0.09
0.84277344,0.0026175585,-0.0018495396,0.004862072,-0.25,-0.97,0.1,16215,10138.20,0,0,0,0.49,-3.22,0.49,-0.25,-0.97,0.10
1.1425781,-0.0023824417,0.002150461,-1.3792817E-4,-0.26,-0.97,0.1,16231,10138.50,0,0,165,0.14,-2.94,0.14,-0.26,-0.97,0.10
-0.7578125,-0.006382442,0.011150461,-0.007137928,-0.25,-0.96,0.1,16246,10136.60,0,0,0,-0.14,-2.31,-0.35,-0.25,-0.96,0.10
0.2421875,0.0016175578,0.02115046,-0.005137928,-0.29,-0.96,0.08,16253,10137.60,0,0,165,0.42,-1.61,-0.21,-0.29,-0.96,0.08
-0.15722656,0.0036175586,0.063150465,0.016862072,-0.26,-0.97,0.08,16268,10137.20,0,0,0,0.56,1.33,1.33,-0.26,-0.97,0.08
1.1425781,0.006617558,0.06615046,-1.3792817E-4,-0.29,-0.97,0.03,16284,10138.50,0,0,165,0.77,1.54,0.14,-0.29,-0.97,0.03
0.2421875,-0.02538244,-0.010849539,-0.074137926,-0.25,-0.98,0.12,16291,10137.60,0,0,0,-1.47,-3.85,-5.04,-0.25,-0.98,0.12
-0.15722656,-0.059382442,0.03615046,-0.03313793,-0.27,-1.0,0.04,16306,10137.20,0,0,165,-3.85,-0.56,-2.17,-0.27,-1.00,0.04
-1.0576172,0.02961756,0.015150461,0.016862072,-0.21,-0.94,0.1,16321,10136.30,0,0,0,2.38,-2.03,1.33,-0.21,-0.94,0.10
0.2421875,0.031617556,-0.02584954,0.03886207,-0.19,-1.0,0.19,16328,10137.60,0,0,165,2.52,-4.90,2.87,-0.19,-1.00,0.19
1.1425781,0.023617558,-0.007849541,0.04886207,-0.26,-0.98,0.13,16343,10138.50,0,0,0,1.96,-3.64,3.57,-0.26,-0.98,0.13
-0.15722656,-0.0143824415,-0.0058495402,-0.010137929,-0.26,-0.96,0.1,16358,10137.20,0,0,165,-0.70,-3.50,-0.56,-0.26,-0.96,0.10
-0.15722656,-0.030382443,0.0051504597,-0.03513793,-0.25,-0.98,0.1,16365,10137.20,0,0,0,-1.82,-2.73,-2.31,-0.25,-0.98,0.10
0.2421875,-0.009382442,0.003150463,-0.0031379284,-0.24,-0.96,0.09,16380,10137.60,0,0,165,-0.35,-2.87,-0.07,-0.24,-0.96,0.09
1.1425781,0.009617559,-0.0058495402,0.022862073,-0.25,-0.97,0.09,16395,10138.50,0,0,0,0.98,-3.50,1.75,-0.25,-0.97,0.09
0.2421875,0.012617559,-0.0038495362,0.01586207,-0.25,-0.98,0.1,16403,10137.60,0,0,165,1.19,-3.36,1.26,-0.25,-0.98,0.10
0.2421875,-0.001382442,0.002150461,-0.0031379284,-0.25,-0.97,0.1,16419,10137.60,0,0,0,0.21,-2.94,-0.07,-0.25,-0.97,0.10
-0.15722656,-0.0033824416,0.001150459,-0.005137928,-0.25,-0.98,0.1,16433,10137.20,0,0,165,0.07,-3.01,-0.21,-0.25,-0.98,0.10
0.2421875,-0.0023824417,1.5046075E-4,-0.0031379284,-0.25,-0.97,0.09,16440,10137.60,0,0,0,0.14,-3.08,-0.07,-0.25,-0.97,0.09
-0.15722656,0.005617558,-8.495413E-4,0.0078620715,-0.25,-0.98,0.1,16456,10137.20,0,0,165,0.70,-3.15,0.70,-0.25,-0.98,0.10
1.1425781,-0.0023824417,-0.0018495396,0.005862072,-0.13,-0.97,0.1,16470,10138.50,0,0,0,0.14,-3.22,0.56,-0.13,-0.97,0.10
0.2421875,-3.8244156E-4,1.5046075E-4,0.005862072,-0.25,-0.97,0.1,16479,10137.60,0,0,165,0.28,-3.08,0.56,-0.25,-0.97,0.10
0.2421875,0.0026175585,0.001150459,0.0038620713,-0.25,-0.98,0.1,16493,10137.60,0,0,0,0.49,-3.01,0.42,-0.25,-0.98,0.10
0.2421875,-0.006382442,1.5046075E-4,0.0038620713,-0.24,-0.96,0.09,16508,10137.60,0,0,165,-0.14,-3.08,0.42,-0.24,-0.96,0.09
1.1425781,6.1755814E-4,-0.0018495396,0.0068620713,-0.25,-0.98,0.1,16515,10138.50,0,0,0,0.35,-3.22,0.63,-0.25,-0.98,0.10
-0.15722656,-0.001382442,-0.0028495379,0.0038620713,-0.25,-0.97,0.09,16531,10137.20,0,0,165,0.21,-3.29,0.42,-0.25,-0.97,0.09
-0.7578125,0.0026175585,-0.0018495396,0.005862072,-0.25,-0.97,0.1,16545,10136.60,0,0,0,0.49,-3.22,0.56,-0.25,-0.97,0.10
0.2421875,0.004617558,-8.495413E-4,0.005862072,-0.25,-0.98,0.1,16553,10137.60,0,0,165,0.63,-3.15,0.56,-0.25,-0.98,0.10
0.2421875,-3.8244156E-4,-8.495413E-4,0.0028620716,-0.26,-0.98,0.1,16568,10137.60,0,0,0,0.28,-3.15,0.35,-0.26,-0.98,0.10
1.1425781,-0.0043824418,1.5046075E-4,-0.0011379282,-0.25,-0.97,0.1,16583,10138.50,0,0,165,0.00,-3.08,0.07,-0.25,-0.97,0.10
0.2421875,0.006617558,-0.0028495379,0.0068620713,-0.26,-0.97,0.1,16590,10137.60,0,0,0,0.77,-3.29,0.63,-0.26,-0.97,0.10
0.2421875,-0.023382444,-0.019849543,-0.038137928,-0.26,-0.95,0.09,16606,10137.60,0,0,165,-1.33,-4.48,-2.52,-0.26,-0.95,0.09
-0.7578125,-0.023382444,0.0051504597,-0.04713793,-0.25,-0.99,0.11,16621,10136.60,0,0,0,-1.33,-2.73,-3.15,-0.25,-0.99,0.11
1.1425781,-0.013382441,0.003150463,-0.0021379283,-0.24,-0.97,0.09,16628,10138.50,0,0,165,-0.63,-2.87,0.00,-0.24,-0.97,0.09
0.84277344,0.0136175575,-0.0128495395,0.035862073,-0.25,-0.97,0.1,16643,10138.20,0,0,0,1.26,-3.99,2.66,-0.25,-0.97,0.10
0.2421875,0.0136175575,-0.008849539,0.021862071,-0.26,-0.96,0.1,16658,10137.60,0,0,165,1.26,-3.71,1.68,-0.26,-0.96,0.10
-0.15722656,-0.009382442,1.5046075E-4,-0.014137927,-0.26,-0.97,0.1,16666,10137.20,0,0,0,-0.35,-3.08,-0.84,-0.26,-0.97,0.10
0.84277344,-0.012382442,0.003150463,-0.017137928,-0.25,-0.98,0.1,16681,10138.20,0,0,165,-0.56,-2.87,-1.05,-0.25,-0.98,0.10
-0.7578125,0.0016175578,1.5046075E-4,0.0028620716,-0.24,-0.98,0.1,16696,10136.60,0,0,0,0.42,-3.08,0.35,-0.24,-0.98,0.10
0.2421875,0.010617558,1.5046075E-4,0.0078620715,-0.25,-0.97,0.1,16703,10137.60,0,0,165,1.05,-3.08,0.70,-0.25,-0.97,0.10
1.1425781,-0.0033824416,1.5046075E-4,-0.0031379284,-0.25,-0.97,0.1,16718,10138.50,0,0,0,0.07,-3.08,-0.07,-0.25,-0.97,0.10
-1.0576172,-0.0073824413,0.002150461,-0.010137929,-0.25,-0.97,0.1,16732,10136.30,0,0,165,-0.21,-2.94,-0.56,-0.25,-0.97,0.10
0.2421875,6.1755814E-4,-0.0018495396,0.0018620719,-0.25,-0.97,0.1,16740,10137.60,0,0,0,0.35,-3.22,0.28,-0.25,-0.97,0.10
0.2421875,0.0036175586,-0.0028495379,0.008862072,-0.25,-0.97,0.1,16755,10137.60,0,0,165,0.56,-3.29,0.77,-0.25,-0.97,0.10
1.1425781,-3.8244156E-4,1.5046075E-4,-0.0031379284,-0.25,-0.97,0.1,16770,10138.50,0,0,0,0.28,-3.08,-0.07,-0.25,-0.97,0.10
1.1425781,-0.0033824416,0.002150461,-0.0061379285,-0.25,-0.97,0.1,16778,10138.50,0,0,165,0.07,-2.94,-0.28,-0.25,-0.97,0.10
0.2421875,-0.001382442,1.5046075E-4,-0.0021379283,-0.25,-0.97,0.1,16793,10137.60,0,0,0,0.21,-3.08,0.00,-0.25,-0.97,0.10
0.84277344,0.0016175578,-8.495413E-4,0.0028620716,-0.25,-0.97,0.1,16808,10138.20,0,0,165,0.42,-3.15,0.35,-0.25,-0.97,0.10
1.1425781,6.1755814E-4,-8.495413E-4,0.0018620719,-0.25,-0.97,0.1,16815,10138.50,0,0,0,0.35,-3.15,0.28,-0.25,-0.97,0.10
1.1425781,-3.8244156E-4,0.001150459,-0.0041379286,-0.25,-0.97,0.1,16830,10138.50,0,0,165,0.28,-3.01,-0.14,-0.25,-0.97,0.10
1.1425781,-0.0023824417,1.5046075E-4,-0.007137928,-0.25,-0.97,0.1,16846,10138.50,0,0,0,0.14,-3.08,-0.35,-0.25,-0.97,0.10
0.2421875,6.1755814E-4,1.5046075E-4,8.620715E-4,-0.25,-0.97,0.1,16853,10137.60,0,0,165,0.35,-3.08,0.21,-0.25,-0.97,0.10
-0.15722656,-3.8244156E-4,1.5046075E-4,0.0028620716,-0.25,-0.97,0.1,16868,10137.20,0,0,0,0.28,-3.08,0.35,-0.25,-0.97,0.10
0.2421875,0.0016175578,1.5046075E-4,0.0028620716,-0.25,-0.97,0.1,16883,10137.60,0,0,165,0.42,-3.08,0.35,-0.25,-0.97,0.10
-0.15722656,-0.001382442,1.5046075E-4,-0.0021379283,-0.25,-0.97,0.1,16891,10137.20,0,0,0,0.21,-3.08,0.00,-0.25,-0.97,0.10
1.1425781,-0.0023824417,0.001150459,-0.0031379284,-0.25,-0.97,0.1,16906,10138.50,0,0,165,0.14,-3.01,-0.07,-0.25,-0.97,0.10
-0.7578125,6.1755814E-4,-8.495413E-4,-1.3792817E-4,-0.25,-0.97,0.1,16920,10136.60,0,0,0,0.35,-3.15,0.14,-0.25,-0.97,0.10
-0.15722656,6.1755814E-4,-0.0018495396,-1.3792817E-4,-0.25,-0.97,0.1,16928,10137.20,0,0,165,0.35,-3.22,0.14,-0.25,-0.97,0.10
0.2421875,6.1755814E-4,1.5046075E-4,8.620715E-4,-0.25,-0.97,0.1,16943,10137.60,0,0,0,0.35,-3.08,0.21,-0.25,-0.97,0.10
0.84277344,6.1755814E-4,0.001150459,-0.0011379282,-0.25,-0.97,0.1,16958,10138.20,0,0,165,0.35,-3.01,0.07,-0.25,-0.97,0.10
0.2421875,6.1755814E-4,0.001150459,-0.0031379284,-0.25,-0.97,0.1,16965,10137.60,0,0,0,0.35,-3.01,-0.07,-0.25,-0.97,0.10
-0.15722656,-3.8244156E-4,-8.495413E-4,-1.3792817E-4,-0.25,-0.97,0.1,16980,10137.20,0,0,165,0.28,-3.15,0.14,-0.25,-0.97,0.10
-0.7578125,0.0036175586,1.5046075E-4,0.0018620719,-0.25,-0.97,0.1,16995,10136.60,0,0,0,0.56,-3.08,0.28,-0.25,-0.97,0.10
0.84277344,-0.001382442,-0.0018495396,-0.0021379283,-0.25,-0.97,0.1,17003,10138.20,0,0,165,0.21,-3.22,0.00,-0.25,-0.97,0.10
0.84277344,6.1755814E-4,-8.495413E-4,-0.0021379283,-0.25,-0.97,0.1,17018,10138.20,0,0,0,0.35,-3.15,0.00,-0.25,-0.97,0.10
0.84277344,6.1755814E-4,-8.495413E-4,-0.0011379282,-0.25,-0.97,0.1,17033,10138.20,0,0,165,0.35,-3.15,0.07,-0.25,-0.97,0.10
-0.15722656,6.1755814E-4,1.5046075E-4,-1.3792817E-4,-0.25,-0.97,0.1,17040,10137.20,0,0,0,0.35,-3.08,0.14,-0.25,-0.97,0.10
0.2421875,6.1755814E-4,-8.495413E-4,8.620715E-4,-0.25,-0.97,0.1,17055,10137.60,0,0,165,0.35,-3.15,0.21,-0.25,-0.97,0.10
-0.15722656,-3.8244156E-4,1.5046075E-4,8.620715E-4,-0.25,-0.97,0.1,17070,10137.20,0,0,0,0.28,-3.08,0.21,-0.25,-0.97,0.10
0.2421875,-3.8244156E-4,1.5046075E-4,8.620715E-4,-0.25,-0.97,0.1,17078,10137.60,0,0,165,0.28,-3.08,0.21,-0.25,-0.97,0.10
0.84277344,6.1755814E-4,1.5046075E-4,-1.3792817E-4,-0.25,-0.97,0.1,17093,10138.20,0,0,0,0.35,-3.08,0.14,-0.25,-0.97,0.10
0.2421875,-3.8244156E-4,-8.495413E-4,-1.3792817E-4,-0.25,-0.97,0.1,17107,10137.60,0,0,165,0.28,-3.15,0.14,-0.25,-0.97,0.10
0.84277344,-3.8244156E-4,1.5046075E-4,-1.3792817E-4,-0.25,-0.97,0.1,17116,10138.20,0,0,0,0.28,-3.08,0.14,-0.25,-0.97,0.10
-0.15722656,6.1755814E-4,1.5046075E-4,-1.3792817E-4,-0.25,-0.97,0.1,17131,10137.20,0,0,165,0.35,-3.08,0.14,-0.25,-0.97,0.10
1.1425781,6.1755814E-4,-8.495413E-4,-1.3792817E-4,-0.25,-0.97,0.1,17146,10138.50,0,0,0,0.35,-3.15,0.14,-0.25,-0.97,0.10
0.2421875,6.1755814E-4,0.001150459,-1.3792817E-4,-0.25,-0.97,0.1,17153,10137.60,0,0,165,0.35,-3.01,0.14,-0.25,-0.97,0.10
1.1425781,6.1755814E-4,1.5046075E-4,-0.0011379282,-0.25,-0.97,0.1,17168,10138.50,0,0,0,0.35,-3.08,0.07,-0.25,-0.97,0.10
0.2421875,6.1755814E-4,-8.495413E-4,-1.3792817E-4,-0.25,-0.97,0.1,17183,10137.60,0,0,165,0.35,-3.15,0.14,-0.25,-0.97,0.10
0.84277344,-3.8244156E-4,1.5046075E-4,-0.0011379282,-0.25,-0.97,0.1,17191,10138.20,0,0,0,0.28,-3.08,0.07,-0.25,-0.97,0.10
0.2421875,-3.8244156E-4,1.5046075E-4,-0.0021379283,-0.25,-0.97,0.1,17206,10137.60,0,0,165,0.28,-3.08,0.00,-0.25,-0.97,0.10
0.2421875,-3.8244156E-4,-8.495413E-4,-1.3792817E-4,-0.25,-0.97,0.1,17220,10137.60,0,0,0,0.28,-3.15,0.14,-0.25,-0.97,0.10
1.1425781,-3.8244156E-4,1.5046075E-4,-1.3792817E-4,-0.25,-0.97,0.1,17229,10138.50,0,0,165,0.28,-3.08,0.14,-0.25,-0.97,0.10
1.1425781,0.0016175578,-8.495413E-4,-0.0011379282,-0.25,-0.97,0.1,17243,10138.50,0,0,0,0.42,-3.15,0.07,-0.25,-0.97,0.10
0.2421875,6.1755814E-4,-8.495413E-4,0.0018620719,-0.25,-0.97,0.1,17258,10137.60,0,0,165,0.35,-3.15,0.28,-0.25,-0.97,0.10
2.1425781,-3.8244156E-4,1.5046075E-4,-0.0021379283,-0.25,-0.97,0.1,17265,10139.50,0,0,0,0.28,-3.08,0.00,-0.25,-0.97,0.10
0.2421875,6.1755814E-4,0.001150459,-1.3792817E-4,-0.25,-0.97,0.1,17280,10137.60,0,0,165,0.35,-3.01,0.14,-0.25,-0.97,0.10
0.2421875,6.1755814E-4,-8.495413E-4,-0.0011379282,-0.25,-0.97,0.1,17296,10137.60,0,0,0,0.35,-3.15,0.07,-0.25,-0.97,0.10
0.2421875,-0.001382442,-8.495413E-4,-0.0021379283,-0.25,-0.98,0.1,17303,10137.60,0,0,165,0.21,-3.15,0.00,-0.25,-0.98,0.10
0.84277344,6.1755814E-4,1.5046075E-4,0.0018620719,-0.25,-0.97,0.1,17318,10138.20,0,0,0,0.35,-3.08,0.28,-0.25,-0.97,0.10
0.2421875,0.0016175578,-8.495413E-4,0.0018620719,-0.25,-0.97,0.1,17333,10137.60,0,0,165,0.42,-3.15,0.28,-0.25,-0.97,0.10
1.1425781,-3.8244156E-4,1.5046075E-4,-1.3792817E-4,-0.13,-0.97,0.1,17340,10138.50,0,0,0,0.28,-3.08,0.14,-0.13,-0.97,0.10
0.84277344,0.0016175578,1.5046075E-4,-1.3792817E-4,-0.25,-0.97,0.1,17356,10138.20,0,0,165,0.42,-3.08,0.14,-0.25,-0.97,0.10
0.2421875,6.1755814E-4,-8.495413E-4,8.620715E-4,-0.25,-0.97,0.1,17371,10137.60,0,0,0,0.35,-3.15,0.21,-0.25,-0.97,0.10
0.2421875,6.1755814E-4,1.5046075E-4,-0.0011379282,-0.25,-0.97,0.1,17378,10137.60,0,0,165,0.35,-3.08,0.07,-0.25,-0.97,0.10
0.2421875,0.005617558,-8.495413E-4,8.620715E-4,-0.25,-0.97,0.1,17393,10137.60,0,0,0,0.70,-3.15,0.21,-0.25,-0.97,0.10
0.84277344,-0.0023824417,0.002150461,-1.3792817E-4,-0.25,-0.97,0.1,17408,10138.20,0,0,165,0.14,-2.94,0.14,-0.25,-0.97,0.10
1.1425781,0.0016175578,0.002150461,-0.0011379282,-0.25,-0.98,0.1,17416,10138.50,0,0,0,0.42,-2.94,0.07,-0.25,-0.98,0.10
1.1425781,0.0016175578,1.5046075E-4,-1.3792817E-4,-0.25,-0.97,0.1,17431,10138.50,0,0,165,0.42,-3.08,0.14,-0.25,-0.97,0.10
-0.15722656,0.0016175578,1.5046075E-4,0.0018620719,-0.25,-0.98,0.1,17446,10137.20,0,0,0,0.42,-3.08,0.28,-0.25,-0.98,0.10
1.1425781,6.1755814E-4,-0.0018495396,0.0018620719,-0.25,-0.97,0.1,17453,10138.50,0,0,165,0.35,-3.22,0.28,-0.25,-0.97,0.10
1.1425781,-3.8244156E-4,1.5046075E-4,-0.0021379283,-0.25,-0.97,0.14,17467,10138.50,0,0,0,0.28,-3.08,0.00,-0.25,-0.97,0.14
2.1425781,-0.14238244,0.0051504597,-0.107137926,-0.28,-0.96,0.09,17484,10139.50,0,0,165,-9.66,-2.73,-7.35,-0.28,-0.96,0.09
1.1425781,-0.076382436,0.026150461,-0.13613793,-0.25,-1.01,0.12,17491,10138.50,0,0,0,-5.04,-1.26,-9.38,-0.25,-1.01,0.12
2.1425781,-0.14538245,0.02715046,-0.11713793,-0.22,-0.96,0.08,17505,10139.50,0,0,165,-9.87,-1.19,-8.05,-0.22,-0.96,0.08
4.142578,-0.060382444,0.02515046,-0.08313793,-0.24,-0.98,0.1,17520,10141.50,0,0,0,-3.92,-1.33,-5.67,-0.24,-0.98,0.10
6.0429688,-0.13938244,0.026150461,-0.12413793,-0.27,-0.97,0.1,17528,10143.40,0,0,165,-9.45,-1.26,-8.54,-0.27,-0.97,0.10
8.942383,-0.13438246,0.05715046,-0.19413792,-0.25,-0.97,0.09,17543,10146.30,0,0,0,-9.10,0.91,-13.44,-0.25,-0.97,0.09
10.842773,-0.14438245,0.06815046,-0.20813793,-0.24,-0.98,0.08,17558,10148.20,0,0,165,-9.80,1.68,-14.42,-0.24,-0.98,0.08
13.842773,-0.11438244,0.06115046,-0.18313792,-0.22,-0.97,0.07,17566,10151.20,0,0,0,-7.70,1.19,-12.67,-0.22,-0.97,0.07
17.642578,-0.06438244,0.03315046,-0.12013793,-0.21,-0.99,0.07,17581,10155.00,0,0,165,-4.20,-0.77,-8.26,-0.21,-0.99,0.07
20.642578,-0.03138244,0.00915046,-0.05313793,-0.22,-0.98,0.08,17595,10158.00,0,0,0,-1.89,-2.45,-3.57,-0.22,-0.98,0.08
23.542969,-0.022382442,0.00915046,-0.03313793,-0.23,-0.98,0.08,17603,10160.90,0,0,165,-1.26,-2.45,-2.17,-0.23,-0.98,0.08
29.342773,-0.039382443,0.015150461,-0.05513793,-0.24,-0.98,0.09,17618,10166.70,0,0,0,-2.45,-2.03,-3.71,-0.24,-0.98,0.09
33.242188,-0.07238244,0.02215046,-0.08613793,-0.23,-0.97,0.08,17633,10170.60,0,0,165,-4.76,-1.54,-5.88,-0.23,-0.97,0.08
37.14258,-0.06338244,0.020150462,-0.09313793,-0.22,-0.97,0.07,17640,10174.50,0,0,0,-4.13,-1.68,-6.37,-0.22,-0.97,0.07
42.54297,-0.04538244,0.01715046,-0.073137924,-0.22,-0.99,0.08,17656,10179.90,0,0,165,-2.87,-1.89,-4.97,-0.22,-0.99,0.08
48.742188,-0.10538244,0.024150461,-0.11013793,-0.24,-0.99,0.09,17670,10186.10,0,0,0,-7.07,-1.40,-7.56,-0.24,-0.99,0.09
56.54297,-0.16938245,0.03815046,-0.17813793,-0.24,-0.99,0.09,17678,10193.90,0,0,165,-11.55,-0.42,-12.32,-0.24,-0.99,0.09
65.24219,-0.23038244,0.05515046,-0.24113792,-0.22,-0.96,0.06,17693,10202.60,0,0,0,-15.82,0.77,-16.73,-0.22,-0.96,0.06
76.94238,-0.15438245,0.04415046,-0.20213793,-0.2,-0.98,0.05,17708,10214.30,0,0,165,-10.50,0.00,-14.00,-0.20,-0.98,0.05
85.64258,-0.09438244,0.00715046,-0.09413793,-0.19,-0.95,0.04,17715,10223.00,0,0,0,-6.30,-2.59,-6.44,-0.19,-0.95,0.04
94.34277,0.08061756,-0.009849541,0.03986207,-0.21,-0.97,0.06,17730,10231.70,0,0,165,5.95,-3.78,2.94,-0.21,-0.97,0.06
102.14258,0.07361756,-0.019849543,0.023862071,-0.22,-0.98,0.08,17745,10239.50,0,0,0,5.46,-4.48,1.82,-0.22,-0.98,0.08
110.84277,0.02961756,-0.0038495362,-0.03513793,-0.23,-1.0,0.08,17752,10248.20,0,0,165,2.38,-3.36,-2.31,-0.23,-1.00,0.08
119.94238,-0.05538244,0.006150458,-0.067137934,-0.22,-0.99,0.07,17767,10257.30,0,0,0,-3.57,-2.66,-4.55,-0.22,-0.99,0.07
126.44238,-0.05238244,0.008150462,-0.06613793,-0.22,-0.98,0.07,17784,10263.80,0,0,165,-3.36,-2.52,-4.48,-0.22,-0.98,0.07
131.24219,-0.09438244,0.00915046,-0.12213793,-0.23,-0.99,0.08,17791,10268.60,0,0,0,-6.30,-2.45,-8.40,-0.23,-0.99,0.08
133.24219,-0.11638244,0.03415046,-0.14113793,-0.21,-0.99,0.07,17805,10270.60,0,0,165,-7.84,-0.70,-9.73,-0.21,-0.99,0.07
135.14258,-0.14638244,0.03415046,-0.14213793,-0.2,-0.98,0.06,17820,10272.50,0,0,0,-9.94,-0.70,-9.80,-0.20,-0.98,0.06
135.14258,-0.113382444,0.02815046,-0.11013793,-0.19,-0.97,0.05,17828,10272.50,0,0,165,-7.63,-1.12,-7.56,-0.19,-0.97,0.05
135.14258,-0.02538244,0.014150461,-0.04213793,-0.19,-0.98,0.05,17843,10272.50,0,0,0,-1.47,-2.10,-2.80,-0.19,-0.98,0.05
131.24219,0.010617558,0.0041504614,-0.0061379285,-0.2,-0.99,0.06,17858,10268.60,0,0,165,1.05,-2.80,-0.28,-0.20,-0.99,0.06
121.54297,0.030617557,-0.007849541,0.029862072,-0.19,-0.99,0.05,17865,10258.90,0,0,0,2.45,-3.64,2.24,-0.19,-0.99,0.05
106.94238,0.09761756,-0.017849542,0.093862064,-0.18,-0.98,0.04,17880,10244.30,0,0,165,7.14,-4.34,6.72,-0.18,-0.98,0.04
81.74219,0.27261755,-0.049849536,0.24586208,-0.16,-0.97,0.03,17895,10219.10,0,0,0,19.39,-6.58,17.36,-0.16,-0.97,0.03
51.64258,0.48261756,-0.10284954,0.4818621,-0.19,-0.99,0.04,17903,10189.00,0,0,165,34.09,-10.29,33.88,-0.19,-0.99,0.04
29.342773,0.48361757,-0.11384955,0.49586207,-0.26,-1.06,0.12,17918,10166.70,0,0,0,34.16,-11.06,34.86,-0.26,-1.06,0.12
11.842773,0.40361756,-0.103849545,0.37786207,-0.29,-0.93,0.01,17933,10149.20,0,0,165,28.56,-10.36,26.60,-0.29,-0.93,0.01
10.842773,0.025617559,-0.12284954,0.21886207,-0.28,-0.97,0.2,17940,10148.20,0,0,0,2.10,-11.69,15.47,-0.28,-0.97,0.20
9.942383,0.023617558,-0.0018495396,-0.06813793,-0.27,-0.91,0.1,17955,10147.30,0,0,165,1.96,-3.22,-4.62,-0.27,-0.91,0.10
8.942383,-0.15238245,0.05215046,-0.19313793,-0.25,-0.97,0.09,17970,10146.30,0,0,0,-10.36,0.56,-13.37,-0.25,-0.97,0.09
7.0429688,-0.06538244,0.02815046,-0.10313793,-0.19,-0.97,0.06,17979,10144.40,0,0,165,-4.27,-1.12,-7.07,-0.19,-0.97,0.06
6.0429688,0.060617562,-0.01884954,0.087862074,-0.21,-0.99,0.08,17993,10143.40,0,0,0,4.55,-4.41,6.30,-0.21,-0.99,0.08
6.0429688,0.07961756,-0.027849536,0.12686206,-0.24,-0.97,0.09,18008,10143.40,0,0,165,5.88,-5.04,9.03,-0.24,-0.97,0.09
6.0429688,0.02661756,-0.011849541,0.03786207,-0.25,-0.97,0.11,18015,10143.40,0,0,0,2.17,-3.92,2.80,-0.25,-0.97,0.11
7.0429688,-0.032382444,0.014150461,-0.067137934,-0.24,-0.97,0.09,18030,10144.40,0,0,165,-1.96,-2.10,-4.55,-0.24,-0.97,0.09
4.142578,-0.035382442,0.013150459,-0.05713793,-0.22,-0.99,0.08,18045,10141.50,0,0,0,-2.17,-2.17,-3.85,-0.22,-0.99,0.08
6.0429688,0.010617558,-0.0038495362,0.01786207,-0.22,-0.98,0.08,18053,10143.40,0,0,165,1.05,-3.36,1.40,-0.22,-0.98,0.08
6.0429688,0.032617558,-0.011849541,0.05686207,-0.24,-0.98,0.09,18068,10143.40,0,0,0,2.59,-3.92,4.13,-0.24,-0.98,0.09
6.0429688,0.010617558,-0.0028495379,0.0138620725,-0.24,-0.97,0.09,18083,10143.40,0,0,165,1.05,-3.29,1.12,-0.24,-0.97,0.09
6.0429688,-0.01638244,0.006150458,-0.03313793,-0.24,-0.98,0.09,18091,10143.40,0,0,0,-0.84,-2.66,-2.17,-0.24,-0.98,0.09
6.0429688,-0.012382442,0.006150458,-0.022137929,-0.22,-0.98,0.08,18106,10143.40,0,0,165,-0.56,-2.66,-1.40,-0.22,-0.98,0.08
7.0429688,0.009617559,-0.0038495362,0.022862073,-0.23,-0.98,0.09,18121,10144.40,0,0,0,0.98,-3.36,1.75,-0.23,-0.98,0.09
7.3427734,0.01861756,-0.0058495402,0.028862074,-0.23,-0.98,0.09,18128,10144.70,0,0,165,1.61,-3.50,2.17,-0.23,-0.98,0.09
6.0429688,0.0026175585,1.5046075E-4,-0.0011379282,-0.24,-0.97,0.09,18143,10143.40,0,0,0,0.49,-3.08,0.07,-0.24,-0.97,0.09
6.0429688,-0.010382442,0.0041504614,-0.022137929,-0.24,-0.98,0.09,18158,10143.40,0,0,165,-0.42,-2.80,-1.40,-0.24,-0.98,0.09
7.0429688,-0.0043824418,0.002150461,-0.0091379285,-0.23,-0.98,0.08,18165,10144.40,0,0,0,0.00,-2.94,-0.49,-0.23,-0.98,0.08
6.0429688,0.009617559,-0.0038495362,0.014862073,-0.23,-0.98,0.09,18180,10143.40,0,0,165,0.98,-3.36,1.19,-0.23,-0.98,0.09
6.0429688,0.0086175585,-0.0028495379,0.0138620725,-0.23,-0.98,0.09,18195,10143.40,0,0,0,0.91,-3.29,1.12,-0.23,-0.98,0.09
7.0429688,-3.8244156E-4,0.001150459,-0.0011379282,-0.23,-0.98,0.09,18203,10144.40,0,0,165,0.28,-3.01,0.07,-0.23,-0.98,0.09
7.942383,-0.005382442,0.001150459,-0.011137928,-0.23,-0.98,0.09,18218,10145.30,0,0,0,-0.07,-3.01,-0.63,-0.23,-0.98,0.09
7.942383,0.0016175578,-8.495413E-4,-1.3792817E-4,-0.23,-0.98,0.09,18233,10145.30,0,0,165,0.42,-3.15,0.14,-0.23,-0.98,0.09
7.0429688,0.005617558,-0.0018495396,0.010862072,-0.23,-0.98,0.09,18240,10144.40,0,0,0,0.70,-3.22,0.91,-0.23,-0.98,0.09
7.0429688,0.0026175585,-0.0018495396,0.004862072,-0.23,-0.98,0.09,18256,10144.40,0,0,165,0.49,-3.22,0.49,-0.23,-0.98,0.09
7.0429688,-0.0043824418,1.5046075E-4,-0.0031379284,-0.24,-0.97,0.09,18270,10144.40,0,0,0,0.00,-3.08,-0.07,-0.24,-0.97,0.09
7.0429688,-0.0033824416,0.001150459,-0.0041379286,-0.23,-0.98,0.09,18278,10144.40,0,0,165,0.07,-3.01,-0.14,-0.23,-0.98,0.09
7.942383,0.0016175578,1.5046075E-4,0.0038620713,-0.23,-0.98,0.09,18293,10145.30,0,0,0,0.42,-3.08,0.42,-0.23,-0.98,0.09
7.0429688,0.0016175578,-8.495413E-4,0.005862072,-0.23,-0.98,0.09,18301,10144.40,0,0,165,0.42,-3.15,0.56,-0.23,-0.98,0.09
7.942383,0.0016175578,-8.495413E-4,0.0018620719,-0.23,-0.98,0.09,18316,10145.30,0,0,0,0.42,-3.15,0.28,-0.23,-0.98,0.09
8.942383,-0.0023824417,0.001150459,-0.0021379283,-0.23,-0.97,0.09,18331,10146.30,0,0,165,0.14,-3.01,0.00,-0.23,-0.97,0.09
7.942383,-3.8244156E-4,0.001150459,-0.0011379282,-0.23,-0.98,0.09,18338,10145.30,0,0,0,0.28,-3.01,0.07,-0.23,-0.98,0.09
7.942383,6.1755814E-4,-8.495413E-4,0.0018620719,-0.23,-0.98,0.09,18353,10145.30,0,0,165,0.35,-3.15,0.28,-0.23,-0.98,0.09
7.942383,0.0016175578,1.5046075E-4,0.0028620716,-0.24,-0.98,0.09,18368,10145.30,0,0,0,0.42,-3.08,0.35,-0.24,-0.98,0.09
7.942383,6.1755814E-4,-8.495413E-4,8.620715E-4,-0.23,-0.98,0.09,18376,10145.30,0,0,165,0.35,-3.15,0.21,-0.23,-0.98,0.09
7.942383,6.1755814E-4,1.5046075E-4,-1.3792817E-4,-0.23,-0.98,0.09,18390,10145.30,0,0,0,0.35,-3.08,0.14,-0.23,-0.98,0.09
7.942383,6.1755814E-4,-8.495413E-4,8.620715E-4,-0.23,-0.98,0.09,18405,10145.30,0,0,165,0.35,-3.15,0.21,-0.23,-0.98,0.09
7.942383,-3.8244156E-4,-8.495413E-4,8.620715E-4,-0.23,-0.98,0.09,18413,10145.30,0,0,0,0.28,-3.15,0.21,-0.23,-0.98,0.09
7.942383,-3.8244156E-4,-8.495413E-4,8.620715E-4,-0.23,-0.98,0.09,18428,10145.30,0,0,165,0.28,-3.15,0.21,-0.23,-0.98,0.09
7.942383,6.1755814E-4,1.5046075E-4,8.620715E-4,-0.23,-0.98,0.09,18443,10145.30,0,0,0,0.35,-3.08,0.21,-0.23,-0.98,0.09
7.942383,0.0016175578,1.5046075E-4,-0.0011379282,-0.23,-0.98,0.09,18451,10145.30,0,0,165,0.42,-3.08,0.07,-0.23,-0.98,0.09
8.942383,-3.8244156E-4,1.5046075E-4,-1.3792817E-4,-0.23,-0.98,0.09,18466,10146.30,0,0,0,0.28,-3.08,0.14,-0.23,-0.98,0.09
8.942383,6.1755814E-4,1.5046075E-4,0.0018620719,-0.23,-0.98,0.09,18481,10146.30,0,0,165,0.35,-3.08,0.28,-0.23,-0.98,0.09
8.942383,-0.67538244,0.020150462,0.11786207,-0.1,-0.8,-0.08,18489,10146.30,0,0,0,-46.97,-1.68,8.40,-0.10,-0.80,-0.08
29.342773,-0.07738244,0.08515046,-0.52113795,-0.24,-0.88,0.07,18504,10166.70,0,0,165,-5.11,2.87,-36.33,-0.24,-0.88,0.07
24.442383,-0.46538243,0.13315046,-0.37913793,-0.21,-1.08,0.05,18518,10161.80,0,0,0,-32.27,6.23,-26.39,-0.21,-1.08,0.05
30.342773,-0.30238244,0.02215046,-0.111137934,-0.13,-0.85,-0.03,18525,10167.70,0,0,165,-20.86,-1.54,-7.63,-0.13,-0.85,-0.03
32.242188,0.23961756,0.010150459,0.073862076,-0.19,-1.01,0.07,18540,10169.60,0,0,0,17.08,-2.38,5.32,-0.19,-1.01,0.07
36.14258,0.056617558,-0.017849542,0.065862074,-0.26,-1.07,0.14,18555,10173.50,0,0,165,4.27,-4.34,4.76,-0.26,-1.07,0.14
39.04297,-0.09038244,0.00915046,-0.04813793,-0.22,-0.9,0.04,18563,10176.40,0,0,0,-6.02,-2.45,-3.22,-0.22,-0.90,0.04
42.942383,0.028617557,0.01715046,-0.07113793,-0.22,-1.01,0.09,18578,10180.30,0,0,165,2.31,-1.89,-4.83,-0.22,-1.01,0.09
43.842773,-0.041382443,0.011150461,-0.027137928,-0.19,-0.99,0.06,18594,10181.20,0,0,0,-2.59,-2.31,-1.75,-0.19,-0.99,0.06
37.14258,0.12161756,-0.022849541,0.14886206,-0.18,-0.97,0.04,18600,10174.50,0,0,165,8.82,-4.69,10.57,-0.18,-0.97,0.04
26.442383,0.27461758,-0.06184954,0.29786208,-0.21,-1.02,0.05,18616,10163.80,0,0,0,19.53,-7.42,21.00,-0.21,-1.02,0.05
15.7421875,0.48661757,-0.12184954,0.40686205,-0.23,-0.98,0.01,18631,10153.10,0,0,165,34.37,-11.62,28.63,-0.23,-0.98,0.01
11.842773,0.07561756,-0.09984954,0.41786206,-0.3,-0.9,0.13,18638,10149.20,0,0,0,5.60,-10.08,29.40,-0.30,-0.90,0.13
10.842773,0.13861756,-0.07084954,0.09786207,-0.27,-0.93,0.14,18653,10148.20,0,0,165,10.01,-8.05,7.00,-0.27,-0.93,0.14
9.942383,-0.16538246,0.054150462,-0.19213793,-0.26,-0.95,0.1,18668,10147.30,0,0,0,-11.27,0.70,-13.30,-0.26,-0.95,0.10
8.942383,-0.10738244,0.06915046,-0.18313792,-0.21,-0.97,0.07,18676,10146.30,0,0,165,-7.21,1.75,-12.67,-0.21,-0.97,0.07
8.942383,-0.039382443,0.012150459,0.0038620713,-0.19,-0.99,0.06,18691,10146.30,0,0,0,-2.45,-2.24,0.42,-0.19,-0.99,0.06
9.2421875,0.085617565,-0.030849542,0.12686206,-0.22,-0.98,0.09,18706,10146.60,0,0,165,6.30,-5.25,9.03,-0.22,-0.98,0.09
8.942383,0.03861756,-0.022849541,0.08686207,-0.13,-0.96,0.1,18713,10146.30,0,0,0,3.01,-4.69,6.23,-0.13,-0.96,0.10
9.942383,0.0016175578,0.001150459,-0.038137928,-0.25,-0.97,0.1,18728,10147.30,0,0,165,0.42,-3.01,-2.52,-0.25,-0.97,0.10
7.942383,-0.05238244,0.01715046,-0.07513793,-0.23,-0.98,0.08,18743,10145.30,0,0,0,-3.36,-1.89,-5.11,-0.23,-0.98,0.08
8.942383,-0.001382442,0.002150461,-0.011137928,-0.21,-0.98,0.08,18750,10146.30,0,0,165,0.21,-2.94,-0.63,-0.21,-0.98,0.08
8.942383,0.02961756,-0.011849541,0.05486207,-0.23,-0.97,0.09,18765,10146.30,0,0,0,2.38,-3.92,3.99,-0.23,-0.97,0.09
8.942383,0.02061756,-0.007849541,0.028862074,-0.24,-0.97,0.1,18780,10146.30,0,0,165,1.75,-3.64,2.17,-0.24,-0.97,0.10
8.942383,-0.018382441,0.006150458,-0.031137928,-0.23,-0.97,0.09,18788,10146.30,0,0,0,-0.98,-2.66,-2.03,-0.23,-0.97,0.09
8.942383,-0.0143824415,0.0041504614,-0.026137926,-0.22,-0.98,0.09,18802,10146.30,0,0,165,-0.70,-2.80,-1.68,-0.22,-0.98,0.09
9.942383,0.006617558,-0.0028495379,0.010862072,-0.23,-0.98,0.08,18818,10147.30,0,0,0,0.77,-3.29,0.91,-0.23,-0.98,0.08
9.942383,0.0136175575,-0.0068495385,0.02686207,-0.24,-0.98,0.09,18826,10147.30,0,0,165,1.26,-3.57,2.03,-0.24,-0.98,0.09
9.942383,0.0036175586,-8.495413E-4,0.004862072,-0.24,-0.97,0.09,18841,10147.30,0,0,0,0.56,-3.15,0.49,-0.24,-0.97,0.09
9.942383,-0.010382442,0.003150463,-0.018137928,-0.23,-0.98,0.09,18856,10147.30,0,0,165,-0.42,-2.87,-1.12,-0.23,-0.98,0.09
9.942383,-0.0043824418,0.002150461,-0.0061379285,-0.23,-0.98,0.08,18864,10147.30,0,0,0,0.00,-2.94,-0.28,-0.23,-0.98,0.08
9.2421875,0.0086175585,-0.0028495379,0.011862072,-0.23,-0.98,0.09,18878,10146.60,0,0,165,0.91,-3.29,0.98,-0.23,-0.98,0.09
10.842773,0.006617558,-0.0038495362,0.009862071,-0.24,-0.98,0.09,18893,10148.20,0,0,0,0.77,-3.36,0.84,-0.24,-0.98,0.09
9.942383,-0.0023824417,0.001150459,-0.0061379285,-0.23,-0.98,0.09,18900,10147.30,0,0,165,0.14,-3.01,-0.28,-0.23,-0.98,0.09
10.842773,-0.006382442,0.001150459,-0.0091379285,-0.23,-0.98,0.09,18915,10148.20,0,0,0,-0.14,-3.01,-0.49,-0.23,-0.98,0.09
9.942383,0.0016175578,-8.495413E-4,8.620715E-4,-0.23,-0.98,0.09,18930,10147.30,0,0,165,0.42,-3.15,0.21,-0.23,-0.98,0.09
10.842773,0.004617558,-0.0028495379,0.0068620713,-0.23,-0.98,0.09,18938,10148.20,0,0,0,0.63,-3.29,0.63,-0.23,-0.98,0.09
10.842773,0.0036175586,-0.0018495396,0.005862072,-0.23,-0.98,0.09,18953,10148.20,0,0,165,0.56,-3.22,0.56,-0.23,-0.98,0.09
10.842773,-0.001382442,-0.0028495379,0.0028620716,-0.16,-0.94,0.39,18968,10148.20,0,0,0,0.21,-3.29,0.35,-0.16,-0.94,0.39
32.242188,-0.25338244,-0.007849541,-0.5821379,-0.26,-0.67,0.03,18975,10169.60,0,0,165,-17.43,-3.64,-40.60,-0.26,-0.67,0.03
23.842773,-0.44038245,0.121150464,-0.42213792,-0.21,-1.11,0.13,18990,10161.20,0,0,0,-30.52,5.39,-29.40,-0.21,-1.11,0.13
25.442383,-0.35238245,0.03415046,-0.18013793,-0.14,-0.84,-0.04,19005,10162.80,0,0,165,-24.36,-0.70,-12.46,-0.14,-0.84,-0.04
27.342773,0.21461755,-0.0058495402,0.10786207,-0.17,-0.93,0.02,19013,10164.70,0,0,0,15.33,-3.50,7.70,-0.17,-0.93,0.02
27.742188,0.27961755,-0.035849538,0.19786207,-0.23,-1.08,0.13,19028,10165.10,0,0,165,19.88,-5.60,14.00,-0.23,-1.08,0.13
25.742188,0.025617559,-0.020849545,0.106862076,-0.24,-0.94,0.07,19043,10163.10,0,0,0,2.10,-4.55,7.63,-0.24,-0.94,0.07
22.842773,0.081617564,-0.004849542,-0.0061379285,-0.23,-0.99,0.09,19050,10160.20,0,0,165,6.02,-3.43,-0.28,-0.23,-0.99,0.09
19.642578,0.07261756,-0.013849538,0.08386207,-0.19,-0.98,0.04,19066,10157.00,0,0,0,5.39,-4.06,6.02,-0.19,-0.98,0.04
18.642578,0.30861756,-0.09084953,0.5028621,-0.13,-0.99,0.13,19081,10156.00,0,0,165,21.91,-9.45,35.35,-0.13,-0.99,0.13
12.842773,0.13461755,-0.08784954,0.28586206,-0.25,-0.97,0.08,19088,10150.20,0,0,0,9.73,-9.24,20.16,-0.25,-0.97,0.08
11.842773,0.093617566,-0.042849544,0.073862076,-0.28,-0.98,0.14,19103,10149.20,0,0,165,6.86,-6.09,5.32,-0.28,-0.98,0.14
12.142578,-0.10038243,0.03415046,-0.14713793,-0.24,-0.96,0.07,19119,10149.50,0,0,0,-6.72,-0.70,-10.15,-0.24,-0.96,0.07
10.842773,-0.066382445,0.02915046,-0.11413793,-0.22,-1.0,0.08,19126,10148.20,0,0,165,-4.34,-1.05,-7.84,-0.22,-1.00,0.08
12.142578,0.0076175574,-0.011849541,0.062862076,-0.2,-0.97,0.06,19141,10149.50,0,0,0,0.84,-3.92,4.55,-0.20,-0.97,0.06
11.2421875,0.085617565,-0.02584954,0.11186207,-0.24,-0.99,0.1,19156,10148.60,0,0,165,6.30,-4.90,7.98,-0.24,-0.99,0.10
11.2421875,0.009617559,-0.0068495385,0.024862073,-0.25,-0.96,0.09,19163,10148.60,0,0,0,0.98,-3.57,1.89,-0.25,-0.96,0.09
12.142578,-0.035382442,0.012150459,-0.073137924,-0.24,-0.98,0.1,19178,10149.50,0,0,165,-2.17,-2.24,-4.97,-0.24,-0.98,0.10
11.2421875,-0.024382442,0.008150462,-0.04113793,-0.21,-0.98,0.07,19192,10148.60,0,0,0,-1.40,-2.52,-2.73,-0.21,-0.98,0.07
12.142578,0.02061756,-0.0068495385,0.03386207,-0.22,-0.98,0.08,19201,10149.50,0,0,165,1.75,-3.57,2.52,-0.22,-0.98,0.08
11.2421875,0.030617557,-0.010849539,0.046862073,-0.24,-0.97,0.1,19215,10148.60,0,0,0,2.45,-3.85,3.43,-0.24,-0.97,0.10
11.842773,0.0026175585,0.001150459,-0.010137929,-0.24,-0.97,0.09,19230,10149.20,0,0,165,0.49,-3.01,-0.56,-0.24,-0.97,0.09
11.2421875,-0.019382441,0.00715046,-0.038137928,-0.23,-0.98,0.09,19238,10148.60,0,0,0,-1.05,-2.59,-2.52,-0.23,-0.98,0.09
11.2421875,-0.0083824415,1.5046075E-4,-0.0021379283,-0.22,-0.98,0.08,19253,10148.60,0,0,165,-0.28,-3.08,0.00,-0.22,-0.98,0.08
13.142578,0.01861756,-0.0068495385,0.029862072,-0.23,-0.98,0.09,19267,10150.50,0,0,0,1.61,-3.57,2.24,-0.23,-0.98,0.09
12.142578,0.009617559,-0.0038495362,0.018862072,-0.24,-0.97,0.09,19275,10149.50,0,0,165,0.98,-3.36,1.47,-0.24,-0.97,0.09
12.142578,-0.006382442,0.003150463,-0.01913793,-0.24,-0.98,0.09,19290,10149.50,0,0,0,-0.14,-2.87,-1.19,-0.24,-0.98,0.09
12.142578,-0.011382442,0.003150463,-0.016137928,-0.23,-0.98,0.09,19305,10149.50,0,0,165,-0.49,-2.87,-0.98,-0.23,-0.98,0.09
12.142578,0.004617558,-0.0028495379,0.0068620713,-0.23,-0.98,0.09,19313,10149.50,0,0,0,0.63,-3.29,0.63,-0.23,-0.98,0.09
12.142578,0.009617559,-0.0038495362,0.016862072,-0.22,-0.97,0.1,19328,10149.50,0,0,165,0.98,-3.36,1.33,-0.22,-0.97,0.10
34.54297,-0.51738244,0.010150459,-0.5101379,-0.22,-0.89,0.18,19343,10171.90,0,0,0,-35.91,-2.38,-35.56,-0.22,-0.89,0.18
28.742188,-0.23638244,0.06115046,-0.4781379,-0.25,-1.21,0.19,19350,10166.10,0,0,165,-16.24,1.19,-33.32,-0.25,-1.21,0.19
27.742188,-0.058382444,0.01815046,-0.09313793,-0.06,-0.77,-0.08,19366,10165.10,0,0,0,-3.78,-1.82,-6.37,-0.06,-0.77,-0.08
26.442383,0.33861756,-0.04884954,0.28286207,-0.14,-0.89,0.03,19381,10163.80,0,0,165,24.01,-6.51,19.95,-0.14,-0.89,0.03
23.842773,0.09861756,-0.04884954,0.24186207,-0.27,-1.05,0.16,19388,10161.20,0,0,0,7.21,-6.51,17.08,-0.27,-1.05,0.16
20.942383,0.20061755,-0.052849542,0.17086206,-0.25,-0.91,0.02,19402,10158.30,0,0,165,14.35,-6.79,12.11,-0.25,-0.91,0.02
18.942383,0.10661756,-0.020849545,0.05086207,-0.24,-1.01,0.1,19418,10156.30,0,0,0,7.77,-4.55,3.71,-0.24,-1.01,0.10
14.142578,0.05861756,-0.010849539,0.095862076,-0.24,-0.97,0.08,19425,10151.50,0,0,165,4.41,-3.85,6.86,-0.24,-0.97,0.08
14.142578,0.02061756,-0.004849542,0.01586207,-0.13,-0.97,0.1,19441,10151.50,0,0,0,1.75,-3.43,1.26,-0.13,-0.97,0.10
13.142578,-0.026382443,0.011150461,-0.04613793,-0.24,-0.98,0.09,19456,10150.50,0,0,165,-1.54,-2.31,-3.08,-0.24,-0.98,0.09
13.142578,-0.017382443,0.00715046,-0.022137929,-0.22,-0.98,0.08,19464,10150.50,0,0,0,-0.91,-2.59,-1.40,-0.22,-0.98,0.08
13.142578,0.019617558,-0.0068495385,0.03086207,-0.22,-0.98,0.08,19478,10150.50,0,0,165,1.68,-3.57,2.31,-0.22,-0.98,0.08
13.142578,0.019617558,-0.008849539,0.02686207,-0.24,-0.98,0.09,19493,10150.50,0,0,0,1.68,-3.71,2.03,-0.24,-0.98,0.09
12.142578,-0.001382442,-8.495413E-4,-0.010137929,-0.24,-0.97,0.09,19501,10149.50,0,0,165,0.21,-3.15,-0.56,-0.24,-0.97,0.09
12.142578,-0.012382442,0.0051504597,-0.02413793,-0.23,-0.98,0.09,19516,10149.50,0,0,0,-0.56,-2.73,-1.54,-0.23,-0.98,0.09
13.542969,-0.001382442,0.001150459,-0.005137928,-0.22,-0.98,0.08,19530,10150.90,0,0,165,0.21,-3.01,-0.21,-0.22,-0.98,0.08
13.142578,0.011617559,-0.0038495362,0.01986207,-0.23,-0.98,0.09,19538,10150.50,0,0,0,1.12,-3.36,1.54,-0.23,-0.98,0.09
12.142578,0.006617558,-0.0028495379,0.009862071,-0.23,-0.98,0.09,19553,10149.50,0,0,165,0.77,-3.29,0.84,-0.23,-0.98,0.09
13.142578,-0.006382442,0.002150461,-0.013137928,-0.23,-0.98,0.09,19568,10150.50,0,0,0,-0.14,-2.94,-0.77,-0.23,-0.98,0.09
13.142578,-0.0043824418,0.001150459,-0.007137928,-0.23,-0.98,0.09,19576,10150.50,0,0,165,0.00,-3.01,-0.35,-0.23,-0.98,0.09
13.142578,0.0036175586,-0.0018495396,0.0068620713,-0.23,-0.98,0.09,19591,10150.50,0,0,0,0.56,-3.22,0.63,-0.23,-0.98,0.09
13.142578,0.005617558,-0.0028495379,0.008862072,-0.23,-0.98,0.09,19605,10150.50,0,0,165,0.70,-3.29,0.77,-0.23,-0.98,0.09
12.142578,-0.001382442,0.001150459,-0.0021379283,-0.23,-0.98,0.09,19613,10149.50,0,0,0,0.21,-3.01,0.00,-0.23,-0.98,0.09
12.142578,-0.0043824418,0.002150461,-0.007137928,-0.23,-0.98,0.09,19629,10149.50,0,0,165,0.00,-2.94,-0.35,-0.23,-0.98,0.09
13.142578,6.1755814E-4,-8.495413E-4,0.0028620716,-0.23,-0.98,0.09,19643,10150.50,0,0,0,0.35,-3.15,0.35,-0.23,-0.98,0.09
13.142578,0.004617558,-8.495413E-4,0.005862072,-0.23,-0.98,0.09,19651,10150.50,0,0,165,0.63,-3.15,0.56,-0.23,-0.98,0.09
13.142578,6.1755814E-4,-8.495413E-4,0.0018620719,-0.23,-0.98,0.09,19666,10150.50,0,0,0,0.35,-3.15,0.28,-0.23,-0.98,0.09
13.142578,-3.8244156E-4,1.5046075E-4,-0.0031379284,-0.23,-0.98,0.09,19680,10150.50,0,0,165,0.28,-3.08,-0.07,-0.23,-0.98,0.09
14.442383,-3.8244156E-4,-8.495413E-4,-0.0041379286,-0.23,-0.98,0.09,19688,10151.80,0,0,0,0.28,-3.15,-0.14,-0.23,-0.98,0.09
13.142578,0.0016175578,-0.0018495396,8.620715E-4,-0.23,-0.98,0.09,19703,10150.50,0,0,165,0.42,-3.22,0.21,-0.23,-0.98,0.09
13.542969,0.0036175586,-8.495413E-4,0.0038620713,-0.18,-0.95,0.16,19717,10150.90,0,0,0,0.56,-3.15,0.42,-0.18,-0.95,0.16
31.642578,-0.5203824,0.02315046,-0.4041379,-0.2,-0.8,-0.0,19725,10169.00,0,0,165,-36.12,-1.47,-28.14,-0.20,-0.80,-0.00
21.942383,-0.15138245,0.29415047,-0.23113795,-0.21,-1.17,0.16,19740,10159.30,0,0,0,-10.29,17.50,-16.03,-0.21,-1.17,0.16
19.942383,-0.10838244,0.015150461,0.08686207,-0.11,-0.89,-0.06,19755,10157.30,0,0,165,-7.28,-2.03,6.23,-0.11,-0.89,-0.06
18.042969,0.5026176,-0.06284954,0.32386208,-0.22,-1.11,0.1,19763,10155.40,0,0,0,35.49,-7.49,22.82,-0.22,-1.11,0.10
14.442383,0.023617558,-0.031849544,0.26686206,-0.22,-0.9,0.1,19778,10151.80,0,0,165,1.96,-5.32,18.83,-0.22,-0.90,0.10
15.142578,0.18661755,-0.060849536,0.08186207,-0.29,-0.98,0.13,19792,10152.50,0,0,0,13.37,-7.35,5.88,-0.29,-0.98,0.13
14.442383,-0.14138246,0.03515046,-0.11313793,-0.26,-0.95,0.07,19800,10151.80,0,0,165,-9.59,-0.63,-7.77,-0.26,-0.95,0.07
13.142578,-0.03338244,0.02515046,-0.11013793,-0.22,-1.01,0.09,19816,10150.50,0,0,0,-2.03,-1.33,-7.56,-0.22,-1.01,0.09
14.442383,-0.038382445,0.0041504614,0.01786207,-0.2,-0.98,0.05,19831,10151.80,0,0,165,-2.38,-2.80,1.40,-0.20,-0.98,0.05
13.542969,0.09061756,-0.02584954,0.10586207,-0.24,-1.0,0.1,19838,10150.90,0,0,0,6.65,-4.90,7.56,-0.24,-1.00,0.10
14.442383,0.005617558,-0.004849542,0.02686207,-0.25,-0.95,0.09,19872,10151.80,0,0,165,0.70,-3.43,2.03,-0.25,-0.95,0.09
13.142578,-0.019382441,0.012150459,-0.05713793,-0.24,-0.99,0.1,19874,10150.50,0,0,0,-1.05,-2.24,-3.85,-0.24,-0.99,0.10
13.142578,-0.043382443,0.013150459,-0.05713793,-0.22,-0.97,0.08,19876,10150.50,0,0,165,-2.73,-2.17,-3.85,-0.22,-0.97,0.08
14.142578,0.023617558,-0.0068495385,0.029862072,-0.22,-0.99,0.09,19891,10151.50,0,0,0,1.96,-3.57,2.24,-0.22,-0.99,0.09
14.142578,0.02661756,-0.009849541,0.05086207,-0.23,-0.97,0.09,19905,10151.50,0,0,165,2.17,-3.78,3.71,-0.23,-0.97,0.09
14.442383,0.004617558,-8.495413E-4,-0.007137928,-0.24,-0.98,0.1,19913,10151.80,0,0,0,0.63,-3.15,-0.35,-0.24,-0.98,0.10
13.542969,-0.018382441,0.00715046,-0.03613793,-0.23,-0.97,0.09,19929,10150.90,0,0,165,-0.98,-2.59,-2.38,-0.23,-0.97,0.09
13.142578,-0.0073824413,0.001150459,-0.012137928,-0.22,-0.98,0.09,19943,10150.50,0,0,0,-0.21,-3.01,-0.70,-0.22,-0.98,0.09
13.142578,0.0146175595,-0.0038495362,0.021862071,-0.23,-0.98,0.08,19951,10150.50,0,0,165,1.33,-3.36,1.68,-0.23,-0.98,0.08
13.142578,0.009617559,-0.004849542,0.01786207,-0.24,-0.98,0.09,19966,10150.50,0,0,0,0.98,-3.43,1.40,-0.24,-0.98,0.09
14.442383,-0.0043824418,0.003150463,-0.013137928,-0.24,-0.98,0.09,19981,10151.80,0,0,165,0.00,-2.87,-0.77,-0.24,-0.98,0.09
14.442383,-0.009382442,0.003150463,-0.014137927,-0.23,-0.98,0.08,19988,10151.80,0,0,0,-0.35,-2.87,-0.84,-0.23,-0.98,0.08
13.542969,0.006617558,-0.0018495396,0.008862072,-0.23,-0.98,0.08,20003,10150.90,0,0,165,0.77,-3.22,0.77,-0.23,-0.98,0.08
15.142578,0.0076175574,-0.0058495402,0.014862073,-0.23,-0.98,0.09,20017,10152.50,0,0,0,0.84,-3.50,1.19,-0.23,-0.98,0.09
14.442383,0.0026175585,-8.495413E-4,-0.0021379283,-0.23,-0.98,0.09,20025,10151.80,0,0,165,0.49,-3.15,0.00,-0.23,-0.98,0.09
13.542969,-0.0073824413,0.003150463,-0.013137928,-0.23,-0.98,0.09,20041,10150.90,0,0,0,-0.21,-2.87,-0.77,-0.23,-0.98,0.09
14.442383,-0.0033824416,1.5046075E-4,-0.0041379286,-0.23,-0.98,0.09,20055,10151.80,0,0,165,0.07,-3.08,-0.14,-0.23,-0.98,0.09
14.442383,0.004617558,-8.495413E-4,0.008862072,-0.23,-0.98,0.09,20063,10151.80,0,0,0,0.63,-3.15,0.77,-0.23,-0.98,0.09
14.442383,0.004617558,-0.0018495396,0.0028620716,-0.23,-0.98,0.09,20078,10151.80,0,0,165,0.63,-3.22,0.35,-0.23,-0.98,0.09
14.442383,-0.0033824416,0.001150459,-0.0041379286,-0.23,-0.98,0.09,20093,10151.80,0,0,0,0.07,-3.01,-0.14,-0.23,-0.98,0.09
13.542969,-0.16538246,-0.011849541,0.12286207,-0.13,-0.83,0.24,20101,10150.90,0,0,165,-11.27,-3.92,8.75,-0.13,-0.83,0.24
29.042969,0.0086175585,0.11615045,-0.34913793,-0.2,-0.92,0.05,20116,10166.40,0,0,0,0.91,5.04,-24.29,-0.20,-0.92,0.05
21.242188,-0.22038245,0.073150456,-0.20013793,-0.19,-1.06,0.1,20131,10158.60,0,0,165,-15.12,2.03,-13.86,-0.19,-1.06,0.10
21.242188,0.004617558,-0.041849542,0.16886207,-0.15,-0.83,-0.02,20138,10158.60,0,0,0,0.63,-6.02,11.97,-0.15,-0.83,-0.02
20.242188,0.39561757,-0.07884954,0.24486208,-0.29,-1.17,0.21,20153,10157.60,0,0,165,28.00,-8.61,17.29,-0.29,-1.17,0.21
20.242188,0.060617562,-0.06184954,0.15286207,-0.17,-0.86,0.06,20168,10157.60,0,0,0,4.55,-7.42,10.85,-0.17,-0.86,0.06
15.442383,0.124617554,-0.030849542,0.04886207,-0.28,-1.04,0.16,20176,10152.80,0,0,165,9.03,-5.25,3.57,-0.28,-1.04,0.16
15.442383,-0.054382443,0.014150461,-0.08213793,-0.24,-0.94,0.06,20191,10152.80,0,0,0,-3.50,-2.10,-5.60,-0.24,-0.94,0.06
14.442383,-0.036382444,0.014150461,-0.06113793,-0.22,-1.02,0.1,20206,10151.80,0,0,165,-2.24,-2.10,-4.13,-0.22,-1.02,0.10
16.442383,0.021617558,-0.0058495402,0.03086207,-0.2,-0.96,0.06,20213,10153.80,0,0,0,1.82,-3.50,2.31,-0.20,-0.96,0.06
15.442383,0.03861756,-0.013849538,0.05486207,-0.24,-1.0,0.11,20229,10152.80,0,0,165,3.01,-4.06,3.99,-0.24,-1.00,0.11
15.442383,0.009617559,-0.0028495379,0.004862072,-0.24,-0.96,0.09,20243,10152.80,0,0,0,0.98,-3.29,0.49,-0.24,-0.96,0.09
14.442383,-0.035382442,0.00915046,-0.04513793,-0.23,-0.98,0.09,20251,10151.80,0,0,165,-2.17,-2.45,-3.01,-0.23,-0.98,0.09
14.442383,0.24961756,0.002150461,-0.013137928,-0.22,-0.98,0.08,20266,10151.80,0,0,0,17.78,-2.94,-0.77,-0.22,-0.98,0.08
14.442383,0.010617558,-0.004849542,0.029862072,-0.23,-0.97,0.08,20280,10151.80,0,0,165,1.05,-3.43,2.24,-0.23,-0.97,0.08
14.442383,0.024617556,-0.0058495402,0.021862071,-0.24,-0.98,0.09,20288,10151.80,0,0,0,2.03,-3.50,1.68,-0.24,-0.98,0.09
14.442383,-0.012382442,0.0041504614,-0.016137928,-0.24,-0.97,0.09,20302,10151.80,0,0,165,-0.56,-2.80,-0.98,-0.24,-0.97,0.09
14.442383,-0.009382442,0.0051504597,-0.022137929,-0.23,-0.98,0.09,20318,10151.80,0,0,0,-0.35,-2.73,-1.40,-0.23,-0.98,0.09
14.442383,6.1755814E-4,-8.495413E-4,8.620715E-4,-0.22,-0.98,0.08,20326,10151.80,0,0,165,0.35,-3.15,0.21,-0.22,-0.98,0.08
14.442383,0.009617559,-0.0038495362,0.01786207,-0.23,-0.98,0.09,20341,10151.80,0,0,0,0.98,-3.36,1.40,-0.23,-0.98,0.09
15.442383,0.0016175578,-8.495413E-4,0.0038620713,-0.23,-0.98,0.09,20356,10152.80,0,0,165,0.42,-3.15,0.42,-0.23,-0.98,0.09
15.442383,-0.006382442,0.003150463,-0.012137928,-0.23,-0.98,0.09,20363,10152.80,0,0,0,-0.14,-2.87,-0.70,-0.23,-0.98,0.09
13.542969,-0.0023824417,0.002150461,-0.0021379283,-0.23,-0.98,0.09,20378,10150.90,0,0,165,0.14,-2.94,0.00,-0.23,-0.98,0.09
15.442383,0.005617558,-8.495413E-4,0.008862072,-0.23,-0.98,0.09,20401,10152.80,0,0,0,0.70,-3.15,0.77,-0.23,-0.98,0.09
15.442383,0.004617558,-0.0028495379,0.0068620713,-0.24,-0.98,0.09,20402,10152.80,0,0,165,0.63,-3.29,0.63,-0.24,-0.98,0.09
14.442383,-0.0023824417,0.001150459,-0.0061379285,-0.23,-0.98,0.09,20415,10151.80,0,0,0,0.14,-3.01,-0.28,-0.23,-0.98,0.09
15.7421875,-0.0023824417,0.001150459,-0.0061379285,-0.23,-0.98,0.09,20430,10153.10,0,0,165,0.14,-3.01,-0.28,-0.23,-0.98,0.09
15.442383,6.1755814E-4,-8.495413E-4,8.620715E-4,-0.23,-0.98,0.09,20438,10152.80,0,0,0,0.35,-3.15,0.21,-0.23,-0.98,0.09
14.842773,-0.076382436,-0.007849541,0.022862073,-0.1,-0.82,0.26,20453,10152.20,0,0,165,-5.04,-3.64,1.75,-0.10,-0.82,0.26
28.042969,-0.09938244,0.100150466,-0.26813793,-0.25,-0.81,0.04,20468,10165.40,0,0,0,-6.65,3.92,-18.62,-0.25,-0.81,0.04
20.242188,-0.15738244,0.03415046,-0.15613793,-0.22,-1.03,0.1,20475,10157.60,0,0,165,-10.71,-0.70,-10.78,-0.22,-1.03,0.10
19.342773,0.21661755,-0.052849542,0.21486206,-0.16,-0.9,-0.0,20490,10156.70,0,0,0,15.47,-6.79,15.19,-0.16,-0.90,-0.00
16.442383,0.20161755,-0.06384954,0.26786205,-0.3,-1.08,0.19,20505,10153.80,0,0,165,14.42,-7.56,18.90,-0.30,-1.08,0.19
15.442383,0.06461756,-0.068849534,0.11786207,-0.26,-0.88,0.06,20513,10152.80,0,0,0,4.83,-7.91,8.40,-0.26,-0.88,0.06
15.442383,-0.013382441,-0.0028495379,-0.074137926,-0.27,-1.0,0.16,20528,10152.80,0,0,165,-0.63,-3.29,-5.04,-0.27,-1.00,0.16
15.7421875,-0.05538244,0.02715046,-0.12513793,-0.21,-0.95,0.06,20542,10153.10,0,0,0,-3.57,-1.19,-8.61,-0.21,-0.95,0.06
15.442383,-0.023382444,0.006150458,-0.02413793,-0.21,-1.01,0.09,20550,10152.80,0,0,165,-1.33,-2.66,-1.54,-0.21,-1.01,0.09
15.442383,0.07361756,-0.020849545,0.09486207,-0.24,-0.97,0.08,20565,10152.80,0,0,0,5.46,-4.55,6.79,-0.24,-0.97,0.08
14.842773,0.016617559,-0.009849541,0.045862067,-0.25,-0.98,0.11,20581,10152.20,0,0,165,1.47,-3.78,3.36,-0.25,-0.98,0.11
15.442383,-0.0043824418,0.014150461,-0.04713793,-0.23,-0.96,0.1,20588,10152.80,0,0,0,0.00,-2.10,-3.15,-0.23,-0.96,0.10
14.842773,-0.01638244,0.04515046,-0.03613793,-0.26,-0.99,0.11,20603,10152.20,0,0,165,-0.84,0.07,-2.38,-0.26,-0.99,0.11
16.742188,0.0026175585,0.015150461,-0.012137928,-0.22,-1.01,0.04,20618,10154.10,0,0,0,0.49,-2.03,-0.70,-0.22,-1.01,0.04
14.442383,0.02961756,-0.004849542,0.014862073,-0.24,-1.01,0.09,20625,10151.80,0,0,165,2.38,-3.43,1.19,-0.24,-1.01,0.09
15.442383,0.005617558,-0.010849539,0.03686207,-0.24,-0.96,0.09,20640,10152.80,0,0,0,0.70,-3.85,2.73,-0.24,-0.96,0.09
14.442383,0.045617558,-0.0068495385,-0.012137928,-0.22,-0.97,0.1,20655,10151.80,0,0,165,3.50,-3.57,-0.70,-0.22,-0.97,0.10
15.7421875,0.0036175586,0.024150461,-0.022137929,-0.22,-0.99,0.1,20663,10153.10,0,0,0,0.56,-1.40,-1.40,-0.22,-0.99,0.10
14.442383,0.02661756,-0.0028495379,-0.03413793,-0.23,-1.01,0.09,20678,10151.80,0,0,165,2.17,-3.29,-2.24,-0.23,-1.01,0.09
15.7421875,-0.013382441,-0.017849542,0.04486207,-0.21,-0.97,0.07,20693,10153.10,0,0,0,-0.63,-4.34,3.29,-0.21,-0.97,0.07
15.7421875,0.036617555,-0.068849534,0.07886207,-0.26,-0.99,0.11,20700,10153.10,0,0,165,2.87,-7.91,5.67,-0.26,-0.99,0.11
15.7421875,0.015617558,0.002150461,0.076862074,-0.32,-0.92,0.08,20715,10153.10,0,0,0,1.40,-2.94,5.53,-0.32,-0.92,0.08
15.442383,0.016617559,-0.009849541,-0.089137934,-0.23,-0.99,0.12,20731,10152.80,0,0,165,1.47,-3.78,-6.09,-0.23,-0.99,0.12
14.842773,-0.05238244,0.041150462,-0.10613793,-0.22,-0.96,0.06,20738,10152.20,0,0,0,-3.36,-0.21,-7.28,-0.22,-0.96,0.06
16.742188,-0.010382442,0.003150463,0.0028620716,-0.22,-1.01,0.09,20754,10154.10,0,0,165,-0.42,-2.87,0.35,-0.22,-1.01,0.09
16.742188,0.03861756,-0.023849543,0.07786207,-0.22,-0.98,0.09,20768,10154.10,0,0,0,3.01,-4.76,5.60,-0.22,-0.98,0.09
15.442383,0.012617559,-0.009849541,0.045862067,-0.24,-0.97,0.1,20776,10152.80,0,0,165,1.19,-3.78,3.36,-0.24,-0.97,0.10
15.7421875,-0.011382442,0.0051504597,-0.04013793,-0.24,-0.98,0.1,20791,10153.10,0,0,0,-0.49,-2.73,-2.66,-0.24,-0.98,0.10
15.7421875,-0.03338244,0.00915046,-0.04213793,-0.23,-0.98,0.08,20806,10153.10,0,0,165,-2.03,-2.45,-2.80,-0.23,-0.98,0.08
15.7421875,-0.0033824416,-0.004849542,0.0078620715,-0.22,-0.98,0.09,20813,10153.10,0,0,0,0.07,-3.43,0.70,-0.22,-0.98,0.09
16.742188,0.010617558,-0.008849539,0.03686207,-0.23,-0.97,0.09,20828,10154.10,0,0,165,1.05,-3.71,2.73,-0.23,-0.97,0.09
15.7421875,0.006617558,-8.495413E-4,0.011862072,-0.24,-0.97,0.09,20843,10153.10,0,0,0,0.77,-3.15,0.98,-0.24,-0.97,0.09
15.7421875,-0.0083824415,0.0051504597,-0.023137927,-0.23,-0.97,0.09,20851,10153.10,0,0,165,-0.28,-2.73,-1.47,-0.23,-0.97,0.09
15.7421875,-0.009382442,0.003150463,-0.0061379285,-0.23,-0.98,0.08,20865,10153.10,0,0,0,-0.35,-2.87,-0.28,-0.23,-0.98,0.08
16.742188,0.011617559,-0.0038495362,0.016862072,-0.23,-0.98,0.09,20880,10154.10,0,0,165,1.12,-3.36,1.33,-0.23,-0.98,0.09
15.7421875,0.005617558,-0.0038495362,0.012862071,-0.23,-0.97,0.09,20888,10153.10,0,0,0,0.70,-3.36,1.05,-0.23,-0.97,0.09
16.742188,0.0016175578,1.5046075E-4,-0.005137928,-0.24,-0.98,0.09,20902,10154.10,0,0,165,0.42,-3.08,-0.21,-0.24,-0.98,0.09
15.7421875,-0.0043824418,0.002150461,-0.010137929,-0.23,-0.98,0.09,20918,10153.10,0,0,0,0.00,-2.94,-0.56,-0.23,-0.98,0.09
16.742188,0.006617558,-0.0018495396,0.0028620716,-0.23,-0.98,0.09,20926,10154.10,0,0,165,0.77,-3.22,0.35,-0.23,-0.98,0.09
16.742188,0.006617558,-8.495413E-4,0.010862072,-0.23,-0.98,0.09,20940,10154.10,0,0,0,0.77,-3.15,0.91,-0.23,-0.98,0.09
15.7421875,-3.8244156E-4,0.001150459,-1.3792817E-4,-0.23,-0.98,0.09,20956,10153.10,0,0,165,0.28,-3.01,0.14,-0.23,-0.98,0.09
15.7421875,-0.0033824416,0.001150459,-0.008137928,-0.23,-0.98,0.09,20963,10153.10,0,0,0,0.07,-3.01,-0.42,-0.23,-0.98,0.09
16.142578,-3.8244156E-4,1.5046075E-4,-0.0021379283,-0.23,-0.98,0.09,20978,10153.50,0,0,165,0.28,-3.08,0.00,-0.23,-0.98,0.09
15.7421875,-3.8244156E-4,-0.0018495396,0.0038620713,-0.23,-0.98,0.09,20993,10153.10,0,0,0,0.28,-3.22,0.42,-0.23,-0.98,0.09
15.7421875,6.1755814E-4,1.5046075E-4,0.0028620716,-0.23,-0.98,0.09,21000,10153.10,0,0,165,0.35,-3.08,0.35,-0.23,-0.98,0.09
15.7421875,-3.8244156E-4,1.5046075E-4,-0.0041379286,-0.23,-0.98,0.09,21016,10153.10,0,0,0,0.28,-3.08,-0.14,-0.23,-0.98,0.09
15.7421875,-0.001382442,1.5046075E-4,-1.3792817E-4,-0.23,-0.98,0.09,21031,10153.10,0,0,165,0.21,-3.08,0.14,-0.23,-0.98,0.09
15.7421875,0.0036175586,-8.495413E-4,0.0038620713,-0.23,-0.98,0.09,21038,10153.10,0,0,0,0.56,-3.15,0.42,-0.23,-0.98,0.09
14.442383,0.0016175578,-0.0018495396,-1.3792817E-4,-0.23,-0.98,0.09,21054,10151.80,0,0,165,0.42,-3.22,0.14,-0.23,-0.98,0.09
14.842773,-0.0023824417,1.5046075E-4,-1.3792817E-4,-0.23,-0.97,0.09,21068,10152.20,0,0,0,0.14,-3.08,0.14,-0.23,-0.97,0.09
16.742188,-3.8244156E-4,1.5046075E-4,-0.0021379283,-0.23,-0.98,0.09,21076,10154.10,0,0,165,0.28,-3.08,0.00,-0.23,-0.98,0.09
16.742188,-3.8244156E-4,-8.495413E-4,8.620715E-4,-0.23,-0.98,0.09,21091,10154.10,0,0,0,0.28,-3.15,0.21,-0.23,-0.98,0.09
15.7421875,6.1755814E-4,1.5046075E-4,0.0018620719,-0.23,-0.98,0.09,21106,10153.10,0,0,165,0.35,-3.08,0.28,-0.23,-0.98,0.09
17.042969,-3.8244156E-4,1.5046075E-4,8.620715E-4,-0.23,-0.98,0.09,21120,10154.40,0,0,0,0.28,-3.08,0.21,-0.23,-0.98,0.09
16.142578,6.1755814E-4,0.001150459,-0.0011379282,-0.23,-0.98,0.09,21128,10153.50,0,0,165,0.35,-3.01,0.07,-0.23,-0.98,0.09
15.7421875,6.1755814E-4,1.5046075E-4,8.620715E-4,-0.23,-0.98,0.09,21143,10153.10,0,0,0,0.35,-3.08,0.21,-0.23,-0.98,0.09
17.042969,-3.8244156E-4,1.5046075E-4,0.0018620719,-0.23,-0.98,0.09,21150,10154.40,0,0,165,0.28,-3.08,0.28,-0.23,-0.98,0.09
16.742188,-3.8244156E-4,1.5046075E-4,8.620715E-4,-0.23,-0.98,0.09,21165,10154.10,0,0,0,0.28,-3.08,0.21,-0.23,-0.98,0.09
15.7421875,-3.8244156E-4,1.5046075E-4,-1.3792817E-4,-0.23,-0.98,0.09,21181,10153.10,0,0,165,0.28,-3.08,0.14,-0.23,-0.98,0.09
16.142578,6.1755814E-4,-8.495413E-4,-0.0021379283,-0.23,-0.98,0.09,21188,10153.50,0,0,0,0.35,-3.15,0.00,-0.23,-0.98,0.09
17.042969,6.1755814E-4,1.5046075E-4,-0.0011379282,-0.23,-0.98,0.09,21203,10154.40,0,0,165,0.35,-3.08,0.07,-0.23,-0.98,0.09
16.742188,0.0016175578,1.5046075E-4,8.620715E-4,-0.23,-0.98,0.09,21219,10154.10,0,0,0,0.42,-3.08,0.21,-0.23,-0.98,0.09
16.742188,-3.8244156E-4,0.001150459,8.620715E-4,-0.23,-0.98,0.09,21225,10154.10,0,0,165,0.28,-3.01,0.21,-0.23,-0.98,0.09
