Pressure_Rel,GyroX_Rel,GyroY_Rel,GyroZ_Rel,AccX_Rel,AccY_Rel,AccZ_Rel,Timestamp,Pressure_abs,HeartRate,Oxygen,Status,GyroX,GyroY,GyroZ,AccX,AccY,AccZ
0.0,0.0,0.0,0.0,0.0,0.0,0.0,5795,10183.50,0,0,0,-23.73,-13.58,21.63,-0.17,-0.99,0.06
0.0,0.0,0.0,0.0,0.0,0.0,0.0,5811,10182.50,0,0,0,-156.24,-184.73,219.17,-0.17,-0.99,0.06
0.0,0.0,0.0,0.0,0.0,0.0,0.0,5817,10183.80,0,0,165,5.67,-1.89,0.70,-0.17,-0.99,0.06
0.0,0.0,0.0,0.0,0.0,0.0,0.0,5832,10184.50,0,0,0,0.49,-3.08,0.28,-0.17,-0.99,0.06
0.0,0.0,0.0,0.0,0.0,0.0,0.0,5848,10183.80,0,0,165,0.35,-2.94,0.21,-0.17,-0.99,0.06
0.0,0.0,0.0,0.0,0.0,0.0,0.0,5856,10183.80,0,0,0,0.49,-3.01,0.28,-0.17,-0.99,0.06
0.0,0.0,0.0,0.0,0.0,0.0,0.0,5869,10182.80,0,0,165,0.42,-3.01,0.07,-0.18,-0.99,0.06
0.0,0.0,0.0,0.0,0.0,0.0,0.0,5886,10183.80,0,0,0,0.28,-3.01,0.14,-0.18,-0.99,0.06
0.0,0.0,0.0,0.0,0.0,0.0,0.0,5894,10183.50,0,0,165,0.70,-3.01,0.21,-0.18,-0.99,0.06
0.0,0.0,0.0,0.0,0.0,0.0,0.0,5911,10183.80,0,0,0,0.21,-3.15,0.14,-0.17,-0.99,0.06
0.0,0.0,0.0,0.0,0.0,0.0,0.0,5923,10182.80,0,0,165,0.42,-3.08,0.14,-0.17,-0.99,0.06
0.0,0.0,0.0,0.0,0.0,0.0,0.0,5930,10183.80,0,0,0,0.42,-3.01,0.14,-0.17,-0.99,0.07
0.0,0.0,0.0,0.0,0.0,0.0,0.0,5945,10183.50,0,0,165,0.28,-3.01,0.21,-0.17,-0.99,0.07
0.0,0.0,0.0,0.0,0.0,0.0,0.0,5963,10182.80,0,0,0,0.56,-3.01,0.07,-0.17,-0.99,0.07
0.0,0.0,0.0,0.0,0.0,0.0,0.0,5979,10183.80,0,0,165,0.35,-3.01,0.07,-0.17,-0.99,0.06
0.0,0.0,0.0,0.0,0.0,0.0,0.0,5982,10183.80,0,0,0,0.42,-3.08,0.14,-0.17,-0.99,0.06
0.0,0.0,0.0,0.0,0.0,0.0,0.0,5998,10183.80,0,0,165,0.42,-3.15,0.07,-0.17,-0.99,0.06
0.0,0.0,0.0,0.0,0.0,0.0,0.0,6006,10183.80,0,0,0,0.28,-3.01,0.14,-0.17,-0.99,0.06
0.0,0.0,0.0,0.0,0.0,0.0,0.0,6020,10182.80,0,0,165,0.35,-3.01,0.14,-0.17,-0.99,0.06
0.0,0.0,0.0,0.0,0.0,0.0,0.0,6035,10182.80,0,0,0,0.42,-3.08,0.14,-0.18,-0.99,0.06
0.0,0.0,0.0,0.0,0.0,0.0,0.0,6042,10183.80,0,0,165,0.49,-3.15,0.14,-0.18,-0.99,0.07
0.0,0.0,0.0,0.0,0.0,0.0,0.0,6058,10183.80,0,0,0,0.42,-3.08,0.21,-0.18,-0.99,0.06
0.0,0.0,0.0,0.0,0.0,0.0,0.0,6073,10183.80,0,0,165,0.49,-2.87,0.14,-0.17,-0.99,0.07
0.0,0.0,0.0,0.0,0.0,0.0,0.0,6080,10183.80,0,0,0,0.35,-3.01,0.21,-0.17,-0.99,0.06
0.0,0.0,0.0,0.0,0.0,0.0,0.0,6095,10182.80,0,0,165,0.49,-3.08,0.14,-0.17,-0.99,0.06
0.0,0.0,0.0,0.0,0.0,0.0,0.0,6110,10183.80,0,0,0,0.49,-3.08,0.14,-0.17,-0.99,0.07
0.0,0.0,0.0,0.0,0.0,0.0,0.0,6117,10182.80,0,0,165,0.35,-3.08,0.00,-0.17,-0.99,0.07
0.0,0.0,0.0,0.0,0.0,0.0,0.0,6132,10184.80,0,0,0,0.28,-3.08,0.07,-0.17,-0.99,0.07
0.0,0.0,0.0,0.0,0.0,0.0,0.0,6147,10182.80,0,0,165,0.28,-3.08,0.14,-0.17,-0.99,0.06
0.0,0.0,0.0,0.0,0.0,0.0,0.0,6154,10183.80,0,0,0,0.42,-2.87,0.28,-0.18,-0.99,0.06
0.0,0.0,0.0,0.0,0.0,0.0,0.0,6170,10183.80,0,0,165,0.42,-3.01,0.14,-0.17,-0.99,0.06
0.0,0.0,0.0,0.0,0.0,0.0,0.0,6184,10182.80,0,0,0,0.49,-3.01,0.21,-0.17,-0.99,0.06
0.0,0.0,0.0,0.0,0.0,0.0,0.0,6192,10183.80,0,0,165,0.35,-3.08,0.21,-0.18,-0.99,0.06
0.0,0.0,0.0,0.0,0.0,0.0,0.0,6207,10183.80,0,0,0,0.42,-3.08,0.21,-0.17,-0.99,0.07
0.0,0.0,0.0,0.0,0.0,0.0,0.0,6222,10183.80,0,0,165,0.42,-3.01,0.14,-0.17,-0.99,0.06
0.0,0.0,0.0,0.0,0.0,0.0,0.0,6230,10181.90,0,0,0,0.35,-3.01,0.07,-0.18,-0.99,0.06
0.0,0.0,0.0,0.0,0.0,0.0,0.0,6246,10183.80,0,0,165,0.35,-3.01,0.14,-0.18,-0.99,0.06
0.0,0.0,0.0,0.0,0.0,0.0,0.0,6260,10185.10,0,0,0,0.49,-2.94,0.21,-0.17,-0.99,0.07
0.0,0.0,0.0,0.0,0.0,0.0,0.0,6268,10182.80,0,0,165,0.35,-3.01,0.28,-0.17,-0.99,0.06
0.0,0.0,0.0,0.0,0.0,0.0,0.0,6283,10184.10,0,0,0,0.42,-3.08,0.14,-0.17,-0.99,0.07
0.0,0.0,0.0,0.0,0.0,0.0,0.0,6297,10182.80,0,0,165,0.35,-2.94,0.07,-0.18,-0.99,0.07
0.0,0.0,0.0,0.0,0.0,0.0,0.0,6305,10182.80,0,0,0,0.35,-2.94,0.14,-0.17,-0.99,0.07
0.0,0.0,0.0,0.0,0.0,0.0,0.0,6320,10184.80,0,0,165,0.28,-3.01,0.00,-0.17,-0.99,0.06
0.0,0.0,0.0,0.0,0.0,0.0,0.0,6335,10183.80,0,0,0,0.35,-3.08,0.14,-0.17,-0.99,0.06
0.0,0.0,0.0,0.0,0.0,0.0,0.0,6343,10183.80,0,0,165,0.42,-3.01,0.14,-0.17,-0.99,0.07
0.0,0.0,0.0,0.0,0.0,0.0,0.0,6358,10184.10,0,0,0,0.49,-3.08,0.14,-0.18,-0.99,0.06
0.0,0.0,0.0,0.0,0.0,0.0,0.0,6373,10184.10,0,0,165,0.35,-3.08,0.14,-0.17,-0.98,0.07
0.0,0.0,0.0,0.0,0.0,0.0,0.0,6380,10184.10,0,0,0,0.49,-3.01,0.14,-0.18,-0.99,0.07
0.0,0.0,0.0,0.0,0.0,0.0,0.0,6395,10183.80,0,0,165,0.35,-2.94,0.07,-0.18,-0.99,0.07
0.0,0.0,0.0,0.0,0.0,0.0,0.0,6410,10182.80,0,0,0,0.35,-3.01,0.14,-0.17,-0.99,0.07
0.0,0.0,0.0,0.0,0.0,0.0,0.0,6418,10183.80,0,0,165,0.35,-3.01,-0.07,-0.18,-0.99,0.07
0.0,0.0,0.0,0.0,0.0,0.0,0.0,6433,10183.80,0,0,0,0.35,-2.94,0.21,-0.18,-0.99,0.06
0.0,0.0,0.0,0.0,0.0,0.0,0.0,6447,10181.90,0,0,165,0.42,-3.08,0.14,-0.18,-0.99,0.06
0.0,0.0,0.0,0.0,0.0,0.0,0.0,6455,10183.20,0,0,0,0.35,-2.94,0.07,-0.17,-0.99,0.07
0.0,0.0,0.0,0.0,0.0,0.0,0.0,6470,10184.10,0,0,165,0.42,-3.01,0.14,-0.17,-0.99,0.06
0.0,0.0,0.0,0.0,0.0,0.0,0.0,6485,10183.80,0,0,0,0.35,-3.08,0.14,-0.17,-0.99,0.07
0.0,0.0,0.0,0.0,0.0,0.0,0.0,6493,10182.80,0,0,165,0.35,-3.01,0.14,-0.17,-0.99,0.06
0.0,0.0,0.0,0.0,0.0,0.0,0.0,6507,10184.80,0,0,0,0.49,-3.08,0.14,-0.17,-0.99,0.06
0.0,0.0,0.0,0.0,0.0,0.0,0.0,6523,10183.80,0,0,165,0.35,-3.01,0.14,-0.17,-0.99,0.07
0.0,0.0,0.0,0.0,0.0,0.0,0.0,6529,10183.80,0,0,0,0.42,-3.08,0.00,-0.17,-0.99,0.07
0.0,0.0,0.0,0.0,0.0,0.0,0.0,6545,10185.10,0,0,165,0.49,-3.08,0.14,-0.17,-0.99,0.07
0.0,0.0,0.0,0.0,0.0,0.0,0.0,6560,10183.20,0,0,0,0.42,-3.01,0.14,-0.17,-0.99,0.07
0.0,0.0,0.0,0.0,0.0,0.0,0.0,6567,10184.10,0,0,165,0.49,-3.01,0.21,-0.17,-0.99,0.07
0.0,0.0,0.0,0.0,0.0,0.0,0.0,6582,10183.80,0,0,0,0.35,-2.94,0.07,-0.18,-0.99,0.07
0.0,0.0,0.0,0.0,0.0,0.0,0.0,6597,10184.10,0,0,165,0.35,-3.01,0.14,-0.18,-0.99,0.07
0.0,0.0,0.0,0.0,0.0,0.0,0.0,6606,10183.80,0,0,0,0.42,-3.01,0.21,-0.18,-0.99,0.07
0.0,0.0,0.0,0.0,0.0,0.0,0.0,6620,10183.80,0,0,165,0.35,-3.08,0.07,-0.17,-0.99,0.07
0.0,0.0,0.0,0.0,0.0,0.0,0.0,6635,10184.10,0,0,0,0.42,-3.01,0.00,-0.17,-0.99,0.06
0.0,0.0,0.0,0.0,0.0,0.0,0.0,6645,10182.80,0,0,165,0.42,-3.01,0.14,-0.17,-0.99,0.07
0.0,0.0,0.0,0.0,0.0,0.0,0.0,6658,10182.80,0,0,0,0.35,-2.94,0.21,-0.18,-0.99,0.06
0.0,0.0,0.0,0.0,0.0,0.0,0.0,6674,10184.10,0,0,165,0.42,-3.01,0.07,-0.18,-0.99,0.06
0.0,0.0,0.0,0.0,0.0,0.0,0.0,6680,10183.80,0,0,0,0.49,-3.01,0.21,-0.17,-0.99,0.07
0.0,0.0,0.0,0.0,0.0,0.0,0.0,6697,10184.10,0,0,165,0.35,-2.94,0.21,-0.17,-0.99,0.07
0.0,0.0,0.0,0.0,0.0,0.0,0.0,6710,10184.10,0,0,0,0.56,-3.01,0.14,-0.18,-0.99,0.07
0.0,0.0,0.0,0.0,0.0,0.0,0.0,6717,10184.10,0,0,165,0.28,-3.08,0.00,-0.17,-0.99,0.07
0.0,0.0,0.0,0.0,0.0,0.0,0.0,6733,10183.80,0,0,0,0.28,-3.01,0.00,-0.17,-0.99,0.07
0.0,0.0,0.0,0.0,0.0,0.0,0.0,6748,10184.10,0,0,165,0.42,-3.01,0.14,-0.17,-0.99,0.07
0.0,0.0,0.0,0.0,0.0,0.0,0.0,6755,10183.20,0,0,0,0.35,-3.01,0.07,-0.18,-0.99,0.06
0.0,0.0,0.0,0.0,0.0,0.0,0.0,6770,10184.10,0,0,165,0.35,-2.94,0.21,-0.18,-0.99,0.06
0.0,0.0,0.0,0.0,0.0,0.0,0.0,6785,10184.10,0,0,0,0.42,-2.94,0.14,-0.17,-0.99,0.06
0.0,0.0,0.0,0.0,0.0,0.0,0.0,6793,10183.80,0,0,165,0.35,-2.94,0.14,-0.17,-0.99,0.07
0.0,0.0,0.0,0.0,0.0,0.0,0.0,6809,10184.10,0,0,0,0.42,-3.01,0.21,-0.17,-0.99,0.06
0.0,0.0,0.0,0.0,0.0,0.0,0.0,6823,10184.80,0,0,165,0.42,-2.94,0.07,-0.17,-0.99,0.07
0.0,0.0,0.0,0.0,0.0,0.0,0.0,6830,10183.20,0,0,0,0.35,-3.08,0.14,-0.17,-0.99,0.07
0.0,0.0,0.0,0.0,0.0,0.0,0.0,6845,10183.20,0,0,165,0.49,-3.01,0.28,-0.17,-0.99,0.07
0.0,0.0,0.0,0.0,0.0,0.0,0.0,6859,10183.20,0,0,0,0.42,-3.08,0.14,-0.18,-0.99,0.07
0.0,0.0,0.0,0.0,0.0,0.0,0.0,6867,10184.10,0,0,165,0.56,-3.01,0.21,-0.18,-0.99,0.07
0.0,0.0,0.0,0.0,0.0,0.0,0.0,6882,10182.80,0,0,0,0.42,-2.94,0.21,-0.17,-0.99,0.07
0.0,0.0,0.0,0.0,0.0,0.0,0.0,6898,10183.80,0,0,165,0.42,-3.01,0.21,-0.17,-0.99,0.07
0.0,0.0,0.0,0.0,0.0,0.0,0.0,6905,10182.80,0,0,0,0.28,-3.08,0.07,-0.17,-0.99,0.07
0.0,0.0,0.0,0.0,0.0,0.0,0.0,6920,10184.10,0,0,165,0.28,-2.94,0.07,-0.17,-0.99,0.06
0.0,0.0,0.0,0.0,0.0,0.0,0.0,6935,10184.10,0,0,0,0.56,-3.08,0.14,-0.17,-0.99,0.07
0.0,0.0,0.0,0.0,0.0,0.0,0.0,6942,10182.80,0,0,165,0.28,-2.94,0.07,-0.17,-0.99,0.07
0.0,0.0,0.0,0.0,0.0,0.0,0.0,6960,10184.10,0,0,0,0.56,-3.01,0.14,-0.17,-0.99,0.07
0.0,0.0,0.0,0.0,0.0,0.0,0.0,6973,10184.10,0,0,165,0.42,-2.94,0.21,-0.18,-0.99,0.07
0.0,0.0,0.0,0.0,0.0,0.0,0.0,6980,10183.20,0,0,0,0.49,-3.01,0.21,-0.17,-0.99,0.07
0.0,0.0,0.0,0.0,0.0,0.0,0.0,6999,10185.10,0,0,165,0.49,-3.01,0.21,-0.17,-0.99,0.07
0.0,0.0,0.0,0.0,0.0,0.0,0.0,7010,10184.10,0,0,0,0.42,-2.94,0.14,-0.17,-0.99,0.07
0.0,0.0,0.0,0.0,0.0,0.0,0.0,7017,10182.80,0,0,165,0.49,-3.08,0.21,-0.17,-0.99,0.07
0.0,0.0,0.0,0.0,0.0,0.0,0.0,7032,10184.10,0,0,0,0.42,-3.01,0.21,-0.18,-0.99,0.07
0.0,0.0,0.0,0.0,0.0,0.0,0.0,7048,10184.10,0,0,165,0.28,-3.01,0.14,-0.17,-0.99,0.07
0.0,0.0,0.0,0.0,0.0,0.0,0.0,7055,10184.10,0,0,0,0.35,-3.01,0.14,-0.18,-0.99,0.07
0.0,0.0,0.0,0.0,0.0,0.0,0.0,7070,10185.10,0,0,165,0.42,-3.01,0.07,-0.17,-0.99,0.07
0.0,0.0,0.0,0.0,0.0,0.0,0.0,7085,10184.10,0,0,0,0.42,-2.94,0.07,-0.17,-0.99,0.07
0.0,0.0,0.0,0.0,0.0,0.0,0.0,7093,10183.20,0,0,165,0.49,-2.94,0.07,-0.17,-0.99,0.07
0.0,0.0,0.0,0.0,0.0,0.0,0.0,7110,10184.10,0,0,0,0.35,-3.01,0.21,-0.17,-0.99,0.06
0.0,0.0,0.0,0.0,0.0,0.0,0.0,7122,10184.10,0,0,165,0.49,-3.01,0.14,-0.17,-0.99,0.07
0.0,0.0,0.0,0.0,0.0,0.0,0.0,7129,10184.10,0,0,0,0.42,-3.15,0.14,-0.17,-0.99,0.07
0.0,0.0,0.0,0.0,0.0,0.0,0.0,7145,10183.80,0,0,165,0.28,-3.01,0.14,-0.18,-0.99,0.07
0.0,0.0,0.0,0.0,0.0,0.0,0.0,7160,10183.80,0,0,0,0.42,-3.01,0.00,-0.18,-0.99,0.07
0.0,0.0,0.0,0.0,0.0,0.0,0.0,7168,10183.20,0,0,165,0.42,-3.15,0.28,-0.17,-0.99,0.07
0.0,0.0,0.0,0.0,0.0,0.0,0.0,7182,10184.10,0,0,0,0.56,-2.94,0.07,-0.18,-0.99,0.07
0.0,0.0,0.0,0.0,0.0,0.0,0.0,7197,10184.10,0,0,165,0.28,-3.01,0.07,-0.18,-0.99,0.07
0.0,0.0,0.0,0.0,0.0,0.0,0.0,7204,10184.10,0,0,0,0.35,-2.94,0.14,-0.17,-0.99,0.07
0.0,0.0,0.0,0.0,0.0,0.0,0.0,7220,10183.20,0,0,165,0.42,-3.08,0.21,-0.18,-0.99,0.07
0.0,0.0,0.0,0.0,0.0,0.0,0.0,7235,10183.20,0,0,0,0.21,-3.01,0.00,-0.17,-0.99,0.07
0.0,0.0,0.0,0.0,0.0,0.0,0.0,7243,10183.20,0,0,165,0.35,-3.01,0.07,-0.18,-0.99,0.07
0.0,0.0,0.0,0.0,0.0,0.0,0.0,7260,10184.10,0,0,0,0.56,-3.01,0.21,-0.17,-0.99,0.06
0.0,0.0,0.0,0.0,0.0,0.0,0.0,7274,10184.10,0,0,165,0.49,-2.87,0.14,-0.17,-0.99,0.07
0.0,0.0,0.0,0.0,0.0,0.0,0.0,7280,10183.20,0,0,0,0.42,-3.01,0.07,-0.17,-0.99,0.07
0.0,0.0,0.0,0.0,0.0,0.0,0.0,7295,10183.20,0,0,165,0.42,-3.01,0.21,-0.17,-0.99,0.07
0.0,0.0,0.0,0.0,0.0,0.0,0.0,7311,10184.10,0,0,0,0.49,-3.01,0.14,-0.18,-0.99,0.07
0.0,0.0,0.0,0.0,0.0,0.0,0.0,7317,10184.10,0,0,165,0.35,-2.94,0.00,-0.18,-0.99,0.07
0.0,0.0,0.0,0.0,0.0,0.0,0.0,7332,10183.20,0,0,0,0.49,-3.01,0.07,-0.18,-0.99,0.07
0.0,0.0,0.0,0.0,0.0,0.0,0.0,7347,10184.10,0,0,165,0.49,-3.08,0.07,-0.17,-0.99,0.07
0.0,0.0,0.0,0.0,0.0,0.0,0.0,7355,10183.20,0,0,0,0.42,-3.01,0.21,-0.17,-0.99,0.07
0.0,0.0,0.0,0.0,0.0,0.0,0.0,7371,10184.10,0,0,165,0.42,-3.01,0.00,-0.18,-0.99,0.07
0.0,0.0,0.0,0.0,0.0,0.0,0.0,7385,10184.10,0,0,0,0.28,-3.01,0.07,-0.17,-0.99,0.07
0.0,0.0,0.0,0.0,0.0,0.0,0.0,7392,10183.20,0,0,165,0.56,-3.08,0.07,-0.18,-0.99,0.07
0.0,0.0,0.0,0.0,0.0,0.0,0.0,7408,10183.20,0,0,0,0.35,-3.01,0.14,-0.17,-0.99,0.07
0.0,0.0,0.0,0.0,0.0,0.0,0.0,7422,10184.10,0,0,165,0.35,-2.87,0.07,-0.18,-0.99,0.06
0.0,0.0,0.0,0.0,0.0,0.0,0.0,7430,10183.20,0,0,0,0.49,-3.01,0.07,-0.17,-0.99,0.07
0.0,0.0,0.0,0.0,0.0,0.0,0.0,7445,10184.10,0,0,165,0.35,-3.01,0.21,-0.17,-0.99,0.07
0.0,0.0,0.0,0.0,0.0,0.0,0.0,7460,10184.10,0,0,0,0.42,-3.01,0.14,-0.17,-0.99,0.07
0.0,0.0,0.0,0.0,0.0,0.0,0.0,7467,10183.20,0,0,165,0.35,-3.01,0.07,-0.17,-0.99,0.07
0.0,0.0,0.0,0.0,0.0,0.0,0.0,7482,10183.20,0,0,0,0.35,-3.08,0.14,-0.18,-0.99,0.07
0.0,0.0,0.0,0.0,0.0,0.0,0.0,7497,10185.10,0,0,165,0.49,-3.01,0.14,-0.18,-0.99,0.07
0.0,0.0,0.0,0.0,0.0,0.0,0.0,7504,10183.20,0,0,0,0.28,-3.01,0.00,-0.18,-0.99,0.07
0.0,0.0,0.0,0.0,0.0,0.0,0.0,7519,10184.10,0,0,165,0.49,-2.94,0.14,-0.18,-0.99,0.07
0.0,0.0,0.0,0.0,0.0,0.0,0.0,7534,10184.10,0,0,0,0.42,-2.94,0.07,-0.18,-0.99,0.07
0.0,0.0,0.0,0.0,0.0,0.0,0.0,7542,10183.20,0,0,165,0.35,-3.01,0.07,-0.17,-0.99,0.06
0.0,0.0,0.0,0.0,0.0,0.0,0.0,7559,10183.20,0,0,0,0.56,-2.94,0.14,-0.17,-0.99,0.07
0.0,0.0,0.0,0.0,0.0,0.0,0.0,7572,10184.10,0,0,165,0.35,-3.01,0.07,-0.18,-0.99,0.07
0.0,0.0,0.0,0.0,0.0,0.0,0.0,7580,10184.10,0,0,0,0.35,-3.08,0.00,-0.17,-0.99,0.07
0.0,0.0,0.0,0.0,0.0,0.0,0.0,7594,10183.20,0,0,165,0.35,-3.01,0.07,-0.17,-0.99,0.07
0.0,0.0,0.0,0.0,0.0,0.0,0.0,7610,10182.20,0,0,0,0.49,-3.01,0.21,-0.17,-0.99,0.07
0.0,0.0,0.0,0.0,0.0,0.0,0.0,7618,10184.10,0,0,165,0.28,-3.01,0.07,-0.18,-0.99,0.07
0.0,0.0,0.0,0.0,0.0,0.0,0.0,7633,10185.10,0,0,0,0.28,-2.94,0.14,-0.18,-0.99,0.06
0.0,0.0,0.0,0.0,0.0,0.0,0.0,7648,10184.10,0,0,165,0.35,-3.01,0.07,-0.18,-0.99,0.07
0.0,0.0,0.0,0.0,0.0,0.0,0.0,7655,10184.10,0,0,0,0.28,-3.01,0.07,-0.18,-0.99,0.06
0.0,0.0,0.0,0.0,0.0,0.0,0.0,7670,10183.20,0,0,165,0.35,-3.01,0.14,-0.18,-0.99,0.07
0.0,0.0,0.0,0.0,0.0,0.0,0.0,7685,10184.10,0,0,0,0.42,-2.94,0.21,-0.17,-0.99,0.07
0.0,0.0,0.0,0.0,0.0,0.0,0.0,7693,10184.10,0,0,165,0.56,-3.08,0.28,-0.17,-0.99,0.07
0.0,0.0,0.0,0.0,0.0,0.0,0.0,7710,10184.10,0,0,0,0.63,-3.01,0.35,-0.18,-0.99,0.07
0.0,0.0,0.0,0.0,0.0,0.0,0.0,7726,10184.10,0,0,165,0.42,-3.01,0.07,-0.18,-0.99,0.07
0.0,0.0,0.0,0.0,0.0,0.0,0.0,7730,10184.10,0,0,0,0.07,-3.01,0.14,-0.18,-0.99,0.07
0.0,0.0,0.0,0.0,0.0,0.0,0.0,7745,10184.10,0,0,165,0.49,-3.08,0.14,-0.17,-0.99,0.07
0.0,0.0,0.0,0.0,0.0,0.0,0.0,7760,10184.10,0,0,0,0.14,-2.94,-17.92,-0.17,-0.99,0.07
0.0,0.0,0.0,0.0,0.0,0.0,0.0,7767,10184.10,0,0,165,0.14,-2.94,-0.14,-0.17,-0.99,0.06
0.0,0.0,0.0,0.0,0.0,0.0,0.0,7782,10183.20,0,0,0,0.35,-2.87,0.07,-0.17,-0.99,0.06
0.0,0.0,0.0,0.0,0.0,0.0,0.0,7797,10183.20,0,0,165,0.35,-3.08,0.35,-0.17,-0.99,0.06
0.0,0.0,0.0,0.0,0.0,0.0,0.0,7805,10183.20,0,0,0,0.49,-3.08,0.14,-0.17,-0.99,0.06
0.0,0.0,0.0,0.0,0.0,0.0,0.0,7820,10185.10,0,0,165,0.35,-3.01,0.21,-0.17,-0.99,0.07
0.0,0.0,0.0,0.0,0.0,0.0,0.0,7834,10185.10,0,0,0,0.70,-3.08,0.35,-0.17,-0.99,0.07
0.0,0.0,0.0,0.0,0.0,0.0,0.0,7842,10183.20,0,0,165,0.70,-3.01,0.28,-0.18,-0.99,0.07
0.0,0.0,0.0,0.0,0.0,0.0,0.0,7857,10184.10,0,0,0,0.35,-3.08,0.00,-0.18,-0.99,0.07
0.0,0.0,0.0,0.0,0.0,0.0,0.0,7873,10184.50,0,0,165,0.07,-2.94,0.00,-0.18,-0.99,0.07
0.0,0.0,0.0,0.0,0.0,0.0,0.0,7880,10183.20,0,0,0,0.49,-3.15,0.14,-0.18,-0.99,0.07
0.0,0.0,0.0,0.0,0.0,0.0,0.0,7895,10184.10,0,0,165,0.42,-2.94,-0.14,-0.18,-0.99,0.07
0.0,0.0,0.0,0.0,0.0,0.0,0.0,7910,10183.20,0,0,0,0.00,-2.94,-0.21,-0.17,-0.99,0.07
0.0,0.0,0.0,0.0,0.0,0.0,0.0,7918,10184.10,0,0,165,0.63,-3.08,0.28,-0.17,-0.99,0.07
0.0,0.0,0.0,0.0,0.0,0.0,0.0,7933,10184.10,0,0,0,0.63,-3.01,0.42,-0.17,-0.99,0.07
0.0,0.0,0.0,0.0,0.0,0.0,0.0,7948,10184.10,0,0,165,0.35,-2.80,0.14,-0.18,-0.99,0.07
0.0,0.0,0.0,0.0,0.0,0.0,0.0,7955,10183.20,0,0,0,-0.49,-2.66,-0.63,-0.18,-0.99,0.06
0.0,0.0,0.0,0.0,0.0,0.0,0.0,7970,10184.10,0,0,165,-0.21,-3.08,0.14,-0.17,-0.97,0.05
0.0,0.0,0.0,0.0,0.0,0.0,0.0,7990,10183.20,0,0,0,1.75,-3.08,0.35,-0.18,-1.01,0.07
0.0,0.0,0.0,0.0,0.0,0.0,0.0,7995,10183.20,0,0,165,-0.84,-3.29,0.35,-0.17,-0.98,0.06
0.0,0.0,0.0,0.0,0.0,0.0,0.0,8009,10184.10,0,0,0,1.89,-2.94,0.21,-0.17,-0.99,0.07
0.0,0.0,0.0,0.0,0.0,0.0,0.0,8025,10184.10,0,0,165,0.42,-3.08,0.49,-0.17,-1.00,0.08
0.0,0.0,0.0,0.0,0.0,0.0,0.0,8030,10183.20,0,0,0,0.07,-3.08,0.56,-0.17,-0.97,0.07
0.0,0.0,0.0,0.0,0.0,0.0,0.0,8044,10184.10,0,0,165,1.33,-2.94,0.14,-0.18,-1.00,0.09
0.0,0.0,0.0,0.0,0.0,0.0,0.0,8059,10183.20,0,0,0,-1.05,-3.01,-0.14,-0.17,-0.98,0.07
0.0,0.0,0.0,0.0,0.0,0.0,0.0,8067,10183.20,0,0,165,0.98,-2.87,0.00,-0.18,-0.98,0.07
0.0,0.0,0.0,0.0,0.0,0.0,0.0,8082,10184.10,0,0,0,-0.21,-3.08,-0.07,-0.18,-1.00,0.07
0.0,0.0,0.0,0.0,0.0,0.0,0.0,8098,10183.20,0,0,165,-0.21,-2.87,-0.07,-0.17,-0.98,0.05
0.0,0.0,0.0,0.0,0.0,0.0,0.0,8104,10184.10,0,0,0,1.12,-2.94,0.07,-0.18,-1.00,0.06
0.0,0.0,0.0,0.0,0.0,0.0,0.0,8120,10184.10,0,0,165,-0.07,-3.08,0.28,-0.18,-0.99,0.06
0.0,0.0,0.0,0.0,0.0,0.0,0.0,8135,10184.10,0,0,0,0.70,-3.08,0.28,-0.17,-0.99,0.06
0.0,0.0,0.0,0.0,0.0,0.0,0.0,8142,10184.10,0,0,165,0.56,-3.15,0.28,-0.17,-1.00,0.07
0.0,0.0,0.0,0.0,0.0,0.0,0.0,8158,10183.20,0,0,0,0.21,-3.01,0.21,-0.17,-0.98,0.07
0.0,0.0,0.0,0.0,0.0,0.0,0.0,8175,10183.20,0,0,165,0.77,-3.01,0.28,-0.17,-0.99,0.07
0.0,0.0,0.0,0.0,0.0,0.0,0.0,8180,10183.20,0,0,0,0.21,-2.94,0.14,-0.18,-0.99,0.07
0.0,0.0,0.0,0.0,0.0,0.0,0.0,8195,10184.10,0,0,165,0.49,-3.01,0.21,-0.17,-0.99,0.07
0.0,0.0,0.0,0.0,0.0,0.0,0.0,8210,10184.10,0,0,0,0.49,-3.01,0.07,-0.18,-0.99,0.07
0.0,0.0,0.0,0.0,0.0,0.0,0.0,8217,10183.20,0,0,165,0.21,-2.94,-0.14,-0.18,-0.99,0.07
0.0,0.0,0.0,0.0,0.0,0.0,0.0,8233,10184.10,0,0,0,0.42,-3.01,0.14,-0.17,-0.99,0.06
0.0,0.0,0.0,0.0,0.0,0.0,0.0,8248,10183.20,0,0,165,0.21,-3.01,0.07,-0.18,-0.99,0.06
0.0,0.0,0.0,0.0,0.0,0.0,0.0,8255,10184.10,0,0,0,0.42,-3.15,0.07,-0.17,-0.99,0.06
0.0,0.0,0.0,0.0,0.0,0.0,0.0,8270,10184.10,0,0,165,0.56,-3.01,0.21,-0.17,-0.99,0.06
0.0,0.0,0.0,0.0,0.0,0.0,0.0,8285,10183.20,0,0,0,0.49,-3.01,0.28,-0.17,-0.99,0.07
0.0,0.0,0.0,0.0,0.0,0.0,0.0,8293,10184.10,0,0,165,0.77,-2.94,0.35,-0.18,-0.99,0.07
0.0,0.0,0.0,0.0,0.0,0.0,0.0,8308,10184.10,0,0,0,0.70,-3.08,0.35,-0.18,-0.99,0.07
0.0,0.0,0.0,0.0,0.0,0.0,0.0,8322,10184.10,0,0,165,0.35,-2.94,0.14,-0.17,-0.99,0.07
0.0,0.0,0.0,0.0,0.0,0.0,0.0,8330,10183.20,0,0,0,0.49,-2.94,0.21,-0.17,-0.99,0.07
0.0,0.0,0.0,0.0,0.0,0.0,0.0,8346,10184.10,0,0,165,0.07,-3.01,0.07,-0.17,-0.99,0.07
0.0,0.0,0.0,0.0,0.0,0.0,0.0,8362,10183.20,0,0,0,0.35,-3.01,0.00,-0.17,-0.99,0.07
0.0,0.0,0.0,0.0,0.0,0.0,0.0,8368,10183.20,0,0,165,0.49,-3.01,0.00,-0.17,-0.99,0.07
0.0,0.0,0.0,0.0,0.0,0.0,0.0,8383,10184.50,0,0,0,0.35,-3.01,0.07,-0.17,-0.99,0.06
0.0,0.0,0.0,0.0,0.0,0.0,0.0,8397,10184.10,0,0,165,0.42,-3.01,0.07,-0.17,-0.99,0.06
0.0,0.0,0.0,0.0,0.0,0.0,0.0,8404,10183.20,0,0,0,0.28,-3.01,0.07,-0.17,-0.99,0.06
0.0,0.0,0.0,0.0,0.0,0.0,0.0,8419,10184.10,0,0,165,0.35,-3.01,0.00,-0.17,-0.99,0.06
0.0,0.0,0.0,0.0,0.0,0.0,0.0,8434,10183.50,0,0,0,0.63,-2.94,0.28,-0.17,-0.99,0.07
0.0,0.0,0.0,0.0,0.0,0.0,0.0,8442,10183.20,0,0,165,0.35,-3.01,0.42,-0.17,-0.99,0.07
0.0,0.0,0.0,0.0,0.0,0.0,0.0,8457,10184.10,0,0,0,0.63,-3.08,0.21,-0.17,-0.99,0.07
0.0,0.0,0.0,0.0,0.0,0.0,0.0,8472,10184.10,0,0,165,0.49,-2.94,0.07,-0.18,-0.99,0.07
0.0,0.0,0.0,0.0,0.0,0.0,0.0,8480,10183.20,0,0,0,0.42,-3.01,0.21,-0.18,-0.99,0.07
0.0,0.0,0.0,0.0,0.0,0.0,0.0,8494,10185.10,0,0,165,0.42,-3.01,0.00,-0.18,-0.99,0.07
0.0,0.0,0.0,0.0,0.0,0.0,0.0,8510,10184.10,0,0,0,0.28,-3.01,0.00,-0.17,-0.99,0.07
0.0,0.0,0.0,0.0,0.0,0.0,0.0,8517,10184.10,0,0,165,0.35,-3.01,0.00,-0.17,-0.99,0.07
0.0,0.0,0.0,0.0,0.0,0.0,0.0,8533,10183.20,0,0,0,0.42,-2.94,0.07,-0.18,-0.99,0.06
0.0,0.0,0.0,0.0,0.0,0.0,0.0,8547,10183.20,0,0,165,0.28,-2.94,0.14,-0.17,-0.99,0.06
0.0,0.0,0.0,0.0,0.0,0.0,0.0,8555,10184.10,0,0,0,0.63,-3.01,0.07,-0.17,-0.99,0.07
0.0,0.0,0.0,0.0,0.0,0.0,0.0,8570,10184.10,0,0,165,0.49,-2.94,0.28,-0.17,-0.99,0.07
0.0,0.0,0.0,0.0,0.0,0.0,0.0,8584,10184.10,0,0,0,0.42,-3.01,0.21,-0.17,-0.99,0.07
0.0,0.0,0.0,0.0,0.0,0.0,0.0,8593,10183.50,0,0,165,0.56,-3.08,0.07,-0.17,-0.99,0.07
0.0,0.0,0.0,0.0,0.0,0.0,0.0,8609,10184.10,0,0,0,0.28,-2.94,0.21,-0.17,-0.99,0.07
0.0,0.0,0.0,0.0,0.0,0.0,0.0,8622,10183.20,0,0,165,0.70,-3.01,0.21,-0.18,-0.99,0.07
0.0,0.0,0.0,0.0,0.0,0.0,0.0,8630,10184.10,0,0,0,0.35,-3.01,0.14,-0.17,-0.99,0.07
0.0,0.0,0.0,0.0,0.0,0.0,0.0,8645,10184.50,0,0,165,0.42,-2.94,0.21,-0.18,-0.99,0.07
0.0,0.0,0.0,0.0,0.0,0.0,0.0,8660,10183.20,0,0,0,0.56,-3.01,0.14,-0.18,-0.99,0.07
0.0,0.0,0.0,0.0,0.0,0.0,0.0,8667,10184.10,0,0,165,0.14,-3.01,0.07,-0.17,-0.99,0.07
0.0,0.0,0.0,0.0,0.0,0.0,0.0,8682,10183.20,0,0,0,0.42,-3.08,0.00,-0.18,-0.99,0.07
0.0,0.0,0.0,0.0,0.0,0.0,0.0,8698,10184.10,0,0,165,0.28,-3.08,0.00,-0.18,-0.99,0.07
0.0,0.0,0.0,0.0,0.0,0.0,0.0,8705,10184.10,0,0,0,0.28,-3.01,0.21,-0.18,-0.99,0.07
0.0,0.0,0.0,0.0,0.0,0.0,0.0,8720,10184.10,0,0,165,0.63,-3.01,0.21,-0.17,-0.99,0.07
0.0,0.0,0.0,0.0,0.0,0.0,0.0,8735,10183.20,0,0,0,0.35,-2.94,0.21,-0.17,-0.99,0.07
0.0,0.0,0.0,0.0,0.0,0.0,0.0,8743,10184.10,0,0,165,0.49,-3.01,0.21,-0.17,-0.99,0.07
0.0,0.0,0.0,0.0,0.0,0.0,0.0,8758,10184.10,0,0,0,0.35,-2.94,0.14,-0.17,-0.99,0.07
0.0,0.0,0.0,0.0,0.0,0.0,0.0,8773,10184.10,0,0,165,0.28,-2.87,0.21,-0.17,-0.99,0.07
0.0,0.0,0.0,0.0,0.0,0.0,0.0,8780,10184.10,0,0,0,0.49,-3.08,0.14,-0.18,-0.99,0.07
0.0,0.0,0.0,0.0,0.0,0.0,0.0,8797,10184.10,0,0,165,0.28,-3.08,0.07,-0.18,-0.99,0.07
0.0,0.0,0.0,0.0,0.0,0.0,0.0,8810,10183.20,0,0,0,0.28,-3.08,0.00,-0.17,-0.99,0.06
0.0,0.0,0.0,0.0,0.0,0.0,0.0,8817,10184.10,0,0,165,0.56,-3.08,0.14,-0.18,-0.99,0.06
0.0,0.0,0.0,0.0,0.0,0.0,0.0,8832,10183.20,0,0,0,0.42,-3.01,0.14,-0.18,-0.99,0.07
0.0,0.0,0.0,0.0,0.0,0.0,0.0,8839,10183.20,0,0,165,0.49,-3.01,0.28,-0.17,-0.99,0.07
0.0,0.0,0.0,0.0,0.0,0.0,0.0,8854,10183.20,0,0,0,0.35,-3.01,0.21,-0.18,-0.99,0.07
0.0,0.0,0.0,0.0,0.0,0.0,0.0,8870,10184.10,0,0,165,0.49,-3.01,0.14,-0.18,-0.99,0.07
0.0,0.0,0.0,0.0,0.0,0.0,0.0,8878,10184.10,0,0,0,0.35,-3.01,0.21,-0.18,-0.99,0.07
0.0,0.0,0.0,0.0,0.0,0.0,0.0,8893,10184.50,0,0,165,0.21,-3.08,0.00,-0.18,-0.99,0.07
0.0,0.0,0.0,0.0,0.0,0.0,0.0,8907,10184.10,0,0,0,0.28,-3.01,0.00,-0.17,-0.99,0.07
0.0,0.0,0.0,0.0,0.0,0.0,0.0,8915,10184.10,0,0,165,0.35,-3.01,0.07,-0.17,-0.99,0.07
0.0,0.0,0.0,0.0,0.0,0.0,0.0,8930,10184.10,0,0,0,0.35,-2.94,0.07,-0.17,-0.99,0.06
0.0,0.0,0.0,0.0,0.0,0.0,0.0,8937,10184.10,0,0,165,0.35,-3.01,0.07,-0.17,-0.99,0.07
0.0,0.0,0.0,0.0,0.0,0.0,0.0,8952,10184.10,0,0,0,0.42,-2.94,0.21,-0.17,-0.99,0.07
0.0,0.0,0.0,0.0,0.0,0.0,0.0,8968,10184.50,0,0,165,0.49,-3.01,0.21,-0.17,-0.99,0.07
0.0,0.0,0.0,0.0,0.0,0.0,0.0,8975,10183.20,0,0,0,0.49,-3.01,0.14,-0.17,-0.99,0.07
0.0,0.0,0.0,0.0,0.0,0.0,0.0,8990,10184.10,0,0,165,0.42,-3.08,0.14,-0.17,-0.99,0.07
0.0,0.0,0.0,0.0,0.0,0.0,0.0,9004,10184.10,0,0,0,0.56,-2.94,0.28,-0.17,-0.99,0.07
0.0,0.0,0.0,0.0,0.0,0.0,0.0,9012,10184.10,0,0,165,0.42,-2.94,0.28,-0.17,-0.99,0.07
0.0,0.0,0.0,0.0,0.0,0.0,0.0,9033,10184.50,0,0,0,0.49,-2.94,0.21,-0.18,-0.99,0.07
0.0,0.0,0.0,0.0,0.0,0.0,0.0,9042,10184.10,0,0,165,0.56,-2.94,0.14,-0.18,-0.99,0.07
0.0,0.0,0.0,0.0,0.0,0.0,0.0,9050,10184.10,0,0,0,0.21,-3.01,0.07,-0.18,-0.99,0.07
0.0,0.0,0.0,0.0,0.0,0.0,0.0,9065,10184.50,0,0,165,0.42,-3.08,0.00,-0.18,-0.99,0.06
0.0,0.0,0.0,0.0,0.0,0.0,0.0,9079,10184.50,0,0,0,0.42,-3.08,0.00,-0.18,-0.99,0.07
0.0,0.0,0.0,0.0,0.0,0.0,0.0,9087,10183.20,0,0,165,0.35,-3.01,0.21,-0.17,-0.99,0.06
0.0,0.0,0.0,0.0,0.0,0.0,0.0,9102,10184.10,0,0,0,0.63,-3.01,0.21,-0.17,-0.99,0.07
0.0,0.0,0.0,0.0,0.0,0.0,0.0,9117,10183.20,0,0,165,0.35,-3.01,0.21,-0.17,-0.99,0.07
0.0,0.0,0.0,0.0,0.0,0.0,0.0,9125,10184.10,0,0,0,0.42,-2.94,0.00,-0.17,-0.99,0.07
0.0,0.0,0.0,0.0,0.0,0.0,0.0,9140,10184.10,0,0,165,0.42,-3.01,0.14,-0.17,-0.99,0.07
0.0,0.0,0.0,0.0,0.0,0.0,0.0,9154,10185.50,0,0,0,0.42,-3.08,0.07,-0.17,-0.99,0.07
0.0,0.0,0.0,0.0,0.0,0.0,0.0,9162,10183.50,0,0,165,0.70,-2.87,0.21,-0.17,-0.99,0.07
0.0,0.0,0.0,0.0,0.0,0.0,0.0,9177,10185.50,0,0,0,0.14,-3.01,0.00,-0.18,-0.99,0.07
0.0,0.0,0.0,0.0,0.0,0.0,0.0,9192,10184.10,0,0,165,0.63,-2.94,0.14,-0.17,-0.99,0.06
0.0,0.0,0.0,0.0,0.0,0.0,0.0,9200,10184.50,0,0,0,0.42,-2.87,0.07,-0.18,-0.99,0.07
0.0,0.0,0.0,0.0,0.0,0.0,0.0,9215,10184.10,0,0,165,0.28,-3.01,0.00,-0.18,-0.98,0.06
0.0,0.0,0.0,0.0,0.0,0.0,0.0,9230,10184.10,0,0,0,0.56,-3.08,0.07,-0.18,-0.99,0.07
0.0,0.0,0.0,0.0,0.0,0.0,0.0,9238,10184.10,0,0,165,0.35,-3.08,0.14,-0.18,-0.99,0.07
0.0,0.0,0.0,0.0,0.0,0.0,0.0,9252,10184.50,0,0,0,0.56,-3.08,0.21,-0.18,-0.99,0.07
0.0,0.0,0.0,0.0,0.0,0.0,0.0,9268,10183.20,0,0,165,0.42,-3.08,0.07,-0.17,-0.99,0.07
0.0,0.0,0.0,0.0,0.0,0.0,0.0,9275,10184.10,0,0,0,0.42,-3.01,0.07,-0.17,-0.99,0.07
0.0,0.0,0.0,0.0,0.0,0.0,0.0,9290,10184.10,0,0,165,0.49,-2.94,0.07,-0.17,-0.99,0.07
0.0,0.0,0.0,0.0,0.0,0.0,0.0,9304,10184.50,0,0,0,0.42,-2.94,0.21,-0.17,-0.99,0.07
0.0,0.0,0.0,0.0,0.0,0.0,0.0,9312,10184.10,0,0,165,0.49,-2.94,0.21,-0.17,-0.99,0.07
0.0,0.0,0.0,0.0,0.0,0.0,0.0,9328,10184.10,0,0,0,0.28,-3.01,0.07,-0.18,-0.99,0.07
0.0,0.0,0.0,0.0,0.0,0.0,0.0,9343,10183.20,0,0,165,0.49,-3.01,0.00,-0.18,-0.99,0.06
0.0,0.0,0.0,0.0,0.0,0.0,0.0,9350,10184.10,0,0,0,0.28,-3.08,0.07,-0.18,-0.99,0.06
0.0,0.0,0.0,0.0,0.0,0.0,0.0,9365,10184.50,0,0,165,0.49,-3.08,0.14,-0.18,-0.99,0.06
0.0,0.0,0.0,0.0,0.0,0.0,0.0,9379,10184.10,0,0,0,0.35,-3.01,0.21,-0.18,-0.99,0.06
0.0,0.0,0.0,0.0,0.0,0.0,0.0,9387,10183.50,0,0,165,0.42,-3.08,0.07,-0.17,-0.99,0.07
0.0,0.0,0.0,0.0,0.0,0.0,0.0,9401,10184.10,0,0,0,0.56,-2.94,0.28,-0.17,-0.99,0.07
0.0,0.0,0.0,0.0,0.0,0.0,0.0,9417,10184.10,0,0,165,0.42,-3.01,0.21,-0.17,-0.99,0.07
0.0,0.0,0.0,0.0,0.0,0.0,0.0,9426,10184.10,0,0,0,0.42,-3.01,0.21,-0.17,-0.99,0.07
0.0,0.0,0.0,0.0,0.0,0.0,0.0,9440,10184.50,0,0,165,0.28,-3.08,0.28,-0.17,-0.99,0.07
0.0,0.0,0.0,0.0,0.0,0.0,0.0,9455,10185.50,0,0,0,0.49,-3.08,0.00,-0.17,-0.99,0.07
0.0,0.0,0.0,0.0,0.0,0.0,0.0,9463,10184.10,0,0,165,0.28,-3.01,0.00,-0.17,-0.99,0.07
0.0,0.0,0.0,0.0,0.0,0.0,0.0,9477,10183.20,0,0,0,0.35,-3.08,0.14,-0.17,-0.99,0.07
0.0,0.0,0.0,0.0,0.0,0.0,0.0,9492,10183.20,0,0,165,0.49,-3.08,0.00,-0.18,-0.99,0.06
0.0,0.0,0.0,0.0,0.0,0.0,0.0,9499,10184.10,0,0,0,0.21,-3.08,0.00,-0.17,-0.99,0.06
0.0,0.0,0.0,0.0,0.0,0.0,0.0,9515,10183.20,0,0,165,0.49,-2.94,0.28,-0.18,-0.99,0.07
0.0,0.0,0.0,0.0,0.0,0.0,0.0,9529,10186.10,0,0,0,0.49,-3.01,0.21,-0.17,-0.99,0.07
0.0,0.0,0.0,0.0,0.0,0.0,0.0,9537,10184.10,0,0,165,0.42,-2.94,0.14,-0.17,-0.99,0.07
0.0,0.0,0.0,0.0,0.0,0.0,0.0,9553,10183.20,0,0,0,0.56,-3.01,0.14,-0.18,-0.99,0.07
0.0,0.0,0.0,0.0,0.0,0.0,0.0,9567,10184.10,0,0,165,0.35,-3.01,0.07,-0.17,-0.99,0.07
0.0,0.0,0.0,0.0,0.0,0.0,0.0,9576,10183.20,0,0,0,0.49,-3.01,0.14,-0.18,-0.99,0.07
0.0,0.0,0.0,0.0,0.0,0.0,0.0,9590,10184.10,0,0,165,0.42,-3.01,0.00,-0.18,-0.99,0.07
0.0,0.0,0.0,0.0,0.0,0.0,0.0,9605,10183.20,0,0,0,0.14,-3.01,0.07,-0.18,-0.99,0.07
0.0,0.0,0.0,0.0,0.0,0.0,0.0,9612,10184.50,0,0,165,0.63,-3.01,0.21,-0.17,-0.99,0.07
0.0,0.0,0.0,0.0,0.0,0.0,0.0,9627,10184.50,0,0,0,0.35,-2.94,0.21,-0.17,-0.99,0.07
0.0,0.0,0.0,0.0,0.0,0.0,0.0,9642,10184.50,0,0,165,0.28,-2.94,0.14,-0.17,-0.98,0.06
0.0,0.0,0.0,0.0,0.0,0.0,0.0,9650,10183.50,0,0,0,0.56,-3.08,0.14,-0.17,-0.99,0.07
0.0,0.0,0.0,0.0,0.0,0.0,0.0,9664,10184.10,0,0,165,0.28,-2.94,0.14,-0.17,-0.99,0.07
0.0,0.0,0.0,0.0,0.0,0.0,0.0,9679,10184.10,0,0,0,0.56,-3.01,0.07,-0.17,-0.99,0.07
0.0,0.0,0.0,0.0,0.0,0.0,0.0,9687,10183.20,0,0,165,0.49,-3.01,0.21,-0.17,-0.99,0.07
0.0,0.0,0.0,0.0,0.0,0.0,0.0,9702,10183.50,0,0,0,0.49,-3.08,0.21,-0.17,-0.99,0.07
0.0,0.0,0.0,0.0,0.0,0.0,0.0,9717,10184.10,0,0,165,0.35,-3.01,0.42,-0.17,-0.99,0.07
0.0,0.0,0.0,0.0,0.0,0.0,0.0,9725,10183.50,0,0,0,0.07,-2.94,0.07,-0.18,-0.98,0.07
0.0,0.0,0.0,0.0,0.0,0.0,0.0,9739,10184.50,0,0,165,0.63,-2.87,-0.07,-0.17,-0.99,0.07
0.0,0.0,0.0,0.0,0.0,0.0,0.0,9755,10185.50,0,0,0,0.07,-2.94,0.14,-0.18,-0.99,0.06
0.0,0.0,0.0,0.0,0.0,0.0,0.0,9762,10184.50,0,0,165,0.49,-3.01,0.21,-0.18,-0.98,0.06
0.0,0.0,0.0,0.0,0.0,0.0,0.0,9777,10184.50,0,0,0,0.07,-3.01,-0.28,-0.17,-0.99,0.06
0.0,0.0,0.0,0.0,0.0,0.0,0.0,9793,10184.50,0,0,165,0.00,-3.01,0.14,-0.18,-0.98,0.06
0.0,0.0,0.0,0.0,0.0,0.0,0.0,9799,10184.50,0,0,0,1.05,-3.08,0.14,-0.17,-0.99,0.06
0.0,0.0,0.0,0.0,0.0,0.0,0.0,9815,10184.10,0,0,165,0.14,-3.08,0.28,-0.17,-0.99,0.07
0.0,0.0,0.0,0.0,0.0,0.0,0.0,9829,10184.10,0,0,0,0.63,-3.01,0.21,-0.17,-0.98,0.07
0.0,0.0,0.0,0.0,0.0,0.0,0.0,9837,10184.10,0,0,165,0.70,-3.01,0.35,-0.17,-0.99,0.07
0.0,0.0,0.0,0.0,0.0,0.0,0.0,9853,10184.10,0,0,0,0.14,-3.08,0.14,-0.17,-0.98,0.07
0.0,0.0,0.0,0.0,0.0,0.0,0.0,9867,10184.50,0,0,165,0.77,-3.01,0.14,-0.18,-0.99,0.07
0.0,0.0,0.0,0.0,0.0,0.0,0.0,9875,10184.10,0,0,0,0.07,-3.01,-0.07,-0.17,-0.99,0.07
0.0,0.0,0.0,0.0,0.0,0.0,0.0,9892,10183.20,0,0,165,0.35,-3.01,0.14,-0.17,-0.98,0.07
0.0,0.0,0.0,0.0,0.0,0.0,0.0,9905,10185.50,0,0,0,0.56,-3.01,0.00,-0.18,-0.99,0.07
0.0,0.0,0.0,0.0,0.0,0.0,0.0,9912,10184.50,0,0,165,0.07,-3.08,0.07,-0.18,-0.99,0.06
0.0,0.0,0.0,0.0,0.0,0.0,0.0,9927,10184.10,0,0,0,0.56,-2.94,0.07,-0.17,-0.99,0.07
0.0,0.0,0.0,0.0,0.0,0.0,0.0,9942,10184.50,0,0,165,0.49,-3.01,0.14,-0.17,-0.99,0.07
0.0,0.0,0.0,0.0,0.0,0.0,0.0,9949,10184.10,0,0,0,0.35,-3.01,0.21,-0.17,-0.99,0.07
0.0,0.0,0.0,0.0,0.0,0.0,0.0,9965,10184.50,0,0,165,0.49,-3.01,0.21,-0.17,-0.99,0.07
0.0,0.0,0.0,0.0,0.0,0.0,0.0,9980,10183.50,0,0,0,0.35,-3.01,0.21,-0.17,-0.99,0.07
0.0,0.0,0.0,0.0,0.0,0.0,0.0,9987,10185.50,0,0,165,0.49,-3.01,0.00,-0.17,-0.99,0.07
0.0,0.0,0.0,0.0,0.0,0.0,0.0,10002,10184.10,0,0,0,0.42,-3.08,0.14,-0.17,-0.99,0.07
0.0,0.0,0.0,0.0,0.0,0.0,0.0,10017,10184.50,0,0,165,0.42,-3.01,0.14,-0.17,-0.99,0.07
0.0,0.0,0.0,0.0,0.0,0.0,0.0,10026,10185.50,0,0,0,0.56,-2.94,0.07,-0.17,-0.99,0.07
0.0,0.0,0.0,0.0,0.0,0.0,0.0,10040,10184.50,0,0,165,0.28,-3.01,0.21,-0.18,-0.99,0.07
0.0,0.0,0.0,0.0,0.0,0.0,0.0,10054,10184.50,0,0,0,0.42,-3.01,0.14,-0.18,-0.99,0.07
0.0,0.0,0.0,0.0,0.0,0.0,0.0,10062,10184.10,0,0,165,0.42,-3.01,0.14,-0.18,-0.99,0.07
0.0,0.0,0.0,0.0,0.0,0.0,0.0,10077,10183.50,0,0,0,0.42,-3.08,0.00,-0.17,-0.99,0.07
0.0,0.0,0.0,0.0,0.0,0.0,0.0,10093,10184.10,0,0,165,0.56,-3.08,0.07,-0.17,-0.99,0.07
0.0,0.0,0.0,0.0,0.0,0.0,0.0,10099,10184.50,0,0,0,0.35,-3.01,0.07,-0.17,-0.99,0.07
0.0,0.0,0.0,0.0,0.0,0.0,0.0,10115,10184.10,0,0,165,0.56,-2.94,0.21,-0.17,-0.99,0.07
0.0,0.0,0.0,0.0,0.0,0.0,0.0,10130,10184.10,0,0,0,0.35,-3.01,0.14,-0.17,-0.99,0.07
0.0,0.0,0.0,0.0,0.0,0.0,0.0,10137,10184.50,0,0,165,0.42,-3.01,0.28,-0.17,-0.99,0.07
0.0,0.0,0.0,0.0,0.0,0.0,0.0,10152,10184.50,0,0,0,0.56,-3.01,0.07,-0.17,-0.99,0.07
0.0,0.0,0.0,0.0,0.0,0.0,0.0,10167,10185.50,0,0,165,0.28,-2.94,0.07,-0.18,-0.99,0.07
0.0,0.0,0.0,0.0,0.0,0.0,0.0,10176,10184.50,0,0,0,0.42,-3.01,0.14,-0.18,-0.99,0.07
0.0,0.0,0.0,0.0,0.0,0.0,0.0,10190,10184.10,0,0,165,0.49,-3.08,0.07,-0.18,-0.99,0.07
0.0,0.0,0.0,0.0,0.0,0.0,0.0,10204,10184.50,0,0,0,0.35,-3.01,0.14,-0.18,-0.99,0.07
0.0,0.0,0.0,0.0,0.0,0.0,0.0,10212,10184.50,0,0,165,0.49,-3.08,0.00,-0.18,-0.99,0.07
0.0,0.0,0.0,0.0,0.0,0.0,0.0,10227,10183.20,0,0,0,0.35,-3.01,0.14,-0.17,-0.99,0.07
0.0,0.0,0.0,0.0,0.0,0.0,0.0,10244,10185.10,0,0,165,0.42,-3.15,0.14,-0.17,-0.99,0.07
0.0,0.0,0.0,0.0,0.0,0.0,0.0,10250,10184.10,0,0,0,0.49,-3.01,0.14,-0.17,-0.99,0.07
0.0,0.0,0.0,0.0,0.0,0.0,0.0,10265,10184.10,0,0,165,0.28,-3.08,0.07,-0.17,-0.99,0.07
0.0,0.0,0.0,0.0,0.0,0.0,0.0,10279,10185.50,0,0,0,0.49,-3.01,0.28,-0.18,-0.99,0.07
0.0,0.0,0.0,0.0,0.0,0.0,0.0,10287,10183.20,0,0,165,0.42,-3.01,0.14,-0.18,-0.99,0.07
0.0,0.0,0.0,0.0,0.0,0.0,0.0,10302,10184.10,0,0,0,0.42,-3.01,0.07,-0.18,-0.99,0.07
0.0,0.0,0.0,0.0,0.0,0.0,0.0,10317,10184.50,0,0,165,0.49,-3.08,0.07,-0.17,-0.99,0.07
0.0,0.0,0.0,0.0,0.0,0.0,0.0,10325,10184.10,0,0,0,0.42,-3.08,0.21,-0.17,-0.99,0.07
0.0,0.0,0.0,0.0,0.0,0.0,0.0,10339,10184.50,0,0,165,0.49,-3.08,0.07,-0.17,-0.99,0.07
0.0,0.0,0.0,0.0,0.0,0.0,0.0,10358,10183.20,0,0,0,0.28,-3.08,0.00,-0.17,-0.99,0.07
0.0,0.0,0.0,0.0,0.0,0.0,0.0,10363,10183.50,0,0,165,0.49,-2.94,0.21,-0.17,-0.99,0.07
0.0,0.0,0.0,0.0,0.0,0.0,0.0,10377,10183.50,0,0,0,0.63,-3.01,0.14,-0.17,-0.99,0.07
0.0,0.0,0.0,0.0,0.0,0.0,0.0,10385,10184.10,0,0,165,0.35,-3.01,0.28,-0.18,-0.99,0.07
0.0,0.0,0.0,0.0,0.0,0.0,0.0,10400,10184.50,0,0,0,0.49,-3.08,0.07,-0.18,-0.99,0.07
0.0,0.0,0.0,0.0,0.0,0.0,0.0,10415,10184.50,0,0,165,0.42,-3.01,0.14,-0.18,-0.99,0.07
0.0,0.0,0.0,0.0,0.0,0.0,0.0,10423,10184.50,0,0,0,0.28,-3.01,0.14,-0.18,-0.99,0.07
0.0,0.0,0.0,0.0,0.0,0.0,0.0,10437,10184.10,0,0,165,0.49,-3.01,0.14,-0.18,-0.99,0.07
0.0,0.0,0.0,0.0,0.0,0.0,0.0,10452,10184.50,0,0,0,0.35,-2.94,0.21,-0.18,-0.99,0.07
0.0,0.0,0.0,0.0,0.0,0.0,0.0,10460,10183.20,0,0,165,0.42,-3.01,0.21,-0.17,-0.99,0.07
0.0,0.0,0.0,0.0,0.0,0.0,0.0,10475,10184.50,0,0,0,0.42,-3.01,0.21,-0.17,-0.99,0.07
0.0,0.0,0.0,0.0,0.0,0.0,0.0,10489,10184.50,0,0,165,0.49,-2.94,0.14,-0.17,-0.99,0.07
0.0,0.0,0.0,0.0,0.0,0.0,0.0,10497,10184.50,0,0,0,0.42,-2.94,0.14,-0.17,-0.99,0.07
0.0,0.0,0.0,0.0,0.0,0.0,0.0,10512,10184.50,0,0,165,0.28,-3.08,0.07,-0.17,-0.99,0.07
0.0,0.0,0.0,0.0,0.0,0.0,0.0,10527,10183.50,0,0,0,0.42,-3.15,0.28,-0.17,-0.99,0.07
0.0,0.0,0.0,0.0,0.0,0.0,0.0,10535,10184.50,0,0,165,0.49,-3.01,0.07,-0.17,-0.99,0.07
0.0,0.0,0.0,0.0,0.0,0.0,0.0,10549,10184.10,0,0,0,0.35,-3.01,0.14,-0.17,-0.99,0.07
0.0,0.0,0.0,0.0,0.0,0.0,0.0,10565,10183.20,0,0,165,0.49,-3.01,0.21,-0.18,-0.99,0.07
0.0,0.0,0.0,0.0,0.0,0.0,0.0,10572,10184.50,0,0,0,0.56,-3.01,0.14,-0.18,-0.99,0.07
0.0,0.0,0.0,0.0,0.0,0.0,0.0,10587,10185.50,0,0,165,0.35,-2.87,0.14,-0.17,-0.99,0.07
0.0,0.0,0.0,0.0,0.0,0.0,0.0,10602,10184.50,0,0,0,0.49,-3.01,0.14,-0.17,-0.99,0.07
0.0,0.0,0.0,0.0,0.0,0.0,0.0,10610,10184.10,0,0,165,0.35,-2.94,0.14,-0.17,-0.99,0.07
0.0,0.0,0.0,0.0,0.0,0.0,0.0,10626,10184.50,0,0,0,0.42,-3.01,0.14,-0.17,-0.99,0.07
0.0,0.0,0.0,0.0,0.0,0.0,0.0,10640,10184.10,0,0,165,0.56,-2.94,0.14,-0.17,-0.99,0.07
0.0,0.0,0.0,0.0,0.0,0.0,0.0,10647,10184.50,0,0,0,0.35,-3.08,0.07,-0.17,-0.99,0.07
0.0,0.0,0.0,0.0,0.0,0.0,0.0,10662,10183.50,0,0,165,0.63,-3.08,0.14,-0.17,-0.99,0.07
0.0,0.0,0.0,0.0,0.0,0.0,0.0,10678,10184.50,0,0,0,0.35,-3.01,0.14,-0.18,-0.99,0.07
0.0,0.0,0.0,0.0,0.0,0.0,0.0,10684,10183.20,0,0,165,0.35,-2.87,0.07,-0.17,-0.99,0.07
0.0,0.0,0.0,0.0,0.0,0.0,0.0,10699,10185.10,0,0,0,0.49,-2.94,0.14,-0.17,-0.99,0.07
0.0,0.0,0.0,0.0,0.0,0.0,0.0,10715,10183.20,0,0,165,0.35,-3.01,0.07,-0.18,-0.99,0.07
0.0,0.0,0.0,0.0,0.0,0.0,0.0,10723,10185.50,0,0,0,0.35,-2.94,-0.07,-0.18,-0.99,0.07
0.0,0.0,0.0,0.0,0.0,0.0,0.0,10737,10184.50,0,0,165,0.56,-3.08,0.21,-0.18,-0.99,0.07
0.0,0.0,0.0,0.0,0.0,0.0,0.0,10752,10184.10,0,0,0,0.42,-3.01,0.21,-0.17,-0.99,0.07
0.0,0.0,0.0,0.0,0.0,0.0,0.0,10760,10183.50,0,0,165,0.49,-3.01,0.14,-0.17,-0.99,0.07
0.0,0.0,0.0,0.0,0.0,0.0,0.0,10775,10185.10,0,0,0,0.42,-3.08,0.21,-0.17,-0.99,0.07
0.0,0.0,0.0,0.0,0.0,0.0,0.0,10790,10184.10,0,0,165,0.28,-2.94,0.28,-0.17,-0.99,0.07
0.0,0.0,0.0,0.0,0.0,0.0,0.0,10797,10184.10,0,0,0,0.63,-3.01,0.21,-0.17,-0.99,0.07
0.0,0.0,0.0,0.0,0.0,0.0,0.0,10813,10185.50,0,0,165,0.28,-2.94,0.07,-0.18,-0.99,0.07
0.0,0.0,0.0,0.0,0.0,0.0,0.0,10827,10184.50,0,0,0,0.35,-3.01,0.07,-0.18,-0.99,0.07
0.0,0.0,0.0,0.0,0.0,0.0,0.0,10835,10184.50,0,0,165,0.49,-3.08,0.07,-0.18,-0.99,0.07
0.0,0.0,0.0,0.0,0.0,0.0,0.0,10850,10184.50,0,0,0,0.35,-2.94,0.07,-0.17,-0.99,0.07
0.0,0.0,0.0,0.0,0.0,0.0,0.0,10864,10184.50,0,0,165,0.49,-3.01,0.14,-0.18,-0.99,0.07
0.0,0.0,0.0,0.0,0.0,0.0,0.0,10872,10183.50,0,0,0,0.28,-3.08,0.21,-0.17,-0.99,0.07
0.0,0.0,0.0,0.0,0.0,0.0,0.0,10887,10184.50,0,0,165,0.42,-2.94,0.21,-0.17,-0.99,0.07
0.0,0.0,0.0,0.0,0.0,0.0,0.0,10902,10184.50,0,0,0,0.56,-2.94,0.14,-0.17,-0.99,0.07
0.0,0.0,0.0,0.0,0.0,0.0,0.0,10909,10184.10,0,0,165,0.28,-3.01,0.14,-0.18,-0.99,0.07
0.0,0.0,0.0,0.0,0.0,0.0,0.0,10924,10185.10,0,0,0,0.42,-3.01,0.07,-0.17,-0.99,0.07
0.0,0.0,0.0,0.0,0.0,0.0,0.0,10940,10184.10,0,0,165,0.35,-3.01,0.07,-0.18,-0.99,0.07
0.0,0.0,0.0,0.0,0.0,0.0,0.0,10947,10184.10,0,0,0,0.35,-3.08,0.00,-0.17,-0.99,0.07
0.0,0.0,0.0,0.0,0.0,0.0,0.0,10962,10184.10,0,0,165,0.49,-3.01,0.14,-0.17,-0.99,0.07
0.0,0.0,0.0,0.0,0.0,0.0,0.0,10977,10184.50,0,0,0,0.28,-3.08,0.14,-0.18,-0.99,0.07
0.0,0.0,0.0,0.0,0.0,0.0,0.0,10985,10183.20,0,0,165,0.42,-2.94,0.28,-0.18,-0.98,0.07
0.0,0.0,0.0,0.0,0.0,0.0,0.0,10999,10184.50,0,0,0,1.33,-3.15,-0.21,-0.18,-1.01,0.07
0.0,0.0,0.0,0.0,0.0,0.0,0.0,11015,10184.50,0,0,165,-0.84,-3.01,-0.21,-0.17,-1.00,0.07
0.0,0.0,0.0,0.0,0.0,0.0,0.0,11023,10184.10,0,0,0,-0.42,-3.36,1.12,-0.16,-0.94,0.05
0.0,0.0,0.0,0.0,0.0,0.0,0.0,11037,10184.10,0,0,165,3.50,-2.66,-0.49,-0.18,-1.05,0.10
0.0,0.0,0.0,0.0,0.0,0.0,0.0,11052,10184.50,0,0,0,-4.55,-3.01,0.28,-0.16,-0.95,0.06
0.0,0.0,0.0,0.0,0.0,0.0,0.0,11060,10184.50,0,0,165,3.99,-2.87,0.42,-0.17,-0.97,0.06
0.0,0.0,0.0,0.0,0.0,0.0,0.0,11076,10184.50,0,0,0,-1.26,-2.94,-0.07,-0.18,-1.03,0.10
0.0,0.0,0.0,0.0,0.0,0.0,0.0,11090,10184.50,0,0,165,-2.17,-3.15,-0.07,-0.17,-0.92,0.04
0.0,0.0,0.0,0.0,0.0,0.0,0.0,11097,10184.50,0,0,0,4.27,-2.80,-0.35,-0.18,-1.03,0.08
0.0,0.0,0.0,0.0,0.0,0.0,0.0,11113,10184.50,0,0,165,-3.15,-3.22,0.28,-0.18,-0.99,0.06
0.0,0.0,0.0,0.0,0.0,0.0,0.0,11127,10184.50,0,0,0,2.94,-2.94,0.35,-0.17,-0.97,0.05
0.0,0.0,0.0,0.0,0.0,0.0,0.0,11135,10185.50,0,0,165,1.19,-3.08,0.00,-0.18,-1.04,0.08
0.0,0.0,0.0,0.0,0.0,0.0,0.0,11154,10185.50,0,0,0,-0.70,-3.15,0.49,-0.17,-0.95,0.05
0.0,0.0,0.0,0.0,0.0,0.0,0.0,11165,10184.50,0,0,165,3.36,-3.01,0.28,-0.18,-1.02,0.09
0.0,0.0,0.0,0.0,0.0,0.0,0.0,11173,10184.50,0,0,0,-1.89,-3.15,0.21,-0.17,-0.98,0.07
0.0,0.0,0.0,0.0,0.0,0.0,0.0,11188,10184.50,0,0,165,1.05,-2.94,-0.14,-0.17,-0.97,0.07
0.0,0.0,0.0,0.0,0.0,0.0,0.0,11210,10185.10,0,0,0,0.07,-3.01,-0.14,-0.17,-1.01,0.08
0.0,0.0,0.0,0.0,0.0,0.0,0.0,11211,10184.50,0,0,165,-0.98,-3.08,0.28,-0.17,-0.96,0.05
0.0,0.0,0.0,0.0,0.0,0.0,0.0,11252,10183.50,0,0,0,2.38,-2.87,0.00,-0.18,-1.02,0.08
0.0,0.0,0.0,0.0,0.0,0.0,0.0,11253,10183.50,0,0,165,-1.33,-2.94,0.07,-0.17,-0.99,0.07
0.0,0.0,0.0,0.0,0.0,0.0,0.0,11254,10184.50,0,0,0,1.75,-3.01,0.21,-0.17,-0.98,0.06
0.0,0.0,0.0,0.0,0.0,0.0,0.0,11262,10184.50,0,0,165,0.35,-3.08,-0.07,-0.18,-1.01,0.08
0.0,0.0,0.0,0.0,0.0,0.0,0.0,11277,10184.50,0,0,0,-1.05,-3.08,0.00,-0.17,-0.97,0.05
0.0,0.0,0.0,0.0,0.0,0.0,0.0,11284,10184.50,0,0,165,1.82,-2.94,0.14,-0.18,-1.00,0.07
0.0,0.0,0.0,0.0,0.0,0.0,0.0,11300,10184.50,0,0,0,-0.70,-3.08,0.28,-0.17,-0.99,0.06
0.0,0.0,0.0,0.0,0.0,0.0,0.0,11314,10183.50,0,0,165,0.91,-3.08,0.35,-0.17,-0.98,0.07
0.0,0.0,0.0,0.0,0.0,0.0,0.0,11322,10184.10,0,0,0,0.63,-2.94,0.28,-0.18,-1.00,0.08
0.0,0.0,0.0,0.0,0.0,0.0,0.0,11338,10185.50,0,0,165,-0.14,-3.01,0.07,-0.17,-0.98,0.07
0.0,0.0,0.0,0.0,0.0,0.0,0.0,11352,10184.10,0,0,0,1.05,-3.01,0.14,-0.18,-1.00,0.08
0.0,0.0,0.0,0.0,0.0,0.0,0.0,11359,10183.50,0,0,165,-0.42,-3.08,-0.14,-0.17,-0.99,0.07
0.0,0.0,0.0,0.0,0.0,0.0,0.0,11374,10183.50,0,0,0,0.70,-3.01,0.00,-0.17,-0.99,0.07
0.0,0.0,0.0,0.0,0.0,0.0,0.0,11390,10185.50,0,0,165,0.35,-2.94,0.14,-0.17,-1.00,0.07
0.0,0.0,0.0,0.0,0.0,0.0,0.0,11398,10184.50,0,0,0,0.14,-3.01,0.21,-0.17,-0.98,0.06
0.0,0.0,0.0,0.0,0.0,0.0,0.0,11412,10184.50,0,0,165,0.91,-3.01,0.21,-0.17,-0.99,0.07
0.0,0.0,0.0,0.0,0.0,0.0,0.0,11427,10184.50,0,0,0,0.14,-3.01,0.21,-0.18,-0.99,0.07
0.0,0.0,0.0,0.0,0.0,0.0,0.0,11435,10184.50,0,0,165,0.56,-3.01,0.07,-0.17,-0.99,0.07
0.0,0.0,0.0,0.0,0.0,0.0,0.0,11450,10184.50,0,0,0,0.21,-3.08,0.00,-0.18,-0.99,0.07
0.0,0.0,0.0,0.0,0.0,0.0,0.0,11465,10184.50,0,0,165,0.28,-3.15,-0.07,-0.17,-0.98,0.06
0.0,0.0,0.0,0.0,0.0,0.0,0.0,11472,10183.50,0,0,0,0.42,-3.01,0.07,-0.17,-0.99,0.07
0.0,0.0,0.0,0.0,0.0,0.0,0.0,11487,10184.50,0,0,165,0.35,-3.01,0.14,-0.17,-0.99,0.06
0.0,0.0,0.0,0.0,0.0,0.0,0.0,11502,10184.50,0,0,0,0.84,-3.01,0.21,-0.18,-0.99,0.07
0.0,0.0,0.0,0.0,0.0,0.0,0.0,11511,10185.50,0,0,165,0.42,-2.94,0.35,-0.18,-0.99,0.07
0.0,0.0,0.0,0.0,0.0,0.0,0.0,11526,10185.50,0,0,0,0.49,-3.01,0.28,-0.17,-0.98,0.07
0.0,0.0,0.0,0.0,0.0,0.0,0.0,11543,10184.50,0,0,165,0.35,-3.01,0.00,-0.18,-0.99,0.07
0.0,0.0,0.0,0.0,0.0,0.0,0.0,11547,10185.50,0,0,0,0.14,-3.01,17.85,-0.18,-0.99,0.07
0.0,0.0,0.0,0.0,0.0,0.0,0.0,11562,10184.50,0,0,165,0.49,-3.08,0.00,-0.18,-0.99,0.07
0.0,0.0,0.0,0.0,0.0,0.0,0.0,11577,10184.50,0,0,0,0.49,-2.94,0.07,-0.17,-0.99,0.07
0.0,0.0,0.0,0.0,0.0,0.0,0.0,11584,10183.50,0,0,165,0.42,-3.01,0.21,-0.17,-0.99,0.07
0.0,0.0,0.0,0.0,0.0,0.0,0.0,11600,10185.50,0,0,0,0.56,-2.94,0.21,-0.17,-0.99,0.07
0.0,0.0,0.0,0.0,0.0,0.0,0.0,11615,10184.50,0,0,165,0.70,-2.94,0.14,-0.17,-0.99,0.07
0.0,0.0,0.0,0.0,0.0,0.0,0.0,11623,10184.50,0,0,0,0.35,-3.01,0.14,-0.18,-0.99,0.07
0.0,0.0,0.0,0.0,0.0,0.0,0.0,11637,10184.10,0,0,165,0.49,-3.08,0.07,-0.18,-0.99,0.07
0.0,0.0,0.0,0.0,0.0,0.0,0.0,11652,10184.50,0,0,0,0.49,-3.08,0.14,-0.18,-0.99,0.07
0.0,0.0,0.0,0.0,0.0,0.0,0.0,11659,10184.50,0,0,165,0.35,-3.01,0.00,-0.18,-0.99,0.06
0.0,0.0,0.0,0.0,0.0,0.0,0.0,11676,10184.80,0,0,0,0.56,-3.01,0.14,-0.18,-0.99,0.07
0.0,0.0,0.0,0.0,0.0,0.0,0.0,11690,10183.50,0,0,165,0.28,-2.94,0.14,-0.17,-0.99,0.07
0.0,0.0,0.0,0.0,0.0,0.0,0.0,11697,10184.50,0,0,0,0.49,-2.94,0.14,-0.17,-0.99,0.07
0.0,0.0,0.0,0.0,0.0,0.0,0.0,11712,10185.50,0,0,165,0.35,-3.01,0.07,-0.17,-0.99,0.07
0.0,0.0,0.0,0.0,0.0,0.0,0.0,11727,10184.50,0,0,0,0.42,-3.01,0.14,-0.17,-0.99,0.07
0.0,0.0,0.0,0.0,0.0,0.0,0.0,11734,10183.50,0,0,165,0.35,-3.01,0.14,-0.17,-0.99,0.07
0.0,0.0,0.0,0.0,0.0,0.0,0.0,11749,10184.50,0,0,0,0.35,-3.01,0.14,-0.18,-0.99,0.06
0.0,0.0,0.0,0.0,0.0,0.0,0.0,11764,10184.50,0,0,165,0.49,-3.01,0.14,-0.17,-0.99,0.07
0.0,0.0,0.0,0.0,0.0,0.0,0.0,11773,10184.50,0,0,0,0.49,-3.01,0.21,-0.18,-0.99,0.07
0.0,0.0,0.0,0.0,0.0,0.0,0.0,11788,10184.50,0,0,165,0.42,-2.94,0.28,-0.18,-0.99,0.07
0.0,0.0,0.0,0.0,0.0,0.0,0.0,11802,10184.50,0,0,0,0.49,-3.08,0.21,-0.17,-0.99,0.07
0.0,0.0,0.0,0.0,0.0,0.0,0.0,11809,10184.50,0,0,165,0.49,-2.94,0.21,-0.17,-0.99,0.07
0.0,0.0,0.0,0.0,0.0,0.0,0.0,11825,10184.50,0,0,0,0.35,-3.01,0.07,-0.17,-0.99,0.07
0.0,0.0,0.0,0.0,0.0,0.0,0.0,11840,10184.50,0,0,165,0.63,-3.01,0.21,-0.17,-0.99,0.07
0.0,0.0,0.0,0.0,0.0,0.0,0.0,11847,10184.50,0,0,0,0.49,-3.01,0.00,-0.17,-0.99,0.07
0.0,0.0,0.0,0.0,0.0,0.0,0.0,11862,10183.50,0,0,165,0.42,-3.01,0.14,-0.17,-0.99,0.07
0.0,0.0,0.0,0.0,0.0,0.0,0.0,11877,10183.50,0,0,0,0.49,-3.08,0.14,-0.18,-0.99,0.07
0.0,0.0,0.0,0.0,0.0,0.0,0.0,11884,10184.50,0,0,165,0.28,-2.94,0.00,-0.18,-0.99,0.07
0.0,0.0,0.0,0.0,0.0,0.0,0.0,11900,10183.50,0,0,0,0.49,-2.94,0.14,-0.17,-0.99,0.07
0.0,0.0,0.0,0.0,0.0,0.0,0.0,11915,10184.50,0,0,165,0.42,-2.94,0.14,-0.17,-0.99,0.07
0.0,0.0,0.0,0.0,0.0,0.0,0.0,11922,10185.50,0,0,0,0.49,-3.08,0.28,-0.17,-0.99,0.07
0.0,0.0,0.0,0.0,0.0,0.0,0.0,11937,10184.50,0,0,165,0.49,-3.01,0.07,-0.17,-0.99,0.07
0.0,0.0,0.0,0.0,0.0,0.0,0.0,11952,10185.50,0,0,0,0.56,-3.01,0.14,-0.17,-0.99,0.07
0.0,0.0,0.0,0.0,0.0,0.0,0.0,11960,10183.50,0,0,165,0.42,-3.01,0.14,-0.17,-0.99,0.07
0.0,0.0,0.0,0.0,0.0,0.0,0.0,11976,10185.50,0,0,0,0.42,-3.01,0.07,-0.18,-0.99,0.07
0.0,0.0,0.0,0.0,0.0,0.0,0.0,11990,10184.50,0,0,165,0.42,-3.15,0.07,-0.18,-0.99,0.07
0.0,0.0,0.0,0.0,0.0,0.0,0.0,11997,10184.50,0,0,0,0.35,-2.94,0.28,-0.18,-0.99,0.07
0.0,0.0,0.0,0.0,0.0,0.0,0.0,12012,10184.50,0,0,165,0.49,-3.01,0.14,-0.18,-0.99,0.07
0.0,0.0,0.0,0.0,0.0,0.0,0.0,12027,10185.50,0,0,0,0.42,-3.01,0.14,-0.17,-0.99,0.07
0.0,0.0,0.0,0.0,0.0,0.0,0.0,12035,10183.50,0,0,165,0.42,-2.94,0.14,-0.18,-0.99,0.07
0.0,0.0,0.0,0.0,0.0,0.0,0.0,12050,10184.50,0,0,0,0.42,-2.94,0.07,-0.17,-0.99,0.07
0.0,0.0,0.0,0.0,0.0,0.0,0.0,12065,10184.50,0,0,165,0.35,-2.94,0.07,-0.17,-0.99,0.07
0.0,0.0,0.0,0.0,0.0,0.0,0.0,12073,10184.50,0,0,0,0.35,-3.01,0.00,-0.17,-0.99,0.07
0.0,0.0,0.0,0.0,0.0,0.0,0.0,12087,10184.50,0,0,165,0.28,-3.08,0.07,-0.17,-0.99,0.07
0.0,0.0,0.0,0.0,0.0,0.0,0.0,12102,10184.50,0,0,0,0.56,-2.94,0.07,-0.17,-0.99,0.07
0.0,0.0,0.0,0.0,0.0,0.0,0.0,12110,10185.50,0,0,165,0.28,-2.94,0.21,-0.17,-0.99,0.07
0.0,0.0,0.0,0.0,0.0,0.0,0.0,12125,10184.50,0,0,0,0.63,-2.94,0.14,-0.17,-0.99,0.07
0.0,0.0,0.0,0.0,0.0,0.0,0.0,12140,10184.50,0,0,165,0.42,-3.01,0.21,-0.17,-0.99,0.07
0.0,0.0,0.0,0.0,0.0,0.0,0.0,12147,10184.50,0,0,0,0.28,-2.94,0.21,-0.18,-0.98,0.07
0.0,0.0,0.0,0.0,0.0,0.0,0.0,12162,10184.50,0,0,165,0.63,-3.01,0.14,-0.18,-0.99,0.07
0.0,0.0,0.0,0.0,0.0,0.0,0.0,12177,10185.50,0,0,0,0.14,-3.01,0.14,-0.18,-0.99,0.07
0.0,0.0,0.0,0.0,0.0,0.0,0.0,12184,10184.50,0,0,165,0.70,-3.15,0.21,-0.17,-0.98,0.07
0.0,0.0,0.0,0.0,0.0,0.0,0.0,12200,10184.50,0,0,0,0.56,-2.94,0.14,-0.18,-0.99,0.07
0.0,0.0,0.0,0.0,0.0,0.0,0.0,12215,10184.50,0,0,165,0.14,-3.01,0.07,-0.18,-0.98,0.07
0.0,0.0,0.0,0.0,0.0,0.0,0.0,12222,10183.50,0,0,0,0.56,-2.94,0.00,-0.18,-0.99,0.07
0.0,0.0,0.0,0.0,0.0,0.0,0.0,12237,10184.50,0,0,165,0.14,-3.01,0.00,-0.17,-0.98,0.07
0.0,0.0,0.0,0.0,0.0,0.0,0.0,12252,10183.50,0,0,0,0.49,-3.08,0.21,-0.18,-0.99,0.07
0.0,0.0,0.0,0.0,0.0,0.0,0.0,12260,10183.50,0,0,165,0.35,-3.08,-0.07,-0.17,-0.99,0.07
0.0,0.0,0.0,0.0,0.0,0.0,0.0,12275,10184.50,0,0,0,0.28,-3.08,0.07,-0.17,-0.98,0.07
0.0,0.0,0.0,0.0,0.0,0.0,0.0,12290,10184.50,0,0,165,0.63,-3.01,0.14,-0.17,-0.99,0.07
0.0,0.0,0.0,0.0,0.0,0.0,0.0,12297,10185.50,0,0,0,0.28,-3.01,0.14,-0.17,-0.99,0.07
0.0,0.0,0.0,0.0,0.0,0.0,0.0,12312,10184.50,0,0,165,0.56,-2.94,0.07,-0.18,-0.99,0.07
0.0,0.0,0.0,0.0,0.0,0.0,0.0,12327,10183.50,0,0,0,0.49,-2.94,0.21,-0.17,-0.99,0.07
0.0,0.0,0.0,0.0,0.0,0.0,0.0,12334,10184.50,0,0,165,0.35,-3.08,0.14,-0.17,-0.98,0.07
0.0,0.0,0.0,0.0,0.0,0.0,0.0,12349,10184.50,0,0,0,0.56,-3.01,0.07,-0.17,-0.99,0.07
0.0,0.0,0.0,0.0,0.0,0.0,0.0,12364,10184.50,0,0,165,0.35,-3.01,0.14,-0.17,-0.99,0.07
0.0,0.0,0.0,0.0,0.0,0.0,0.0,12372,10184.50,0,0,0,0.35,-3.01,0.14,-0.17,-0.99,0.07
0.0,0.0,0.0,0.0,0.0,0.0,0.0,12387,10184.50,0,0,165,0.56,-3.01,0.14,-0.17,-0.99,0.07
0.0,0.0,0.0,0.0,0.0,0.0,0.0,12402,10184.50,0,0,0,0.35,-3.01,0.14,-0.18,-0.99,0.07
0.0,0.0,0.0,0.0,0.0,0.0,0.0,12410,10184.50,0,0,165,0.63,-3.08,0.14,-0.18,-0.99,0.07
0.0,0.0,0.0,0.0,0.0,0.0,0.0,12425,10184.50,0,0,0,0.35,-3.08,0.00,-0.18,-0.99,0.07
0.0,0.0,0.0,0.0,0.0,0.0,0.0,12440,10185.50,0,0,165,0.35,-2.94,0.14,-0.18,-0.99,0.07
0.0,0.0,0.0,0.0,0.0,0.0,0.0,12448,10183.50,0,0,0,0.42,-3.08,0.14,-0.18,-0.99,0.07
0.0,0.0,0.0,0.0,0.0,0.0,0.0,12462,10186.40,0,0,165,0.28,-2.94,0.14,-0.18,-0.99,0.07
0.0,0.0,0.0,0.0,0.0,0.0,0.0,12477,10184.50,0,0,0,0.49,-3.01,0.07,-0.17,-0.99,0.07
0.0,0.0,0.0,0.0,0.0,0.0,0.0,12484,10183.50,0,0,165,0.28,-2.94,0.14,-0.18,-0.99,0.07
0.0,0.0,0.0,0.0,0.0,0.0,0.0,12499,10184.50,0,0,0,0.42,-3.08,0.00,-0.17,-0.99,0.07
0.0,0.0,0.0,0.0,0.0,0.0,0.0,12515,10183.50,0,0,165,0.42,-3.01,0.07,-0.17,-0.99,0.07
0.0,0.0,0.0,0.0,0.0,0.0,0.0,12523,10184.50,0,0,0,0.28,-3.08,0.14,-0.17,-0.99,0.07
0.0,0.0,0.0,0.0,0.0,0.0,0.0,12537,10184.50,0,0,165,0.56,-3.01,0.28,-0.17,-0.99,0.07
0.0,0.0,0.0,0.0,0.0,0.0,0.0,12553,10184.50,0,0,0,0.56,-3.01,0.14,-0.17,-0.99,0.07
0.0,0.0,0.0,0.0,0.0,0.0,0.0,12560,10184.50,0,0,165,0.35,-3.01,0.14,-0.18,-0.99,0.07
0.0,0.0,0.0,0.0,0.0,0.0,0.0,12575,10184.50,0,0,0,0.42,-2.94,0.07,-0.18,-0.99,0.07
0.0,0.0,0.0,0.0,0.0,0.0,0.0,12591,10184.50,0,0,165,0.35,-3.01,0.14,-0.17,-0.99,0.07
0.0,0.0,0.0,0.0,0.0,0.0,0.0,12597,10183.50,0,0,0,0.63,-3.01,0.00,-0.17,-0.99,0.07
0.0,0.0,0.0,0.0,0.0,0.0,0.0,12612,10184.50,0,0,165,0.42,-3.08,0.14,-0.17,-0.99,0.07
0.0,0.0,0.0,0.0,0.0,0.0,0.0,12627,10183.50,0,0,0,0.28,-3.08,0.21,-0.18,-0.99,0.07
0.0,0.0,0.0,0.0,0.0,0.0,0.0,12635,10184.50,0,0,165,0.56,-2.94,0.07,-0.17,-0.99,0.07
0.0,0.0,0.0,0.0,0.0,0.0,0.0,12650,10184.50,0,0,0,0.28,-2.94,0.07,-0.18,-0.99,0.07
0.0,0.0,0.0,0.0,0.0,0.0,0.0,12665,10184.50,0,0,165,0.42,-3.01,0.28,-0.17,-0.99,0.07
0.0,0.0,0.0,0.0,0.0,0.0,0.0,12673,10184.50,0,0,0,0.42,-3.08,0.14,-0.17,-0.99,0.07
0.0,0.0,0.0,0.0,0.0,0.0,0.0,12687,10184.50,0,0,165,0.35,-3.08,0.14,-0.18,-0.99,0.07
0.0,0.0,0.0,0.0,0.0,0.0,0.0,12702,10185.50,0,0,0,0.56,-3.01,0.07,-0.18,-0.99,0.07
0.0,0.0,0.0,0.0,0.0,0.0,0.0,12710,10184.50,0,0,165,0.35,-3.01,0.07,-0.17,-0.99,0.07
0.0,0.0,0.0,0.0,0.0,0.0,0.0,12726,10184.50,0,0,0,0.42,-2.94,0.14,-0.17,-0.99,0.07
0.0,0.0,0.0,0.0,0.0,0.0,0.0,12740,10185.50,0,0,165,0.56,-2.94,0.14,-0.18,-0.99,0.07
0.0,0.0,0.0,0.0,0.0,0.0,0.0,12747,10184.50,0,0,0,0.35,-2.87,0.21,-0.17,-0.99,0.07
0.0,0.0,0.0,0.0,0.0,0.0,0.0,12762,10184.50,0,0,165,0.42,-3.01,0.14,-0.18,-0.99,0.06
0.0,0.0,0.0,0.0,0.0,0.0,0.0,12777,10184.50,0,0,0,0.49,-2.94,0.14,-0.18,-0.99,0.07
0.0,0.0,0.0,0.0,0.0,0.0,0.0,12785,10185.50,0,0,165,0.49,-3.01,0.14,-0.18,-0.99,0.07
0.0,0.0,0.0,0.0,0.0,0.0,0.0,12799,10184.50,0,0,0,0.56,-2.94,0.07,-0.17,-0.99,0.07
0.0,0.0,0.0,0.0,0.0,0.0,0.0,12815,10184.80,0,0,165,0.35,-3.08,0.14,-0.18,-0.99,0.07
0.0,0.0,0.0,0.0,0.0,0.0,0.0,12823,10184.50,0,0,0,0.49,-3.01,0.21,-0.17,-0.99,0.07
0.0,0.0,0.0,0.0,0.0,0.0,0.0,12838,10185.50,0,0,165,0.49,-2.94,0.07,-0.18,-0.99,0.07
0.0,0.0,0.0,0.0,0.0,0.0,0.0,12853,10184.50,0,0,0,0.28,-3.01,0.07,-0.17,-0.99,0.07
0.0,0.0,0.0,0.0,0.0,0.0,0.0,12860,10184.50,0,0,165,0.49,-3.08,0.07,-0.18,-0.99,0.07
0.0,0.0,0.0,0.0,0.0,0.0,0.0,12877,10184.50,0,0,0,0.28,-3.01,0.28,-0.17,-0.99,0.06
0.0,0.0,0.0,0.0,0.0,0.0,0.0,12890,10184.50,0,0,165,0.49,-2.94,0.14,-0.18,-0.99,0.07
0.0,0.0,0.0,0.0,0.0,0.0,0.0,12898,10184.50,0,0,0,0.42,-3.01,0.14,-0.18,-0.99,0.07
0.0,0.0,0.0,0.0,0.0,0.0,0.0,12912,10185.50,0,0,165,0.42,-3.01,0.07,-0.17,-0.99,0.07
0.0,0.0,0.0,0.0,0.0,0.0,0.0,12927,10183.50,0,0,0,0.42,-3.08,0.07,-0.17,-0.99,0.07
0.0,0.0,0.0,0.0,0.0,0.0,0.0,12934,10184.50,0,0,165,0.49,-2.94,0.07,-0.17,-0.99,0.07
0.0,0.0,0.0,0.0,0.0,0.0,0.0,12949,10185.50,0,0,0,0.35,-3.01,0.14,-0.17,-0.99,0.07
0.0,0.0,0.0,0.0,0.0,0.0,0.0,12964,10183.50,0,0,165,0.56,-3.01,0.21,-0.18,-0.99,0.07
0.0,0.0,0.0,0.0,0.0,0.0,0.0,12972,10184.50,0,0,0,0.35,-3.01,0.14,-0.18,-0.99,0.07
0.0,0.0,0.0,0.0,0.0,0.0,0.0,12987,10184.50,0,0,165,0.28,-3.08,0.14,-0.18,-0.98,0.07
0.0,0.0,0.0,0.0,0.0,0.0,0.0,13002,10183.50,0,0,0,0.70,-3.01,0.14,-0.18,-0.99,0.07
0.0,0.0,0.0,0.0,0.0,0.0,0.0,13009,10183.50,0,0,165,0.21,-3.08,0.07,-0.18,-0.99,0.07
0.0,0.0,0.0,0.0,0.0,0.0,0.0,13025,10184.50,0,0,0,0.56,-3.01,0.07,-0.17,-0.99,0.07
0.0,0.0,0.0,0.0,0.0,0.0,0.0,13039,10184.50,0,0,165,0.49,-2.94,0.21,-0.17,-0.99,0.07
0.0,0.0,0.0,0.0,0.0,0.0,0.0,13047,10184.50,0,0,0,0.35,-3.01,0.14,-0.17,-0.99,0.07
0.0,0.0,0.0,0.0,0.0,0.0,0.0,13062,10184.50,0,0,165,0.56,-2.94,0.07,-0.17,-0.99,0.07
0.0,0.0,0.0,0.0,0.0,0.0,0.0,13077,10184.50,0,0,0,0.21,-3.01,0.21,-0.17,-0.99,0.07
0.0,0.0,0.0,0.0,0.0,0.0,0.0,13085,10184.50,0,0,165,0.63,-3.01,0.14,-0.17,-0.99,0.07
0.0,0.0,0.0,0.0,0.0,0.0,0.0,13100,10185.50,0,0,0,0.21,-3.08,0.07,-0.17,-0.99,0.07
0.0,0.0,0.0,0.0,0.0,0.0,0.0,13114,10185.50,0,0,165,0.35,-3.01,0.14,-0.18,-0.98,0.07
0.0,0.0,0.0,0.0,0.0,0.0,0.0,13122,10184.50,0,0,0,0.49,-3.01,0.07,-0.18,-0.99,0.06
0.0,0.0,0.0,0.0,0.0,0.0,0.0,13137,10185.50,0,0,165,0.42,-3.08,0.21,-0.18,-0.99,0.06
0.0,0.0,0.0,0.0,0.0,0.0,0.0,13152,10183.50,0,0,0,0.56,-3.01,0.21,-0.18,-0.99,0.06
0.0,0.0,0.0,0.0,0.0,0.0,0.0,13160,10184.50,0,0,165,0.35,-3.08,0.14,-0.18,-0.99,0.07
0.0,0.0,0.0,0.0,0.0,0.0,0.0,13176,10183.50,0,0,0,0.49,-3.01,0.14,-0.18,-0.99,0.07
0.0,0.0,0.0,0.0,0.0,0.0,0.0,13189,10183.50,0,0,165,0.49,-3.01,0.21,-0.17,-0.99,0.07
0.0,0.0,0.0,0.0,0.0,0.0,0.0,13197,10184.80,0,0,0,0.28,-2.94,0.07,-0.17,-0.99,0.07
0.0,0.0,0.0,0.0,0.0,0.0,0.0,13212,10185.50,0,0,165,0.35,-3.01,0.00,-0.17,-0.99,0.07
0.0,0.0,0.0,0.0,0.0,0.0,0.0,13227,10184.50,0,0,0,0.42,-3.01,0.00,-0.17,-0.99,0.07
0.0,0.0,0.0,0.0,0.0,0.0,0.0,13237,10184.50,0,0,165,0.42,-3.01,0.07,-0.17,-0.99,0.07
0.0,0.0,0.0,0.0,0.0,0.0,0.0,13249,10184.50,0,0,0,0.42,-3.01,0.21,-0.17,-0.99,0.07
0.0,0.0,0.0,0.0,0.0,0.0,0.0,13265,10184.50,0,0,165,0.42,-2.87,0.21,-0.17,-0.99,0.06
0.0,0.0,0.0,0.0,0.0,0.0,0.0,13272,10184.50,0,0,0,0.49,-3.01,0.21,-0.17,-0.99,0.06
0.0,0.0,0.0,0.0,0.0,0.0,0.0,13287,10184.80,0,0,165,0.42,-3.01,0.14,-0.18,-0.99,0.07
0.0,0.0,0.0,0.0,0.0,0.0,0.0,13302,10183.80,0,0,0,0.42,-3.08,0.14,-0.18,-0.99,0.07
0.0,0.0,0.0,0.0,0.0,0.0,0.0,13309,10184.50,0,0,165,0.42,-3.08,0.28,-0.18,-0.99,0.07
0.0,0.0,0.0,0.0,0.0,0.0,0.0,13325,10184.50,0,0,0,0.56,-3.01,0.07,-0.18,-0.99,0.07
0.0,0.0,0.0,0.0,0.0,0.0,0.0,13340,10183.50,0,0,165,0.28,-3.01,0.07,-0.17,-0.99,0.07
0.0,0.0,0.0,0.0,0.0,0.0,0.0,13347,10184.50,0,0,0,0.28,-3.08,0.00,-0.18,-0.99,0.07
0.0,0.0,0.0,0.0,0.0,0.0,0.0,13362,10184.50,0,0,165,0.35,-2.94,0.07,-0.17,-0.99,0.07
0.0,0.0,0.0,0.0,0.0,0.0,0.0,13377,10183.50,0,0,0,0.28,-3.01,0.07,-0.17,-0.99,0.07
0.0,0.0,0.0,0.0,0.0,0.0,0.0,13384,10183.50,0,0,165,0.35,-3.01,0.07,-0.17,-0.99,0.07
0.0,0.0,0.0,0.0,0.0,0.0,0.0,13399,10184.50,0,0,0,0.42,-2.94,0.21,-0.17,-0.99,0.06
0.0,0.0,0.0,0.0,0.0,0.0,0.0,13415,10184.50,0,0,165,0.35,-3.01,0.21,-0.17,-0.99,0.07
0.0,0.0,0.0,0.0,0.0,0.0,0.0,13429,10184.50,0,0,0,0.63,-2.94,0.28,-0.17,-0.99,0.07
0.0,0.0,0.0,0.0,0.0,0.0,0.0,13437,10184.50,0,0,165,0.56,-3.01,0.07,-0.17,-0.99,0.07
0.0,0.0,0.0,0.0,0.0,0.0,0.0,13452,10185.50,0,0,0,0.35,-2.94,0.07,-0.17,-0.99,0.07
0.0,0.0,0.0,0.0,0.0,0.0,0.0,13459,10184.50,0,0,165,0.42,-3.08,0.07,-0.17,-0.99,0.07
0.0,0.0,0.0,0.0,0.0,0.0,0.0,13475,10184.50,0,0,0,0.35,-2.94,0.21,-0.18,-0.99,0.07
0.0,0.0,0.0,0.0,0.0,0.0,0.0,13490,10184.50,0,0,165,0.42,-3.01,0.14,-0.18,-0.99,0.07
0.0,0.0,0.0,0.0,0.0,0.0,0.0,13497,10184.50,0,0,0,0.35,-2.94,0.14,-0.18,-0.99,0.07
0.0,0.0,0.0,0.0,0.0,0.0,0.0,13512,10184.80,0,0,165,0.35,-2.94,0.07,-0.17,-0.99,0.07
0.0,0.0,0.0,0.0,0.0,0.0,0.0,13527,10184.50,0,0,0,0.35,-3.01,0.14,-0.17,-0.99,0.07
0.0,0.0,0.0,0.0,0.0,0.0,0.0,13534,10185.50,0,0,165,0.35,-3.01,0.14,-0.17,-0.99,0.07
0.0,0.0,0.0,0.0,0.0,0.0,0.0,13550,10184.50,0,0,0,0.56,-3.01,0.07,-0.17,-0.99,0.07
0.0,0.0,0.0,0.0,0.0,0.0,0.0,13565,10184.50,0,0,165,0.42,-2.94,0.07,-0.17,-0.99,0.07
0.0,0.0,0.0,0.0,0.0,0.0,0.0,13572,10184.50,0,0,0,0.42,-3.08,0.07,-0.17,-0.99,0.07
0.0,0.0,0.0,0.0,0.0,0.0,0.0,13587,10184.50,0,0,165,0.49,-2.94,0.14,-0.17,-0.99,0.07
0.0,0.0,0.0,0.0,0.0,0.0,0.0,13602,10184.80,0,0,0,0.35,-3.01,0.14,-0.17,-0.99,0.07
0.0,0.0,0.0,0.0,0.0,0.0,0.0,13609,10184.50,0,0,165,0.56,-2.94,0.28,-0.18,-0.99,0.07
0.0,0.0,0.0,0.0,0.0,0.0,0.0,13624,10184.50,0,0,0,0.42,-3.01,-0.14,-0.18,-0.99,0.07
0.0,0.0,0.0,0.0,0.0,0.0,0.0,13639,10183.50,0,0,165,0.35,-3.01,0.00,-0.18,-0.99,0.07
0.0,0.0,0.0,0.0,0.0,0.0,0.0,13646,10184.50,0,0,0,0.42,-3.01,0.07,-0.18,-0.99,0.07
0.0,0.0,0.0,0.0,0.0,0.0,0.0,13662,10184.80,0,0,165,0.35,-3.08,0.14,-0.17,-0.99,0.07
0.0,0.0,0.0,0.0,0.0,0.0,0.0,13677,10184.80,0,0,0,0.49,-2.94,0.21,-0.17,-0.99,0.07
0.0,0.0,0.0,0.0,0.0,0.0,0.0,13684,10184.50,0,0,165,0.42,-3.01,0.14,-0.17,-0.99,0.07
0.0,0.0,0.0,0.0,0.0,0.0,0.0,13700,10183.50,0,0,0,0.49,-3.01,0.07,-0.17,-0.99,0.07
0.0,0.0,0.0,0.0,0.0,0.0,0.0,13715,10185.50,0,0,165,0.42,-3.08,0.28,-0.17,-0.99,0.07
0.0,0.0,0.0,0.0,0.0,0.0,0.0,13725,10184.50,0,0,0,0.42,-3.01,0.21,-0.17,-0.99,0.07
0.0,0.0,0.0,0.0,0.0,0.0,0.0,13737,10184.80,0,0,165,0.42,-2.94,0.14,-0.17,-0.99,0.07
0.0,0.0,0.0,0.0,0.0,0.0,0.0,13753,10183.50,0,0,0,0.42,-3.01,0.14,-0.17,-0.99,0.07
0.0,0.0,0.0,0.0,0.0,0.0,0.0,13760,10184.50,0,0,165,0.56,-3.01,0.21,-0.18,-0.99,0.07
0.0,0.0,0.0,0.0,0.0,0.0,0.0,13777,10184.80,0,0,0,0.21,-3.01,0.14,-0.18,-0.98,0.07
0.0,0.0,0.0,0.0,0.0,0.0,0.0,13790,10184.50,0,0,165,0.42,-2.94,0.21,-0.18,-0.99,0.07
0.0,0.0,0.0,0.0,0.0,0.0,0.0,13797,10183.80,0,0,0,0.49,-2.94,0.21,-0.18,-0.99,0.07
0.0,0.0,0.0,0.0,0.0,0.0,0.0,13812,10184.50,0,0,165,0.35,-3.01,0.14,-0.17,-0.99,0.07
0.0,0.0,0.0,0.0,0.0,0.0,0.0,13827,10183.50,0,0,0,0.42,-3.01,0.07,-0.18,-0.99,0.07
0.0,0.0,0.0,0.0,0.0,0.0,0.0,13835,10184.50,0,0,165,0.28,-3.08,0.00,-0.17,-0.99,0.07
0.0,0.0,0.0,0.0,0.0,0.0,0.0,13850,10185.50,0,0,0,0.70,-3.08,0.14,-0.17,-0.99,0.07
0.0,0.0,0.0,0.0,0.0,0.0,0.0,13871,10185.80,0,0,165,0.28,-3.01,0.21,-0.17,-0.99,0.07
0.0,0.0,0.0,0.0,0.0,0.0,0.0,13872,10184.80,0,0,0,0.49,-3.01,0.14,-0.17,-0.99,0.07
0.0,0.0,0.0,0.0,0.0,0.0,0.0,13892,10184.50,0,0,165,0.42,-2.94,0.14,-0.18,-0.99,0.07
0.0,0.0,0.0,0.0,0.0,0.0,0.0,13901,10184.50,0,0,0,0.35,-2.94,0.21,-0.17,-0.99,0.07
0.0,0.0,0.0,0.0,0.0,0.0,0.0,13910,10184.50,0,0,165,0.49,-3.01,0.21,-0.18,-0.99,0.07
0.0,0.0,0.0,0.0,0.0,0.0,0.0,13925,10184.50,0,0,0,0.28,-3.01,-0.07,-0.17,-0.99,0.07
0.0,0.0,0.0,0.0,0.0,0.0,0.0,13940,10184.50,0,0,165,0.49,-3.01,0.14,-0.18,-0.99,0.07
0.0,0.0,0.0,0.0,0.0,0.0,0.0,13946,10183.50,0,0,0,0.42,-3.01,0.14,-0.17,-0.99,0.07
0.0,0.0,0.0,0.0,0.0,0.0,0.0,13962,10184.50,0,0,165,0.28,-3.01,0.14,-0.18,-0.99,0.07
0.0,0.0,0.0,0.0,0.0,0.0,0.0,13977,10184.50,0,0,0,0.35,-3.01,0.14,-0.17,-0.99,0.07
0.0,0.0,0.0,0.0,0.0,0.0,0.0,13985,10185.50,0,0,165,0.42,-3.01,0.21,-0.17,-0.99,0.07
0.0,0.0,0.0,0.0,0.0,0.0,0.0,14000,10184.80,0,0,0,0.35,-2.94,0.21,-0.17,-0.99,0.07
0.0,0.0,0.0,0.0,0.0,0.0,0.0,14014,10184.50,0,0,165,0.42,-2.94,0.21,-0.17,-0.99,0.07
0.0,0.0,0.0,0.0,0.0,0.0,0.0,14022,10184.80,0,0,0,0.56,-3.01,0.07,-0.17,-0.99,0.07
0.0,0.0,0.0,0.0,0.0,0.0,0.0,14037,10185.80,0,0,165,0.42,-3.08,0.07,-0.17,-0.99,0.07
0.0,0.0,0.0,0.0,0.0,0.0,0.0,14052,10183.50,0,0,0,0.42,-2.94,0.14,-0.17,-0.99,0.07
0.0,0.0,0.0,0.0,0.0,0.0,0.0,14060,10184.80,0,0,165,0.56,-2.94,0.14,-0.18,-0.99,0.07
0.0,0.0,0.0,0.0,0.0,0.0,0.0,14076,10184.50,0,0,0,0.42,-2.94,0.14,-0.18,-0.99,0.07
0.0,0.0,0.0,0.0,0.0,0.0,0.0,14093,10184.50,0,0,165,0.63,-2.94,0.21,-0.18,-0.99,0.07
0.0,0.0,0.0,0.0,0.0,0.0,0.0,14097,10184.50,0,0,0,0.21,-2.94,0.14,-0.18,-0.99,0.07
0.0,0.0,0.0,0.0,0.0,0.0,0.0,14112,10184.50,0,0,165,0.63,-3.01,0.28,-0.18,-0.99,0.07
0.0,0.0,0.0,0.0,0.0,0.0,0.0,14127,10183.80,0,0,0,0.56,-3.01,0.14,-0.18,-0.99,0.07
0.0,0.0,0.0,0.0,0.0,0.0,0.0,14134,10184.80,0,0,165,0.21,-3.08,0.14,-0.17,-0.99,0.07
0.0,0.0,0.0,0.0,0.0,0.0,0.0,14149,10184.80,0,0,0,0.56,-3.01,0.00,-0.17,-0.99,0.07
0.0,0.0,0.0,0.0,0.0,0.0,0.0,14164,10184.50,0,0,165,0.35,-2.94,-0.07,-0.17,-0.99,0.07
0.0,0.0,0.0,0.0,0.0,0.0,0.0,14173,10184.50,0,0,0,0.35,-3.01,0.07,-0.17,-0.99,0.07
0.0,0.0,0.0,0.0,0.0,0.0,0.0,14187,10184.50,0,0,165,0.42,-2.94,0.07,-0.17,-0.99,0.07
0.0,0.0,0.0,0.0,0.0,0.0,0.0,14202,10183.80,0,0,0,0.35,-3.01,0.14,-0.17,-0.99,0.06
0.0,0.0,0.0,0.0,0.0,0.0,0.0,14210,10184.50,0,0,165,0.42,-2.94,0.21,-0.17,-0.99,0.06
0.0,0.0,0.0,0.0,0.0,0.0,0.0,14224,10184.80,0,0,0,0.56,-3.01,0.28,-0.17,-0.99,0.07
0.0,0.0,0.0,0.0,0.0,0.0,0.0,14242,10183.80,0,0,165,0.28,-3.01,0.21,-0.17,-0.98,0.07
0.0,0.0,0.0,0.0,0.0,0.0,0.0,14247,10185.50,0,0,0,0.63,-2.94,0.28,-0.17,-0.99,0.07
0.0,0.0,0.0,0.0,0.0,0.0,0.0,14262,10185.50,0,0,165,0.35,-3.08,0.07,-0.17,-0.99,0.07
0.0,0.0,0.0,0.0,0.0,0.0,0.0,14277,10184.50,0,0,0,0.42,-2.94,0.07,-0.18,-0.99,0.07
0.0,0.0,0.0,0.0,0.0,0.0,0.0,14285,10184.50,0,0,165,0.56,-2.94,0.07,-0.18,-0.99,0.07
0.0,0.0,0.0,0.0,0.0,0.0,0.0,14299,10184.50,0,0,0,0.28,-3.08,0.14,-0.18,-0.99,0.07
0.0,0.0,0.0,0.0,0.0,0.0,0.0,14315,10184.80,0,0,165,0.56,-3.01,0.07,-0.18,-0.99,0.07
0.0,0.0,0.0,0.0,0.0,0.0,0.0,14323,10184.50,0,0,0,0.28,-3.01,0.00,-0.17,-0.99,0.07
0.0,0.0,0.0,0.0,0.0,0.0,0.0,14337,10185.50,0,0,165,0.28,-3.08,0.14,-0.18,-0.99,0.07
0.0,0.0,0.0,0.0,0.0,0.0,0.0,14352,10184.50,0,0,0,0.49,-3.08,0.14,-0.18,-0.99,0.07
0.0,0.0,0.0,0.0,0.0,0.0,0.0,14360,10184.50,0,0,165,0.35,-2.94,0.00,-0.17,-0.99,0.07
0.0,0.0,0.0,0.0,0.0,0.0,0.0,14375,10184.80,0,0,0,0.49,-3.01,0.21,-0.17,-0.99,0.07
0.0,0.0,0.0,0.0,0.0,0.0,0.0,14390,10184.50,0,0,165,0.49,-2.94,0.07,-0.17,-0.99,0.07
0.0,0.0,0.0,0.0,0.0,0.0,0.0,14397,10184.50,0,0,0,0.49,-3.01,0.14,-0.18,-0.99,0.07
0.0,0.0,0.0,0.0,0.0,0.0,0.0,14412,10185.50,0,0,165,0.56,-2.94,0.21,-0.18,-0.99,0.07
0.0,0.0,0.0,0.0,0.0,0.0,0.0,14429,10183.50,0,0,0,0.35,-2.94,0.21,-0.17,-0.99,0.07
0.0,0.0,0.0,0.0,0.0,0.0,0.0,14434,10184.50,0,0,165,0.63,-3.01,0.14,-0.17,-0.99,0.07
0.0,0.0,0.0,0.0,0.0,0.0,0.0,14449,10185.50,0,0,0,0.28,-3.01,-0.07,-0.18,-0.99,0.06
0.0,0.0,0.0,0.0,0.0,0.0,0.0,14464,10184.80,0,0,165,0.42,-3.01,0.07,-0.18,-0.99,0.07
0.0,0.0,0.0,0.0,0.0,0.0,0.0,14473,10184.80,0,0,0,0.35,-2.94,0.14,-0.18,-0.99,0.07
0.0,0.0,0.0,0.0,0.0,0.0,0.0,14487,10184.50,0,0,165,0.42,-3.01,0.21,-0.18,-0.99,0.07
0.0,0.0,0.0,0.0,0.0,0.0,0.0,14502,10183.50,0,0,0,0.42,-3.01,0.14,-0.18,-0.99,0.07
0.0,0.0,0.0,0.0,0.0,0.0,0.0,14510,10184.80,0,0,165,0.42,-2.94,0.14,-0.18,-0.99,0.07
0.0,0.0,0.0,0.0,0.0,0.0,0.0,14524,10184.50,0,0,0,0.42,-2.94,0.28,-0.18,-0.99,0.07
0.0,0.0,0.0,0.0,0.0,0.0,0.0,14539,10185.80,0,0,165,0.35,-3.08,0.21,-0.17,-0.99,0.07
0.0,0.0,0.0,0.0,0.0,0.0,0.0,14547,10184.50,0,0,0,0.42,-3.01,0.21,-0.17,-0.99,0.07
0.0,0.0,0.0,0.0,0.0,0.0,0.0,14562,10184.50,0,0,165,0.35,-3.01,0.28,-0.17,-0.99,0.07
0.0,0.0,0.0,0.0,0.0,0.0,0.0,14577,10183.80,0,0,0,0.49,-3.01,0.07,-0.17,-0.99,0.07
0.0,0.0,0.0,0.0,0.0,0.0,0.0,14585,10184.50,0,0,165,0.21,-3.08,0.00,-0.17,-0.99,0.07
0.0,0.0,0.0,0.0,0.0,0.0,0.0,14599,10185.50,0,0,0,0.42,-3.08,0.07,-0.17,-0.99,0.07
0.0,0.0,0.0,0.0,0.0,0.0,0.0,14615,10183.50,0,0,165,0.42,-3.01,0.07,-0.17,-0.99,0.07
0.0,0.0,0.0,0.0,0.0,0.0,0.0,14623,10184.80,0,0,0,0.49,-3.01,0.14,-0.17,-0.99,0.07
0.0,0.0,0.0,0.0,0.0,0.0,0.0,14637,10184.80,0,0,165,0.42,-2.94,0.28,-0.17,-0.99,0.07
0.0,0.0,0.0,0.0,0.0,0.0,0.0,14652,10185.50,0,0,0,0.42,-3.08,0.14,-0.18,-0.99,0.07
0.0,0.0,0.0,0.0,0.0,0.0,0.0,14659,10184.50,0,0,165,0.42,-3.08,0.07,-0.17,-0.99,0.07
0.0,0.0,0.0,0.0,0.0,0.0,0.0,14675,10184.50,0,0,0,0.35,-3.08,0.00,-0.18,-0.99,0.07
0.0,0.0,0.0,0.0,0.0,0.0,0.0,14690,10184.50,0,0,165,0.28,-3.01,0.14,-0.17,-0.99,0.07
0.0,0.0,0.0,0.0,0.0,0.0,0.0,14697,10184.80,0,0,0,0.42,-3.08,0.07,-0.18,-0.99,0.06
0.0,0.0,0.0,0.0,0.0,0.0,0.0,14712,10184.80,0,0,165,0.35,-2.94,0.14,-0.17,-0.99,0.07
0.0,0.0,0.0,0.0,0.0,0.0,0.0,14727,10184.80,0,0,0,0.56,-3.01,0.07,-0.17,-0.99,0.07
0.0,0.0,0.0,0.0,0.0,0.0,0.0,14734,10184.50,0,0,165,0.70,-2.94,0.14,-0.17,-0.99,0.08
0.0,0.0,0.0,0.0,0.0,0.0,0.0,14749,10183.50,0,0,0,0.21,-3.01,0.07,-0.17,-0.99,0.08
0.0,0.0,0.0,0.0,0.0,0.0,0.0,14764,10185.50,0,0,165,0.42,-3.08,0.14,-0.17,-0.98,0.07
0.0,0.0,0.0,0.0,0.0,0.0,0.0,14772,10184.50,0,0,0,0.77,-3.01,-0.07,-0.17,-0.99,0.07
0.0,0.0,0.0,0.0,0.0,0.0,0.0,14787,10185.50,0,0,165,-0.14,-3.01,-0.07,-0.17,-0.98,0.07
0.0,0.0,0.0,0.0,0.0,0.0,0.0,14802,10183.50,0,0,0,0.70,-2.87,0.14,-0.18,-0.99,0.07
0.0,0.0,0.0,0.0,0.0,0.0,0.0,14809,10184.50,0,0,165,0.14,-3.08,0.14,-0.18,-0.99,0.06
0.0,0.0,0.0,0.0,0.0,0.0,0.0,14824,10184.50,0,0,0,0.56,-2.87,0.14,-0.18,-0.98,0.06
0.0,0.0,0.0,0.0,0.0,0.0,0.0,14839,10184.50,0,0,165,0.70,-3.01,0.14,-0.18,-0.99,0.06
0.0,0.0,0.0,0.0,0.0,0.0,0.0,14847,10184.50,0,0,0,0.14,-3.01,0.21,-0.17,-0.98,0.06
0.0,0.0,0.0,0.0,0.0,0.0,0.0,14862,10184.50,0,0,165,0.77,-3.08,0.14,-0.17,-0.99,0.07
0.0,0.0,0.0,0.0,0.0,0.0,0.0,14877,10184.50,0,0,0,0.35,-2.94,0.14,-0.17,-0.99,0.07
0.0,0.0,0.0,0.0,0.0,0.0,0.0,14892,10184.50,0,0,165,0.35,-3.01,0.07,-0.17,-0.99,0.07
0.0,0.0,0.0,0.0,0.0,0.0,0.0,14899,10184.80,0,0,0,0.35,-3.08,0.21,-0.18,-0.99,0.07
0.0,0.0,0.0,0.0,0.0,0.0,0.0,14914,10184.50,0,0,165,0.28,-3.01,-0.07,-0.17,-0.99,0.08
0.0,0.0,0.0,0.0,0.0,0.0,0.0,14923,10184.80,0,0,0,0.42,-2.94,0.14,-0.17,-0.99,0.07
0.0,0.0,0.0,0.0,0.0,0.0,0.0,14938,10184.80,0,0,165,0.49,-3.01,0.21,-0.17,-0.99,0.07
0.0,0.0,0.0,0.0,0.0,0.0,0.0,14953,10184.80,0,0,0,0.14,-2.94,0.14,-0.18,-0.99,0.07
0.0,0.0,0.0,0.0,0.0,0.0,0.0,14960,10184.50,0,0,165,0.42,-3.01,0.14,-0.17,-0.99,0.07
0.0,0.0,0.0,0.0,0.0,0.0,0.0,14976,10184.80,0,0,0,0.49,-3.08,0.21,-0.18,-0.99,0.06
0.0,0.0,0.0,0.0,0.0,0.0,0.0,14992,10184.50,0,0,165,0.42,-3.15,0.07,-0.18,-0.99,0.06
0.0,0.0,0.0,0.0,0.0,0.0,0.0,14997,10184.80,0,0,0,0.35,-3.01,-0.07,-0.17,-0.99,0.07
0.0,0.0,0.0,0.0,0.0,0.0,0.0,15012,10184.80,0,0,165,0.49,-3.08,0.21,-0.17,-0.99,0.07
0.0,0.0,0.0,0.0,0.0,0.0,0.0,15027,10184.50,0,0,0,0.56,-3.01,0.14,-0.17,-0.99,0.07
0.0,0.0,0.0,0.0,0.0,0.0,0.0,15035,10184.50,0,0,165,0.35,-3.01,0.14,-0.18,-0.99,0.07
0.0,0.0,0.0,0.0,0.0,0.0,0.0,15050,10185.80,0,0,0,0.28,-2.94,0.14,-0.17,-0.99,0.07
0.0,0.0,0.0,0.0,0.0,0.0,0.0,15065,10184.80,0,0,165,0.28,-3.01,0.14,-0.17,-0.99,0.07
0.0,0.0,0.0,0.0,0.0,0.0,0.0,15073,10184.50,0,0,0,0.35,-2.87,0.07,-0.17,-0.99,0.07
0.0,0.0,0.0,0.0,0.0,0.0,0.0,15087,10184.50,0,0,165,0.42,-2.94,0.14,-0.17,-0.99,0.07
0.0,0.0,0.0,0.0,0.0,0.0,0.0,15102,10184.50,0,0,0,0.49,-3.08,0.07,-0.17,-0.99,0.07
0.0,0.0,0.0,0.0,0.0,0.0,0.0,15110,10184.50,0,0,165,0.56,-2.94,0.28,-0.17,-0.99,0.07
0.0,0.0,0.0,0.0,0.0,0.0,0.0,15125,10185.50,0,0,0,0.42,-3.01,0.00,-0.17,-0.99,0.07
0.0,0.0,0.0,0.0,0.0,0.0,0.0,15139,10185.80,0,0,165,0.42,-2.94,0.07,-0.17,-0.99,0.07
0.0,0.0,0.0,0.0,0.0,0.0,0.0,15147,10185.50,0,0,0,0.42,-3.08,0.21,-0.17,-0.99,0.07
0.0,0.0,0.0,0.0,0.0,0.0,0.0,15162,10185.50,0,0,165,0.28,-2.87,0.21,-0.18,-0.99,0.07
0.0,0.0,0.0,0.0,0.0,0.0,0.0,15177,10183.50,0,0,0,0.49,-3.01,0.07,-0.18,-0.99,0.07
0.0,0.0,0.0,0.0,0.0,0.0,0.0,15184,10184.50,0,0,165,0.35,-2.94,0.21,-0.17,-0.99,0.07
0.0,0.0,0.0,0.0,0.0,0.0,0.0,15200,10184.50,0,0,0,0.49,-3.01,0.14,-0.18,-0.99,0.07
0.0,0.0,0.0,0.0,0.0,0.0,0.0,15214,10184.80,0,0,165,0.42,-3.01,0.07,-0.17,-0.99,0.07
0.0,0.0,0.0,0.0,0.0,0.0,0.0,15222,10184.80,0,0,0,0.35,-3.01,0.00,-0.17,-0.99,0.07
0.0,0.0,0.0,0.0,0.0,0.0,0.0,15237,10184.80,0,0,165,0.42,-3.01,0.14,-0.17,-0.99,0.07
0.0,0.0,0.0,0.0,0.0,0.0,0.0,15252,10184.80,0,0,0,0.28,-2.94,0.14,-0.17,-0.99,0.07
0.0,0.0,0.0,0.0,0.0,0.0,0.0,15259,10185.80,0,0,165,0.35,-3.08,0.21,-0.17,-0.99,0.06
0.0,0.0,0.0,0.0,0.0,0.0,0.0,15275,10185.50,0,0,0,0.49,-3.01,0.14,-0.17,-0.99,0.07
0.0,0.0,0.0,0.0,0.0,0.0,0.0,15290,10185.80,0,0,165,0.42,-3.01,0.07,-0.17,-0.99,0.07
0.0,0.0,0.0,0.0,0.0,0.0,0.0,15297,10184.50,0,0,0,0.56,-3.01,0.21,-0.17,-0.99,0.07
0.0,0.0,0.0,0.0,0.0,0.0,0.0,15312,10184.80,0,0,165,0.49,-3.01,0.07,-0.17,-0.99,0.07
0.0,0.0,0.0,0.0,0.0,0.0,0.0,15327,10184.50,0,0,0,0.49,-3.01,0.07,-0.17,-0.99,0.07
0.0,0.0,0.0,0.0,0.0,0.0,0.0,15334,10184.50,0,0,165,-0.35,-3.01,0.42,-0.18,-0.98,0.06
0.0,0.0,0.0,0.0,0.0,0.0,0.0,15350,10185.50,0,0,0,0.42,-2.87,-0.07,-0.17,-1.00,0.07
0.0,0.0,0.0,0.0,0.0,0.0,0.0,15365,10184.80,0,0,165,-0.07,-2.80,0.35,-0.18,-0.97,0.06
0.0,0.0,0.0,0.0,0.0,0.0,0.0,15371,10184.50,0,0,0,1.68,-2.94,0.07,-0.18,-1.00,0.07
0.0,0.0,0.0,0.0,0.0,0.0,0.0,15387,10184.50,0,0,165,-1.05,-2.87,-0.21,-0.18,-0.99,0.06
0.0,0.0,0.0,0.0,0.0,0.0,0.0,15402,10184.50,0,0,0,1.12,-3.01,0.14,-0.17,-0.98,0.06
0.0,0.0,0.0,0.0,0.0,0.0,0.0,15409,10184.80,0,0,165,0.49,-3.08,0.07,-0.18,-1.00,0.07
0.0,0.0,0.0,0.0,0.0,0.0,0.0,15425,10185.50,0,0,0,0.07,-3.01,-0.07,-0.17,-0.98,0.06
0.0,0.0,0.0,0.0,0.0,0.0,0.0,15440,10184.50,0,0,165,1.33,-2.94,0.00,-0.17,-1.00,0.07
0.0,0.0,0.0,0.0,0.0,0.0,0.0,15447,10184.50,0,0,0,-0.35,-3.01,0.21,-0.17,-0.98,0.07
0.0,0.0,0.0,0.0,0.0,0.0,0.0,15462,10184.80,0,0,165,1.19,-3.01,0.21,-0.17,-0.99,0.07
0.0,0.0,0.0,0.0,0.0,0.0,0.0,15477,10184.80,0,0,0,0.00,-3.08,0.07,-0.17,-0.99,0.07
0.0,0.0,0.0,0.0,0.0,0.0,0.0,15484,10184.80,0,0,165,0.21,-3.08,0.14,-0.17,-0.98,0.07
0.0,0.0,0.0,0.0,0.0,0.0,0.0,15499,10184.50,0,0,0,0.77,-3.01,0.14,-0.17,-1.00,0.07
0.0,0.0,0.0,0.0,0.0,0.0,0.0,15514,10185.80,0,0,165,0.07,-3.01,0.07,-0.17,-0.98,0.07
0.0,0.0,0.0,0.0,0.0,0.0,0.0,15522,10184.80,0,0,0,1.05,-2.87,0.28,-0.18,-0.99,0.07
0.0,0.0,0.0,0.0,0.0,0.0,0.0,15536,10185.80,0,0,165,0.14,-2.94,0.21,-0.18,-0.99,0.07
-0.015625,-0.0019937898,7.764362E-4,-0.0017795011,-0.18,-0.99,0.07,19565,10185.10,0,0,0,0.28,-2.94,0.00,-0.18,-0.99,0.07
-1.3154297,-0.0039937897,-2.2356585E-4,-0.002779501,-0.17,-0.99,0.07,19579,10183.80,0,0,165,0.14,-3.01,-0.07,-0.17,-0.99,0.07
-0.91503906,0.0010062102,-0.0012235641,-7.7950105E-4,-0.17,-0.99,0.06,19594,10184.20,0,0,0,0.49,-3.08,0.07,-0.17,-0.99,0.06
0.984375,-0.0019937898,7.764362E-4,0.0012204987,-0.17,-0.99,0.07,19601,10186.10,0,0,165,0.28,-2.94,0.21,-0.17,-0.99,0.07
0.6845703,0.00500621,-2.2356585E-4,0.002220499,-0.17,-0.99,0.07,19617,10185.80,0,0,0,0.77,-3.01,0.28,-0.17,-0.99,0.07
-0.3154297,-9.937901E-4,-2.2356585E-4,0.0012204987,-0.17,-0.99,0.07,19636,10184.80,0,0,165,0.35,-3.01,0.21,-0.17,-0.99,0.07
0.984375,-0.0019937898,-2.2356585E-4,2.20499E-4,-0.18,-0.98,0.07,19644,10186.10,0,0,0,0.28,-3.01,0.14,-0.18,-0.98,0.07
-0.015625,0.0030062096,-2.2356585E-4,-0.0017795011,-0.17,-0.99,0.07,19659,10185.10,0,0,165,0.63,-3.01,0.00,-0.17,-0.99,0.07
-0.015625,-0.00499379,-2.2356585E-4,2.20499E-4,-0.17,-0.98,0.07,19681,10185.10,0,0,0,0.07,-3.01,0.14,-0.17,-0.98,0.07
-0.3154297,0.00800621,-0.0012235641,0.002220499,-0.18,-0.99,0.07,19683,10184.80,0,0,165,0.98,-3.08,0.28,-0.18,-0.99,0.07
-0.3154297,-0.0039937897,-2.2356585E-4,0.0012204987,-0.18,-0.99,0.07,19692,10184.80,0,0,0,0.14,-3.01,0.21,-0.18,-0.99,0.07
-0.015625,0.0030062096,-2.2356585E-4,0.0012204987,-0.18,-0.98,0.07,19714,10185.10,0,0,165,0.63,-3.01,0.21,-0.18,-0.98,0.07
-0.3154297,0.00500621,7.764362E-4,2.20499E-4,-0.18,-1.0,0.07,19716,10184.80,0,0,0,0.77,-2.94,0.14,-0.18,-1.00,0.07
0.984375,-0.00999379,7.764362E-4,-7.7950105E-4,-0.17,-0.98,0.07,19736,10186.10,0,0,165,-0.28,-2.94,0.07,-0.17,-0.98,0.07
0.984375,0.0070062103,7.764362E-4,-7.7950105E-4,-0.17,-0.99,0.07,19745,10186.10,0,0,0,0.91,-2.94,0.07,-0.17,-0.99,0.07
-0.3154297,-0.0039937897,7.764362E-4,-0.0017795011,-0.17,-1.0,0.07,19753,10184.80,0,0,165,0.14,-2.94,0.00,-0.17,-1.00,0.07
-0.3154297,0.0010062102,-2.2356585E-4,2.20499E-4,-0.17,-0.98,0.06,19768,10184.80,0,0,0,0.49,-3.01,0.14,-0.17,-0.98,0.06
0.6845703,0.00500621,7.764362E-4,2.20499E-4,-0.17,-0.99,0.07,19782,10185.80,0,0,165,0.77,-2.94,0.14,-0.17,-0.99,0.07
-0.3154297,0.24900621,7.764362E-4,0.002220499,-0.17,-0.98,0.06,19793,10184.80,0,0,0,17.85,-2.94,0.28,-0.17,-0.98,0.06
0.6845703,0.00800621,-2.2356585E-4,0.0012204987,-0.17,-0.99,0.07,19805,10185.80,0,0,165,0.98,-3.01,0.21,-0.17,-0.99,0.07
-1.3154297,-0.0019937898,7.764362E-4,0.0012204987,-0.17,-0.99,0.07,19819,10183.80,0,0,0,0.28,-2.94,0.21,-0.17,-0.99,0.07
0.6845703,6.2095933E-6,7.764362E-4,0.002220499,-0.18,-0.98,0.07,19827,10185.80,0,0,165,0.42,-2.94,0.28,-0.18,-0.98,0.07
-0.015625,0.0030062096,7.764362E-4,0.0012204987,-0.18,-0.99,0.07,19844,10185.10,0,0,0,0.63,-2.94,0.21,-0.18,-0.99,0.07
0.984375,-0.0029937902,-0.0012235641,0.0012204987,-0.18,-0.98,0.07,19859,10186.10,0,0,165,0.21,-3.08,0.21,-0.18,-0.98,0.07
-0.3154297,0.00400621,-0.0022235662,-7.7950105E-4,-0.18,-0.99,0.07,19864,10184.80,0,0,0,0.70,-3.15,0.07,-0.18,-0.99,0.07
-0.3154297,-0.0039937897,-2.2356585E-4,-0.0017795011,-0.18,-0.99,0.07,19879,10184.80,0,0,165,0.14,-3.01,0.00,-0.18,-0.99,0.07
-0.91503906,-0.0019937898,-2.2356585E-4,2.20499E-4,-0.17,-0.99,0.07,19894,10184.20,0,0,0,0.28,-3.01,0.14,-0.17,-0.99,0.07
-0.3154297,-9.937901E-4,-2.2356585E-4,-7.7950105E-4,-0.17,-0.99,0.07,19902,10184.80,0,0,165,0.35,-3.01,0.07,-0.17,-0.99,0.07
-0.015625,-0.0039937897,0.0017764382,-7.7950105E-4,-0.17,-0.99,0.07,19917,10185.10,0,0,0,0.14,-2.87,0.07,-0.17,-0.99,0.07
-0.3154297,0.0020062104,7.764362E-4,2.20499E-4,-0.16,-0.99,0.08,19932,10184.80,0,0,165,0.56,-2.94,0.14,-0.16,-0.99,0.08
-0.3154297,6.2095933E-6,0.0017764382,-7.7950105E-4,-0.17,-0.99,0.07,19940,10184.80,0,0,0,0.42,-2.87,0.07,-0.17,-0.99,0.07
0.6845703,-0.0019937898,0.0027764365,2.20499E-4,-0.17,-0.99,0.07,19955,10185.80,0,0,165,0.28,-2.80,0.14,-0.17,-0.99,0.07
-0.3154297,0.0010062102,7.764362E-4,-7.7950105E-4,-0.17,-0.99,0.07,19970,10184.80,0,0,0,0.49,-2.94,0.07,-0.17,-0.99,0.07
-0.3154297,-0.0039937897,-2.2356585E-4,-0.0017795011,-0.18,-0.99,0.06,19977,10184.80,0,0,165,0.14,-3.01,0.00,-0.18,-0.99,0.06
0.6845703,0.0010062102,-2.2356585E-4,2.20499E-4,-0.18,-0.99,0.06,19992,10185.80,0,0,0,0.49,-3.01,0.14,-0.18,-0.99,0.06
-0.3154297,0.0030062096,7.764362E-4,0.002220499,-0.18,-0.99,0.06,20007,10184.80,0,0,165,0.63,-2.94,0.28,-0.18,-0.99,0.06
0.6845703,0.0030062096,7.764362E-4,0.0032204988,-0.18,-0.98,0.07,20015,10185.80,0,0,0,0.63,-2.94,0.35,-0.18,-0.98,0.07
-0.015625,0.00800621,-2.2356585E-4,0.0042204987,-0.18,-0.99,0.07,20029,10185.10,0,0,165,0.98,-3.01,0.42,-0.18,-0.99,0.07
0.6845703,-9.937901E-4,7.764362E-4,0.0012204987,-0.17,-0.99,0.08,20044,10185.80,0,0,0,0.35,-2.94,0.21,-0.17,-0.99,0.08
-0.3154297,-9.937901E-4,-2.2356585E-4,-7.7950105E-4,-0.17,-0.99,0.08,20051,10184.80,0,0,165,0.35,-3.01,0.07,-0.17,-0.99,0.08
-0.3154297,-0.0029937902,-0.0012235641,-0.0037795012,-0.17,-0.99,0.08,20066,10184.80,0,0,0,0.21,-3.08,-0.14,-0.17,-0.99,0.08
-0.3154297,-0.00599379,7.764362E-4,-0.004779501,-0.17,-0.99,0.07,20082,10184.80,0,0,165,0.00,-2.94,-0.21,-0.17,-0.99,0.07
0.6845703,6.2095933E-6,0.0017764382,-7.7950105E-4,-0.17,-0.99,0.07,20090,10185.80,0,0,0,0.42,-2.87,0.07,-0.17,-0.99,0.07
0.984375,-0.0019937898,0.0017764382,2.20499E-4,-0.18,-0.99,0.06,20104,10186.10,0,0,165,0.28,-2.87,0.14,-0.18,-0.99,0.06
-0.015625,6.2095933E-6,-2.2356585E-4,-7.7950105E-4,-0.17,-0.99,0.06,20119,10185.10,0,0,0,0.42,-3.01,0.07,-0.17,-0.99,0.06
0.6845703,6.2095933E-6,0.0017764382,2.20499E-4,-0.18,-0.99,0.06,20127,10185.80,0,0,165,0.42,-2.87,0.14,-0.18,-0.99,0.06
-0.3154297,6.2095933E-6,-2.2356585E-4,2.20499E-4,-0.18,-0.99,0.06,20142,10184.80,0,0,0,0.42,-3.01,0.14,-0.18,-0.99,0.06
-0.015625,6.2095933E-6,-0.0022235662,2.20499E-4,-0.18,-0.99,0.07,20157,10185.10,0,0,165,0.42,-3.15,0.14,-0.18,-0.99,0.07
-0.3154297,6.2095933E-6,-2.2356585E-4,2.20499E-4,-0.17,-0.99,0.06,20164,10184.80,0,0,0,0.42,-3.01,0.14,-0.17,-0.99,0.06
0.6845703,0.0030062096,-2.2356585E-4,0.0012204987,-0.17,-0.99,0.07,20179,10185.80,0,0,165,0.63,-3.01,0.21,-0.17,-0.99,0.07
-0.3154297,0.0010062102,-0.0012235641,0.002220499,-0.17,-0.99,0.08,20194,10184.80,0,0,0,0.49,-3.08,0.28,-0.17,-0.99,0.08
0.6845703,0.0020062104,-2.2356585E-4,2.20499E-4,-0.17,-0.99,0.08,20201,10185.80,0,0,165,0.56,-3.01,0.14,-0.17,-0.99,0.08
0.6845703,-0.0019937898,0.0017764382,-0.0017795011,-0.18,-0.99,0.07,20217,10185.80,0,0,0,0.28,-2.87,0.00,-0.18,-0.99,0.07
0.6845703,-0.0019937898,0.0017764382,-7.7950105E-4,-0.17,-0.99,0.07,20232,10185.80,0,0,165,0.28,-2.87,0.07,-0.17,-0.99,0.07
-0.3154297,-0.0029937902,7.764362E-4,-0.0017795011,-0.17,-0.99,0.06,20246,10184.80,0,0,0,0.21,-2.94,0.00,-0.17,-0.99,0.06
0.6845703,-0.00499379,-2.2356585E-4,-0.0037795012,-0.17,-0.99,0.06,20260,10185.80,0,0,165,0.07,-3.01,-0.14,-0.17,-0.99,0.06
-0.3154297,6.2095933E-6,0.0017764382,2.20499E-4,-0.17,-0.99,0.06,20270,10184.80,0,0,0,0.42,-2.87,0.14,-0.17,-0.99,0.06
-0.015625,0.0020062104,-0.0012235641,2.20499E-4,-0.17,-0.99,0.06,20279,10185.10,0,0,165,0.56,-3.08,0.14,-0.17,-0.99,0.06
-0.3154297,0.0010062102,-2.2356585E-4,0.0012204987,-0.17,-0.99,0.07,20292,10184.80,0,0,0,0.49,-3.01,0.21,-0.17,-0.99,0.07
-0.3154297,0.0030062096,-2.2356585E-4,0.0012204987,-0.18,-0.99,0.07,20307,10184.80,0,0,165,0.63,-3.01,0.21,-0.18,-0.99,0.07
-0.3154297,0.0010062102,-2.2356585E-4,0.0032204988,-0.17,-0.99,0.07,20315,10184.80,0,0,0,0.49,-3.01,0.35,-0.17,-0.99,0.07
1.984375,0.0020062104,-0.0012235641,0.002220499,-0.17,-0.99,0.07,20329,10187.10,0,0,165,0.56,-3.08,0.28,-0.17,-0.99,0.07
-0.3154297,0.0010062102,-2.2356585E-4,2.20499E-4,-0.18,-0.99,0.07,20344,10184.80,0,0,0,0.49,-3.01,0.14,-0.18,-0.99,0.07
-0.3154297,-9.937901E-4,0.0017764382,-7.7950105E-4,-0.18,-0.99,0.07,20352,10184.80,0,0,165,0.35,-2.87,0.07,-0.18,-0.99,0.07
-0.3154297,-9.937901E-4,-2.2356585E-4,2.20499E-4,-0.18,-0.99,0.07,20367,10184.80,0,0,0,0.35,-3.01,0.14,-0.18,-0.99,0.07
0.6845703,-9.937901E-4,-2.2356585E-4,-7.7950105E-4,-0.18,-0.99,0.07,20382,10185.80,0,0,165,0.35,-3.01,0.07,-0.18,-0.99,0.07
0.6845703,-0.0019937898,-2.2356585E-4,-0.0017795011,-0.18,-0.99,0.07,20390,10185.80,0,0,0,0.28,-3.01,0.00,-0.18,-0.99,0.07
0.6845703,-0.0029937902,-0.0012235641,-0.002779501,-0.17,-0.99,0.07,20404,10185.80,0,0,165,0.21,-3.08,-0.07,-0.17,-0.99,0.07
-0.3154297,-0.0019937898,7.764362E-4,2.20499E-4,-0.17,-0.99,0.07,20420,10184.80,0,0,0,0.28,-2.94,0.14,-0.17,-0.99,0.07
-0.91503906,6.2095933E-6,-2.2356585E-4,0.002220499,-0.17,-0.99,0.06,20428,10184.20,0,0,165,0.42,-3.01,0.28,-0.17,-0.99,0.06
0.984375,0.0020062104,-2.2356585E-4,0.002220499,-0.17,-0.99,0.06,20442,10186.10,0,0,0,0.56,-3.01,0.28,-0.17,-0.99,0.06
-0.3154297,0.0010062102,-0.0012235641,0.002220499,-0.17,-0.99,0.07,20457,10184.80,0,0,165,0.49,-3.08,0.28,-0.17,-0.99,0.07
-0.3154297,0.00400621,7.764362E-4,0.002220499,-0.17,-0.99,0.07,20465,10184.80,0,0,0,0.70,-2.94,0.28,-0.17,-0.99,0.07
0.6845703,6.2095933E-6,-2.2356585E-4,0.0012204987,-0.18,-0.99,0.07,20480,10185.80,0,0,165,0.42,-3.01,0.21,-0.18,-0.99,0.07
0.984375,6.2095933E-6,-0.0012235641,-7.7950105E-4,-0.18,-0.99,0.07,20495,10186.10,0,0,0,0.42,-3.08,0.07,-0.18,-0.99,0.07
-0.3154297,-0.0019937898,7.764362E-4,2.20499E-4,-0.18,-0.99,0.07,20502,10184.80,0,0,165,0.28,-2.94,0.14,-0.18,-0.99,0.07
-0.3154297,-0.0019937898,-2.2356585E-4,2.20499E-4,-0.18,-0.99,0.07,20517,10184.80,0,0,0,0.28,-3.01,0.14,-0.18,-0.99,0.07
-0.015625,6.2095933E-6,7.764362E-4,-0.002779501,-0.18,-0.99,0.06,20532,10185.10,0,0,165,0.42,-2.94,-0.07,-0.18,-0.99,0.06
0.6845703,-0.0019937898,0.0017764382,-0.0017795011,-0.18,-0.99,0.07,20540,10185.80,0,0,0,0.28,-2.87,0.00,-0.18,-0.99,0.07
0.984375,0.0010062102,7.764362E-4,-7.7950105E-4,-0.17,-0.99,0.07,20555,10186.10,0,0,165,0.49,-2.94,0.07,-0.17,-0.99,0.07
-0.3154297,-9.937901E-4,7.764362E-4,2.20499E-4,-0.17,-0.99,0.07,20570,10184.80,0,0,0,0.35,-2.94,0.14,-0.17,-0.99,0.07
0.6845703,-9.937901E-4,-2.2356585E-4,-7.7950105E-4,-0.17,-0.99,0.07,20577,10185.80,0,0,165,0.35,-3.01,0.07,-0.17,-0.99,0.07
-0.015625,-0.0019937898,-0.0012235641,-7.7950105E-4,-0.17,-0.99,0.07,20593,10185.10,0,0,0,0.28,-3.08,0.07,-0.17,-0.99,0.07
-0.015625,0.0010062102,-2.2356585E-4,2.20499E-4,-0.17,-0.99,0.07,20608,10185.10,0,0,165,0.49,-3.01,0.14,-0.17,-0.99,0.07
0.984375,0.0020062104,7.764362E-4,2.20499E-4,-0.17,-0.99,0.07,20615,10186.10,0,0,0,0.56,-2.94,0.14,-0.17,-0.99,0.07
-0.3154297,6.2095933E-6,-2.2356585E-4,0.002220499,-0.17,-0.99,0.07,20629,10184.80,0,0,165,0.42,-3.01,0.28,-0.17,-0.99,0.07
-0.3154297,0.0010062102,-0.0012235641,0.0012204987,-0.18,-0.99,0.07,20645,10184.80,0,0,0,0.49,-3.08,0.21,-0.18,-0.99,0.07
0.6845703,0.0020062104,-0.0012235641,0.0012204987,-0.18,-0.99,0.07,20652,10185.80,0,0,165,0.56,-3.08,0.21,-0.18,-0.99,0.07
-0.015625,6.2095933E-6,-2.2356585E-4,-7.7950105E-4,-0.18,-0.99,0.07,20667,10185.10,0,0,0,0.42,-3.01,0.07,-0.18,-0.99,0.07
0.984375,-0.0019937898,7.764362E-4,-7.7950105E-4,-0.17,-0.99,0.07,20682,10186.10,0,0,165,0.28,-2.94,0.07,-0.17,-0.99,0.07
0.6845703,-9.937901E-4,-0.0012235641,-0.0017795011,-0.17,-0.99,0.07,20690,10185.80,0,0,0,0.35,-3.08,0.00,-0.17,-0.99,0.07
-0.91503906,-0.0019937898,7.764362E-4,-7.7950105E-4,-0.17,-0.99,0.07,20705,10184.20,0,0,165,0.28,-2.94,0.07,-0.17,-0.99,0.07
-0.3154297,-9.937901E-4,-0.0012235641,-7.7950105E-4,-0.17,-0.99,0.07,20719,10184.80,0,0,0,0.35,-3.08,0.07,-0.17,-0.99,0.07
-0.015625,-9.937901E-4,-2.2356585E-4,-0.0017795011,-0.17,-0.99,0.07,20727,10185.10,0,0,165,0.35,-3.01,0.00,-0.17,-0.99,0.07
0.6845703,6.2095933E-6,-2.2356585E-4,2.20499E-4,-0.17,-0.99,0.07,20742,10185.80,0,0,0,0.42,-3.01,0.14,-0.17,-0.99,0.07
0.6845703,0.0010062102,7.764362E-4,2.20499E-4,-0.17,-0.99,0.07,20757,10185.80,0,0,165,0.49,-2.94,0.14,-0.17,-0.99,0.07
-0.3154297,-9.937901E-4,0.0017764382,0.0032204988,-0.17,-0.99,0.07,20764,10184.80,0,0,0,0.35,-2.87,0.35,-0.17,-0.99,0.07
-0.3154297,0.0010062102,-2.2356585E-4,0.0032204988,-0.17,-0.99,0.06,20780,10184.80,0,0,165,0.49,-3.01,0.35,-0.17,-0.99,0.06
-0.015625,6.2095933E-6,0.0017764382,2.20499E-4,-0.17,-0.99,0.07,20795,10185.10,0,0,0,0.42,-2.87,0.14,-0.17,-0.99,0.07
0.6845703,-9.937901E-4,7.764362E-4,-7.7950105E-4,-0.18,-0.99,0.06,20802,10185.80,0,0,165,0.35,-2.94,0.07,-0.18,-0.99,0.06
-0.3154297,6.2095933E-6,-0.0012235641,0.0012204987,-0.18,-0.99,0.07,20817,10184.80,0,0,0,0.42,-3.08,0.21,-0.18,-0.99,0.07
-0.015625,6.2095933E-6,7.764362E-4,2.20499E-4,-0.18,-0.99,0.07,20831,10185.10,0,0,165,0.42,-2.94,0.14,-0.18,-0.99,0.07
-0.015625,-9.937901E-4,-2.2356585E-4,-7.7950105E-4,-0.18,-0.99,0.07,20839,10185.10,0,0,0,0.35,-3.01,0.07,-0.18,-0.99,0.07
-0.015625,-9.937901E-4,-2.2356585E-4,-7.7950105E-4,-0.17,-0.99,0.07,20854,10185.10,0,0,165,0.35,-3.01,0.07,-0.17,-0.99,0.07
0.984375,6.2095933E-6,7.764362E-4,2.20499E-4,-0.17,-0.99,0.07,20869,10186.10,0,0,0,0.42,-2.94,0.14,-0.17,-0.99,0.07
0.984375,-0.0019937898,7.764362E-4,-7.7950105E-4,-0.17,-0.99,0.07,20876,10186.10,0,0,165,0.28,-2.94,0.07,-0.17,-0.99,0.07
-0.015625,0.0010062102,-2.2356585E-4,0.0012204987,-0.17,-0.99,0.07,20892,10185.10,0,0,0,0.49,-3.01,0.21,-0.17,-0.99,0.07
0.6845703,-0.0019937898,-0.0012235641,-7.7950105E-4,-0.17,-0.99,0.07,20907,10185.80,0,0,165,0.28,-3.08,0.07,-0.17,-0.99,0.07
-0.015625,0.0010062102,-2.2356585E-4,0.0012204987,-0.18,-0.99,0.07,20914,10185.10,0,0,0,0.49,-3.01,0.21,-0.18,-0.99,0.07
0.984375,-9.937901E-4,-2.2356585E-4,2.20499E-4,-0.18,-0.99,0.07,20929,10186.10,0,0,165,0.35,-3.01,0.14,-0.18,-0.99,0.07
-2.2148438,-9.937901E-4,-2.2356585E-4,-7.7950105E-4,-0.18,-0.99,0.06,20944,10182.90,0,0,0,0.35,-3.01,0.07,-0.18,-0.99,0.06
0.984375,0.0010062102,-2.2356585E-4,0.0012204987,-0.17,-0.99,0.07,20952,10186.10,0,0,165,0.49,-3.01,0.21,-0.17,-0.99,0.07
-0.3154297,6.2095933E-6,-0.0012235641,0.0012204987,-0.18,-0.99,0.07,20967,10184.80,0,0,0,0.42,-3.08,0.21,-0.18,-0.99,0.07
0.984375,0.0010062102,-2.2356585E-4,0.0012204987,-0.18,-0.99,0.07,20982,10186.10,0,0,165,0.49,-3.01,0.21,-0.18,-0.99,0.07
0.984375,6.2095933E-6,-2.2356585E-4,2.20499E-4,-0.18,-0.99,0.07,20989,10186.10,0,0,0,0.42,-3.01,0.14,-0.18,-0.99,0.07
0.984375,6.2095933E-6,-2.2356585E-4,-7.7950105E-4,-0.17,-0.99,0.07,21004,10186.10,0,0,165,0.42,-3.01,0.07,-0.17,-0.99,0.07
0.6845703,-0.0019937898,-2.2356585E-4,-7.7950105E-4,-0.17,-0.99,0.07,21020,10185.80,0,0,0,0.28,-3.01,0.07,-0.17,-0.99,0.07
-0.015625,-0.0029937902,-2.2356585E-4,-7.7950105E-4,-0.17,-0.99,0.07,21027,10185.10,0,0,165,0.21,-3.01,0.07,-0.17,-0.99,0.07
0.6845703,6.2095933E-6,-2.2356585E-4,-7.7950105E-4,-0.17,-0.99,0.07,21044,10185.80,0,0,0,0.42,-3.01,0.07,-0.17,-0.99,0.07
0.984375,6.2095933E-6,-2.2356585E-4,2.20499E-4,-0.18,-0.99,0.07,21060,10186.10,0,0,165,0.42,-3.01,0.14,-0.18,-0.99,0.07
0.984375,0.0010062102,7.764362E-4,2.20499E-4,-0.17,-0.99,0.07,21064,10186.10,0,0,0,0.49,-2.94,0.14,-0.17,-0.99,0.07
-0.3154297,0.0010062102,-2.2356585E-4,2.20499E-4,-0.18,-0.99,0.07,21079,10184.80,0,0,165,0.49,-3.01,0.14,-0.18,-0.99,0.07
-0.015625,0.0010062102,-2.2356585E-4,2.20499E-4,-0.18,-0.99,0.07,21094,10185.10,0,0,0,0.49,-3.01,0.14,-0.18,-0.99,0.07
0.6845703,0.0020062104,-2.2356585E-4,2.20499E-4,-0.18,-0.99,0.07,21101,10185.80,0,0,165,0.56,-3.01,0.14,-0.18,-0.99,0.07
0.6845703,6.2095933E-6,7.764362E-4,0.0012204987,-0.17,-0.99,0.07,21116,10185.80,0,0,0,0.42,-2.94,0.21,-0.17,-0.99,0.07
-0.3154297,-9.937901E-4,-2.2356585E-4,-7.7950105E-4,-0.18,-0.99,0.07,21132,10184.80,0,0,165,0.35,-3.01,0.07,-0.18,-0.99,0.07
0.6845703,6.2095933E-6,-2.2356585E-4,-7.7950105E-4,-0.17,-0.99,0.07,21139,10185.80,0,0,0,0.42,-3.01,0.07,-0.17,-0.99,0.07
0.984375,-9.937901E-4,7.764362E-4,0.0012204987,-0.17,-0.99,0.07,21154,10186.10,0,0,165,0.35,-2.94,0.21,-0.17,-0.99,0.07
0.984375,-9.937901E-4,-2.2356585E-4,-0.0017795011,-0.17,-0.99,0.07,21169,10186.10,0,0,0,0.35,-3.01,0.00,-0.17,-0.99,0.07
-0.015625,6.2095933E-6,7.764362E-4,-0.0017795011,-0.17,-0.99,0.07,21176,10185.10,0,0,165,0.42,-2.94,0.00,-0.17,-0.99,0.07
0.6845703,6.2095933E-6,-2.2356585E-4,0.0012204987,-0.17,-0.99,0.07,21192,10185.80,0,0,0,0.42,-3.01,0.21,-0.17,-0.99,0.07
-0.3154297,0.0010062102,-2.2356585E-4,0.0012204987,-0.18,-0.99,0.07,21199,10184.80,0,0,165,0.49,-3.01,0.21,-0.18,-0.99,0.07
-0.015625,-0.0019937898,-0.0012235641,2.20499E-4,-0.17,-0.99,0.07,21214,10185.10,0,0,0,0.28,-3.08,0.14,-0.17,-0.99,0.07
-0.015625,-9.937901E-4,-2.2356585E-4,-0.0017795011,-0.17,-0.99,0.06,21230,10185.10,0,0,165,0.35,-3.01,0.00,-0.17,-0.99,0.06
0.984375,-0.0019937898,-0.0012235641,-7.7950105E-4,-0.17,-0.99,0.07,21242,10186.10,0,0,0,0.28,-3.08,0.07,-0.17,-0.99,0.07
0.984375,6.2095933E-6,-2.2356585E-4,2.20499E-4,-0.17,-0.99,0.07,21252,10186.10,0,0,165,0.42,-3.01,0.14,-0.17,-0.99,0.07
-0.015625,0.0010062102,-2.2356585E-4,2.20499E-4,-0.17,-0.99,0.07,21267,10185.10,0,0,0,0.49,-3.01,0.14,-0.17,-0.99,0.07
0.6845703,6.2095933E-6,7.764362E-4,2.20499E-4,-0.17,-0.99,0.07,21286,10185.80,0,0,165,0.42,-2.94,0.14,-0.17,-0.99,0.07
0.6845703,-9.937901E-4,-2.2356585E-4,-0.0017795011,-0.17,-0.99,0.07,21296,10185.80,0,0,0,0.35,-3.01,0.00,-0.17,-0.99,0.07
-0.015625,-0.0019937898,7.764362E-4,0.0012204987,-0.18,-0.99,0.07,21304,10185.10,0,0,165,0.28,-2.94,0.21,-0.18,-0.99,0.07
-0.015625,6.2095933E-6,-2.2356585E-4,2.20499E-4,-0.18,-0.99,0.07,21312,10185.10,0,0,0,0.42,-3.01,0.14,-0.18,-0.99,0.07
-0.3154297,-9.937901E-4,-2.2356585E-4,2.20499E-4,-0.18,-0.99,0.06,21328,10184.80,0,0,165,0.35,-3.01,0.14,-0.18,-0.99,0.06
0.6845703,6.2095933E-6,-2.2356585E-4,2.20499E-4,-0.18,-0.99,0.06,21345,10185.80,0,0,0,0.42,-3.01,0.14,-0.18,-0.99,0.06
-0.3154297,0.0010062102,-2.2356585E-4,2.20499E-4,-0.18,-0.99,0.06,21350,10184.80,0,0,165,0.49,-3.01,0.14,-0.18,-0.99,0.06
0.6845703,0.006006209,-0.0022235662,-0.0037795012,-0.18,-0.99,0.07,21365,10185.80,0,0,0,0.84,-3.15,-0.14,-0.18,-0.99,0.07
0.6845703,-0.0019937898,-2.2356585E-4,0.005220499,-0.17,-0.99,0.07,21379,10185.80,0,0,165,0.28,-3.01,0.49,-0.17,-0.99,0.07
-0.015625,0.0030062096,-2.2356585E-4,-0.002779501,-0.17,-0.99,0.07,21387,10185.10,0,0,0,0.63,-3.01,-0.07,-0.17,-0.99,0.07
-0.015625,-0.0039937897,7.764362E-4,-0.0017795011,-0.17,-0.99,0.07,21403,10185.10,0,0,165,0.14,-2.94,0.00,-0.17,-0.99,0.07
1.984375,0.0020062104,-0.0012235641,0.0012204987,-0.17,-0.98,0.07,21417,10187.10,0,0,0,0.56,-3.08,0.21,-0.17,-0.98,0.07
-0.015625,0.00800621,0.0017764382,0.0012204987,-0.18,-1.0,0.07,21428,10185.10,0,0,165,0.98,-2.87,0.21,-0.18,-1.00,0.07
0.6845703,0.24900621,-0.0012235641,0.002220499,-0.17,-0.98,0.07,21445,10185.80,0,0,0,17.85,-3.08,0.28,-0.17,-0.98,0.07
0.984375,0.0070062103,-0.0022235662,-7.7950105E-4,-0.18,-0.99,0.07,21454,10186.10,0,0,165,0.91,-3.15,0.07,-0.18,-0.99,0.07
-0.015625,-0.00799379,-0.0012235641,-0.0017795011,-0.18,-0.99,0.07,21466,10185.10,0,0,0,-0.14,-3.08,0.00,-0.18,-0.99,0.07
1.984375,-9.937901E-4,-0.0012235641,-0.002779501,-0.18,-0.98,0.07,21478,10187.10,0,0,165,0.35,-3.08,-0.07,-0.18,-0.98,0.07
-0.015625,0.0020062104,7.764362E-4,-0.0017795011,-0.17,-0.99,0.07,21494,10185.10,0,0,0,0.56,-2.94,0.00,-0.17,-0.99,0.07
-0.015625,-0.00599379,7.764362E-4,2.20499E-4,-0.17,-0.99,0.06,21500,10185.10,0,0,165,0.00,-2.94,0.14,-0.17,-0.99,0.06
0.984375,0.0070062103,7.764362E-4,0.0012204987,-0.17,-0.99,0.07,21514,10186.10,0,0,0,0.91,-2.94,0.21,-0.17,-0.99,0.07
-0.3154297,-0.0019937898,7.764362E-4,0.0012204987,-0.17,-0.99,0.06,21523,10184.80,0,0,165,0.28,-2.94,0.21,-0.17,-0.99,0.06
0.984375,0.00400621,-2.2356585E-4,2.20499E-4,-0.17,-0.99,0.07,21537,10186.10,0,0,0,0.70,-3.01,0.14,-0.17,-0.99,0.07
-0.015625,0.00900621,0.004776433,0.0012204987,-0.18,-1.0,0.07,21552,10185.10,0,0,165,1.05,-2.66,0.21,-0.18,-1.00,0.07
0.984375,-0.00899379,-0.005223561,0.011220499,-0.16,-0.98,0.07,21561,10186.10,0,0,0,-0.21,-3.36,0.91,-0.16,-0.98,0.07
-0.015625,0.011006211,-0.0032235645,-0.005779501,-0.19,-0.99,0.08,21575,10185.10,0,0,165,1.19,-3.22,-0.28,-0.19,-0.99,0.08
0.6845703,0.0020062104,0.0027764365,0.0032204988,-0.18,-1.0,0.07,21590,10185.80,0,0,0,0.56,-2.80,0.35,-0.18,-1.00,0.07
-0.015625,-0.0019937898,7.764362E-4,-0.0017795011,-0.18,-0.98,0.07,21597,10185.10,0,0,165,0.28,-2.94,0.00,-0.18,-0.98,0.07
-0.3154297,0.00400621,0.0017764382,0.0012204987,-0.18,-0.99,0.07,21613,10184.80,0,0,0,0.70,-2.87,0.21,-0.18,-0.99,0.07
-0.3154297,-0.00499379,7.764362E-4,2.20499E-4,-0.18,-0.99,0.07,21627,10184.80,0,0,165,0.07,-2.94,0.14,-0.18,-0.99,0.07
0.984375,0.0020062104,0.0017764382,-7.7950105E-4,-0.18,-0.99,0.07,21634,10186.10,0,0,0,0.56,-2.87,0.07,-0.18,-0.99,0.07
-0.015625,0.0010062102,7.764362E-4,-0.0017795011,-0.17,-0.99,0.08,21649,10185.10,0,0,165,0.49,-2.94,0.00,-0.17,-0.99,0.08
0.6845703,-0.0039937897,-2.2356585E-4,-0.002779501,-0.17,-0.99,0.06,21664,10185.80,0,0,0,0.14,-3.01,-0.07,-0.17,-0.99,0.06
-0.015625,0.0030062096,7.764362E-4,2.20499E-4,-0.16,-0.99,0.07,21672,10185.10,0,0,165,0.63,-2.94,0.14,-0.16,-0.99,0.07
0.984375,-0.0029937902,-2.2356585E-4,-0.0017795011,-0.17,-0.99,0.07,21687,10186.10,0,0,0,0.21,-3.01,0.00,-0.17,-0.99,0.07
-0.015625,0.0030062096,-2.2356585E-4,0.0012204987,-0.17,-0.99,0.07,21702,10185.10,0,0,165,0.63,-3.01,0.21,-0.17,-0.99,0.07
-0.015625,0.0020062104,7.764362E-4,2.20499E-4,-0.17,-0.99,0.07,21710,10185.10,0,0,0,0.56,-2.94,0.14,-0.17,-0.99,0.07
-0.015625,6.2095933E-6,-2.2356585E-4,0.002220499,-0.18,-0.98,0.06,21724,10185.10,0,0,165,0.42,-3.01,0.28,-0.18,-0.98,0.06
0.6845703,0.00500621,7.764362E-4,0.002220499,-0.18,-0.99,0.07,21740,10185.80,0,0,0,0.77,-2.94,0.28,-0.18,-0.99,0.07
-0.3154297,-9.937901E-4,-2.2356585E-4,0.002220499,-0.18,-0.99,0.07,21747,10184.80,0,0,165,0.35,-3.01,0.28,-0.18,-0.99,0.07
-0.015625,0.0030062096,-0.0012235641,0.0012204987,-0.18,-0.98,0.07,21762,10185.10,0,0,0,0.63,-3.08,0.21,-0.18,-0.98,0.07
0.6845703,0.0010062102,-2.2356585E-4,-7.7950105E-4,-0.17,-0.98,0.08,21777,10185.80,0,0,165,0.49,-3.01,0.07,-0.17,-0.98,0.08
0.6845703,-0.01499379,0.0027764365,0.0072204983,-0.18,-0.97,0.05,21785,10185.80,0,0,0,-0.63,-2.80,0.63,-0.18,-0.97,0.05
0.984375,0.0010062102,0.0037764348,-0.005779501,-0.18,-0.98,0.08,21800,10186.10,0,0,165,0.49,-2.73,-0.28,-0.18,-0.98,0.08
0.6845703,-0.00699379,0.004776433,0.0042204987,-0.15,-0.97,0.04,21815,10185.80,0,0,0,-0.07,-2.66,0.42,-0.15,-0.97,0.04
-0.015625,-0.024993792,-2.2356585E-4,-0.004779501,-0.21,-0.98,0.07,21823,10185.10,0,0,165,-1.33,-3.01,-0.21,-0.21,-0.98,0.07
0.6845703,0.01500621,-2.2356585E-4,0.0012204987,-0.17,-0.98,0.06,21837,10185.80,0,0,0,1.47,-3.01,0.21,-0.17,-0.98,0.06
-0.015625,-0.01799379,0.0027764365,2.20499E-4,-0.19,-1.0,0.07,21853,10185.10,0,0,165,-0.84,-2.80,0.14,-0.19,-1.00,0.07
-0.015625,-0.01499379,-0.0032235645,2.20499E-4,-0.18,-0.95,0.05,21860,10185.10,0,0,0,-0.63,-3.22,0.14,-0.18,-0.95,0.05
0.984375,0.02400621,0.0017764382,0.0012204987,-0.18,-1.0,0.07,21875,10186.10,0,0,165,2.10,-2.87,0.21,-0.18,-1.00,0.07
-0.015625,-0.02199379,0.0017764382,0.0032204988,-0.18,-0.97,0.05,21890,10185.10,0,0,0,-1.12,-2.87,0.35,-0.18,-0.97,0.05
-0.3154297,0.01500621,-0.0012235641,2.20499E-4,-0.18,-0.98,0.06,21897,10184.80,0,0,165,1.47,-3.08,0.14,-0.18,-0.98,0.06
-0.015625,-0.01299379,0.0017764382,-0.002779501,-0.17,-1.0,0.07,21912,10185.10,0,0,0,-0.49,-2.87,-0.07,-0.17,-1.00,0.07
-0.015625,-0.00499379,7.764362E-4,0.0032204988,-0.18,-0.97,0.06,21927,10185.10,0,0,165,0.07,-2.94,0.35,-0.18,-0.97,0.06
0.984375,0.021006212,0.0027764365,-0.0017795011,-0.18,-1.01,0.08,21935,10186.10,0,0,0,1.89,-2.80,0.00,-0.18,-1.01,0.08
0.984375,-0.02199379,-2.2356585E-4,-7.7950105E-4,-0.17,-0.98,0.06,21950,10186.10,0,0,165,-1.12,-3.01,0.07,-0.17,-0.98,0.06
-0.015625,0.019006211,0.0027764365,-7.7950105E-4,-0.17,-0.99,0.07,21964,10185.10,0,0,0,1.75,-2.80,0.07,-0.17,-0.99,0.07
-0.015625,-0.00599379,-2.2356585E-4,2.20499E-4,-0.17,-1.0,0.07,21972,10185.10,0,0,165,0.00,-3.01,0.14,-0.17,-1.00,0.07
-0.3154297,6.2095933E-6,-2.2356585E-4,-7.7950105E-4,-0.17,-0.98,0.06,21987,10184.80,0,0,0,0.42,-3.01,0.07,-0.17,-0.98,0.06
-0.3154297,0.00800621,0.0017764382,-0.0017795011,-0.18,-1.0,0.07,22002,10184.80,0,0,165,0.98,-2.87,0.00,-0.18,-1.00,0.07
-0.015625,-0.00999379,-0.0012235641,-0.0017795011,-0.17,-0.98,0.06,22009,10185.10,0,0,0,-0.28,-3.08,0.00,-0.17,-0.98,0.06
0.984375,0.00900621,-2.2356585E-4,0.0032204988,-0.18,-0.99,0.07,22025,10186.10,0,0,165,1.05,-3.01,0.35,-0.18,-0.99,0.07
-0.015625,-0.00699379,7.764362E-4,-7.7950105E-4,-0.17,-0.99,0.07,22039,10185.10,0,0,0,-0.07,-2.94,0.07,-0.17,-0.99,0.07
-0.015625,-9.937901E-4,7.764362E-4,0.0012204987,-0.17,-0.98,0.06,22047,10185.10,0,0,165,0.35,-2.94,0.21,-0.17,-0.98,0.06
0.6845703,0.00400621,-2.2356585E-4,0.0012204987,-0.17,-0.99,0.07,22062,10185.80,0,0,0,0.70,-3.01,0.21,-0.17,-0.99,0.07
0.6845703,-0.0029937902,7.764362E-4,2.20499E-4,-0.17,-0.99,0.07,22077,10185.80,0,0,165,0.21,-2.94,0.14,-0.17,-0.99,0.07
-0.015625,0.0010062102,-0.0012235641,2.20499E-4,-0.17,-0.99,0.07,22084,10185.10,0,0,0,0.49,-3.08,0.14,-0.17,-0.99,0.07
0.6845703,-9.937901E-4,7.764362E-4,2.20499E-4,-0.17,-0.99,0.07,22099,10185.80,0,0,165,0.35,-2.94,0.14,-0.17,-0.99,0.07
-0.3154297,0.0010062102,-2.2356585E-4,-7.7950105E-4,-0.17,-0.99,0.07,22114,10184.80,0,0,0,0.49,-3.01,0.07,-0.17,-0.99,0.07
0.984375,0.0020062104,-2.2356585E-4,-7.7950105E-4,-0.17,-0.99,0.07,22121,10186.10,0,0,165,0.56,-3.01,0.07,-0.17,-0.99,0.07
0.6845703,-0.0029937902,7.764362E-4,2.20499E-4,-0.18,-0.99,0.07,22137,10185.80,0,0,0,0.21,-2.94,0.14,-0.18,-0.99,0.07
0.6845703,0.0010062102,-0.0012235641,2.20499E-4,-0.17,-0.99,0.07,22152,10185.80,0,0,165,0.49,-3.08,0.14,-0.17,-0.99,0.07
-0.3154297,0.0010062102,7.764362E-4,2.20499E-4,-0.17,-0.99,0.07,22159,10184.80,0,0,0,0.49,-2.94,0.14,-0.17,-0.99,0.07
0.984375,6.2095933E-6,-2.2356585E-4,2.20499E-4,-0.18,-0.99,0.07,22174,10186.10,0,0,165,0.42,-3.01,0.14,-0.18,-0.99,0.07
0.6845703,0.0010062102,-2.2356585E-4,2.20499E-4,-0.17,-0.99,0.07,22189,10185.80,0,0,0,0.49,-3.01,0.14,-0.17,-0.99,0.07
0.984375,0.0020062104,-2.2356585E-4,0.0012204987,-0.17,-0.99,0.07,22197,10186.10,0,0,165,0.56,-3.01,0.21,-0.17,-0.99,0.07
0.984375,0.0010062102,7.764362E-4,-0.0017795011,-0.17,-0.99,0.07,22212,10186.10,0,0,0,0.49,-2.94,0.00,-0.17,-0.99,0.07
-0.015625,-9.937901E-4,-0.0012235641,2.20499E-4,-0.17,-0.99,0.07,22227,10185.10,0,0,165,0.35,-3.08,0.14,-0.17,-0.99,0.07
-0.015625,6.2095933E-6,0.0017764382,-7.7950105E-4,-0.17,-0.99,0.07,22234,10185.10,0,0,0,0.42,-2.87,0.07,-0.17,-0.99,0.07
0.984375,6.2095933E-6,-2.2356585E-4,-0.0017795011,-0.18,-0.99,0.07,22249,10186.10,0,0,165,0.42,-3.01,0.00,-0.18,-0.99,0.07
0.6845703,0.0010062102,-2.2356585E-4,-7.7950105E-4,-0.17,-0.99,0.07,22264,10185.80,0,0,0,0.49,-3.01,0.07,-0.17,-0.99,0.07
0.6845703,0.0010062102,-2.2356585E-4,-7.7950105E-4,-0.17,-0.99,0.07,22272,10185.80,0,0,165,0.49,-3.01,0.07,-0.17,-0.99,0.07
-0.015625,6.2095933E-6,-2.2356585E-4,-0.002779501,-0.17,-0.99,0.07,22287,10185.10,0,0,0,0.42,-3.01,-0.07,-0.17,-0.99,0.07
-0.015625,-0.0019937898,7.764362E-4,-7.7950105E-4,-0.17,-0.99,0.07,22302,10185.10,0,0,165,0.28,-2.94,0.07,-0.17,-0.99,0.07
-0.015625,6.2095933E-6,-2.2356585E-4,-7.7950105E-4,-0.17,-0.99,0.07,22309,10185.10,0,0,0,0.42,-3.01,0.07,-0.17,-0.99,0.07
0.984375,6.2095933E-6,-0.0012235641,2.20499E-4,-0.17,-0.99,0.07,22325,10186.10,0,0,165,0.42,-3.08,0.14,-0.17,-0.99,0.07
0.984375,0.00400621,7.764362E-4,0.0012204987,-0.17,-0.99,0.07,22339,10186.10,0,0,0,0.70,-2.94,0.21,-0.17,-0.99,0.07
-0.015625,0.0010062102,-2.2356585E-4,2.20499E-4,-0.18,-0.99,0.07,22346,10185.10,0,0,165,0.49,-3.01,0.14,-0.18,-0.99,0.07
0.6845703,6.2095933E-6,7.764362E-4,2.20499E-4,-0.18,-0.99,0.07,22362,10185.80,0,0,0,0.42,-2.94,0.14,-0.18,-0.99,0.07
0.984375,0.0020062104,-2.2356585E-4,0.002220499,-0.18,-0.99,0.07,22377,10186.10,0,0,165,0.56,-3.01,0.28,-0.18,-0.99,0.07
0.984375,-9.937901E-4,-2.2356585E-4,0.0012204987,-0.18,-0.99,0.07,22384,10186.10,0,0,0,0.35,-3.01,0.21,-0.18,-0.99,0.07
-0.015625,6.2095933E-6,7.764362E-4,-7.7950105E-4,-0.17,-0.99,0.07,22399,10185.10,0,0,165,0.42,-2.94,0.07,-0.17,-0.99,0.07
0.984375,-9.937901E-4,7.764362E-4,-7.7950105E-4,-0.18,-0.99,0.07,22414,10186.10,0,0,0,0.35,-2.94,0.07,-0.18,-0.99,0.07
-0.015625,-0.0019937898,7.764362E-4,2.20499E-4,-0.17,-0.99,0.07,22422,10185.10,0,0,165,0.28,-2.94,0.14,-0.17,-0.99,0.07
0.984375,6.2095933E-6,-0.0012235641,-0.0017795011,-0.17,-0.99,0.07,22437,10186.10,0,0,0,0.42,-3.08,0.00,-0.17,-0.99,0.07
0.6845703,-0.0019937898,-2.2356585E-4,2.20499E-4,-0.17,-0.99,0.07,22452,10185.80,0,0,165,0.28,-3.01,0.14,-0.17,-0.99,0.07
-0.3154297,0.0010062102,-2.2356585E-4,2.20499E-4,-0.17,-0.99,0.07,22459,10184.80,0,0,0,0.49,-3.01,0.14,-0.17,-0.99,0.07
-0.3154297,6.2095933E-6,-2.2356585E-4,0.002220499,-0.17,-0.99,0.07,22474,10184.80,0,0,165,0.42,-3.01,0.28,-0.17,-0.99,0.07
-0.3154297,0.0020062104,7.764362E-4,0.0032204988,-0.18,-0.98,0.07,22490,10184.80,0,0,0,0.56,-2.94,0.35,-0.18,-0.98,0.07
0.6845703,0.0010062102,-2.2356585E-4,0.0012204987,-0.18,-0.99,0.07,22497,10185.80,0,0,165,0.49,-3.01,0.21,-0.18,-0.99,0.07
-0.3154297,-0.00799379,7.764362E-4,2.20499E-4,-0.18,-0.98,0.06,22511,10184.80,0,0,0,-0.14,-2.94,0.14,-0.18,-0.98,0.06
0.984375,0.0020062104,-2.2356585E-4,-0.0017795011,-0.18,-0.98,0.07,22527,10186.10,0,0,165,0.56,-3.01,0.00,-0.18,-0.98,0.07
-1.3154297,-0.0019937898,0.0017764382,2.20499E-4,-0.18,-0.98,0.06,22534,10183.80,0,0,0,0.28,-2.87,0.14,-0.18,-0.98,0.06
-0.015625,0.006006209,0.0017764382,-0.004779501,-0.18,-0.99,0.07,22549,10185.10,0,0,165,0.84,-2.87,-0.21,-0.18,-0.99,0.07
0.984375,-0.01199379,-2.2356585E-4,2.20499E-4,-0.17,-0.97,0.06,22564,10186.10,0,0,0,-0.42,-3.01,0.14,-0.17,-0.97,0.06
-0.015625,0.011006211,7.764362E-4,0.0012204987,-0.17,-0.99,0.07,22572,10185.10,0,0,165,1.19,-2.94,0.21,-0.17,-0.99,0.07
-0.3154297,-0.00699379,-0.0022235662,0.0032204988,-0.17,-0.98,0.08,22586,10184.80,0,0,0,-0.07,-3.15,0.35,-0.17,-0.98,0.08
0.984375,0.011006211,-0.0012235641,0.0012204987,-0.18,-0.99,0.06,22601,10186.10,0,0,165,1.19,-3.08,0.21,-0.18,-0.99,0.06
-0.015625,-0.01099379,-0.0022235662,2.20499E-4,-0.17,-1.0,0.08,22610,10185.10,0,0,0,-0.35,-3.15,0.14,-0.17,-1.00,0.08
0.984375,-9.937901E-4,-0.0012235641,0.006220499,-0.17,-0.97,0.06,22627,10186.10,0,0,165,0.35,-3.08,0.56,-0.17,-0.97,0.06
-0.015625,0.01800621,-2.2356585E-4,0.002220499,-0.18,-1.01,0.08,22639,10185.10,0,0,0,1.68,-3.01,0.28,-0.18,-1.01,0.08
-0.015625,-0.02099379,-2.2356585E-4,-7.7950105E-4,-0.18,-0.97,0.06,22647,10185.10,0,0,165,-1.05,-3.01,0.07,-0.18,-0.97,0.06
-0.015625,0.01400621,0.0017764382,2.20499E-4,-0.18,-0.99,0.07,22662,10185.10,0,0,0,1.40,-2.87,0.14,-0.18,-0.99,0.07
-0.015625,-0.00899379,7.764362E-4,2.20499E-4,-0.18,-1.0,0.06,22677,10185.10,0,0,165,-0.21,-2.94,0.14,-0.18,-1.00,0.06
-0.015625,0.0030062096,-0.0012235641,-0.0017795011,-0.17,-0.98,0.06,22684,10185.10,0,0,0,0.63,-3.08,0.00,-0.17,-0.98,0.06
0.6845703,0.00800621,7.764362E-4,2.20499E-4,-0.18,-1.0,0.07,22699,10185.80,0,0,165,0.98,-2.94,0.14,-0.18,-1.00,0.07
0.6845703,-0.01099379,7.764362E-4,0.0012204987,-0.17,-0.98,0.06,22714,10185.80,0,0,0,-0.35,-2.94,0.21,-0.17,-0.98,0.06
-0.015625,0.011006211,-2.2356585E-4,0.002220499,-0.17,-0.99,0.07,22723,10185.10,0,0,165,1.19,-3.01,0.28,-0.17,-0.99,0.07
-0.015625,-0.00899379,7.764362E-4,2.20499E-4,-0.17,-0.99,0.07,22736,10185.10,0,0,0,-0.21,-2.94,0.14,-0.17,-0.99,0.07
0.6845703,0.0030062096,-2.2356585E-4,-0.0017795011,-0.17,-0.98,0.07,22751,10185.80,0,0,165,0.63,-3.01,0.00,-0.17,-0.98,0.07
0.984375,0.0020062104,7.764362E-4,0.0012204987,-0.18,-0.99,0.07,22759,10186.10,0,0,0,0.56,-2.94,0.21,-0.18,-0.99,0.07
0.984375,-0.0019937898,-0.0012235641,0.0012204987,-0.17,-0.98,0.07,22776,10186.10,0,0,165,0.28,-3.08,0.21,-0.17,-0.98,0.07
0.984375,0.006006209,7.764362E-4,0.0042204987,-0.18,-0.99,0.08,22789,10186.10,0,0,0,0.84,-2.94,0.42,-0.18,-0.99,0.08
0.984375,-0.00499379,7.764362E-4,-0.2577795,-0.17,-0.99,0.07,22796,10186.10,0,0,165,0.07,-2.94,-17.92,-0.17,-0.99,0.07
-0.015625,6.2095933E-6,-0.0022235662,-7.7950105E-4,-0.17,-0.99,0.07,22811,10185.10,0,0,0,0.42,-3.15,0.07,-0.17,-0.99,0.07
0.984375,0.0010062102,-0.0012235641,-7.7950105E-4,-0.17,-0.99,0.07,22827,10186.10,0,0,165,0.49,-3.08,0.07,-0.17,-0.99,0.07
-0.015625,-0.00499379,-2.2356585E-4,-7.7950105E-4,-0.17,-0.99,0.06,22835,10185.10,0,0,0,0.07,-3.01,0.07,-0.17,-0.99,0.06
0.38476562,0.0010062102,0.0017764382,-0.002779501,-0.17,-0.99,0.06,22849,10185.50,0,0,165,0.49,-2.87,-0.07,-0.17,-0.99,0.06
-0.015625,-0.0039937897,7.764362E-4,0.0012204987,-0.17,-0.99,0.06,22864,10185.10,0,0,0,0.14,-2.94,0.21,-0.17,-0.99,0.06
-0.3154297,0.0010062102,-2.2356585E-4,0.002220499,-0.17,-0.99,0.06,22872,10184.80,0,0,165,0.49,-3.01,0.28,-0.17,-0.99,0.06
0.984375,0.0020062104,7.764362E-4,0.0012204987,-0.18,-0.99,0.07,22886,10186.10,0,0,0,0.56,-2.94,0.21,-0.18,-0.99,0.07
-0.015625,-0.0019937898,-2.2356585E-4,-7.7950105E-4,-0.17,-0.99,0.07,22901,10185.10,0,0,165,0.28,-3.01,0.07,-0.17,-0.99,0.07
0.6845703,0.00500621,0.0017764382,0.0042204987,-0.18,-0.99,0.07,22909,10185.80,0,0,0,0.77,-2.87,0.42,-0.18,-0.99,0.07
0.984375,6.2095933E-6,-0.0012235641,0.0032204988,-0.18,-0.99,0.06,22924,10186.10,0,0,165,0.42,-3.08,0.35,-0.18,-0.99,0.06
0.984375,6.2095933E-6,-0.0012235641,-0.0017795011,-0.17,-0.99,0.07,22940,10186.10,0,0,0,0.42,-3.08,0.00,-0.17,-0.99,0.07
-0.015625,-0.00599379,0.0027764365,0.002220499,-0.17,-0.97,0.06,22947,10185.10,0,0,165,0.00,-2.80,0.28,-0.17,-0.97,0.06
-0.015625,0.01400621,0.0017764382,-0.0017795011,-0.16,-1.01,0.08,22962,10185.10,0,0,0,1.40,-2.87,0.00,-0.16,-1.01,0.08
-0.3154297,-0.01999379,-0.0032235645,0.0212205,-0.15,-0.97,0.08,22977,10184.80,0,0,165,-0.98,-3.22,1.61,-0.15,-0.97,0.08
-0.015625,0.04700621,-0.011223566,0.034220498,-0.19,-0.98,0.07,22984,10185.10,0,0,0,3.71,-3.78,2.52,-0.19,-0.98,0.07
0.984375,0.02600621,-0.0022235662,-0.005779501,-0.19,-1.05,0.11,22999,10186.10,0,0,165,2.24,-3.15,-0.28,-0.19,-1.05,0.11
0.984375,-0.09699379,-0.0022235662,-0.0197795,-0.17,-0.91,0.05,23015,10186.10,0,0,0,-6.37,-3.15,-1.26,-0.17,-0.91,0.05
0.984375,0.045006208,0.008776434,-0.0377795,-0.17,-1.01,0.06,23022,10186.10,0,0,165,3.57,-2.38,-2.52,-0.17,-1.01,0.06
1.6845703,-0.114993796,-0.0022235662,0.0252205,-0.16,-1.06,0.02,23036,10186.80,0,0,0,-7.63,-3.15,1.89,-0.16,-1.06,0.02
0.6845703,-0.12199379,0.08177644,0.19222051,-0.2,-0.87,0.02,23052,10185.80,0,0,165,-8.12,2.73,13.58,-0.20,-0.87,0.02
0.984375,0.22300623,0.08177644,0.14822051,-0.11,-1.04,0.1,23061,10186.10,0,0,0,16.03,2.73,10.50,-0.11,-1.04,0.10
0.984375,-0.02099379,-0.06422356,0.006220499,-0.16,-1.02,0.1,23074,10186.10,0,0,165,-1.05,-7.49,0.56,-0.16,-1.02,0.10
0.984375,-0.00499379,-0.020223565,-0.042779498,-0.19,-0.94,0.11,23089,10186.10,0,0,0,0.07,-4.41,-2.87,-0.19,-0.94,0.11
-0.015625,-0.03899379,0.024776436,-0.0477795,-0.21,-1.05,0.07,23096,10185.10,0,0,165,-2.31,-1.26,-3.22,-0.21,-1.05,0.07
-0.015625,-0.073993795,0.10477644,0.016220499,-0.2,-0.92,0.03,23111,10185.10,0,0,0,-4.76,4.34,1.26,-0.20,-0.92,0.03
-0.91503906,0.13200621,0.057776436,0.0532205,-0.16,-0.98,0.0,23127,10184.20,0,0,165,9.66,1.05,3.85,-0.16,-0.98,0.00
0.6845703,-0.08299379,0.12477643,-0.009779502,-0.1,-0.94,0.1,23134,10185.80,0,0,0,-5.39,5.74,-0.56,-0.10,-0.94,0.10
-0.015625,0.15700622,0.023776434,0.028220499,-0.14,-1.05,0.11,23149,10185.10,0,0,165,11.41,-1.33,2.10,-0.14,-1.05,0.11
-0.015625,-0.15199378,0.067776434,-0.008779502,-0.18,-0.99,0.1,23165,10185.10,0,0,0,-10.22,1.75,-0.49,-0.18,-0.99,0.10
0.984375,0.03100621,0.011776434,0.034220498,-0.11,-0.9,0.08,23172,10186.10,0,0,165,2.59,-2.17,2.52,-0.11,-0.90,0.08
0.984375,0.09100621,-0.009223565,0.0192205,-0.19,-1.05,0.13,23186,10186.10,0,0,0,6.79,-3.64,1.47,-0.19,-1.05,0.13
-0.015625,-0.095993795,0.0077764355,-0.0417795,-0.18,-0.99,0.07,23202,10185.10,0,0,165,-6.30,-2.45,-2.80,-0.18,-0.99,0.07
-0.015625,-0.04999379,0.019776436,-0.046779502,-0.17,-0.94,0.04,23210,10185.10,0,0,0,-3.08,-1.61,-3.15,-0.17,-0.94,0.04
-0.015625,0.05600621,0.030776437,0.013220498,-0.22,-1.09,-0.05,23225,10185.10,0,0,165,4.34,-0.84,1.05,-0.22,-1.09,-0.05
0.984375,-0.0019937898,0.041776437,0.075220495,-0.18,-0.9,0.1,23239,10186.10,0,0,0,0.28,-0.07,5.39,-0.18,-0.90,0.10
-0.3154297,0.16400622,-0.025223568,0.10522049,-0.22,-1.1,0.13,23254,10184.80,0,0,165,11.90,-4.76,7.49,-0.22,-1.10,0.13
0.984375,-0.114993796,0.005776435,-0.0637795,-0.2,-0.98,0.08,23262,10186.10,0,0,0,-7.63,-2.59,-4.34,-0.20,-0.98,0.08
-0.3154297,-0.1669938,0.034776434,-0.1247795,-0.19,-0.94,0.01,23278,10184.80,0,0,165,-11.27,-0.56,-8.61,-0.19,-0.94,0.01
0.984375,-0.018993791,0.15177643,-0.0487795,-0.12,-1.04,-0.04,23284,10186.10,0,0,0,-0.91,7.63,-3.29,-0.12,-1.04,-0.04
0.984375,-0.03299379,0.19877644,-0.0247795,-0.14,-0.93,0.02,23300,10186.10,0,0,165,-1.89,10.92,-1.61,-0.14,-0.93,0.02
0.984375,0.24700621,0.15577644,0.1492205,-0.13,-0.97,0.04,23314,10186.10,0,0,0,17.71,7.91,10.57,-0.13,-0.97,0.04
0.984375,0.21400622,0.075776435,0.1802205,-0.18,-1.02,0.17,23322,10186.10,0,0,165,15.40,2.31,12.74,-0.18,-1.02,0.17
0.984375,0.08500621,-0.08422357,0.1912205,-0.32,-1.01,0.19,23336,10186.10,0,0,0,6.37,-8.89,13.51,-0.32,-1.01,0.19
-0.015625,-0.10499379,0.011776434,-0.1087795,-0.23,-0.92,0.08,23352,10185.10,0,0,165,-6.93,-2.17,-7.49,-0.23,-0.92,0.08
0.984375,-0.14699379,0.07377644,-0.2177795,-0.17,-1.03,0.09,23359,10186.10,0,0,0,-9.87,2.17,-15.12,-0.17,-1.03,0.09
-0.015625,-0.16799378,0.037776437,-0.1117795,-0.15,-1.0,0.03,23376,10185.10,0,0,165,-11.34,-0.35,-7.70,-0.15,-1.00,0.03
0.6845703,0.05100621,-0.0012235641,0.0232205,-0.15,-0.94,0.04,23389,10185.80,0,0,0,3.99,-3.08,1.75,-0.15,-0.94,0.04
0.984375,0.16400622,-0.009223565,0.0952205,-0.16,-1.04,0.07,23396,10186.10,0,0,165,11.90,-3.64,6.79,-0.16,-1.04,0.07
1.984375,-0.01699379,-0.0022235662,0.027220499,-0.19,-0.99,0.08,23411,10187.10,0,0,0,-0.77,-3.15,2.03,-0.19,-0.99,0.08
-0.015625,-0.01399379,0.027776435,-0.039779503,-0.19,-0.96,0.07,23428,10185.10,0,0,165,-0.56,-1.05,-2.66,-0.19,-0.96,0.07
-0.015625,-0.02599379,0.004776433,-0.0597795,-0.17,-1.04,0.08,23435,10185.10,0,0,0,-1.40,-2.66,-4.06,-0.17,-1.04,0.08
0.984375,-0.048993792,-0.008223563,0.0012204987,-0.16,-0.98,0.05,23450,10186.10,0,0,165,-3.01,-3.57,0.21,-0.16,-0.98,0.05
1.984375,0.05500621,-0.004223563,0.0322205,-0.18,-0.98,0.06,23465,10187.10,0,0,0,4.27,-3.29,2.38,-0.18,-0.98,0.06
0.984375,0.019006211,-0.0022235662,-7.7950105E-4,-0.18,-1.02,0.08,23472,10186.10,0,0,165,1.75,-3.15,0.07,-0.18,-1.02,0.08
0.984375,-0.04299379,0.0037764348,-0.025779499,-0.18,-0.97,0.06,23487,10186.10,0,0,0,-2.59,-2.73,-1.68,-0.18,-0.97,0.06
0.984375,0.011006211,0.0027764365,-7.7950105E-4,-0.17,-0.99,0.06,23502,10186.10,0,0,165,1.19,-2.80,0.07,-0.17,-0.99,0.06
0.984375,0.013006211,-0.005223561,0.022220498,-0.17,-0.99,0.07,23509,10186.10,0,0,0,1.33,-3.36,1.68,-0.17,-0.99,0.07
0.984375,0.010006211,-0.0022235662,0.0042204987,-0.18,-0.98,0.07,23525,10186.10,0,0,165,1.12,-3.15,0.42,-0.18,-0.98,0.07
0.984375,-0.0039937897,0.004776433,-0.014779502,-0.18,-1.0,0.08,23540,10186.10,0,0,0,0.14,-2.66,-0.91,-0.18,-1.00,0.08
-0.015625,-0.01799379,0.0017764382,-0.006779501,-0.17,-0.98,0.07,23547,10185.10,0,0,165,-0.84,-2.87,-0.35,-0.17,-0.98,0.07
0.984375,0.017006211,-2.2356585E-4,0.010220498,-0.17,-0.99,0.07,23562,10186.10,0,0,0,1.61,-3.01,0.84,-0.17,-0.99,0.07
-0.015625,-9.937901E-4,-2.2356585E-4,0.0042204987,-0.18,-0.99,0.07,23577,10185.10,0,0,165,0.35,-3.01,0.42,-0.18,-0.99,0.07
-0.015625,-0.00999379,0.0017764382,-0.006779501,-0.18,-0.98,0.06,23585,10185.10,0,0,0,-0.28,-2.87,-0.35,-0.18,-0.98,0.06
1.6845703,0.0020062104,0.0017764382,-0.0017795011,-0.18,-0.99,0.07,23600,10186.80,0,0,165,0.56,-2.87,0.00,-0.18,-0.99,0.07
-0.015625,-9.937901E-4,-2.2356585E-4,0.006220499,-0.18,-0.99,0.07,23615,10185.10,0,0,0,0.35,-3.01,0.56,-0.18,-0.99,0.07
0.6845703,0.00400621,-0.0022235662,0.0032204988,-0.18,-0.98,0.07,23622,10185.80,0,0,165,0.70,-3.15,0.35,-0.18,-0.98,0.07
0.6845703,-0.0039937897,7.764362E-4,-0.004779501,-0.18,-0.99,0.07,23637,10185.80,0,0,0,0.14,-2.94,-0.21,-0.18,-0.99,0.07
0.984375,-0.00899379,7.764362E-4,-0.004779501,-0.18,-0.99,0.06,23652,10186.10,0,0,165,-0.21,-2.94,-0.21,-0.18,-0.99,0.06
0.6845703,0.00500621,-2.2356585E-4,0.0032204988,-0.18,-0.99,0.06,23661,10185.80,0,0,0,0.77,-3.01,0.35,-0.18,-0.99,0.06
0.984375,0.00400621,-2.2356585E-4,0.0032204988,-0.18,-0.99,0.07,23682,10186.10,0,0,165,0.70,-3.01,0.35,-0.18,-0.99,0.07
0.984375,0.016006209,0.0027764365,0.008220498,-0.19,-0.98,0.07,23689,10186.10,0,0,0,1.54,-2.80,0.70,-0.19,-0.98,0.07
-0.015625,0.110006206,-0.08022356,0.034220498,-0.08,-0.95,0.25,23702,10185.10,0,0,165,8.12,-8.61,2.52,-0.08,-0.95,0.25
0.984375,-0.3549938,0.044776436,-0.1707795,-0.09,-1.05,0.08,23726,10186.10,0,0,0,-24.43,0.14,-11.83,-0.09,-1.05,0.08
-0.015625,-0.01299379,0.014776435,-0.2767795,0.17,-1.02,0.13,23729,10185.10,0,0,165,-0.49,-1.96,-19.25,0.17,-1.02,0.13
0.984375,-0.3469938,-0.059223562,-0.3387795,-0.41,-0.73,-0.0,23735,10186.10,0,0,0,-23.87,-7.14,-23.59,-0.41,-0.73,-0.00
0.984375,0.4090062,-0.08622356,0.4302205,-0.16,-1.0,-0.07,23750,10186.10,0,0,165,29.05,-9.03,30.24,-0.16,-1.00,-0.07
0.984375,0.28100622,-0.048223563,0.1222205,-0.27,-1.15,0.2,23765,10186.10,0,0,0,20.09,-6.37,8.68,-0.27,-1.15,0.20
0.984375,-0.2599938,0.004776433,-0.119779505,-0.19,-0.84,0.04,23772,10186.10,0,0,165,-17.78,-2.66,-8.26,-0.19,-0.84,0.04
1.984375,0.04400621,0.100776434,-0.1357795,-0.17,-1.08,0.09,23787,10187.10,0,0,0,3.50,4.06,-9.38,-0.17,-1.08,0.09
0.984375,-0.11599379,-0.011223566,-0.002779501,-0.1,-0.88,0.05,23803,10186.10,0,0,165,-7.70,-3.78,-0.07,-0.10,-0.88,0.05
-0.015625,0.15000622,-0.026223563,0.1242205,-0.18,-0.93,0.03,23809,10185.10,0,0,0,10.92,-4.83,8.82,-0.18,-0.93,0.03
0.984375,0.110006206,-0.0032235645,0.0412205,-0.2,-1.14,0.17,23825,10186.10,0,0,165,8.12,-3.22,3.01,-0.20,-1.14,0.17
0.984375,-0.18199378,-0.0022235662,-0.042779498,-0.17,-0.87,0.02,23840,10186.10,0,0,0,-12.32,-3.15,-2.87,-0.17,-0.87,0.02
-0.015625,0.122006215,0.028776435,-0.049779497,-0.17,-1.06,0.08,23847,10185.10,0,0,165,8.96,-0.98,-3.36,-0.17,-1.06,0.08
-0.015625,-0.10799379,-0.011223566,0.0322205,-0.16,-0.96,0.05,23862,10185.10,0,0,0,-7.14,-3.78,2.38,-0.16,-0.96,0.05
0.984375,0.09500621,-0.009223565,0.0582205,-0.19,-0.91,0.04,23878,10186.10,0,0,165,7.07,-3.64,4.20,-0.19,-0.91,0.04
0.984375,0.05700621,0.008776434,-0.027779501,-0.2,-1.12,0.14,23885,10186.10,0,0,0,4.41,-2.38,-1.82,-0.20,-1.12,0.14
0.984375,-0.113993794,-0.0032235645,-0.025779499,-0.16,-0.89,0.02,23900,10186.10,0,0,165,-7.56,-3.22,-1.68,-0.16,-0.89,0.02
0.984375,0.12800622,0.006776437,0.0202205,-0.18,-1.03,0.08,23915,10186.10,0,0,0,9.38,-2.52,1.54,-0.18,-1.03,0.08
0.984375,-0.08899379,-0.008223563,0.009220499,-0.17,-0.9,0.07,23922,10186.10,0,0,165,-5.81,-3.57,0.77,-0.17,-0.90,0.07
0.6845703,0.019006211,0.0027764365,-0.005779501,-0.18,-0.94,0.03,23937,10185.80,0,0,0,1.75,-2.80,-0.28,-0.18,-0.94,0.03
0.984375,0.030006208,0.009776436,-0.0157795,-0.18,-1.07,0.1,23952,10186.10,0,0,165,2.52,-2.31,-0.98,-0.18,-1.07,0.10
0.984375,-0.076993786,-0.004223563,0.012220499,-0.16,-0.93,0.04,23960,10186.10,0,0,0,-4.97,-3.29,0.98,-0.16,-0.93,0.04
1.984375,0.08300621,0.0027764365,0.0172205,-0.18,-1.02,0.08,23974,10187.10,0,0,165,6.23,-2.80,1.33,-0.18,-1.02,0.08
0.984375,-0.04299379,7.764362E-4,-0.011779501,-0.18,-1.01,0.07,23989,10186.10,0,0,0,-2.59,-2.94,-0.70,-0.18,-1.01,0.07
0.984375,-0.022993792,0.0027764365,-0.010779501,-0.17,-0.94,0.05,23997,10186.10,0,0,165,-1.19,-2.80,-0.63,-0.17,-0.94,0.05
0.984375,0.027006209,-2.2356585E-4,0.0032204988,-0.18,-1.04,0.09,24019,10186.10,0,0,0,2.31,-3.01,0.35,-0.18,-1.04,0.09
0.984375,-0.037993792,-0.005223561,0.010220498,-0.18,-0.96,0.05,24027,10186.10,0,0,165,-2.24,-3.36,0.84,-0.18,-0.96,0.05
0.984375,0.03900621,0.0037764348,-0.002779501,-0.18,-1.01,0.07,24034,10186.10,0,0,0,3.15,-2.73,-0.07,-0.18,-1.01,0.07
0.984375,-0.03199379,0.0027764365,-0.008779502,-0.17,-1.0,0.07,24050,10186.10,0,0,165,-1.82,-2.80,-0.49,-0.17,-1.00,0.07
0.6845703,0.023006208,-2.2356585E-4,0.009220499,-0.17,-0.97,0.06,24065,10185.80,0,0,0,2.03,-3.01,0.77,-0.17,-0.97,0.06
0.984375,0.01500621,-0.0012235641,0.008220498,-0.18,-1.02,0.09,24072,10186.10,0,0,165,1.47,-3.08,0.70,-0.18,-1.02,0.09
0.984375,-0.02399379,-0.0012235641,-0.005779501,-0.17,-0.97,0.06,24087,10186.10,0,0,0,-1.26,-3.08,-0.28,-0.17,-0.97,0.06
0.984375,0.017006211,0.0017764382,-0.0037795012,-0.17,-1.0,0.07,24102,10186.10,0,0,165,1.61,-2.87,-0.14,-0.17,-1.00,0.07
-0.015625,-0.01499379,-0.0012235641,-0.0037795012,-0.17,-1.0,0.07,24110,10185.10,0,0,0,-0.63,-3.08,-0.14,-0.17,-1.00,0.07
0.984375,6.2095933E-6,-0.0012235641,0.005220499,-0.17,-0.98,0.06,24124,10186.10,0,0,165,0.42,-3.08,0.49,-0.17,-0.98,0.06
-0.3154297,0.0070062103,0.0017764382,0.002220499,-0.18,-1.0,0.08,24139,10184.80,0,0,0,0.91,-2.87,0.28,-0.18,-1.00,0.08
0.984375,-0.01499379,0.0017764382,-0.002779501,-0.17,-0.98,0.06,24147,10186.10,0,0,165,-0.63,-2.87,-0.07,-0.17,-0.98,0.06
0.984375,0.013006211,7.764362E-4,0.0072204983,-0.17,-0.99,0.07,24162,10186.10,0,0,0,1.33,-2.94,0.63,-0.17,-0.99,0.07
0.984375,-0.0029937902,-0.0012235641,2.20499E-4,-0.18,-0.99,0.07,24178,10186.10,0,0,165,0.21,-3.08,0.14,-0.18,-0.99,0.07
0.984375,-9.937901E-4,-0.0012235641,-0.002779501,-0.18,-0.98,0.07,24184,10186.10,0,0,0,0.35,-3.08,-0.07,-0.18,-0.98,0.07
0.984375,6.2095933E-6,-2.2356585E-4,-7.7950105E-4,-0.17,-0.99,0.07,24201,10186.10,0,0,165,0.42,-3.01,0.07,-0.17,-0.99,0.07
0.984375,-0.0029937902,7.764362E-4,2.20499E-4,-0.17,-0.99,0.06,24214,10186.10,0,0,0,0.21,-2.94,0.14,-0.17,-0.99,0.06
0.984375,0.0030062096,7.764362E-4,0.0012204987,-0.17,-0.99,0.07,24222,10186.10,0,0,165,0.63,-2.94,0.21,-0.17,-0.99,0.07
0.6845703,-9.937901E-4,-2.2356585E-4,-7.7950105E-4,-0.17,-0.99,0.07,24237,10185.80,0,0,0,0.35,-3.01,0.07,-0.17,-0.99,0.07
0.984375,6.2095933E-6,7.764362E-4,0.0042204987,-0.17,-0.98,0.07,24253,10186.10,0,0,165,0.42,-2.94,0.42,-0.17,-0.98,0.07
0.984375,0.0070062103,-0.0022235662,0.006220499,-0.17,-0.99,0.07,24259,10186.10,0,0,0,0.91,-3.15,0.56,-0.17,-0.99,0.07
0.984375,-0.00899379,-0.0012235641,-0.0017795011,-0.17,-0.98,0.07,24276,10186.10,0,0,165,-0.21,-3.08,0.00,-0.17,-0.98,0.07
-0.015625,0.00800621,-2.2356585E-4,0.002220499,-0.17,-0.99,0.07,24293,10185.10,0,0,0,0.98,-3.01,0.28,-0.17,-0.99,0.07
0.984375,-9.937901E-4,7.764362E-4,0.005220499,-0.17,-0.99,0.07,24297,10186.10,0,0,165,0.35,-2.94,0.49,-0.17,-0.99,0.07
0.984375,0.0020062104,-0.0012235641,2.20499E-4,-0.17,-0.99,0.07,24312,10186.10,0,0,0,0.56,-3.08,0.14,-0.17,-0.99,0.07
-0.015625,0.0010062102,-0.0022235662,-7.7950105E-4,-0.18,-0.99,0.07,24334,10185.10,0,0,165,0.49,-3.15,0.07,-0.18,-0.99,0.07
0.984375,-0.0029937902,-2.2356585E-4,-7.7950105E-4,-0.18,-0.98,0.07,24335,10186.10,0,0,0,0.21,-3.01,0.07,-0.18,-0.98,0.07
1.984375,0.0020062104,7.764362E-4,0.0012204987,-0.17,-0.98,0.07,24349,10187.10,0,0,165,0.56,-2.94,0.21,-0.17,-0.98,0.07
0.984375,-9.937901E-4,7.764362E-4,2.20499E-4,-0.18,-0.99,0.07,24365,10186.10,0,0,0,0.35,-2.94,0.14,-0.18,-0.99,0.07
0.984375,6.2095933E-6,-0.0012235641,0.0072204983,-0.17,-0.99,0.06,24372,10186.10,0,0,165,0.42,-3.08,0.63,-0.17,-0.99,0.06
-0.015625,0.00900621,-0.0032235645,0.014220499,-0.18,-0.99,0.07,24387,10185.10,0,0,0,1.05,-3.22,1.12,-0.18,-0.99,0.07
0.984375,0.0030062096,-0.0012235641,0.0032204988,-0.18,-0.99,0.07,24402,10186.10,0,0,165,0.63,-3.08,0.35,-0.18,-0.99,0.07
0.984375,0.00400621,-0.0032235645,0.005220499,-0.17,-0.99,0.07,24411,10186.10,0,0,0,0.70,-3.22,0.49,-0.17,-0.99,0.07
0.984375,0.010006211,-0.0032235645,0.012220499,-0.17,-0.99,0.07,24425,10186.10,0,0,165,1.12,-3.22,0.98,-0.17,-0.99,0.07
0.984375,0.010006211,-0.0022235662,0.009220499,-0.18,-0.99,0.07,24442,10186.10,0,0,0,1.12,-3.15,0.77,-0.18,-0.99,0.07
0.984375,-0.00899379,0.0017764382,-0.009779502,-0.18,-0.99,0.07,24447,10186.10,0,0,165,-0.21,-2.87,-0.56,-0.18,-0.99,0.07
0.984375,-0.0029937902,0.0017764382,-0.006779501,-0.17,-0.99,0.07,24462,10186.10,0,0,0,0.21,-2.87,-0.35,-0.17,-0.99,0.07
0.984375,0.00400621,-2.2356585E-4,0.0072204983,-0.17,-0.99,0.07,24477,10186.10,0,0,165,0.70,-3.01,0.63,-0.17,-0.99,0.07
0.984375,0.006006209,-2.2356585E-4,0.005220499,-0.18,-0.99,0.07,24484,10186.10,0,0,0,0.84,-3.01,0.49,-0.18,-0.99,0.07
1.984375,-0.0029937902,7.764362E-4,-0.004779501,-0.18,-0.99,0.07,24500,10187.10,0,0,165,0.21,-2.94,-0.21,-0.18,-0.99,0.07
0.984375,-9.937901E-4,7.764362E-4,-7.7950105E-4,-0.17,-0.99,0.07,24515,10186.10,0,0,0,0.35,-2.94,0.07,-0.17,-0.99,0.07
0.984375,0.00800621,-0.0032235645,0.006220499,-0.18,-0.99,0.07,24522,10186.10,0,0,165,0.98,-3.22,0.56,-0.18,-0.99,0.07
0.984375,-0.0039937897,-0.0022235662,0.005220499,-0.17,-0.99,0.07,24537,10186.10,0,0,0,0.14,-3.15,0.49,-0.17,-0.99,0.07
-0.015625,0.016006209,-0.0032235645,0.0202205,-0.17,-0.99,0.06,24551,10185.10,0,0,165,1.54,-3.22,1.54,-0.17,-0.99,0.06
0.984375,0.021006212,-0.0012235641,0.0232205,-0.18,-0.99,0.07,24559,10186.10,0,0,0,1.89,-3.08,1.75,-0.18,-0.99,0.07
1.984375,0.0070062103,-0.006223567,0.0172205,-0.18,-0.98,0.07,24574,10187.10,0,0,165,0.91,-3.43,1.33,-0.18,-0.98,0.07
0.984375,0.017006211,-0.0032235645,0.0152205,-0.17,-0.99,0.07,24589,10186.10,0,0,0,1.61,-3.22,1.19,-0.17,-0.99,0.07
0.984375,0.00800621,-0.0022235662,0.012220499,-0.18,-0.99,0.08,24596,10186.10,0,0,165,0.98,-3.15,0.98,-0.18,-0.99,0.08
0.984375,0.00800621,0.004776433,-0.002779501,-0.17,-0.98,0.07,24611,10186.10,0,0,0,0.98,-2.66,-0.07,-0.17,-0.98,0.07
0.984375,0.00400621,0.0027764365,-0.004779501,-0.17,-0.99,0.07,24627,10186.10,0,0,165,0.70,-2.80,-0.21,-0.17,-0.99,0.07
0.984375,0.00500621,7.764362E-4,-7.7950105E-4,-0.17,-0.99,0.07,24634,10186.10,0,0,0,0.77,-2.94,0.07,-0.17,-0.99,0.07
1.984375,0.006006209,-2.2356585E-4,0.0042204987,-0.18,-0.99,0.07,24649,10187.10,0,0,165,0.84,-3.01,0.42,-0.18,-0.99,0.07
-0.015625,6.2095933E-6,7.764362E-4,-0.0017795011,-0.18,-0.99,0.07,24664,10185.10,0,0,0,0.42,-2.94,0.00,-0.18,-0.99,0.07
0.984375,0.0010062102,7.764362E-4,-0.0017795011,-0.18,-0.99,0.07,24672,10186.10,0,0,165,0.49,-2.94,0.00,-0.18,-0.99,0.07
1.984375,-9.937901E-4,7.764362E-4,0.0012204987,-0.18,-0.99,0.07,24687,10187.10,0,0,0,0.35,-2.94,0.21,-0.18,-0.99,0.07
0.984375,0.0010062102,-2.2356585E-4,0.002220499,-0.18,-0.99,0.07,24702,10186.10,0,0,165,0.49,-3.01,0.28,-0.18,-0.99,0.07
0.984375,-9.937901E-4,7.764362E-4,-7.7950105E-4,-0.18,-0.99,0.07,24710,10186.10,0,0,0,0.35,-2.94,0.07,-0.18,-0.99,0.07
1.984375,-9.937901E-4,-2.2356585E-4,-0.002779501,-0.17,-0.99,0.07,24724,10187.10,0,0,165,0.35,-3.01,-0.07,-0.17,-0.99,0.07
1.984375,0.0010062102,7.764362E-4,0.0012204987,-0.18,-0.99,0.07,24739,10187.10,0,0,0,0.49,-2.94,0.21,-0.18,-0.99,0.07
1.984375,0.0010062102,-0.0012235641,0.0012204987,-0.18,-0.99,0.07,24747,10187.10,0,0,165,0.49,-3.08,0.21,-0.18,-0.99,0.07
1.3847656,-0.0019937898,-2.2356585E-4,2.20499E-4,-0.17,-0.99,0.07,24762,10186.50,0,0,0,0.28,-3.01,0.14,-0.17,-0.99,0.07
0.984375,0.0030062096,-2.2356585E-4,0.0032204988,-0.18,-0.99,0.07,24777,10186.10,0,0,165,0.63,-3.01,0.35,-0.18,-0.99,0.07
0.984375,0.0020062104,-2.2356585E-4,2.20499E-4,-0.18,-0.99,0.07,24784,10186.10,0,0,0,0.56,-3.01,0.14,-0.18,-0.99,0.07
0.984375,-0.0019937898,-2.2356585E-4,2.20499E-4,-0.18,-0.99,0.07,24799,10186.10,0,0,165,0.28,-3.01,0.14,-0.18,-0.99,0.07
0.984375,0.0030062096,-2.2356585E-4,0.002220499,-0.18,-0.99,0.07,24814,10186.10,0,0,0,0.63,-3.01,0.28,-0.18,-0.99,0.07
0.984375,6.2095933E-6,7.764362E-4,2.20499E-4,-0.18,-0.99,0.07,24821,10186.10,0,0,165,0.42,-2.94,0.14,-0.18,-0.99,0.07
-0.015625,6.2095933E-6,7.764362E-4,2.20499E-4,-0.18,-0.99,0.07,24836,10185.10,0,0,0,0.42,-2.94,0.14,-0.18,-0.99,0.07
0.984375,-9.937901E-4,-0.0012235641,-0.002779501,-0.18,-0.99,0.07,24851,10186.10,0,0,165,0.35,-3.08,-0.07,-0.18,-0.99,0.07
0.984375,6.2095933E-6,-2.2356585E-4,-7.7950105E-4,-0.18,-0.99,0.07,24859,10186.10,0,0,0,0.42,-3.01,0.07,-0.18,-0.99,0.07
2.2851562,6.2095933E-6,-2.2356585E-4,-7.7950105E-4,-0.18,-0.99,0.07,24875,10187.40,0,0,165,0.42,-3.01,0.07,-0.18,-0.99,0.07
0.984375,-9.937901E-4,-2.2356585E-4,-7.7950105E-4,-0.18,-0.99,0.07,24890,10186.10,0,0,0,0.35,-3.01,0.07,-0.18,-0.99,0.07
0.984375,6.2095933E-6,0.0017764382,-7.7950105E-4,-0.18,-0.99,0.07,24897,10186.10,0,0,165,0.42,-2.87,0.07,-0.18,-0.99,0.07
1.984375,6.2095933E-6,7.764362E-4,0.0012204987,-0.18,-0.99,0.07,24912,10187.10,0,0,0,0.42,-2.94,0.21,-0.18,-0.99,0.07
0.984375,0.0010062102,7.764362E-4,0.0012204987,-0.17,-0.99,0.07,24926,10186.10,0,0,165,0.49,-2.94,0.21,-0.17,-0.99,0.07
0.984375,-9.937901E-4,-2.2356585E-4,-0.0017795011,-0.17,-0.99,0.07,24934,10186.10,0,0,0,0.35,-3.01,0.00,-0.17,-0.99,0.07
0.984375,0.0010062102,7.764362E-4,-0.0017795011,-0.18,-0.99,0.07,24949,10186.10,0,0,165,0.49,-2.94,0.00,-0.18,-0.99,0.07
0.984375,0.0020062104,-0.0012235641,0.0012204987,-0.18,-0.99,0.07,24964,10186.10,0,0,0,0.56,-3.08,0.21,-0.18,-0.99,0.07
0.984375,-9.937901E-4,7.764362E-4,2.20499E-4,-0.18,-0.99,0.07,24971,10186.10,0,0,165,0.35,-2.94,0.14,-0.18,-0.99,0.07
2.2851562,0.0010062102,7.764362E-4,2.20499E-4,-0.18,-0.99,0.07,24986,10187.40,0,0,0,0.49,-2.94,0.14,-0.18,-0.99,0.07
0.984375,0.0020062104,7.764362E-4,0.0012204987,-0.18,-0.99,0.07,25001,10186.10,0,0,165,0.56,-2.94,0.21,-0.18,-0.99,0.07
0.984375,-9.937901E-4,-2.2356585E-4,0.002220499,-0.18,-0.99,0.07,25010,10186.10,0,0,0,0.35,-3.01,0.28,-0.18,-0.99,0.07
0.984375,0.0020062104,-2.2356585E-4,0.0012204987,-0.18,-0.99,0.07,25025,10186.10,0,0,165,0.56,-3.01,0.21,-0.18,-0.99,0.07
2.2851562,6.2095933E-6,-0.0012235641,0.002220499,-0.18,-0.99,0.07,25042,10187.40,0,0,0,0.42,-3.08,0.28,-0.18,-0.99,0.07
0.984375,-0.0019937898,-2.2356585E-4,-0.002779501,-0.18,-0.99,0.07,25048,10186.10,0,0,165,0.28,-3.01,-0.07,-0.18,-0.99,0.07
0.984375,-0.0029937902,0.0017764382,-0.004779501,-0.17,-0.99,0.07,25062,10186.10,0,0,0,0.21,-2.87,-0.21,-0.17,-0.99,0.07
2.2851562,-0.0029937902,-0.0012235641,-0.0017795011,-0.18,-0.99,0.07,25077,10187.40,0,0,165,0.21,-3.08,0.00,-0.18,-0.99,0.07
0.984375,0.0030062096,7.764362E-4,-7.7950105E-4,-0.18,-0.99,0.07,25084,10186.10,0,0,0,0.63,-2.94,0.07,-0.18,-0.99,0.07
1.3847656,-9.937901E-4,0.0017764382,-0.0017795011,-0.18,-0.99,0.07,25099,10186.50,0,0,165,0.35,-2.87,0.00,-0.18,-0.99,0.07
0.984375,6.2095933E-6,0.0017764382,2.20499E-4,-0.18,-0.99,0.07,25114,10186.10,0,0,0,0.42,-2.87,0.14,-0.18,-0.99,0.07
0.984375,0.0020062104,-2.2356585E-4,0.0012204987,-0.18,-0.99,0.07,25121,10186.10,0,0,165,0.56,-3.01,0.21,-0.18,-0.99,0.07
0.984375,6.2095933E-6,-2.2356585E-4,0.0012204987,-0.18,-0.99,0.07,25137,10186.10,0,0,0,0.42,-3.01,0.21,-0.18,-0.99,0.07
0.984375,0.0020062104,-0.0012235641,2.20499E-4,-0.18,-0.99,0.07,25152,10186.10,0,0,165,0.56,-3.08,0.14,-0.18,-0.99,0.07
1.984375,0.0020062104,-0.0022235662,0.002220499,-0.18,-0.99,0.07,25159,10187.10,0,0,0,0.56,-3.15,0.28,-0.18,-0.99,0.07
2.2851562,6.2095933E-6,-2.2356585E-4,0.002220499,-0.17,-0.99,0.07,25175,10187.40,0,0,165,0.42,-3.01,0.28,-0.17,-0.99,0.07
1.984375,0.0010062102,-2.2356585E-4,-7.7950105E-4,-0.17,-0.99,0.07,25189,10187.10,0,0,0,0.49,-3.01,0.07,-0.17,-0.99,0.07
1.3847656,6.2095933E-6,-2.2356585E-4,2.20499E-4,-0.18,-0.99,0.07,25197,10186.50,0,0,165,0.42,-3.01,0.14,-0.18,-0.99,0.07
0.984375,0.0020062104,7.764362E-4,2.20499E-4,-0.18,-0.99,0.07,25212,10186.10,0,0,0,0.56,-2.94,0.14,-0.18,-0.99,0.07
2.2851562,-9.937901E-4,-2.2356585E-4,2.20499E-4,-0.18,-0.99,0.07,25227,10187.40,0,0,165,0.35,-3.01,0.14,-0.18,-0.99,0.07
0.984375,-9.937901E-4,-2.2356585E-4,2.20499E-4,-0.18,-0.99,0.07,25235,10186.10,0,0,0,0.35,-3.01,0.14,-0.18,-0.99,0.07
0.984375,6.2095933E-6,7.764362E-4,2.20499E-4,-0.18,-0.99,0.07,25249,10186.10,0,0,165,0.42,-2.94,0.14,-0.18,-0.99,0.07
0.984375,-9.937901E-4,-2.2356585E-4,2.20499E-4,-0.18,-0.99,0.07,25265,10186.10,0,0,0,0.35,-3.01,0.14,-0.18,-0.99,0.07
2.2851562,0.0010062102,-0.0012235641,-0.0017795011,-0.18,-0.99,0.07,25273,10187.40,0,0,165,0.49,-3.08,0.00,-0.18,-0.99,0.07
1.984375,0.0010062102,-2.2356585E-4,-7.7950105E-4,-0.18,-0.99,0.07,25287,10187.10,0,0,0,0.49,-3.01,0.07,-0.18,-0.99,0.07
