Pressure_Rel,GyroX_Rel,GyroY_Rel,GyroZ_Rel,AccX_Rel,AccY_Rel,AccZ_Rel,Timestamp,Pressure_abs,HeartRate,Oxygen,Status,GyroX,GyroY,GyroZ,AccX,AccY,AccZ
0.0,0.0,0.0,0.0,0.0,0.0,0.0,2352,9969.80,0,0,165,0.28,-2.59,0.21,0.09,1.00,-0.08
0.0,0.0,0.0,0.0,0.0,0.0,0.0,2359,9970.10,0,0,0,0.28,-2.73,0.28,0.09,1.00,-0.07
0.0,0.0,0.0,0.0,0.0,0.0,0.0,2374,9970.50,0,0,165,0.42,-2.66,0.14,0.09,1.00,-0.07
0.0,0.0,0.0,0.0,0.0,0.0,0.0,2389,9971.40,0,0,0,0.49,-2.66,0.28,0.09,1.00,-0.07
0.0,0.0,0.0,0.0,0.0,0.0,0.0,2397,9971.40,0,0,165,0.77,-2.66,0.07,0.09,1.00,-0.07
0.0,0.0,0.0,0.0,0.0,0.0,0.0,2412,9971.40,0,0,0,0.91,-2.59,-0.07,0.09,1.00,-0.08
0.0,0.0,0.0,0.0,0.0,0.0,0.0,2426,9973.70,0,0,165,1.12,-2.52,-0.07,0.09,1.00,-0.08
0.0,0.0,0.0,0.0,0.0,0.0,0.0,2433,9973.70,0,0,0,1.12,-2.45,-0.07,0.09,1.00,-0.08
0.0,0.0,0.0,0.0,0.0,0.0,0.0,2449,9973.40,0,0,165,1.33,-2.38,-0.14,0.09,1.00,-0.09
0.0,0.0,0.0,0.0,0.0,0.0,0.0,2463,9974.60,0,0,0,1.33,-2.45,-0.14,0.09,1.00,-0.09
0.0,0.0,0.0,0.0,0.0,0.0,0.0,2479,9976.90,0,0,165,1.12,-2.59,0.00,0.09,1.00,-0.08
0.0,0.0,0.0,0.0,0.0,0.0,0.0,2486,9976.30,0,0,0,1.05,-2.52,-0.07,0.09,1.00,-0.07
0.0,0.0,0.0,0.0,0.0,0.0,0.0,2501,9978.20,0,0,165,1.12,-2.52,-0.21,0.09,1.00,-0.06
0.0,0.0,0.0,0.0,0.0,0.0,0.0,2516,9978.50,0,0,0,1.19,-2.52,-0.21,0.09,1.00,-0.07
0.0,0.0,0.0,0.0,0.0,0.0,0.0,2524,9978.20,0,0,165,0.91,-2.59,-0.07,0.09,1.00,-0.08
0.0,0.0,0.0,0.0,0.0,0.0,0.0,2538,9980.80,0,0,0,0.98,-2.59,0.07,0.09,1.00,-0.09
0.0,0.0,0.0,0.0,0.0,0.0,0.0,2553,9984.00,0,0,165,0.70,-2.73,0.00,0.09,1.00,-0.09
0.0,0.0,0.0,0.0,0.0,0.0,0.0,2561,9986.60,0,0,0,0.70,-2.66,0.21,0.09,1.00,-0.08
0.0,0.0,0.0,0.0,0.0,0.0,0.0,2576,9976.70,0,0,165,0.63,-2.73,0.21,0.09,1.00,-0.08
0.0,0.0,0.0,0.0,0.0,0.0,0.0,2592,9971.10,0,0,0,0.56,-2.59,0.21,0.09,1.00,-0.08
0.0,0.0,0.0,0.0,0.0,0.0,0.0,2599,9968.90,0,0,165,0.56,-2.59,0.14,0.09,1.00,-0.08
0.0,0.0,0.0,0.0,0.0,0.0,0.0,2613,9968.90,0,0,0,0.49,-2.66,0.07,0.09,1.00,-0.08
0.0,0.0,0.0,0.0,0.0,0.0,0.0,2628,9968.90,0,0,165,0.70,-2.73,0.00,0.09,1.00,-0.07
0.0,0.0,0.0,0.0,0.0,0.0,0.0,2635,9967.90,0,0,0,0.84,-2.66,0.14,0.09,1.00,-0.07
0.0,0.0,0.0,0.0,0.0,0.0,0.0,2651,9967.90,0,0,165,0.91,-2.66,-0.07,0.09,1.00,-0.07
0.0,0.0,0.0,0.0,0.0,0.0,0.0,2666,9966.90,0,0,0,0.77,-2.59,-0.07,0.09,1.00,-0.07
0.0,0.0,0.0,0.0,0.0,0.0,0.0,2674,9968.90,0,0,165,1.12,-2.52,-0.07,0.09,1.00,-0.08
0.0,0.0,0.0,0.0,0.0,0.0,0.0,2689,9966.90,0,0,0,1.12,-2.52,0.00,0.09,1.00,-0.08
0.0,0.0,0.0,0.0,0.0,0.0,0.0,2704,9966.90,0,0,165,0.91,-2.66,0.00,0.09,1.00,-0.08
0.0,0.0,0.0,0.0,0.0,0.0,0.0,2713,9968.90,0,0,0,0.77,-2.66,-0.07,0.09,1.00,-0.08
0.0,0.0,0.0,0.0,0.0,0.0,0.0,2727,9967.90,0,0,165,0.70,-2.59,0.07,0.09,1.00,-0.08
0.0,0.0,0.0,0.0,0.0,0.0,0.0,2741,9967.90,0,0,0,0.63,-2.59,0.07,0.09,1.00,-0.07
0.0,0.0,0.0,0.0,0.0,0.0,0.0,2748,9968.20,0,0,165,0.56,-2.66,0.07,0.09,1.00,-0.07
0.0,0.0,0.0,0.0,0.0,0.0,0.0,2763,9967.90,0,0,0,0.63,-2.73,0.07,0.09,1.00,-0.08
0.0,0.0,0.0,0.0,0.0,0.0,0.0,2779,9967.90,0,0,165,0.56,-2.66,0.14,0.09,1.00,-0.08
0.0,0.0,0.0,0.0,0.0,0.0,0.0,2786,9968.90,0,0,0,0.56,-2.66,0.21,0.09,1.00,-0.08
0.0,0.0,0.0,0.0,0.0,0.0,0.0,2801,9967.90,0,0,165,0.63,-2.59,0.21,0.09,1.00,-0.08
0.0,0.0,0.0,0.0,0.0,0.0,0.0,2816,9967.90,0,0,0,0.70,-2.59,0.07,0.09,1.00,-0.08
0.0,0.0,0.0,0.0,0.0,0.0,0.0,2823,9968.90,0,0,165,0.63,-2.73,0.07,0.09,1.00,-0.08
0.0,0.0,0.0,0.0,0.0,0.0,0.0,2838,9967.30,0,0,0,0.84,-2.59,0.00,0.09,1.00,-0.08
0.0,0.0,0.0,0.0,0.0,0.0,0.0,2862,9967.90,0,0,165,0.91,-2.59,-0.07,0.09,1.00,-0.08
0.0,0.0,0.0,0.0,0.0,0.0,0.0,2864,9967.90,0,0,0,1.12,-2.52,-0.07,0.09,1.00,-0.07
0.0,0.0,0.0,0.0,0.0,0.0,0.0,2877,9968.90,0,0,165,1.19,-2.45,-0.14,0.09,1.00,-0.07
0.0,0.0,0.0,0.0,0.0,0.0,0.0,2890,9966.90,0,0,0,1.26,-2.52,-0.07,0.09,1.00,-0.08
0.0,0.0,0.0,0.0,0.0,0.0,0.0,2898,9967.90,0,0,165,1.19,-2.45,-0.21,0.09,1.00,-0.08
0.0,0.0,0.0,0.0,0.0,0.0,0.0,2913,9967.90,0,0,0,1.05,-2.59,0.00,0.09,1.00,-0.08
0.0,0.0,0.0,0.0,0.0,0.0,0.0,2930,9967.30,0,0,165,0.98,-2.52,-0.07,0.09,1.00,-0.08
0.0,0.0,0.0,0.0,0.0,0.0,0.0,2936,9967.90,0,0,0,0.91,-2.52,0.14,0.09,1.00,-0.08
0.0,0.0,0.0,0.0,0.0,0.0,0.0,2951,9967.90,0,0,165,0.77,-2.66,0.14,0.09,1.00,-0.08
0.0,0.0,0.0,0.0,0.0,0.0,0.0,2967,9968.90,0,0,0,0.56,-2.66,0.14,0.09,1.00,-0.08
0.0,0.0,0.0,0.0,0.0,0.0,0.0,2973,9969.20,0,0,165,0.63,-2.66,0.21,0.09,1.00,-0.08
0.0,0.0,0.0,0.0,0.0,0.0,0.0,2988,9966.90,0,0,0,0.63,-2.66,0.14,0.09,1.00,-0.08
0.0,0.0,0.0,0.0,0.0,0.0,0.0,3003,9967.90,0,0,165,0.49,-2.66,0.21,0.09,1.00,-0.08
0.0,0.0,0.0,0.0,0.0,0.0,0.0,3012,9968.90,0,0,0,0.56,-2.66,0.07,0.09,1.00,-0.07
0.0,0.0,0.0,0.0,0.0,0.0,0.0,3026,9967.90,0,0,165,0.70,-2.59,0.00,0.09,1.00,-0.08
0.0,0.0,0.0,0.0,0.0,0.0,0.0,3041,9967.90,0,0,0,0.84,-2.52,-0.07,0.09,1.00,-0.08
0.0,0.0,0.0,0.0,0.0,0.0,0.0,3048,9967.90,0,0,165,0.91,-2.59,0.14,0.09,1.00,-0.08
0.0,0.0,0.0,0.0,0.0,0.0,0.0,3063,9967.90,0,0,0,0.84,-2.59,-0.07,0.10,1.00,-0.08
0.0,0.0,0.0,0.0,0.0,0.0,0.0,3080,9967.90,0,0,165,1.12,-2.59,-0.14,0.09,1.00,-0.08
0.0,0.0,0.0,0.0,0.0,0.0,0.0,3086,9967.90,0,0,0,0.98,-2.66,-0.07,0.09,1.00,-0.08
0.0,0.0,0.0,0.0,0.0,0.0,0.0,3101,9967.90,0,0,165,0.98,-2.52,0.00,0.09,1.00,-0.07
0.0,0.0,0.0,0.0,0.0,0.0,0.0,3117,9968.90,0,0,0,0.70,-2.59,0.07,0.09,1.00,-0.07
0.0,0.0,0.0,0.0,0.0,0.0,0.0,3130,9966.90,0,0,165,0.63,-2.66,0.00,0.09,1.00,-0.08
0.0,0.0,0.0,0.0,0.0,0.0,0.0,3139,9967.90,0,0,0,0.63,-2.80,0.00,0.09,1.00,-0.08
0.0,0.0,0.0,0.0,0.0,0.0,0.0,3154,9967.90,0,0,165,0.70,-2.73,0.07,0.09,1.00,-0.08
0.0,0.0,0.0,0.0,0.0,0.0,0.0,3161,9967.90,0,0,0,0.56,-2.66,0.14,0.09,1.00,-0.08
0.0,0.0,0.0,0.0,0.0,0.0,0.0,3176,9969.20,0,0,165,0.63,-2.66,0.14,0.09,1.00,-0.08
0.0,0.0,0.0,0.0,0.0,0.0,0.0,3191,9968.20,0,0,0,0.63,-2.59,0.14,0.09,1.00,-0.07
0.0,0.0,0.0,0.0,0.0,0.0,0.0,3199,9968.90,0,0,165,0.63,-2.66,0.07,0.09,1.00,-0.08
0.0,0.0,0.0,0.0,0.0,0.0,0.0,3214,9967.90,0,0,0,0.77,-2.59,-0.07,0.09,1.00,-0.08
0.0,0.0,0.0,0.0,0.0,0.0,0.0,3229,9967.90,0,0,165,0.84,-2.52,0.00,0.09,1.00,-0.08
0.0,0.0,0.0,0.0,0.0,0.0,0.0,3237,9967.90,0,0,0,0.84,-2.59,-0.21,0.09,1.00,-0.08
0.0,0.0,0.0,0.0,0.0,0.0,0.0,3251,9968.90,0,0,165,0.98,-2.59,-0.07,0.09,1.00,-0.08
0.0,0.0,0.0,0.0,0.0,0.0,0.0,3266,9967.90,0,0,0,1.12,-2.52,-0.14,0.09,1.00,-0.08
0.0,0.0,0.0,0.0,0.0,0.0,0.0,3273,9967.30,0,0,165,1.05,-2.45,-0.14,0.09,1.00,-0.08
0.0,0.0,0.0,0.0,0.0,0.0,0.0,3288,9967.60,0,0,0,1.12,-2.59,-0.14,0.09,1.00,-0.08
0.0,0.0,0.0,0.0,0.0,0.0,0.0,3304,9966.90,0,0,165,0.98,-2.52,-0.07,0.09,1.00,-0.08
0.0,0.0,0.0,0.0,0.0,0.0,0.0,3311,9968.90,0,0,0,0.98,-2.52,-0.07,0.09,1.00,-0.08
0.0,0.0,0.0,0.0,0.0,0.0,0.0,3326,9968.90,0,0,165,0.91,-2.59,0.07,0.09,1.00,-0.08
0.0,0.0,0.0,0.0,0.0,0.0,0.0,3341,9967.90,0,0,0,0.84,-2.59,0.07,0.09,1.00,-0.08
0.0,0.0,0.0,0.0,0.0,0.0,0.0,3348,9968.20,0,0,165,0.91,-2.59,0.14,0.09,1.00,-0.08
0.0,0.0,0.0,0.0,0.0,0.0,0.0,3365,9967.90,0,0,0,0.84,-2.52,0.07,0.09,1.00,-0.08
0.0,0.0,0.0,0.0,0.0,0.0,0.0,3380,9967.90,0,0,165,0.63,-2.59,0.14,0.09,1.00,-0.08
0.0,0.0,0.0,0.0,0.0,0.0,0.0,3386,9967.90,0,0,0,0.84,-2.59,0.00,0.09,1.00,-0.08
0.0,0.0,0.0,0.0,0.0,0.0,0.0,3401,9968.90,0,0,165,0.63,-2.73,0.00,0.09,1.00,-0.08
0.0,0.0,0.0,0.0,0.0,0.0,0.0,3416,9967.90,0,0,0,0.70,-2.66,0.07,0.09,1.00,-0.08
0.0,0.0,0.0,0.0,0.0,0.0,0.0,3424,9967.90,0,0,165,0.70,-2.59,0.07,0.09,1.00,-0.08
0.0,0.0,0.0,0.0,0.0,0.0,0.0,3439,9967.90,0,0,0,0.84,-2.59,-0.07,0.09,1.00,-0.08
0.0,0.0,0.0,0.0,0.0,0.0,0.0,3454,9967.90,0,0,165,0.84,-2.59,0.00,0.09,1.00,-0.08
0.0,0.0,0.0,0.0,0.0,0.0,0.0,3462,9967.90,0,0,0,0.91,-2.59,0.00,0.09,1.00,-0.08
0.0,0.0,0.0,0.0,0.0,0.0,0.0,3476,9967.60,0,0,165,0.91,-2.59,0.00,0.09,1.00,-0.08
0.0,0.0,0.0,0.0,0.0,0.0,0.0,3491,9968.90,0,0,0,0.77,-2.52,0.00,0.09,1.00,-0.08
0.0,0.0,0.0,0.0,0.0,0.0,0.0,3499,9967.90,0,0,165,0.77,-2.59,0.07,0.09,1.00,-0.08
0.0,0.0,0.0,0.0,0.0,0.0,0.0,3514,9968.90,0,0,0,0.84,-2.59,-0.07,0.09,1.00,-0.08
0.0,0.0,0.0,0.0,0.0,0.0,0.0,3521,9967.90,0,0,165,0.84,-2.73,-0.07,0.09,1.00,-0.07
0.0,0.0,0.0,0.0,0.0,0.0,0.0,3536,9967.90,0,0,0,0.77,-2.59,0.00,0.09,1.00,-0.08
0.0,0.0,0.0,0.0,0.0,0.0,0.0,3551,9968.20,0,0,165,0.77,-2.45,0.14,0.09,1.00,-0.08
0.0,0.0,0.0,0.0,0.0,0.0,0.0,3559,9967.90,0,0,0,0.70,-2.73,0.00,0.09,1.00,-0.08
0.0,0.0,0.0,0.0,0.0,0.0,0.0,3575,9967.90,0,0,165,0.63,-2.66,0.14,0.09,1.00,-0.08
0.0,0.0,0.0,0.0,0.0,0.0,0.0,3589,9968.90,0,0,0,0.63,-2.66,0.00,0.09,1.00,-0.08
0.0,0.0,0.0,0.0,0.0,0.0,0.0,3597,9967.90,0,0,165,0.70,-2.66,0.07,0.09,1.00,-0.07
0.0,0.0,0.0,0.0,0.0,0.0,0.0,3612,9966.90,0,0,0,0.77,-2.66,-17.92,0.09,1.00,-0.08
0.0,0.0,0.0,0.0,0.0,0.0,0.0,3627,9967.90,0,0,165,0.77,-2.66,0.00,0.09,1.00,-0.08
0.0,0.0,0.0,0.0,0.0,0.0,0.0,3634,9968.20,0,0,0,0.77,-2.66,-0.14,0.09,1.00,-0.08
0.0,0.0,0.0,0.0,0.0,0.0,0.0,3649,9967.90,0,0,165,0.91,-2.66,0.07,0.09,1.00,-0.08
0.0,0.0,0.0,0.0,0.0,0.0,0.0,3664,9968.50,0,0,0,0.91,-2.52,-0.07,0.09,1.00,-0.08
0.0,0.0,0.0,0.0,0.0,0.0,0.0,3671,9967.90,0,0,165,0.91,-2.52,-0.07,0.09,1.00,-0.07
0.0,0.0,0.0,0.0,0.0,0.0,0.0,3686,9967.90,0,0,0,1.19,-2.52,-0.14,0.09,1.00,-0.08
0.0,0.0,0.0,0.0,0.0,0.0,0.0,3701,9966.60,0,0,165,0.91,-2.73,-0.07,0.09,1.00,-0.08
0.0,0.0,0.0,0.0,0.0,0.0,0.0,3709,9967.90,0,0,0,0.98,-2.52,-0.07,0.09,1.00,-0.08
0.0,0.0,0.0,0.0,0.0,0.0,0.0,3724,9968.90,0,0,165,0.91,-2.66,0.00,0.09,1.00,-0.08
0.0,0.0,0.0,0.0,0.0,0.0,0.0,3739,9968.90,0,0,0,0.84,-2.59,0.00,0.09,1.00,-0.08
0.0,0.0,0.0,0.0,0.0,0.0,0.0,3747,9967.90,0,0,165,0.77,-2.59,0.07,0.09,1.00,-0.08
0.0,0.0,0.0,0.0,0.0,0.0,0.0,3761,9969.80,0,0,0,0.84,-2.52,0.14,0.09,1.00,-0.08
0.0,0.0,0.0,0.0,0.0,0.0,0.0,3776,9968.20,0,0,165,0.77,-2.59,0.21,0.09,1.00,-0.08
0.0,0.0,0.0,0.0,0.0,0.0,0.0,3783,9967.60,0,0,0,0.70,-2.59,0.21,0.09,1.00,-0.08
0.0,0.0,0.0,0.0,0.0,0.0,0.0,3798,9967.90,0,0,165,0.77,-2.73,0.07,0.09,1.00,-0.08
0.0,0.0,0.0,0.0,0.0,0.0,0.0,3814,9967.90,0,0,0,0.70,-2.59,0.07,0.09,1.00,-0.08
0.0,0.0,0.0,0.0,0.0,0.0,0.0,3822,9967.90,0,0,165,0.63,-2.66,0.00,0.09,1.00,-0.08
0.0,0.0,0.0,0.0,0.0,0.0,0.0,3836,9968.90,0,0,0,0.84,-2.59,0.00,0.09,1.00,-0.08
0.0,0.0,0.0,0.0,0.0,0.0,0.0,3851,9967.90,0,0,165,0.91,-2.59,0.14,0.09,1.00,-0.08
0.0,0.0,0.0,0.0,0.0,0.0,0.0,3859,9968.90,0,0,0,0.91,-2.59,0.00,0.09,1.00,-0.08
0.0,0.0,0.0,0.0,0.0,0.0,0.0,3873,9968.50,0,0,165,0.91,-2.52,0.07,0.09,1.00,-0.08
0.0,0.0,0.0,0.0,0.0,0.0,0.0,3888,9967.90,0,0,0,0.84,-2.59,0.00,0.09,1.00,-0.07
0.0,0.0,0.0,0.0,0.0,0.0,0.0,3896,9967.90,0,0,165,0.77,-2.66,0.14,0.09,1.00,-0.08
0.0,0.0,0.0,0.0,0.0,0.0,0.0,3911,9969.20,0,0,0,0.84,-2.66,0.00,0.09,1.00,-0.08
0.0,0.0,0.0,0.0,0.0,0.0,0.0,3918,9967.90,0,0,165,0.84,-2.59,0.00,0.09,1.00,-0.08
0.0,0.0,0.0,0.0,0.0,0.0,0.0,3933,9968.90,0,0,0,0.91,-2.66,0.07,0.09,1.00,-0.08
0.0,0.0,0.0,0.0,0.0,0.0,0.0,3949,9966.90,0,0,165,0.70,-2.66,0.07,0.09,1.00,-0.08
0.0,0.0,0.0,0.0,0.0,0.0,0.0,3956,9968.90,0,0,0,0.70,-2.66,0.14,0.09,1.00,-0.08
0.0,0.0,0.0,0.0,0.0,0.0,0.0,3971,9967.90,0,0,165,0.70,-2.59,0.14,0.09,1.00,-0.08
0.0,0.0,0.0,0.0,0.0,0.0,0.0,3986,9968.90,0,0,0,0.77,-2.59,0.00,0.09,1.00,-0.08
0.0,0.0,0.0,0.0,0.0,0.0,0.0,3994,9967.30,0,0,165,0.70,-2.66,0.07,0.09,1.00,-0.08
0.0,0.0,0.0,0.0,0.0,0.0,0.0,4009,9966.90,0,0,0,0.91,-2.66,0.07,0.09,1.00,-0.08
0.0,0.0,0.0,0.0,0.0,0.0,0.0,4023,9967.90,0,0,165,0.77,-2.66,0.00,0.09,1.00,-0.07
0.0,0.0,0.0,0.0,0.0,0.0,0.0,4030,9966.90,0,0,0,0.98,-2.66,-0.21,0.09,1.00,-0.08
0.0,0.0,0.0,0.0,0.0,0.0,0.0,4046,9967.90,0,0,165,0.98,-2.59,-0.07,0.09,1.00,-0.08
0.0,0.0,0.0,0.0,0.0,0.0,0.0,4061,9966.90,0,0,0,0.98,-2.59,0.00,0.09,1.00,-0.08
0.0,0.0,0.0,0.0,0.0,0.0,0.0,4068,9967.90,0,0,165,0.84,-2.59,-0.07,0.09,1.00,-0.08
0.0,0.0,0.0,0.0,0.0,0.0,0.0,4084,9967.90,0,0,0,0.91,-2.52,0.14,0.09,1.00,-0.08
0.0,0.0,0.0,0.0,0.0,0.0,0.0,4099,9966.90,0,0,165,0.84,-2.59,-0.07,0.09,1.00,-0.08
0.0,0.0,0.0,0.0,0.0,0.0,0.0,4106,9967.90,0,0,0,0.91,-2.59,-0.07,0.09,1.00,-0.07
0.0,0.0,0.0,0.0,0.0,0.0,0.0,4121,9967.90,0,0,165,0.91,-2.59,-0.07,0.09,1.00,-0.08
0.0,0.0,0.0,0.0,0.0,0.0,0.0,4136,9967.90,0,0,0,0.77,-2.59,0.14,0.09,1.00,-0.08
0.0,0.0,0.0,0.0,0.0,0.0,0.0,4143,9966.90,0,0,165,0.84,-2.59,-0.07,0.09,1.00,-0.08
0.0,0.0,0.0,0.0,0.0,0.0,0.0,4159,9967.90,0,0,0,0.84,-2.59,0.07,0.09,1.00,-0.08
0.0,0.0,0.0,0.0,0.0,0.0,0.0,4174,9967.90,0,0,165,0.84,-2.66,0.07,0.09,1.00,-0.08
0.0,0.0,0.0,0.0,0.0,0.0,0.0,4181,9966.90,0,0,0,0.84,-2.52,0.00,0.09,1.00,-0.08
0.0,0.0,0.0,0.0,0.0,0.0,0.0,4195,9966.90,0,0,165,0.77,-2.59,0.14,0.09,1.00,-0.08
0.0,0.0,0.0,0.0,0.0,0.0,0.0,4211,9967.90,0,0,0,0.70,-2.66,0.00,0.09,1.00,-0.08
0.0,0.0,0.0,0.0,0.0,0.0,0.0,4219,9967.60,0,0,165,0.77,-2.59,-0.14,0.09,1.00,-0.08
0.0,0.0,0.0,0.0,0.0,0.0,0.0,4233,9966.90,0,0,0,0.77,-2.59,0.07,0.09,1.00,-0.08
0.0,0.0,0.0,0.0,0.0,0.0,0.0,4241,9966.90,0,0,165,0.84,-2.66,0.00,0.09,1.00,-0.08
0.0,0.0,0.0,0.0,0.0,0.0,0.0,4256,9968.90,0,0,0,0.77,-2.59,0.07,0.09,1.00,-0.07
0.0,0.0,0.0,0.0,0.0,0.0,0.0,4271,9967.90,0,0,165,0.77,-2.59,-0.07,0.09,1.00,-0.08
0.0,0.0,0.0,0.0,0.0,0.0,0.0,4278,9966.60,0,0,0,0.98,-2.52,0.07,0.09,1.00,-0.08
0.0,0.0,0.0,0.0,0.0,0.0,0.0,4293,9967.90,0,0,165,0.84,-2.59,0.07,0.09,1.00,-0.08
0.0,0.0,0.0,0.0,0.0,0.0,0.0,4308,9967.60,0,0,0,0.84,-2.59,0.07,0.09,1.00,-0.08
0.0,0.0,0.0,0.0,0.0,0.0,0.0,4315,9966.90,0,0,165,0.77,-2.52,0.07,0.09,1.00,-0.08
0.0,0.0,0.0,0.0,0.0,0.0,0.0,4331,9967.90,0,0,0,0.77,-2.59,0.00,0.09,1.00,-0.08
0.0,0.0,0.0,0.0,0.0,0.0,0.0,4347,9968.50,0,0,165,0.63,-2.59,0.07,0.09,1.00,-0.08
0.0,0.0,0.0,0.0,0.0,0.0,0.0,4353,9967.90,0,0,0,0.77,-2.52,0.07,0.09,1.00,-0.08
0.0,0.0,0.0,0.0,0.0,0.0,0.0,4369,9966.60,0,0,165,0.77,-2.59,0.07,0.09,1.00,-0.08
0.0,0.0,0.0,0.0,0.0,0.0,0.0,4383,9967.90,0,0,0,0.84,-2.66,0.07,0.09,1.00,-0.08
0.0,0.0,0.0,0.0,0.0,0.0,0.0,4391,9966.30,0,0,165,0.70,-2.66,0.07,0.09,1.00,-0.08
0.0,0.0,0.0,0.0,0.0,0.0,0.0,4405,9966.90,0,0,0,0.77,-2.73,-0.14,0.09,1.00,-0.08
0.0,0.0,0.0,0.0,0.0,0.0,0.0,4421,9969.80,0,0,165,0.84,-2.59,-0.07,0.09,1.00,-0.08
0.0,0.0,0.0,0.0,0.0,0.0,0.0,4429,9967.60,0,0,0,0.98,-2.45,-0.07,0.09,1.00,-0.08
0.0,0.0,0.0,0.0,0.0,0.0,0.0,4446,9967.90,0,0,165,0.91,-2.59,-0.14,0.09,1.00,-0.08
0.0,0.0,0.0,0.0,0.0,0.0,0.0,4462,9966.90,0,0,0,0.84,-2.59,0.00,0.09,1.00,-0.08
0.0,0.0,0.0,0.0,0.0,0.0,0.0,4467,9966.90,0,0,165,0.91,-2.59,0.07,0.09,1.00,-0.08
0.0,0.0,0.0,0.0,0.0,0.0,0.0,4480,9968.50,0,0,0,0.91,-2.59,-0.07,0.09,1.00,-0.08
0.0,0.0,0.0,0.0,0.0,0.0,0.0,4496,9967.90,0,0,165,0.84,-2.59,-0.07,0.09,1.00,-0.08
0.0,0.0,0.0,0.0,0.0,0.0,0.0,4503,9967.90,0,0,0,0.91,-2.66,0.07,0.09,1.00,-0.08
0.0,0.0,0.0,0.0,0.0,0.0,0.0,4519,9966.90,0,0,165,0.77,-2.66,-0.14,0.09,1.00,-0.07
0.0,0.0,0.0,0.0,0.0,0.0,0.0,4534,9966.60,0,0,0,0.91,-2.59,17.85,0.09,1.00,-0.08
0.0,0.0,0.0,0.0,0.0,0.0,0.0,4541,9966.90,0,0,165,0.84,-2.59,0.07,0.09,1.00,-0.08
-0.103515625,0.0012992183,1.12283975E-4,-0.25459102,0.09,1.0,-0.08,14561,9965.90,0,0,0,0.91,-2.59,-17.78,0.09,1.00,-0.08
-0.70410156,2.9921718E-4,0.001112286,-5.9102016E-4,0.09,1.0,-0.08,14575,9965.30,0,0,165,0.84,-2.52,0.00,0.09,1.00,-0.08
-0.70410156,0.0012992183,0.0021122843,-5.9102016E-4,0.09,1.0,-0.08,14595,9965.30,0,0,0,0.91,-2.45,0.00,0.09,1.00,-0.08
-0.103515625,-7.0078205E-4,1.12283975E-4,-5.9102016E-4,0.09,1.0,-0.08,14599,9965.90,0,0,165,0.77,-2.59,0.00,0.09,1.00,-0.08
-0.70410156,-0.0017007822,-8.8771805E-4,-0.0015910203,0.09,1.0,-0.08,14612,9965.30,0,0,0,0.70,-2.66,-0.07,0.09,1.00,-0.08
0.29589844,2.9921718E-4,0.001112286,0.00140898,0.09,1.0,-0.08,14627,9966.30,0,0,165,0.84,-2.52,0.14,0.09,1.00,-0.08
0.29589844,-7.0078205E-4,1.12283975E-4,4.089799E-4,0.09,1.0,-0.08,14635,9966.30,0,0,0,0.77,-2.59,0.07,0.09,1.00,-0.08
-1.0039062,0.0012992183,-8.8771805E-4,-5.9102016E-4,0.09,1.0,-0.08,14650,9965.00,0,0,165,0.91,-2.66,0.00,0.09,1.00,-0.08
-1.0039062,2.9921718E-4,0.001112286,-5.9102016E-4,0.09,1.0,-0.08,14665,9965.00,0,0,0,0.84,-2.52,0.00,0.09,1.00,-0.08
0.29589844,2.9921718E-4,1.12283975E-4,4.089799E-4,0.09,1.0,-0.08,14673,9966.30,0,0,165,0.84,-2.59,0.07,0.09,1.00,-0.08
0.5957031,2.9921718E-4,0.001112286,4.089799E-4,0.09,1.0,-0.08,14688,9966.60,0,0,0,0.84,-2.52,0.07,0.09,1.00,-0.08
-0.70410156,2.9921718E-4,0.001112286,-0.0015910203,0.09,1.0,-0.08,14696,9965.30,0,0,165,0.84,-2.52,-0.07,0.09,1.00,-0.08
-0.70410156,0.0012992183,0.0021122843,4.089799E-4,0.09,1.0,-0.08,14711,9965.30,0,0,0,0.91,-2.45,0.07,0.09,1.00,-0.08
-1.0039062,0.0012992183,-8.8771805E-4,4.089799E-4,0.09,1.0,-0.08,14726,9965.00,0,0,165,0.91,-2.66,0.07,0.09,1.00,-0.08
-0.103515625,2.9921718E-4,1.12283975E-4,-5.9102016E-4,0.09,1.0,-0.08,14740,9965.90,0,0,0,0.84,-2.59,0.00,0.09,1.00,-0.08
0.29589844,-7.0078205E-4,1.12283975E-4,-0.0015910203,0.09,1.0,-0.08,14748,9966.30,0,0,165,0.77,-2.59,-0.07,0.09,1.00,-0.08
0.29589844,-7.0078205E-4,1.12283975E-4,4.089799E-4,0.09,1.0,-0.08,14763,9966.30,0,0,0,0.77,-2.59,0.07,0.09,1.00,-0.08
-1.0039062,-0.0017007822,1.12283975E-4,-5.9102016E-4,0.09,1.0,-0.08,14770,9965.00,0,0,165,0.70,-2.59,0.00,0.09,1.00,-0.08
-2.0039062,-7.0078205E-4,1.12283975E-4,4.089799E-4,0.09,1.0,-0.08,14785,9964.00,0,0,0,0.77,-2.59,0.07,0.09,1.00,-0.08
-2.0039062,2.9921718E-4,1.12283975E-4,0.00140898,0.09,1.0,-0.08,14801,9964.00,0,0,165,0.84,-2.59,0.14,0.09,1.00,-0.08
-0.70410156,-7.0078205E-4,1.12283975E-4,-5.9102016E-4,0.09,1.0,-0.08,14808,9965.30,0,0,0,0.77,-2.59,0.00,0.09,1.00,-0.08
-1.0039062,2.9921718E-4,0.001112286,4.089799E-4,0.09,1.0,-0.08,14823,9965.00,0,0,165,0.84,-2.52,0.07,0.09,1.00,-0.08
-0.70410156,0.0012992183,1.12283975E-4,-0.0015910203,0.09,1.0,-0.08,14838,9965.30,0,0,0,0.91,-2.59,-0.07,0.09,1.00,-0.08
-1.0039062,-0.0017007822,1.12283975E-4,-5.9102016E-4,0.09,1.0,-0.08,14846,9965.00,0,0,165,0.70,-2.59,0.00,0.09,1.00,-0.08
-0.70410156,-7.0078205E-4,0.0021122843,-5.9102016E-4,0.09,1.0,-0.08,14861,9965.30,0,0,0,0.77,-2.45,0.00,0.09,1.00,-0.08
-0.70410156,-0.0017007822,-0.0018877164,-0.0025910202,0.09,1.0,-0.08,14876,9965.30,0,0,165,0.70,-2.73,-0.14,0.09,1.00,-0.08
-0.70410156,0.0012992183,1.12283975E-4,-5.9102016E-4,0.09,1.0,-0.08,14883,9965.30,0,0,0,0.91,-2.59,0.00,0.09,1.00,-0.08
-0.70410156,2.9921718E-4,1.12283975E-4,-0.0015910203,0.09,1.0,-0.08,14901,9965.30,0,0,165,0.84,-2.59,-0.07,0.09,1.00,-0.08
-0.70410156,-7.0078205E-4,1.12283975E-4,-0.0015910203,0.09,1.0,-0.08,14912,9965.30,0,0,0,0.77,-2.59,-0.07,0.09,1.00,-0.08
0.29589844,2.9921718E-4,-8.8771805E-4,-5.9102016E-4,0.09,1.0,-0.08,14920,9966.30,0,0,165,0.84,-2.66,0.00,0.09,1.00,-0.08
0.29589844,2.9921718E-4,-8.8771805E-4,-0.0015910203,0.09,1.0,-0.08,14935,9966.30,0,0,0,0.84,-2.66,-0.07,0.09,1.00,-0.08
-1.0039062,2.9921718E-4,1.12283975E-4,-0.0015910203,0.09,1.0,-0.08,14950,9965.00,0,0,165,0.84,-2.59,-0.07,0.09,1.00,-0.08
-0.70410156,2.9921718E-4,1.12283975E-4,4.089799E-4,0.09,1.0,-0.08,14958,9965.30,0,0,0,0.84,-2.59,0.07,0.09,1.00,-0.08
0.29589844,-7.0078205E-4,-8.8771805E-4,-5.9102016E-4,0.09,1.0,-0.08,14972,9966.30,0,0,165,0.77,-2.66,0.00,0.09,1.00,-0.08
0.29589844,-7.0078205E-4,-0.0018877164,4.089799E-4,0.09,1.0,-0.08,14988,9966.30,0,0,0,0.77,-2.73,0.07,0.09,1.00,-0.08
-0.103515625,2.9921718E-4,1.12283975E-4,4.089799E-4,0.09,1.0,-0.08,14996,9965.90,0,0,165,0.84,-2.59,0.07,0.09,1.00,-0.08
-0.103515625,-7.0078205E-4,1.12283975E-4,-5.9102016E-4,0.09,1.0,-0.08,15013,9965.90,0,0,0,0.77,-2.59,0.00,0.09,1.00,-0.08
1.1962891,-7.0078205E-4,1.12283975E-4,-5.9102016E-4,0.09,1.0,-0.08,15025,9967.20,0,0,165,0.77,-2.59,0.00,0.09,1.00,-0.08
-0.70410156,-7.0078205E-4,0.001112286,-0.0015910203,0.09,1.0,-0.08,15033,9965.30,0,0,0,0.77,-2.52,-0.07,0.09,1.00,-0.08
-0.70410156,2.9921718E-4,1.12283975E-4,-0.0015910203,0.09,1.0,-0.08,15048,9965.30,0,0,165,0.84,-2.59,-0.07,0.09,1.00,-0.08
0.29589844,2.9921718E-4,0.001112286,4.089799E-4,0.09,1.0,-0.08,15063,9966.30,0,0,0,0.84,-2.52,0.07,0.09,1.00,-0.08
-1.0039062,2.9921718E-4,1.12283975E-4,0.0024089797,0.09,1.0,-0.08,15070,9965.00,0,0,165,0.84,-2.59,0.21,0.09,1.00,-0.08
-1.7041016,0.0012992183,1.12283975E-4,4.089799E-4,0.09,1.0,-0.08,15087,9964.30,0,0,0,0.91,-2.59,0.07,0.09,1.00,-0.08
-0.70410156,0.0012992183,0.001112286,0.00140898,0.09,1.0,-0.08,15105,9965.30,0,0,165,0.91,-2.52,0.14,0.09,1.00,-0.08
-0.70410156,0.0022992184,1.12283975E-4,-5.9102016E-4,0.09,1.0,-0.08,15109,9965.30,0,0,0,0.98,-2.59,0.00,0.09,1.00,-0.08
-1.0039062,2.9921718E-4,1.12283975E-4,4.089799E-4,0.09,1.0,-0.08,15123,9965.00,0,0,165,0.84,-2.59,0.07,0.09,1.00,-0.08
-0.70410156,-7.0078205E-4,1.12283975E-4,4.089799E-4,0.09,1.0,-0.08,15138,9965.30,0,0,0,0.77,-2.59,0.07,0.09,1.00,-0.08
0.29589844,2.9921718E-4,-8.8771805E-4,4.089799E-4,0.09,1.0,-0.07,15146,9966.30,0,0,165,0.84,-2.66,0.07,0.09,1.00,-0.07
0.29589844,-7.0078205E-4,0.001112286,0.00140898,0.09,1.0,-0.08,15163,9966.30,0,0,0,0.77,-2.52,0.14,0.09,1.00,-0.08
-1.0039062,-7.0078205E-4,-8.8771805E-4,0.00140898,0.09,1.0,-0.08,15175,9965.00,0,0,165,0.77,-2.66,0.14,0.09,1.00,-0.08
-0.70410156,0.0012992183,1.12283975E-4,-5.9102016E-4,0.09,1.0,-0.08,15183,9965.30,0,0,0,0.91,-2.59,0.00,0.09,1.00,-0.08
-1.0039062,2.9921718E-4,-8.8771805E-4,4.089799E-4,0.09,1.0,-0.08,15198,9965.00,0,0,165,0.84,-2.66,0.07,0.09,1.00,-0.08
-0.70410156,-7.0078205E-4,-8.8771805E-4,-5.9102016E-4,0.09,1.0,-0.08,15213,9965.30,0,0,0,0.77,-2.66,0.00,0.09,1.00,-0.08
-0.70410156,2.9921718E-4,1.12283975E-4,0.00140898,0.09,1.0,-0.08,15220,9965.30,0,0,165,0.84,-2.59,0.14,0.09,1.00,-0.08
0.29589844,-7.0078205E-4,-8.8771805E-4,4.089799E-4,0.09,1.0,-0.08,15236,9966.30,0,0,0,0.77,-2.66,0.07,0.09,1.00,-0.08
-0.70410156,2.9921718E-4,1.12283975E-4,0.00140898,0.09,1.0,-0.08,15250,9965.30,0,0,165,0.84,-2.59,0.14,0.09,1.00,-0.08
-1.0039062,-7.0078205E-4,1.12283975E-4,4.089799E-4,0.09,1.0,-0.08,15258,9965.00,0,0,0,0.77,-2.59,0.07,0.09,1.00,-0.08
-2.0039062,0.0012992183,1.12283975E-4,-0.0025910202,0.09,1.0,-0.08,15278,9964.00,0,0,165,0.91,-2.59,-0.14,0.09,1.00,-0.08
-0.70410156,0.0012992183,1.12283975E-4,-5.9102016E-4,0.09,1.0,-0.08,15303,9965.30,0,0,0,0.91,-2.59,0.00,0.09,1.00,-0.08
0.29589844,0.0012992183,1.12283975E-4,0.00140898,0.09,1.0,-0.08,15305,9966.30,0,0,165,0.91,-2.59,0.14,0.09,1.00,-0.08
0.29589844,2.9921718E-4,1.12283975E-4,4.089799E-4,0.09,1.0,-0.08,15312,9966.30,0,0,0,0.84,-2.59,0.07,0.09,1.00,-0.08
-0.103515625,0.0012992183,1.12283975E-4,-5.9102016E-4,0.09,1.0,-0.08,15326,9965.90,0,0,165,0.91,-2.59,0.00,0.09,1.00,-0.08
-0.70410156,-7.0078205E-4,1.12283975E-4,-5.9102016E-4,0.09,1.0,-0.08,15333,9965.30,0,0,0,0.77,-2.59,0.00,0.09,1.00,-0.08
-1.0039062,2.9921718E-4,0.001112286,-5.9102016E-4,0.09,1.0,-0.08,15348,9965.00,0,0,165,0.84,-2.52,0.00,0.09,1.00,-0.08
-1.0039062,2.9921718E-4,0.001112286,4.089799E-4,0.09,1.0,-0.08,15362,9965.00,0,0,0,0.84,-2.52,0.07,0.09,1.00,-0.08
-1.0039062,-7.0078205E-4,1.12283975E-4,-0.0015910203,0.09,1.0,-0.08,15370,9965.00,0,0,165,0.77,-2.59,-0.07,0.09,1.00,-0.08
-0.103515625,-7.0078205E-4,1.12283975E-4,4.089799E-4,0.09,1.0,-0.08,15385,9965.90,0,0,0,0.77,-2.59,0.07,0.09,1.00,-0.08
-0.70410156,-7.0078205E-4,0.001112286,0.00140898,0.09,1.0,-0.08,15400,9965.30,0,0,165,0.77,-2.52,0.14,0.09,1.00,-0.08
-0.70410156,-0.0017007822,1.12283975E-4,0.00140898,0.09,1.0,-0.08,15408,9965.30,0,0,0,0.70,-2.59,0.14,0.09,1.00,-0.08
-0.70410156,2.9921718E-4,-0.0018877164,-5.9102016E-4,0.09,1.0,-0.08,15423,9965.30,0,0,165,0.84,-2.73,0.00,0.09,1.00,-0.08
-0.70410156,2.9921718E-4,1.12283975E-4,0.00140898,0.09,1.0,-0.08,15437,9965.30,0,0,0,0.84,-2.59,0.14,0.09,1.00,-0.08
-0.70410156,-7.0078205E-4,1.12283975E-4,-0.0015910203,0.09,1.0,-0.08,15445,9965.30,0,0,165,0.77,-2.59,-0.07,0.09,1.00,-0.08
-0.70410156,0.0012992183,1.12283975E-4,-0.0015910203,0.09,1.12,-0.08,15460,9965.30,0,0,0,0.91,-2.59,-0.07,0.09,1.12,-0.08
0.29589844,2.9921718E-4,-8.8771805E-4,-5.9102016E-4,0.09,1.0,-0.08,15475,9966.30,0,0,165,0.84,-2.66,0.00,0.09,1.00,-0.08
-0.70410156,0.0012992183,1.12283975E-4,4.089799E-4,0.09,1.0,-0.08,15482,9965.30,0,0,0,0.91,-2.59,0.07,0.09,1.00,-0.08
-0.70410156,2.9921718E-4,1.12283975E-4,-5.9102016E-4,0.09,1.0,-0.08,15498,9965.30,0,0,165,0.84,-2.59,0.00,0.09,1.00,-0.08
0.29589844,2.9921718E-4,1.12283975E-4,-0.0015910203,0.09,1.0,-0.08,15512,9966.30,0,0,0,0.84,-2.59,-0.07,0.09,1.00,-0.08
-0.70410156,0.0012992183,-8.8771805E-4,4.089799E-4,0.09,1.0,-0.08,15520,9965.30,0,0,165,0.91,-2.66,0.07,0.09,1.00,-0.08
-0.70410156,0.0012992183,0.001112286,-0.0015910203,0.09,1.0,-0.08,15535,9965.30,0,0,0,0.91,-2.52,-0.07,0.09,1.00,-0.08
-0.40429688,-7.0078205E-4,-8.8771805E-4,0.00140898,0.09,1.0,-0.08,15550,9965.60,0,0,165,0.77,-2.66,0.14,0.09,1.00,-0.08
-0.70410156,2.9921718E-4,1.12283975E-4,-0.0015910203,0.09,1.0,-0.08,15558,9965.30,0,0,0,0.84,-2.59,-0.07,0.09,1.00,-0.08
-0.70410156,2.9921718E-4,1.12283975E-4,0.00140898,0.09,1.0,-0.08,15573,9965.30,0,0,165,0.84,-2.59,0.14,0.09,1.00,-0.08
-0.70410156,2.9921718E-4,-8.8771805E-4,4.089799E-4,0.09,1.0,-0.08,15588,9965.30,0,0,0,0.84,-2.66,0.07,0.09,1.00,-0.08
-0.70410156,2.9921718E-4,0.001112286,-5.9102016E-4,0.09,1.0,-0.08,15595,9965.30,0,0,165,0.84,-2.52,0.00,0.09,1.00,-0.08
-0.70410156,2.9921718E-4,1.12283975E-4,4.089799E-4,0.09,1.0,-0.08,15611,9965.30,0,0,0,0.84,-2.59,0.07,0.09,1.00,-0.08
-0.70410156,2.9921718E-4,1.12283975E-4,4.089799E-4,0.09,1.0,-0.08,15626,9965.30,0,0,165,0.84,-2.59,0.07,0.09,1.00,-0.08
-1.0039062,-0.0017007822,1.12283975E-4,-0.0015910203,0.09,1.0,-0.08,15633,9965.00,0,0,0,0.70,-2.59,-0.07,0.09,1.00,-0.08
-1.7041016,-0.0017007822,-0.0018877164,-0.0015910203,0.09,1.0,-0.08,15648,9964.30,0,0,165,0.70,-2.73,-0.07,0.09,1.00,-0.08
-1.0039062,0.0012992183,1.12283975E-4,0.00140898,0.09,1.0,-0.08,15663,9965.00,0,0,0,0.91,-2.59,0.14,0.09,1.00,-0.08
-0.70410156,2.9921718E-4,1.12283975E-4,-5.9102016E-4,0.09,1.0,-0.07,15671,9965.30,0,0,165,0.84,-2.59,0.00,0.09,1.00,-0.07
-1.7041016,-0.0017007822,1.12283975E-4,-0.0015910203,0.09,1.0,-0.08,15686,9964.30,0,0,0,0.70,-2.59,-0.07,0.09,1.00,-0.08
0.29589844,0.0012992183,1.12283975E-4,4.089799E-4,0.09,1.0,-0.08,15700,9966.30,0,0,165,0.91,-2.59,0.07,0.09,1.00,-0.08
-0.70410156,-7.0078205E-4,-8.8771805E-4,-0.0015910203,0.09,1.0,-0.08,15707,9965.30,0,0,0,0.77,-2.66,-0.07,0.09,1.00,-0.08
-1.0039062,2.9921718E-4,-0.0018877164,-5.9102016E-4,0.09,1.0,-0.08,15722,9965.00,0,0,165,0.84,-2.73,0.00,0.09,1.00,-0.08
0.5957031,2.9921718E-4,0.001112286,-5.9102016E-4,0.09,1.0,-0.08,15737,9966.60,0,0,0,0.84,-2.52,0.00,0.09,1.00,-0.08
-0.70410156,-7.0078205E-4,-8.8771805E-4,-5.9102016E-4,0.09,1.0,-0.08,15745,9965.30,0,0,165,0.77,-2.66,0.00,0.09,1.00,-0.08
-0.70410156,-0.0017007822,1.12283975E-4,-0.0015910203,0.09,1.0,-0.08,15760,9965.30,0,0,0,0.70,-2.59,-0.07,0.09,1.00,-0.08
-1.0039062,2.9921718E-4,1.12283975E-4,-5.9102016E-4,0.09,1.0,-0.08,15775,9965.00,0,0,165,0.84,-2.59,0.00,0.09,1.00,-0.08
0.29589844,0.0012992183,-8.8771805E-4,-5.9102016E-4,0.09,1.0,-0.08,15783,9966.30,0,0,0,0.91,-2.66,0.00,0.09,1.00,-0.08
-1.7041016,2.9921718E-4,0.001112286,-5.9102016E-4,0.09,1.0,-0.08,15798,9964.30,0,0,165,0.84,-2.52,0.00,0.09,1.00,-0.08
0.8964844,-7.0078205E-4,-8.8771805E-4,4.089799E-4,0.09,1.0,-0.08,15812,9966.90,0,0,0,0.77,-2.66,0.07,0.09,1.00,-0.08
-0.70410156,-7.0078205E-4,-8.8771805E-4,-0.0015910203,0.09,1.0,-0.08,15823,9965.30,0,0,165,0.77,-2.66,-0.07,0.09,1.00,-0.08
-0.70410156,-7.0078205E-4,1.12283975E-4,-0.0015910203,0.09,1.0,-0.08,15835,9965.30,0,0,0,0.77,-2.59,-0.07,0.09,1.00,-0.08
-0.70410156,2.9921718E-4,0.001112286,4.089799E-4,0.09,1.0,-0.08,15850,9965.30,0,0,165,0.84,-2.52,0.07,0.09,1.00,-0.08
-0.70410156,2.9921718E-4,-8.8771805E-4,-5.9102016E-4,0.09,1.0,-0.08,15866,9965.30,0,0,0,0.84,-2.66,0.00,0.09,1.00,-0.08
-0.70410156,2.9921718E-4,1.12283975E-4,-0.0015910203,0.09,1.0,-0.08,15873,9965.30,0,0,165,0.84,-2.59,-0.07,0.09,1.00,-0.08
-0.70410156,-7.0078205E-4,1.12283975E-4,0.00140898,0.09,1.0,-0.08,15888,9965.30,0,0,0,0.77,-2.59,0.14,0.09,1.00,-0.08
-1.0039062,0.0012992183,1.12283975E-4,4.089799E-4,0.09,1.0,-0.08,15896,9965.00,0,0,165,0.91,-2.59,0.07,0.09,1.00,-0.08
-0.70410156,0.0012992183,1.12283975E-4,-5.9102016E-4,0.09,1.0,-0.08,15911,9965.30,0,0,0,0.91,-2.59,0.00,0.09,1.00,-0.08
-0.70410156,-7.0078205E-4,0.001112286,4.089799E-4,0.09,1.0,-0.08,15926,9965.30,0,0,165,0.77,-2.52,0.07,0.09,1.00,-0.08
-0.103515625,-7.0078205E-4,1.12283975E-4,-5.9102016E-4,0.09,1.0,-0.08,15933,9965.90,0,0,0,0.77,-2.59,0.00,0.09,1.00,-0.08
-0.70410156,0.0012992183,1.12283975E-4,4.089799E-4,0.09,1.0,-0.08,15948,9965.30,0,0,165,0.91,-2.59,0.07,0.09,1.00,-0.08
0.29589844,2.9921718E-4,1.12283975E-4,-5.9102016E-4,0.09,1.0,-0.08,15963,9966.30,0,0,0,0.84,-2.59,0.00,0.09,1.00,-0.08
0.29589844,0.0022992184,1.12283975E-4,-5.9102016E-4,0.09,1.0,-0.07,15970,9966.30,0,0,165,0.98,-2.59,0.00,0.09,1.00,-0.07
-2.0039062,0.0012992183,0.001112286,0.00140898,0.09,1.0,-0.08,15986,9964.00,0,0,0,0.91,-2.52,0.14,0.09,1.00,-0.08
0.29589844,2.9921718E-4,-8.8771805E-4,-5.9102016E-4,0.09,1.0,-0.08,16000,9966.30,0,0,165,0.84,-2.66,0.00,0.09,1.00,-0.08
0.29589844,2.9921718E-4,1.12283975E-4,-5.9102016E-4,0.09,1.0,-0.08,16009,9966.30,0,0,0,0.84,-2.59,0.00,0.09,1.00,-0.08
-0.70410156,2.9921718E-4,1.12283975E-4,-5.9102016E-4,0.09,1.0,-0.08,16023,9965.30,0,0,165,0.84,-2.59,0.00,0.09,1.00,-0.08
-0.70410156,-0.0017007822,1.12283975E-4,4.089799E-4,0.09,1.0,-0.08,16037,9965.30,0,0,0,0.70,-2.59,0.07,0.09,1.00,-0.08
0.29589844,-7.0078205E-4,1.12283975E-4,4.089799E-4,0.09,1.0,-0.08,16045,9966.30,0,0,165,0.77,-2.59,0.07,0.09,1.00,-0.08
-0.70410156,-7.0078205E-4,1.12283975E-4,4.089799E-4,0.09,1.0,-0.08,16061,9965.30,0,0,0,0.77,-2.59,0.07,0.09,1.00,-0.08
-1.0039062,0.0012992183,1.12283975E-4,4.089799E-4,0.09,1.0,-0.08,16076,9965.00,0,0,165,0.91,-2.59,0.07,0.09,1.00,-0.08
-0.103515625,-7.0078205E-4,0.001112286,-5.9102016E-4,0.09,1.0,-0.08,16083,9965.90,0,0,0,0.77,-2.52,0.00,0.09,1.00,-0.08
-2.0039062,0.0012992183,0.001112286,-5.9102016E-4,0.09,1.0,-0.08,16098,9964.00,0,0,165,0.91,-2.52,0.00,0.09,1.00,-0.08
-0.70410156,0.0012992183,0.001112286,-5.9102016E-4,0.09,1.0,-0.08,16113,9965.30,0,0,0,0.91,-2.52,0.00,0.09,1.00,-0.08
-0.70410156,2.9921718E-4,1.12283975E-4,-0.0025910202,0.09,1.0,-0.08,16120,9965.30,0,0,165,0.84,-2.59,-0.14,0.09,1.00,-0.08
-0.70410156,-7.0078205E-4,1.12283975E-4,4.089799E-4,0.09,1.0,-0.08,16135,9965.30,0,0,0,0.77,-2.59,0.07,0.09,1.00,-0.08
-0.103515625,-7.0078205E-4,-8.8771805E-4,4.089799E-4,0.09,1.0,-0.08,16150,9965.90,0,0,165,0.77,-2.66,0.07,0.09,1.00,-0.08
0.8964844,-7.0078205E-4,-8.8771805E-4,-5.9102016E-4,0.09,1.0,-0.08,16158,9966.90,0,0,0,0.77,-2.66,0.00,0.09,1.00,-0.08
0.29589844,2.9921718E-4,-8.8771805E-4,-5.9102016E-4,0.09,1.0,-0.08,16172,9966.30,0,0,165,0.84,-2.66,0.00,0.09,1.00,-0.08
-2.0039062,0.0012992183,1.12283975E-4,-5.9102016E-4,0.09,1.0,-0.08,16188,9964.00,0,0,0,0.91,-2.59,0.00,0.09,1.00,-0.08
-1.0039062,-0.0017007822,0.001112286,-0.0015910203,0.09,1.0,-0.08,16195,9965.00,0,0,165,0.70,-2.52,-0.07,0.09,1.00,-0.08
-0.70410156,-7.0078205E-4,1.12283975E-4,4.089799E-4,0.09,1.0,-0.08,16210,9965.30,0,0,0,0.77,-2.59,0.07,0.09,1.00,-0.08
-1.7041016,0.0022992184,1.12283975E-4,-5.9102016E-4,0.09,1.0,-0.08,16226,9964.30,0,0,165,0.98,-2.59,0.00,0.09,1.00,-0.08
-1.0039062,-7.0078205E-4,-8.8771805E-4,-0.0015910203,0.09,1.0,-0.08,16233,9965.00,0,0,0,0.77,-2.66,-0.07,0.09,1.00,-0.08
-0.70410156,-7.0078205E-4,1.12283975E-4,-5.9102016E-4,0.09,1.0,-0.08,16248,9965.30,0,0,165,0.77,-2.59,0.00,0.09,1.00,-0.08
-0.70410156,2.9921718E-4,1.12283975E-4,4.089799E-4,0.09,1.0,-0.08,16263,9965.30,0,0,0,0.84,-2.59,0.07,0.09,1.00,-0.08
-0.70410156,0.0012992183,1.12283975E-4,4.089799E-4,0.09,1.0,-0.08,16270,9965.30,0,0,165,0.91,-2.59,0.07,0.09,1.00,-0.08
-0.70410156,0.0012992183,0.001112286,4.089799E-4,0.09,1.0,-0.07,16285,9965.30,0,0,0,0.91,-2.52,0.07,0.09,1.00,-0.07
-1.0039062,-7.0078205E-4,1.12283975E-4,4.089799E-4,0.09,1.0,-0.08,16301,9965.00,0,0,165,0.77,-2.59,0.07,0.09,1.00,-0.08
-1.0039062,2.9921718E-4,0.001112286,4.089799E-4,0.09,1.01,-0.08,16312,9965.00,0,0,0,0.84,-2.52,0.07,0.09,1.01,-0.08
-1.0039062,-0.0027007824,-8.8771805E-4,-5.9102016E-4,0.09,1.0,-0.08,16323,9965.00,0,0,165,0.63,-2.66,0.00,0.09,1.00,-0.08
0.29589844,0.0012992183,-8.8771805E-4,-0.0015910203,0.09,1.0,-0.08,16338,9966.30,0,0,0,0.91,-2.66,-0.07,0.09,1.00,-0.08
-0.70410156,-0.0017007822,-8.8771805E-4,4.089799E-4,0.09,1.0,-0.08,16346,9965.30,0,0,165,0.70,-2.66,0.07,0.09,1.00,-0.08
-2.0039062,2.9921718E-4,1.12283975E-4,4.089799E-4,0.09,1.0,-0.08,16361,9964.00,0,0,0,0.84,-2.59,0.07,0.09,1.00,-0.08
-0.103515625,-0.0017007822,1.12283975E-4,-0.0015910203,0.09,1.0,-0.08,16376,9965.90,0,0,165,0.70,-2.59,-0.07,0.09,1.00,-0.08
-0.70410156,0.0012992183,0.001112286,-5.9102016E-4,0.09,1.0,-0.08,16383,9965.30,0,0,0,0.91,-2.52,0.00,0.09,1.00,-0.08
-0.70410156,2.9921718E-4,-8.8771805E-4,4.089799E-4,0.09,1.0,-0.08,16397,9965.30,0,0,165,0.84,-2.66,0.07,0.09,1.00,-0.08
-0.70410156,2.9921718E-4,0.001112286,-0.0015910203,0.09,1.0,-0.08,16412,9965.30,0,0,0,0.84,-2.52,-0.07,0.09,1.00,-0.08
-0.70410156,0.0012992183,1.12283975E-4,-0.0015910203,0.09,1.0,-0.08,16420,9965.30,0,0,165,0.91,-2.59,-0.07,0.09,1.00,-0.08
-0.70410156,0.0012992183,1.12283975E-4,-0.0015910203,0.09,1.0,-0.08,16435,9965.30,0,0,0,0.91,-2.59,-0.07,0.09,1.00,-0.08
-0.70410156,2.9921718E-4,-8.8771805E-4,4.089799E-4,0.09,1.0,-0.08,16450,9965.30,0,0,165,0.84,-2.66,0.07,0.09,1.00,-0.08
-1.0039062,-7.0078205E-4,0.001112286,4.089799E-4,0.09,1.0,-0.08,16457,9965.00,0,0,0,0.77,-2.52,0.07,0.09,1.00,-0.08
-2.0039062,2.9921718E-4,0.001112286,4.089799E-4,0.09,1.0,-0.08,16472,9964.00,0,0,165,0.84,-2.52,0.07,0.09,1.00,-0.08
-0.103515625,-7.0078205E-4,-8.8771805E-4,-5.9102016E-4,0.09,1.0,-0.08,16488,9965.90,0,0,0,0.77,-2.66,0.00,0.09,1.00,-0.08
-0.70410156,2.9921718E-4,0.001112286,-0.0015910203,0.09,1.0,-0.08,16495,9965.30,0,0,165,0.84,-2.52,-0.07,0.09,1.00,-0.08
-0.70410156,0.0012992183,1.12283975E-4,-5.9102016E-4,0.09,1.0,-0.08,16510,9965.30,0,0,0,0.91,-2.59,0.00,0.09,1.00,-0.08
-0.70410156,2.9921718E-4,1.12283975E-4,4.089799E-4,0.09,1.0,-0.08,16525,9965.30,0,0,165,0.84,-2.59,0.07,0.09,1.00,-0.08
-0.70410156,2.9921718E-4,-8.8771805E-4,4.089799E-4,0.09,1.0,-0.08,16532,9965.30,0,0,0,0.84,-2.66,0.07,0.09,1.00,-0.08
-0.70410156,0.0012992183,1.12283975E-4,4.089799E-4,0.09,1.0,-0.08,16548,9965.30,0,0,165,0.91,-2.59,0.07,0.09,1.00,-0.08
0.29589844,-7.0078205E-4,-8.8771805E-4,0.00140898,0.09,1.0,-0.08,16563,9966.30,0,0,0,0.77,-2.66,0.14,0.09,1.00,-0.08
-0.70410156,-0.0017007822,1.12283975E-4,4.089799E-4,0.09,1.0,-0.08,16571,9965.30,0,0,165,0.70,-2.59,0.07,0.09,1.00,-0.08
0.29589844,-7.0078205E-4,0.001112286,0.00140898,0.09,1.0,-0.08,16585,9966.30,0,0,0,0.77,-2.52,0.14,0.09,1.00,-0.08
1.1962891,-7.0078205E-4,1.12283975E-4,-5.9102016E-4,0.09,1.0,-0.08,16600,9967.20,0,0,165,0.77,-2.59,0.00,0.09,1.00,-0.08
-0.103515625,0.0012992183,1.12283975E-4,0.00140898,0.09,1.0,-0.08,16607,9965.90,0,0,0,0.91,-2.59,0.14,0.09,1.00,-0.08
-1.7041016,2.9921718E-4,-8.8771805E-4,4.089799E-4,0.09,1.0,-0.08,16622,9964.30,0,0,165,0.84,-2.66,0.07,0.09,1.00,-0.08
-0.70410156,-7.0078205E-4,1.12283975E-4,-5.9102016E-4,0.09,1.0,-0.08,16637,9965.30,0,0,0,0.77,-2.59,0.00,0.09,1.00,-0.08
-1.0039062,2.9921718E-4,-8.8771805E-4,-0.0015910203,0.09,1.0,-0.08,16645,9965.00,0,0,165,0.84,-2.66,-0.07,0.09,1.00,-0.08
-2.0039062,2.9921718E-4,-8.8771805E-4,-0.00359102,0.09,1.0,-0.08,16660,9964.00,0,0,0,0.84,-2.66,-0.21,0.09,1.00,-0.08
-0.70410156,-0.0017007822,-8.8771805E-4,-0.0015910203,0.09,1.0,-0.08,16667,9965.30,0,0,165,0.70,-2.66,-0.07,0.09,1.00,-0.08
-0.70410156,0.0022992184,1.12283975E-4,-5.9102016E-4,0.09,1.0,-0.08,16683,9965.30,0,0,0,0.98,-2.59,0.00,0.09,1.00,-0.08
-1.0039062,-0.0017007822,1.12283975E-4,4.089799E-4,0.09,1.0,-0.08,16697,9965.00,0,0,165,0.70,-2.59,0.07,0.09,1.00,-0.08
0.29589844,-7.0078205E-4,1.12283975E-4,-0.0015910203,0.09,1.0,-0.08,16705,9966.30,0,0,0,0.77,-2.59,-0.07,0.09,1.00,-0.08
-0.103515625,-7.0078205E-4,-8.8771805E-4,-5.9102016E-4,0.09,1.0,-0.08,16720,9965.90,0,0,165,0.77,-2.66,0.00,0.09,1.00,-0.08
-0.70410156,2.9921718E-4,1.12283975E-4,-5.9102016E-4,0.09,1.0,-0.08,16735,9965.30,0,0,0,0.84,-2.59,0.00,0.09,1.00,-0.08
0.29589844,-7.0078205E-4,-8.8771805E-4,-5.9102016E-4,0.09,1.0,-0.08,16743,9966.30,0,0,165,0.77,-2.66,0.00,0.09,1.00,-0.08
0.29589844,-0.0017007822,1.12283975E-4,4.089799E-4,0.09,1.0,-0.08,16758,9966.30,0,0,0,0.70,-2.59,0.07,0.09,1.00,-0.08
-0.70410156,2.9921718E-4,-8.8771805E-4,-5.9102016E-4,0.09,1.0,-0.08,16773,9965.30,0,0,165,0.84,-2.66,0.00,0.09,1.00,-0.08
0.5957031,-7.0078205E-4,-8.8771805E-4,-0.0015910203,0.09,1.0,-0.08,16780,9966.60,0,0,0,0.77,-2.66,-0.07,0.09,1.00,-0.08
-0.70410156,2.9921718E-4,0.001112286,4.089799E-4,0.09,1.0,-0.08,16795,9965.30,0,0,165,0.84,-2.52,0.07,0.09,1.00,-0.08
-0.70410156,2.9921718E-4,-8.8771805E-4,-5.9102016E-4,0.09,1.0,-0.08,16810,9965.30,0,0,0,0.84,-2.66,0.00,0.09,1.00,-0.08
0.29589844,-7.0078205E-4,0.001112286,0.00140898,0.09,1.0,-0.08,16818,9966.30,0,0,165,0.77,-2.52,0.14,0.09,1.00,-0.08
-0.70410156,2.9921718E-4,1.12283975E-4,4.089799E-4,0.09,1.0,-0.08,16833,9965.30,0,0,0,0.84,-2.59,0.07,0.09,1.00,-0.08
-0.103515625,0.0012992183,1.12283975E-4,0.0024089797,0.09,1.0,-0.08,16848,9965.90,0,0,165,0.91,-2.59,0.21,0.09,1.00,-0.08
-1.0039062,-7.0078205E-4,1.12283975E-4,4.089799E-4,0.09,1.0,-0.08,16855,9965.00,0,0,0,0.77,-2.59,0.07,0.09,1.00,-0.08
-1.7041016,-7.0078205E-4,1.12283975E-4,-5.9102016E-4,0.09,1.0,-0.08,16870,9964.30,0,0,165,0.77,-2.59,0.00,0.09,1.00,-0.08
0.29589844,2.9921718E-4,1.12283975E-4,-5.9102016E-4,0.09,1.0,-0.08,16885,9966.30,0,0,0,0.84,-2.59,0.00,0.09,1.00,-0.08
-0.70410156,-7.0078205E-4,-8.8771805E-4,-0.0025910202,0.09,1.0,-0.08,16893,9965.30,0,0,165,0.77,-2.66,-0.14,0.09,1.00,-0.08
-0.70410156,2.9921718E-4,-8.8771805E-4,-0.0025910202,0.09,1.0,-0.08,16908,9965.30,0,0,0,0.84,-2.66,-0.14,0.09,1.00,-0.08
-0.70410156,2.9921718E-4,1.12283975E-4,-0.0015910203,0.09,1.0,-0.08,16923,9965.30,0,0,165,0.84,-2.59,-0.07,0.09,1.00,-0.08
0.29589844,-7.0078205E-4,-8.8771805E-4,-5.9102016E-4,0.09,1.0,-0.07,16930,9966.30,0,0,0,0.77,-2.66,0.00,0.09,1.00,-0.07
-0.70410156,0.0012992183,1.12283975E-4,4.089799E-4,0.09,1.0,-0.08,16945,9965.30,0,0,165,0.91,-2.59,0.07,0.09,1.00,-0.08
-0.103515625,-7.0078205E-4,1.12283975E-4,-5.9102016E-4,0.09,1.0,-0.08,16960,9965.90,0,0,0,0.77,-2.59,0.00,0.09,1.00,-0.08
-0.70410156,-7.0078205E-4,1.12283975E-4,4.089799E-4,0.09,1.0,-0.08,16968,9965.30,0,0,165,0.77,-2.59,0.07,0.09,1.00,-0.08
-0.70410156,2.9921718E-4,1.12283975E-4,4.089799E-4,0.09,1.0,-0.08,16982,9965.30,0,0,0,0.84,-2.59,0.07,0.09,1.00,-0.08
-0.70410156,-7.0078205E-4,-8.8771805E-4,-5.9102016E-4,0.09,1.0,-0.08,16997,9965.30,0,0,165,0.77,-2.66,0.00,0.09,1.00,-0.08
0.5957031,2.9921718E-4,-8.8771805E-4,0.00140898,0.09,1.0,-0.08,17005,9966.60,0,0,0,0.84,-2.66,0.14,0.09,1.00,-0.08
-0.70410156,-7.0078205E-4,1.12283975E-4,4.089799E-4,0.09,1.0,-0.08,17021,9965.30,0,0,165,0.77,-2.59,0.07,0.09,1.00,-0.08
-1.0039062,2.9921718E-4,1.12283975E-4,-0.0025910202,0.09,1.0,-0.08,17036,9965.00,0,0,0,0.84,-2.59,-0.14,0.09,1.00,-0.08
0.29589844,-7.0078205E-4,1.12283975E-4,4.089799E-4,0.09,1.0,-0.08,17043,9966.30,0,0,165,0.77,-2.59,0.07,0.09,1.00,-0.08
0.29589844,2.9921718E-4,1.12283975E-4,4.089799E-4,0.09,1.0,-0.08,17058,9966.30,0,0,0,0.84,-2.59,0.07,0.09,1.00,-0.08
-1.7041016,2.9921718E-4,1.12283975E-4,-0.0015910203,0.09,1.0,-0.08,17073,9964.30,0,0,165,0.84,-2.59,-0.07,0.09,1.00,-0.08
-0.70410156,-7.0078205E-4,1.12283975E-4,-5.9102016E-4,0.09,1.0,-0.08,17080,9965.30,0,0,0,0.77,-2.59,0.00,0.09,1.00,-0.08
-0.70410156,0.0012992183,0.001112286,4.089799E-4,0.09,1.0,-0.08,17096,9965.30,0,0,165,0.91,-2.52,0.07,0.09,1.00,-0.08
-0.70410156,0.0012992183,0.001112286,-5.9102016E-4,0.09,1.0,-0.08,17110,9965.30,0,0,0,0.91,-2.52,0.00,0.09,1.00,-0.08
-0.70410156,-7.0078205E-4,-8.8771805E-4,-5.9102016E-4,0.09,1.0,-0.08,17118,9965.30,0,0,165,0.77,-2.66,0.00,0.09,1.00,-0.08
-0.103515625,2.9921718E-4,0.001112286,-5.9102016E-4,0.09,1.0,-0.08,17133,9965.90,0,0,0,0.84,-2.52,0.00,0.09,1.00,-0.08
-0.103515625,2.9921718E-4,0.001112286,4.089799E-4,0.09,1.0,-0.08,17148,9965.90,0,0,165,0.84,-2.52,0.07,0.09,1.00,-0.08
0.29589844,-7.0078205E-4,0.001112286,-0.0015910203,0.09,1.0,-0.08,17156,9966.30,0,0,0,0.77,-2.52,-0.07,0.09,1.00,-0.08
-0.103515625,2.9921718E-4,-8.8771805E-4,-5.9102016E-4,0.09,1.0,-0.08,17170,9965.90,0,0,165,0.84,-2.66,0.00,0.09,1.00,-0.08
-1.7041016,2.9921718E-4,0.001112286,-5.9102016E-4,0.09,1.0,-0.08,17186,9964.30,0,0,0,0.84,-2.52,0.00,0.09,1.00,-0.08
-0.70410156,2.9921718E-4,-8.8771805E-4,-0.0025910202,0.09,0.87,-0.08,17200,9965.30,0,0,165,0.84,-2.66,-0.14,0.09,0.87,-0.08
-0.70410156,2.9921718E-4,-8.8771805E-4,-0.0025910202,0.09,1.0,-0.08,17207,9965.30,0,0,0,0.84,-2.66,-0.14,0.09,1.00,-0.08
-0.70410156,2.9921718E-4,1.12283975E-4,4.089799E-4,0.09,1.0,-0.08,17222,9965.30,0,0,165,0.84,-2.59,0.07,0.09,1.00,-0.08
-0.70410156,-7.0078205E-4,-8.8771805E-4,-0.0025910202,0.09,1.0,-0.08,17230,9965.30,0,0,0,0.77,-2.66,-0.14,0.09,1.00,-0.08
-1.0039062,0.0012992183,1.12283975E-4,-5.9102016E-4,0.09,1.0,-0.08,17245,9965.00,0,0,165,0.91,-2.59,0.00,0.09,1.00,-0.08
-0.70410156,2.9921718E-4,-8.8771805E-4,-5.9102016E-4,0.09,1.0,-0.08,17252,9965.30,0,0,0,0.84,-2.66,0.00,0.09,1.00,-0.08
-1.0039062,-7.0078205E-4,-8.8771805E-4,0.00140898,0.09,1.0,-0.08,17267,9965.00,0,0,165,0.77,-2.66,0.14,0.09,1.00,-0.08
-0.70410156,-0.0017007822,1.12283975E-4,-5.9102016E-4,0.09,1.0,-0.08,17282,9965.30,0,0,0,0.70,-2.59,0.00,0.09,1.00,-0.08
0.29589844,2.9921718E-4,1.12283975E-4,-5.9102016E-4,0.09,1.0,-0.08,17290,9966.30,0,0,165,0.84,-2.59,0.00,0.09,1.00,-0.08
0.29589844,-0.0017007822,-8.8771805E-4,-5.9102016E-4,0.09,1.0,-0.08,17305,9966.30,0,0,0,0.70,-2.66,0.00,0.09,1.00,-0.08
0.29589844,2.9921718E-4,1.12283975E-4,-5.9102016E-4,0.09,1.0,-0.08,17320,9966.30,0,0,165,0.84,-2.59,0.00,0.09,1.00,-0.08
-0.70410156,-7.0078205E-4,1.12283975E-4,0.00140898,0.09,1.0,-0.08,17328,9965.30,0,0,0,0.77,-2.59,0.14,0.09,1.00,-0.08
-0.70410156,-7.0078205E-4,-0.0018877164,-0.0015910203,0.09,1.0,-0.08,17343,9965.30,0,0,165,0.77,-2.73,-0.07,0.09,1.00,-0.08
-0.70410156,2.9921718E-4,-8.8771805E-4,4.089799E-4,0.09,1.0,-0.08,17358,9965.30,0,0,0,0.84,-2.66,0.07,0.09,1.00,-0.08
0.29589844,2.9921718E-4,0.001112286,0.00140898,0.09,1.0,-0.07,17366,9966.30,0,0,165,0.84,-2.52,0.14,0.09,1.00,-0.07
-0.70410156,2.9921718E-4,1.12283975E-4,4.089799E-4,0.09,1.0,-0.08,17381,9965.30,0,0,0,0.84,-2.59,0.07,0.09,1.00,-0.08
-0.70410156,2.9921718E-4,0.001112286,-5.9102016E-4,0.09,1.0,-0.08,17395,9965.30,0,0,165,0.84,-2.52,0.00,0.09,1.00,-0.08
-0.70410156,2.9921718E-4,1.12283975E-4,-0.0015910203,0.09,1.0,-0.08,17403,9965.30,0,0,0,0.84,-2.59,-0.07,0.09,1.00,-0.08
0.29589844,0.0012992183,1.12283975E-4,-5.9102016E-4,0.09,1.0,-0.08,17417,9966.30,0,0,165,0.91,-2.59,0.00,0.09,1.00,-0.08
-1.0039062,0.0012992183,-8.8771805E-4,-5.9102016E-4,0.09,1.0,-0.08,17432,9965.00,0,0,0,0.91,-2.66,0.00,0.09,1.00,-0.08
-0.103515625,-7.0078205E-4,1.12283975E-4,0.0024089797,0.09,1.0,-0.08,17440,9965.90,0,0,165,0.77,-2.59,0.21,0.09,1.00,-0.08
-0.70410156,2.9921718E-4,0.001112286,4.089799E-4,0.09,1.0,-0.08,17455,9965.30,0,0,0,0.84,-2.52,0.07,0.09,1.00,-0.08
-0.70410156,2.9921718E-4,1.12283975E-4,-5.9102016E-4,0.09,1.0,-0.07,17471,9965.30,0,0,165,0.84,-2.59,0.00,0.09,1.00,-0.07
0.29589844,-7.0078205E-4,-8.8771805E-4,-5.9102016E-4,0.09,1.0,-0.08,17478,9966.30,0,0,0,0.77,-2.66,0.00,0.09,1.00,-0.08
-0.70410156,2.9921718E-4,1.12283975E-4,4.089799E-4,0.09,1.0,-0.08,17493,9965.30,0,0,165,0.84,-2.59,0.07,0.09,1.00,-0.08
-0.70410156,-7.0078205E-4,-8.8771805E-4,-0.0015910203,0.09,1.0,-0.08,17507,9965.30,0,0,0,0.77,-2.66,-0.07,0.09,1.00,-0.08
-0.103515625,2.9921718E-4,-8.8771805E-4,4.089799E-4,0.09,1.0,-0.08,17515,9965.90,0,0,165,0.84,-2.66,0.07,0.09,1.00,-0.08
-0.70410156,0.0012992183,-8.8771805E-4,-5.9102016E-4,0.09,1.0,-0.08,17531,9965.30,0,0,0,0.91,-2.66,0.00,0.09,1.00,-0.08
-0.70410156,2.9921718E-4,1.12283975E-4,-5.9102016E-4,0.09,1.0,-0.08,17545,9965.30,0,0,165,0.84,-2.59,0.00,0.09,1.00,-0.08
-0.70410156,-7.0078205E-4,-8.8771805E-4,-5.9102016E-4,0.09,1.0,-0.08,17552,9965.30,0,0,0,0.77,-2.66,0.00,0.09,1.00,-0.08
0.29589844,2.9921718E-4,-8.8771805E-4,-5.9102016E-4,0.09,1.0,-0.08,17567,9966.30,0,0,165,0.84,-2.66,0.00,0.09,1.00,-0.08
-0.70410156,2.9921718E-4,1.12283975E-4,-0.0015910203,0.09,1.0,-0.08,17582,9965.30,0,0,0,0.84,-2.59,-0.07,0.09,1.00,-0.08
-0.70410156,2.9921718E-4,-8.8771805E-4,-5.9102016E-4,0.09,1.0,-0.08,17590,9965.30,0,0,165,0.84,-2.66,0.00,0.09,1.00,-0.08
0.5957031,-7.0078205E-4,-8.8771805E-4,-0.0015910203,0.09,1.0,-0.08,17605,9966.60,0,0,0,0.77,-2.66,-0.07,0.09,1.00,-0.08
-0.70410156,2.9921718E-4,-8.8771805E-4,4.089799E-4,0.09,1.0,-0.08,17620,9965.30,0,0,165,0.84,-2.66,0.07,0.09,1.00,-0.08
-0.70410156,0.0012992183,0.0021122843,-0.0015910203,0.09,1.0,-0.08,17627,9965.30,0,0,0,0.91,-2.45,-0.07,0.09,1.00,-0.08
-0.70410156,-7.0078205E-4,1.12283975E-4,-5.9102016E-4,0.09,1.0,-0.08,17644,9965.30,0,0,165,0.77,-2.59,0.00,0.09,1.00,-0.08
0.29589844,-7.0078205E-4,0.001112286,-5.9102016E-4,0.09,1.0,-0.08,17658,9966.30,0,0,0,0.77,-2.52,0.00,0.09,1.00,-0.08
0.5957031,2.9921718E-4,1.12283975E-4,-5.9102016E-4,0.09,1.0,-0.08,17665,9966.60,0,0,165,0.84,-2.59,0.00,0.09,1.00,-0.08
-0.70410156,-0.0017007822,-8.8771805E-4,0.00140898,0.09,1.0,-0.08,17680,9965.30,0,0,0,0.70,-2.66,0.14,0.09,1.00,-0.08
-0.70410156,2.9921718E-4,-8.8771805E-4,-5.9102016E-4,0.09,1.0,-0.08,17696,9965.30,0,0,165,0.84,-2.66,0.00,0.09,1.00,-0.08
-0.70410156,0.0012992183,1.12283975E-4,4.089799E-4,0.09,1.0,-0.08,17702,9965.30,0,0,0,0.91,-2.59,0.07,0.09,1.00,-0.08
-0.70410156,2.9921718E-4,-8.8771805E-4,-0.0015910203,0.09,1.0,-0.08,17717,9965.30,0,0,165,0.84,-2.66,-0.07,0.09,1.00,-0.08
-1.3037109,2.9921718E-4,0.001112286,4.089799E-4,0.09,1.0,-0.08,17732,9964.70,0,0,0,0.84,-2.52,0.07,0.09,1.00,-0.08
-0.70410156,2.9921718E-4,-8.8771805E-4,-5.9102016E-4,0.09,1.0,-0.08,17740,9965.30,0,0,165,0.84,-2.66,0.00,0.09,1.00,-0.08
-0.70410156,-7.0078205E-4,0.001112286,4.089799E-4,0.09,1.0,-0.08,17755,9965.30,0,0,0,0.77,-2.52,0.07,0.09,1.00,-0.08
-1.7041016,-7.0078205E-4,-8.8771805E-4,-5.9102016E-4,0.09,1.0,-0.08,17771,9964.30,0,0,165,0.77,-2.66,0.00,0.09,1.00,-0.08
-0.70410156,-0.0017007822,-8.8771805E-4,-5.9102016E-4,0.09,1.0,-0.08,17777,9965.30,0,0,0,0.70,-2.66,0.00,0.09,1.00,-0.08
-0.70410156,-7.0078205E-4,1.12283975E-4,-0.00359102,0.09,1.0,-0.08,17793,9965.30,0,0,165,0.77,-2.59,-0.21,0.09,1.00,-0.08
-0.70410156,-7.0078205E-4,-8.8771805E-4,4.089799E-4,0.09,1.0,-0.08,17807,9965.30,0,0,0,0.77,-2.66,0.07,0.09,1.00,-0.08
-0.70410156,-7.0078205E-4,0.001112286,-5.9102016E-4,0.09,1.0,-0.08,17815,9965.30,0,0,165,0.77,-2.52,0.00,0.09,1.00,-0.08
0.29589844,0.0022992184,0.001112286,4.089799E-4,0.09,1.0,-0.08,17830,9966.30,0,0,0,0.98,-2.52,0.07,0.09,1.00,-0.08
-0.70410156,0.0012992183,0.001112286,-5.9102016E-4,0.09,1.0,-0.08,17845,9965.30,0,0,165,0.91,-2.52,0.00,0.09,1.00,-0.08
-0.70410156,0.0012992183,1.12283975E-4,4.089799E-4,0.09,1.0,-0.08,17852,9965.30,0,0,0,0.91,-2.59,0.07,0.09,1.00,-0.08
-0.70410156,2.9921718E-4,0.001112286,-5.9102016E-4,0.09,1.0,-0.08,17867,9965.30,0,0,165,0.84,-2.52,0.00,0.09,1.00,-0.08
0.29589844,-7.0078205E-4,1.12283975E-4,0.00140898,0.09,1.0,-0.08,17882,9966.30,0,0,0,0.77,-2.59,0.14,0.09,1.00,-0.08
-0.70410156,0.0012992183,1.12283975E-4,0.00140898,0.09,1.0,-0.08,17890,9965.30,0,0,165,0.91,-2.59,0.14,0.09,1.00,-0.08
0.29589844,2.9921718E-4,-8.8771805E-4,-0.0015910203,0.09,1.0,-0.08,17906,9966.30,0,0,0,0.84,-2.66,-0.07,0.09,1.00,-0.08
-0.70410156,-7.0078205E-4,0.001112286,4.089799E-4,0.09,1.0,-0.08,17920,9965.30,0,0,165,0.77,-2.52,0.07,0.09,1.00,-0.08
0.29589844,2.9921718E-4,1.12283975E-4,-5.9102016E-4,0.09,1.0,-0.08,17928,9966.30,0,0,0,0.84,-2.59,0.00,0.09,1.00,-0.08
-0.40429688,-7.0078205E-4,-8.8771805E-4,-5.9102016E-4,0.09,1.0,-0.08,17944,9965.60,0,0,165,0.77,-2.66,0.00,0.09,1.00,-0.08
0.5957031,-7.0078205E-4,0.001112286,-5.9102016E-4,0.09,1.0,-0.08,17957,9966.60,0,0,0,0.77,-2.52,0.00,0.09,1.00,-0.08
-1.0039062,2.9921718E-4,1.12283975E-4,4.089799E-4,0.09,1.0,-0.08,17965,9965.00,0,0,165,0.84,-2.59,0.07,0.09,1.00,-0.08
0.29589844,-7.0078205E-4,1.12283975E-4,-0.0015910203,0.09,1.0,-0.08,17981,9966.30,0,0,0,0.77,-2.59,-0.07,0.09,1.00,-0.08
0.29589844,0.0012992183,1.12283975E-4,-5.9102016E-4,0.09,1.0,-0.08,17995,9966.30,0,0,165,0.91,-2.59,0.00,0.09,1.00,-0.08
-0.70410156,-7.0078205E-4,-8.8771805E-4,-5.9102016E-4,0.09,1.0,-0.08,18002,9965.30,0,0,0,0.77,-2.66,0.00,0.09,1.00,-0.08
0.29589844,-7.0078205E-4,0.001112286,-0.0015910203,0.09,1.0,-0.08,18017,9966.30,0,0,165,0.77,-2.52,-0.07,0.09,1.00,-0.08
-0.70410156,-7.0078205E-4,-8.8771805E-4,-0.0015910203,0.09,1.0,-0.08,18032,9965.30,0,0,0,0.77,-2.66,-0.07,0.09,1.00,-0.08
0.29589844,2.9921718E-4,1.12283975E-4,-5.9102016E-4,0.09,1.0,-0.08,18040,9966.30,0,0,165,0.84,-2.59,0.00,0.09,1.00,-0.08
-1.0039062,-7.0078205E-4,0.001112286,-5.9102016E-4,0.09,1.0,-0.08,18055,9965.00,0,0,0,0.77,-2.52,0.00,0.09,1.00,-0.08
-1.0039062,2.9921718E-4,1.12283975E-4,4.089799E-4,0.09,1.0,-0.08,18070,9965.00,0,0,165,0.84,-2.59,0.07,0.09,1.00,-0.08
-1.0039062,-7.0078205E-4,-8.8771805E-4,-5.9102016E-4,0.09,1.0,-0.07,18079,9965.00,0,0,0,0.77,-2.66,0.00,0.09,1.00,-0.07
-1.7041016,2.9921718E-4,1.12283975E-4,-0.0015910203,0.09,1.0,-0.08,18092,9964.30,0,0,165,0.84,-2.59,-0.07,0.09,1.00,-0.08
-1.7041016,-7.0078205E-4,1.12283975E-4,0.00140898,0.09,1.0,-0.08,18108,9964.30,0,0,0,0.77,-2.59,0.14,0.09,1.00,-0.08
-0.70410156,2.9921718E-4,1.12283975E-4,4.089799E-4,0.09,1.0,-0.08,18115,9965.30,0,0,165,0.84,-2.59,0.07,0.09,1.00,-0.08
0.29589844,0.0012992183,-8.8771805E-4,-0.0015910203,0.09,1.0,-0.08,18130,9966.30,0,0,0,0.91,-2.66,-0.07,0.09,1.00,-0.08
-0.70410156,2.9921718E-4,-8.8771805E-4,4.089799E-4,0.09,1.0,-0.08,18146,9965.30,0,0,165,0.84,-2.66,0.07,0.09,1.00,-0.08
-0.103515625,-7.0078205E-4,1.12283975E-4,4.089799E-4,0.09,1.0,-0.08,18153,9965.90,0,0,0,0.77,-2.59,0.07,0.09,1.00,-0.08
-0.70410156,0.0012992183,1.12283975E-4,-5.9102016E-4,0.09,1.0,-0.08,18168,9965.30,0,0,165,0.91,-2.59,0.00,0.09,1.00,-0.08
0.29589844,2.9921718E-4,-8.8771805E-4,-5.9102016E-4,0.09,1.0,-0.08,18183,9966.30,0,0,0,0.84,-2.66,0.00,0.09,1.00,-0.08
-0.70410156,0.0012992183,0.001112286,4.089799E-4,0.09,1.0,-0.08,18190,9965.30,0,0,165,0.91,-2.52,0.07,0.09,1.00,-0.08
-0.70410156,2.9921718E-4,-8.8771805E-4,-0.0025910202,0.09,1.0,-0.08,18206,9965.30,0,0,0,0.84,-2.66,-0.14,0.09,1.00,-0.08
-0.70410156,0.0012992183,-8.8771805E-4,4.089799E-4,0.09,1.0,-0.08,18213,9965.30,0,0,165,0.91,-2.66,0.07,0.09,1.00,-0.08
-0.70410156,0.0012992183,0.0021122843,0.00140898,0.09,1.0,-0.08,18228,9965.30,0,0,0,0.91,-2.45,0.14,0.09,1.00,-0.08
-1.3037109,2.9921718E-4,1.12283975E-4,4.089799E-4,0.09,1.0,-0.08,18243,9964.70,0,0,165,0.84,-2.59,0.07,0.09,1.00,-0.08
-0.70410156,0.0012992183,-8.8771805E-4,4.089799E-4,0.09,1.0,-0.08,18250,9965.30,0,0,0,0.91,-2.66,0.07,0.09,1.00,-0.08
0.29589844,-7.0078205E-4,1.12283975E-4,-5.9102016E-4,0.09,1.0,-0.08,18265,9966.30,0,0,165,0.77,-2.59,0.00,0.09,1.00,-0.08
-0.70410156,2.9921718E-4,1.12283975E-4,4.089799E-4,0.09,1.0,-0.08,18280,9965.30,0,0,0,0.84,-2.59,0.07,0.09,1.00,-0.08
-1.0039062,-7.0078205E-4,1.12283975E-4,4.089799E-4,0.09,1.0,-0.08,18288,9965.00,0,0,165,0.77,-2.59,0.07,0.09,1.00,-0.08
-0.70410156,2.9921718E-4,-8.8771805E-4,-0.0025910202,0.09,1.0,-0.08,18302,9965.30,0,0,0,0.84,-2.66,-0.14,0.09,1.00,-0.08
-0.70410156,0.0012992183,1.12283975E-4,-0.0015910203,0.09,1.0,-0.08,18317,9965.30,0,0,165,0.91,-2.59,-0.07,0.09,1.00,-0.08
-0.70410156,-7.0078205E-4,0.001112286,-5.9102016E-4,0.09,1.0,-0.08,18326,9965.30,0,0,0,0.77,-2.52,0.00,0.09,1.00,-0.08
-1.0039062,-7.0078205E-4,1.12283975E-4,4.089799E-4,0.09,1.0,-0.07,18340,9965.00,0,0,165,0.77,-2.59,0.07,0.09,1.00,-0.07
-1.7041016,-7.0078205E-4,1.12283975E-4,4.089799E-4,0.09,1.0,-0.08,18355,9964.30,0,0,0,0.77,-2.59,0.07,0.09,1.00,-0.08
-0.70410156,0.0022992184,1.12283975E-4,-5.9102016E-4,0.09,1.0,-0.08,18363,9965.30,0,0,165,0.98,-2.59,0.00,0.09,1.00,-0.08
-0.103515625,2.9921718E-4,1.12283975E-4,-5.9102016E-4,0.09,1.0,-0.08,18378,9965.90,0,0,0,0.84,-2.59,0.00,0.09,1.00,-0.08
-0.70410156,-7.0078205E-4,1.12283975E-4,-5.9102016E-4,0.09,1.0,-0.08,18394,9965.30,0,0,165,0.77,-2.59,0.00,0.09,1.00,-0.08
-0.70410156,-7.0078205E-4,-8.8771805E-4,4.089799E-4,0.09,1.0,-0.08,18400,9965.30,0,0,0,0.77,-2.66,0.07,0.09,1.00,-0.08
-0.70410156,2.9921718E-4,1.12283975E-4,-5.9102016E-4,0.09,1.0,-0.08,18415,9965.30,0,0,165,0.84,-2.59,0.00,0.09,1.00,-0.08
0.29589844,-7.0078205E-4,1.12283975E-4,-5.9102016E-4,0.09,1.0,-0.08,18440,9966.30,0,0,0,0.77,-2.59,0.00,0.09,1.00,-0.08
-0.70410156,2.9921718E-4,1.12283975E-4,4.089799E-4,0.09,1.0,-0.08,18441,9965.30,0,0,165,0.84,-2.59,0.07,0.09,1.00,-0.08
-0.70410156,2.9921718E-4,1.12283975E-4,4.089799E-4,0.09,1.0,-0.08,18453,9965.30,0,0,0,0.84,-2.59,0.07,0.09,1.00,-0.08
0.29589844,2.9921718E-4,1.12283975E-4,-5.9102016E-4,0.09,1.0,-0.08,18468,9966.30,0,0,165,0.84,-2.59,0.00,0.09,1.00,-0.08
-0.70410156,2.9921718E-4,1.12283975E-4,-0.00359102,0.09,1.0,-0.08,18475,9965.30,0,0,0,0.84,-2.59,-0.21,0.09,1.00,-0.08
-0.70410156,-7.0078205E-4,1.12283975E-4,-5.9102016E-4,0.09,1.0,-0.08,18490,9965.30,0,0,165,0.77,-2.59,0.00,0.09,1.00,-0.08
-0.70410156,-7.0078205E-4,-0.0018877164,-5.9102016E-4,0.09,1.0,-0.08,18506,9965.30,0,0,0,0.77,-2.73,0.00,0.09,1.00,-0.08
-0.70410156,-0.0017007822,1.12283975E-4,4.089799E-4,0.09,1.0,-0.08,18513,9965.30,0,0,165,0.70,-2.59,0.07,0.09,1.00,-0.08
-0.70410156,0.0012992183,-8.8771805E-4,4.089799E-4,0.09,1.0,-0.08,18528,9965.30,0,0,0,0.91,-2.66,0.07,0.09,1.00,-0.08
0.29589844,2.9921718E-4,1.12283975E-4,-5.9102016E-4,0.09,1.0,-0.08,18536,9966.30,0,0,165,0.84,-2.59,0.00,0.09,1.00,-0.08
-0.70410156,-7.0078205E-4,-8.8771805E-4,4.089799E-4,0.09,1.0,-0.08,18551,9965.30,0,0,0,0.77,-2.66,0.07,0.09,1.00,-0.08
0.29589844,-0.0017007822,-8.8771805E-4,-5.9102016E-4,0.09,1.0,-0.08,18566,9966.30,0,0,165,0.70,-2.66,0.00,0.09,1.00,-0.08
-1.7041016,0.0012992183,1.12283975E-4,-0.00359102,0.09,1.0,-0.08,18573,9964.30,0,0,0,0.91,-2.59,-0.21,0.09,1.00,-0.08
-0.70410156,-7.0078205E-4,-8.8771805E-4,-5.9102016E-4,0.09,1.0,-0.08,18588,9965.30,0,0,165,0.77,-2.66,0.00,0.09,1.00,-0.08
1.1962891,-7.0078205E-4,-8.8771805E-4,4.089799E-4,0.09,1.0,-0.08,18602,9967.20,0,0,0,0.77,-2.66,0.07,0.09,1.00,-0.08
-0.70410156,2.9921718E-4,-8.8771805E-4,0.254409,0.09,1.0,-0.08,18612,9965.30,0,0,165,0.84,-2.66,17.85,0.09,1.00,-0.08
0.29589844,-7.0078205E-4,-8.8771805E-4,-5.9102016E-4,0.09,1.0,-0.08,18626,9966.30,0,0,0,0.77,-2.66,0.00,0.09,1.00,-0.08
0.29589844,2.9921718E-4,-8.8771805E-4,-0.0025910202,0.09,1.0,-0.08,18640,9966.30,0,0,165,0.84,-2.66,-0.14,0.09,1.00,-0.08
0.29589844,0.0022992184,0.001112286,4.089799E-4,0.09,1.0,-0.08,18647,9966.30,0,0,0,0.98,-2.52,0.07,0.09,1.00,-0.08
-0.70410156,0.0012992183,1.12283975E-4,-0.0015910203,0.09,1.0,-0.08,18663,9965.30,0,0,165,0.91,-2.59,-0.07,0.09,1.00,-0.08
-0.70410156,2.9921718E-4,1.12283975E-4,4.089799E-4,0.09,1.0,-0.08,18678,9965.30,0,0,0,0.84,-2.59,0.07,0.09,1.00,-0.08
0.29589844,2.9921718E-4,1.12283975E-4,-0.0015910203,0.09,1.0,-0.08,18686,9966.30,0,0,165,0.84,-2.59,-0.07,0.09,1.00,-0.08
-0.70410156,2.9921718E-4,0.001112286,-5.9102016E-4,0.09,1.0,-0.08,18701,9965.30,0,0,0,0.84,-2.52,0.00,0.09,1.00,-0.08
0.5957031,-0.0017007822,1.12283975E-4,4.089799E-4,0.09,1.0,-0.08,18715,9966.60,0,0,165,0.70,-2.59,0.07,0.09,1.00,-0.08
-1.7041016,0.0012992183,0.001112286,-0.0015910203,0.09,1.0,-0.08,18723,9964.30,0,0,0,0.91,-2.52,-0.07,0.09,1.00,-0.08
-0.70410156,2.9921718E-4,0.001112286,-5.9102016E-4,0.09,1.0,-0.08,18738,9965.30,0,0,165,0.84,-2.52,0.00,0.09,1.00,-0.08
0.29589844,2.9921718E-4,1.12283975E-4,4.089799E-4,0.09,1.0,-0.08,18753,9966.30,0,0,0,0.84,-2.59,0.07,0.09,1.00,-0.08
-1.0039062,0.0012992183,1.12283975E-4,-0.255591,0.09,1.0,-0.08,18762,9965.00,0,0,165,0.91,-2.59,-17.85,0.09,1.00,-0.08
-0.70410156,2.9921718E-4,0.001112286,4.089799E-4,0.09,1.0,-0.08,18776,9965.30,0,0,0,0.84,-2.52,0.07,0.09,1.00,-0.08
0.29589844,-0.0017007822,-8.8771805E-4,-5.9102016E-4,0.09,1.0,-0.08,18790,9966.30,0,0,165,0.70,-2.66,0.00,0.09,1.00,-0.08
-0.70410156,2.9921718E-4,1.12283975E-4,-5.9102016E-4,0.09,1.0,-0.08,18797,9965.30,0,0,0,0.84,-2.59,0.00,0.09,1.00,-0.08
-0.70410156,2.9921718E-4,1.12283975E-4,-5.9102016E-4,0.09,1.0,-0.08,18813,9965.30,0,0,165,0.84,-2.59,0.00,0.09,1.00,-0.08
-0.70410156,-0.0017007822,-8.8771805E-4,4.089799E-4,0.09,1.0,-0.08,18827,9965.30,0,0,0,0.70,-2.66,0.07,0.09,1.00,-0.08
-0.70410156,-0.0017007822,1.12283975E-4,-5.9102016E-4,0.09,1.0,-0.08,18834,9965.30,0,0,165,0.70,-2.59,0.00,0.09,1.00,-0.08
-0.70410156,-7.0078205E-4,1.12283975E-4,-0.0015910203,0.09,1.0,-0.08,18850,9965.30,0,0,0,0.77,-2.59,-0.07,0.09,1.00,-0.08
0.29589844,-7.0078205E-4,1.12283975E-4,-0.0025910202,0.09,1.0,-0.08,18865,9966.30,0,0,165,0.77,-2.59,-0.14,0.09,1.00,-0.08
0.29589844,0.0022992184,-8.8771805E-4,-5.9102016E-4,0.09,1.0,-0.08,18872,9966.30,0,0,0,0.98,-2.66,0.00,0.09,1.00,-0.08
-0.70410156,-0.0017007822,1.12283975E-4,-5.9102016E-4,0.09,1.0,-0.08,18887,9965.30,0,0,165,0.70,-2.59,0.00,0.09,1.00,-0.08
-0.70410156,0.0012992183,1.12283975E-4,-5.9102016E-4,0.09,1.0,-0.08,18896,9965.30,0,0,0,0.91,-2.59,0.00,0.09,1.00,-0.08
-0.70410156,2.9921718E-4,0.001112286,-5.9102016E-4,0.09,1.0,-0.08,18910,9965.30,0,0,165,0.84,-2.52,0.00,0.09,1.00,-0.08
-0.70410156,2.9921718E-4,0.001112286,4.089799E-4,0.09,1.0,-0.08,18925,9965.30,0,0,0,0.84,-2.52,0.07,0.09,1.00,-0.08
-0.70410156,-0.0017007822,0.0021122843,4.089799E-4,0.09,1.0,-0.08,18933,9965.30,0,0,165,0.70,-2.45,0.07,0.09,1.00,-0.08
0.29589844,2.9921718E-4,1.12283975E-4,4.089799E-4,0.09,1.0,-0.08,18948,9966.30,0,0,0,0.84,-2.59,0.07,0.09,1.00,-0.08
-0.70410156,0.0012992183,1.12283975E-4,0.00140898,0.09,1.0,-0.08,18963,9965.30,0,0,165,0.91,-2.59,0.14,0.09,1.00,-0.08
-1.0039062,2.9921718E-4,1.12283975E-4,4.089799E-4,0.09,1.0,-0.08,18970,9965.00,0,0,0,0.84,-2.59,0.07,0.09,1.00,-0.08
-0.70410156,0.0022992184,1.12283975E-4,4.089799E-4,0.09,1.0,-0.08,18985,9965.30,0,0,165,0.98,-2.59,0.07,0.09,1.00,-0.08
-0.70410156,-7.0078205E-4,1.12283975E-4,4.089799E-4,0.09,1.0,-0.08,19000,9965.30,0,0,0,0.77,-2.59,0.07,0.09,1.00,-0.08
-0.70410156,-7.0078205E-4,-0.0018877164,-5.9102016E-4,0.09,1.0,-0.08,19008,9965.30,0,0,165,0.77,-2.73,0.00,0.09,1.00,-0.08
0.29589844,-0.0017007822,1.12283975E-4,4.089799E-4,0.09,1.0,-0.08,19023,9966.30,0,0,0,0.70,-2.59,0.07,0.09,1.00,-0.08
-0.70410156,-7.0078205E-4,-8.8771805E-4,4.089799E-4,0.09,1.0,-0.08,19038,9965.30,0,0,165,0.77,-2.66,0.07,0.09,1.00,-0.08
0.29589844,2.9921718E-4,1.12283975E-4,0.00140898,0.09,1.0,-0.08,19046,9966.30,0,0,0,0.84,-2.59,0.14,0.09,1.00,-0.08
0.29589844,2.9921718E-4,1.12283975E-4,4.089799E-4,0.09,1.0,-0.08,19061,9966.30,0,0,165,0.84,-2.59,0.07,0.09,1.00,-0.08
0.29589844,2.9921718E-4,1.12283975E-4,-0.0015910203,0.09,1.0,-0.08,19078,9966.30,0,0,0,0.84,-2.59,-0.07,0.09,1.00,-0.08
-1.0039062,-7.0078205E-4,0.001112286,4.089799E-4,0.09,1.0,-0.08,19083,9965.00,0,0,165,0.77,-2.52,0.07,0.09,1.00,-0.08
-0.70410156,-7.0078205E-4,-8.8771805E-4,0.254409,0.09,1.0,-0.08,19098,9965.30,0,0,0,0.77,-2.66,17.85,0.09,1.00,-0.08
-0.70410156,2.9921718E-4,1.12283975E-4,-5.9102016E-4,0.09,1.0,-0.08,19112,9965.30,0,0,165,0.84,-2.59,0.00,0.09,1.00,-0.08
-0.103515625,-0.0017007822,-8.8771805E-4,-0.0015910203,0.09,1.0,-0.08,19120,9965.90,0,0,0,0.70,-2.66,-0.07,0.09,1.00,-0.08
-0.70410156,2.9921718E-4,-8.8771805E-4,-5.9102016E-4,0.09,1.0,-0.08,19135,9965.30,0,0,165,0.84,-2.66,0.00,0.09,1.00,-0.08
-1.7041016,2.9921718E-4,-8.8771805E-4,-5.9102016E-4,0.09,1.0,-0.08,19150,9964.30,0,0,0,0.84,-2.66,0.00,0.09,1.00,-0.08
-0.70410156,0.0012992183,1.12283975E-4,-0.0015910203,0.09,1.0,-0.07,19158,9965.30,0,0,165,0.91,-2.59,-0.07,0.09,1.00,-0.07
-0.70410156,0.0012992183,1.12283975E-4,-5.9102016E-4,0.09,1.0,-0.07,19172,9965.30,0,0,0,0.91,-2.59,0.00,0.09,1.00,-0.07
-0.70410156,-7.0078205E-4,0.001112286,-5.9102016E-4,0.09,1.01,-0.08,19187,9965.30,0,0,165,0.77,-2.52,0.00,0.09,1.01,-0.08
-0.70410156,-7.0078205E-4,-0.0018877164,-5.9102016E-4,0.09,1.0,-0.08,19196,9965.30,0,0,0,0.77,-2.73,0.00,0.09,1.00,-0.08
0.29589844,-7.0078205E-4,-8.8771805E-4,0.00140898,0.09,1.0,-0.08,19212,9966.30,0,0,165,0.77,-2.66,0.14,0.09,1.00,-0.08
-0.70410156,2.9921718E-4,1.12283975E-4,4.089799E-4,0.09,1.0,-0.08,19226,9965.30,0,0,0,0.84,-2.59,0.07,0.09,1.00,-0.08
-0.70410156,0.0022992184,1.12283975E-4,4.089799E-4,0.09,1.0,-0.08,19233,9965.30,0,0,165,0.98,-2.59,0.07,0.09,1.00,-0.08
-1.7041016,2.9921718E-4,-8.8771805E-4,0.00140898,0.09,1.0,-0.08,19248,9964.30,0,0,0,0.84,-2.66,0.14,0.09,1.00,-0.08
-0.70410156,-7.0078205E-4,1.12283975E-4,4.089799E-4,0.09,1.0,-0.08,19263,9965.30,0,0,165,0.77,-2.59,0.07,0.09,1.00,-0.08
-0.70410156,2.9921718E-4,0.001112286,4.089799E-4,0.09,1.0,-0.08,19270,9965.30,0,0,0,0.84,-2.52,0.07,0.09,1.00,-0.08
-0.103515625,2.9921718E-4,-8.8771805E-4,-0.0015910203,0.09,1.0,-0.08,19285,9965.90,0,0,165,0.84,-2.66,-0.07,0.09,1.00,-0.08
-1.3037109,-0.0017007822,1.12283975E-4,-5.9102016E-4,0.09,1.0,-0.08,19300,9964.70,0,0,0,0.70,-2.59,0.00,0.09,1.00,-0.08
-0.70410156,0.0012992183,1.12283975E-4,0.0024089797,0.09,1.0,-0.08,19307,9965.30,0,0,165,0.91,-2.59,0.21,0.09,1.00,-0.08
-0.70410156,-7.0078205E-4,1.12283975E-4,-5.9102016E-4,0.09,1.0,-0.08,19322,9965.30,0,0,0,0.77,-2.59,0.00,0.09,1.00,-0.08
0.29589844,-7.0078205E-4,1.12283975E-4,0.00140898,0.09,1.0,-0.08,19338,9966.30,0,0,165,0.77,-2.59,0.14,0.09,1.00,-0.08
-0.70410156,-7.0078205E-4,1.12283975E-4,-5.9102016E-4,0.09,1.0,-0.08,19346,9965.30,0,0,0,0.77,-2.59,0.00,0.09,1.00,-0.08
-0.70410156,2.9921718E-4,0.001112286,-0.0015910203,0.09,1.0,-0.08,19361,9965.30,0,0,165,0.84,-2.52,-0.07,0.09,1.00,-0.08
0.29589844,0.0012992183,1.12283975E-4,0.00140898,0.09,1.0,-0.08,19376,9966.30,0,0,0,0.91,-2.59,0.14,0.09,1.00,-0.08
-0.70410156,-0.0017007822,-8.8771805E-4,-5.9102016E-4,0.09,1.0,-0.08,19383,9965.30,0,0,165,0.70,-2.66,0.00,0.09,1.00,-0.08
-0.70410156,-0.0027007824,0.001112286,-0.0025910202,0.09,1.01,-0.08,19398,9965.30,0,0,0,0.63,-2.52,-0.14,0.09,1.01,-0.08
-0.70410156,-0.0017007822,1.12283975E-4,-5.9102016E-4,0.09,1.0,-0.07,19413,9965.30,0,0,165,0.70,-2.59,0.00,0.09,1.00,-0.07
-0.70410156,-7.0078205E-4,0.001112286,4.089799E-4,0.09,1.0,-0.07,19420,9965.30,0,0,0,0.77,-2.52,0.07,0.09,1.00,-0.07
-0.70410156,-7.0078205E-4,-8.8771805E-4,0.00140898,0.09,1.0,-0.08,19435,9965.30,0,0,165,0.77,-2.66,0.14,0.09,1.00,-0.08
-0.70410156,2.9921718E-4,-8.8771805E-4,-5.9102016E-4,0.09,1.0,-0.09,19450,9965.30,0,0,0,0.84,-2.66,0.00,0.09,1.00,-0.09
0.5957031,-0.0017007822,-0.0018877164,4.089799E-4,0.09,1.0,-0.08,19457,9966.60,0,0,165,0.70,-2.73,0.07,0.09,1.00,-0.08
0.29589844,2.9921718E-4,-8.8771805E-4,-5.9102016E-4,0.09,1.0,-0.07,19472,9966.30,0,0,0,0.84,-2.66,0.00,0.09,1.00,-0.07
-0.70410156,0.0012992183,1.12283975E-4,-0.0045910203,0.1,1.0,-0.07,19487,9965.30,0,0,165,0.91,-2.59,-0.28,0.10,1.00,-0.07
-1.7041016,0.0042992188,0.0021122843,-0.00359102,0.1,1.0,-0.07,19495,9964.30,0,0,0,1.12,-2.45,-0.21,0.10,1.00,-0.07
-0.70410156,0.0022992184,0.001112286,-0.0015910203,0.1,1.0,-0.08,19510,9965.30,0,0,165,0.98,-2.52,-0.07,0.10,1.00,-0.08
-0.70410156,-7.0078205E-4,1.12283975E-4,-0.0025910202,0.09,1.0,-0.09,19526,9965.30,0,0,0,0.77,-2.59,-0.14,0.09,1.00,-0.09
0.29589844,-7.0078205E-4,-8.8771805E-4,-0.0015910203,0.08,1.0,-0.09,19532,9966.30,0,0,165,0.77,-2.66,-0.07,0.08,1.00,-0.09
-0.70410156,0.0022992184,1.12283975E-4,-5.9102016E-4,0.08,1.0,-0.08,19547,9965.30,0,0,0,0.98,-2.59,0.00,0.08,1.00,-0.08
-1.0039062,-7.0078205E-4,-0.0018877164,-5.9102016E-4,0.08,1.0,-0.07,19563,9965.00,0,0,165,0.77,-2.73,0.00,0.08,1.00,-0.07
-0.70410156,-0.0017007822,1.12283975E-4,4.089799E-4,0.09,1.0,-0.07,19570,9965.30,0,0,0,0.70,-2.59,0.07,0.09,1.00,-0.07
-0.40429688,-7.0078205E-4,0.001112286,4.089799E-4,0.1,1.0,-0.07,19594,9965.60,0,0,165,0.77,-2.52,0.07,0.10,1.00,-0.07
-1.7041016,2.9921718E-4,1.12283975E-4,-0.0025910202,0.1,1.0,-0.08,19600,9964.30,0,0,0,0.84,-2.59,-0.14,0.10,1.00,-0.08
0.29589844,2.9921718E-4,-8.8771805E-4,-0.0025910202,0.09,1.0,-0.08,19607,9966.30,0,0,165,0.84,-2.66,-0.14,0.09,1.00,-0.08
-0.103515625,-7.0078205E-4,-8.8771805E-4,4.089799E-4,0.09,1.0,-0.08,19622,9965.90,0,0,0,0.77,-2.66,0.07,0.09,1.00,-0.08
-0.70410156,2.9921718E-4,-0.0018877164,-5.9102016E-4,0.08,1.0,-0.08,19637,9965.30,0,0,165,0.84,-2.73,0.00,0.08,1.00,-0.08
0.29589844,-7.0078205E-4,-8.8771805E-4,0.00140898,0.09,1.0,-0.08,19645,9966.30,0,0,0,0.77,-2.66,0.14,0.09,1.00,-0.08
-0.40429688,2.9921718E-4,1.12283975E-4,4.089799E-4,0.09,1.0,-0.08,19660,9965.60,0,0,165,0.84,-2.59,0.07,0.09,1.00,-0.08
-1.0039062,0.0022992184,0.001112286,-5.9102016E-4,0.09,1.0,-0.08,19675,9965.00,0,0,0,0.98,-2.52,0.00,0.09,1.00,-0.08
-1.7041016,-0.0017007822,1.12283975E-4,-0.0015910203,0.1,1.0,-0.07,19682,9964.30,0,0,165,0.70,-2.59,-0.07,0.10,1.00,-0.07
-0.70410156,-7.0078205E-4,-8.8771805E-4,-5.9102016E-4,0.1,1.0,-0.07,19698,9965.30,0,0,0,0.77,-2.66,0.00,0.10,1.00,-0.07
0.29589844,-0.0017007822,-0.0028877147,4.089799E-4,0.09,1.0,-0.07,19713,9966.30,0,0,165,0.70,-2.80,0.07,0.09,1.00,-0.07
-0.70410156,0.0012992183,-8.8771805E-4,-5.9102016E-4,0.09,1.0,-0.08,19720,9965.30,0,0,0,0.91,-2.66,0.00,0.09,1.00,-0.08
-1.7041016,0.0012992183,1.12283975E-4,-0.0015910203,0.09,1.0,-0.08,19735,9964.30,0,0,165,0.91,-2.59,-0.07,0.09,1.00,-0.08
-0.70410156,0.0012992183,0.001112286,-5.9102016E-4,0.09,1.0,-0.08,19750,9965.30,0,0,0,0.91,-2.52,0.00,0.09,1.00,-0.08
-0.70410156,-7.0078205E-4,1.12283975E-4,-5.9102016E-4,0.09,1.0,-0.08,19758,9965.30,0,0,165,0.77,-2.59,0.00,0.09,1.00,-0.08
0.29589844,-0.0017007822,-8.8771805E-4,4.089799E-4,0.1,1.0,-0.08,19772,9966.30,0,0,0,0.70,-2.66,0.07,0.10,1.00,-0.08
-0.103515625,-0.0017007822,-8.8771805E-4,-0.0025910202,0.1,1.0,-0.07,19788,9965.90,0,0,165,0.70,-2.66,-0.14,0.10,1.00,-0.07
-0.70410156,-7.0078205E-4,1.12283975E-4,4.089799E-4,0.09,1.0,-0.07,19795,9965.30,0,0,0,0.77,-2.59,0.07,0.09,1.00,-0.07
-0.70410156,0.0022992184,-8.8771805E-4,0.253409,0.09,1.0,-0.08,19811,9965.30,0,0,165,0.98,-2.66,17.78,0.09,1.00,-0.08
-0.70410156,0.0012992183,1.12283975E-4,-0.0025910202,0.08,1.0,-0.08,19826,9965.30,0,0,0,0.91,-2.59,-0.14,0.08,1.00,-0.08
0.29589844,-7.0078205E-4,1.12283975E-4,-0.0025910202,0.08,1.0,-0.08,19833,9966.30,0,0,165,0.77,-2.59,-0.14,0.08,1.00,-0.08
-0.70410156,-7.0078205E-4,-8.8771805E-4,-0.00359102,0.09,1.0,-0.08,19848,9965.30,0,0,0,0.77,-2.66,-0.21,0.09,1.00,-0.08
-0.70410156,0.0012992183,1.12283975E-4,4.089799E-4,0.09,1.0,-0.08,19863,9965.30,0,0,165,0.91,-2.59,0.07,0.09,1.00,-0.08
0.29589844,-7.0078205E-4,0.001112286,-5.9102016E-4,0.09,1.0,-0.07,19870,9966.30,0,0,0,0.77,-2.52,0.00,0.09,1.00,-0.07
-0.70410156,-0.0017007822,1.12283975E-4,-0.0015910203,0.1,1.0,-0.08,19885,9965.30,0,0,165,0.70,-2.59,-0.07,0.10,1.00,-0.08
-0.70410156,2.9921718E-4,1.12283975E-4,4.089799E-4,0.1,1.0,-0.08,19900,9965.30,0,0,0,0.84,-2.59,0.07,0.10,1.00,-0.08
-1.7041016,-0.0017007822,0.001112286,4.089799E-4,0.09,1.0,-0.08,19908,9964.30,0,0,165,0.70,-2.52,0.07,0.09,1.00,-0.08
0.29589844,0.0012992183,1.12283975E-4,-5.9102016E-4,0.09,1.0,-0.08,19922,9966.30,0,0,0,0.91,-2.59,0.00,0.09,1.00,-0.08
-1.3037109,2.9921718E-4,1.12283975E-4,4.089799E-4,0.08,1.0,-0.08,19937,9964.70,0,0,165,0.84,-2.59,0.07,0.08,1.00,-0.08
-1.7041016,-7.0078205E-4,-8.8771805E-4,4.089799E-4,0.08,1.0,-0.08,19945,9964.30,0,0,0,0.77,-2.66,0.07,0.08,1.00,-0.08
-1.7041016,-7.0078205E-4,-0.0028877147,0.00140898,0.09,1.0,-0.07,19960,9964.30,0,0,165,0.77,-2.80,0.14,0.09,1.00,-0.07
-1.3037109,-0.0017007822,-8.8771805E-4,-5.9102016E-4,0.1,1.0,-0.07,19975,9964.70,0,0,0,0.70,-2.66,0.00,0.10,1.00,-0.07
-0.70410156,-7.0078205E-4,0.001112286,0.00140898,0.1,1.0,-0.08,19983,9965.30,0,0,165,0.77,-2.52,0.14,0.10,1.00,-0.08
-0.70410156,0.0012992183,0.001112286,-0.0015910203,0.09,1.0,-0.08,19997,9965.30,0,0,0,0.91,-2.52,-0.07,0.09,1.00,-0.08
-0.70410156,0.0012992183,1.12283975E-4,-5.9102016E-4,0.09,1.0,-0.08,20013,9965.30,0,0,165,0.91,-2.59,0.00,0.09,1.00,-0.08
-0.70410156,2.9921718E-4,-8.8771805E-4,4.089799E-4,0.09,1.0,-0.08,20021,9965.30,0,0,0,0.84,-2.66,0.07,0.09,1.00,-0.08
0.29589844,2.9921718E-4,-8.8771805E-4,-0.0015910203,0.08,1.0,-0.08,20036,9966.30,0,0,165,0.84,-2.66,-0.07,0.08,1.00,-0.08
-1.7041016,2.9921718E-4,-8.8771805E-4,-5.9102016E-4,0.09,1.0,-0.07,20050,9964.30,0,0,0,0.84,-2.66,0.00,0.09,1.00,-0.07
-0.70410156,0.0012992183,1.12283975E-4,-5.9102016E-4,0.09,1.0,-0.08,20058,9965.30,0,0,165,0.91,-2.59,0.00,0.09,1.00,-0.08
-0.70410156,2.9921718E-4,1.12283975E-4,4.089799E-4,0.09,1.0,-0.07,20073,9965.30,0,0,0,0.84,-2.59,0.07,0.09,1.00,-0.07
-1.7041016,0.0012992183,0.001112286,4.089799E-4,0.1,1.0,-0.08,20087,9964.30,0,0,165,0.91,-2.52,0.07,0.10,1.00,-0.08
-0.70410156,-7.0078205E-4,-8.8771805E-4,-0.0015910203,0.09,1.0,-0.08,20095,9965.30,0,0,0,0.77,-2.66,-0.07,0.09,1.00,-0.08
-0.70410156,2.9921718E-4,1.12283975E-4,-0.0015910203,0.09,1.0,-0.08,20112,9965.30,0,0,165,0.84,-2.59,-0.07,0.09,1.00,-0.08
-1.7041016,-7.0078205E-4,-8.8771805E-4,4.089799E-4,0.09,1.0,-0.08,20125,9964.30,0,0,0,0.77,-2.66,0.07,0.09,1.00,-0.08
-0.70410156,-0.0017007822,1.12283975E-4,-0.0015910203,0.09,1.0,-0.08,20133,9965.30,0,0,165,0.70,-2.59,-0.07,0.09,1.00,-0.08
0.29589844,2.9921718E-4,-8.8771805E-4,-0.0015910203,0.09,1.0,-0.08,20148,9966.30,0,0,0,0.84,-2.66,-0.07,0.09,1.00,-0.08
-0.70410156,0.0012992183,0.001112286,4.089799E-4,0.09,1.0,-0.08,20163,9965.30,0,0,165,0.91,-2.52,0.07,0.09,1.00,-0.08
-0.70410156,-0.0017007822,1.12283975E-4,-5.9102016E-4,0.09,1.0,-0.07,20170,9965.30,0,0,0,0.70,-2.59,0.00,0.09,1.00,-0.07
0.29589844,-7.0078205E-4,-0.0018877164,-0.0015910203,0.1,1.0,-0.07,20185,9966.30,0,0,165,0.77,-2.73,-0.07,0.10,1.00,-0.07
-0.70410156,0.0012992183,1.12283975E-4,0.0024089797,0.09,1.0,-0.08,20199,9965.30,0,0,0,0.91,-2.59,0.21,0.09,1.00,-0.08
0.29589844,0.0012992183,1.12283975E-4,4.089799E-4,0.09,1.0,-0.08,20207,9966.30,0,0,165,0.91,-2.59,0.07,0.09,1.00,-0.08
-0.70410156,2.9921718E-4,1.12283975E-4,0.0024089797,0.09,1.0,-0.08,20222,9965.30,0,0,0,0.84,-2.59,0.21,0.09,1.00,-0.08
-1.7041016,-0.0017007822,-8.8771805E-4,-5.9102016E-4,0.09,1.0,-0.08,20238,9964.30,0,0,165,0.70,-2.66,0.00,0.09,1.00,-0.08
-1.0039062,-7.0078205E-4,1.12283975E-4,-0.0015910203,0.09,1.0,-0.08,20245,9965.00,0,0,0,0.77,-2.59,-0.07,0.09,1.00,-0.08
-0.70410156,-7.0078205E-4,-8.8771805E-4,-5.9102016E-4,0.09,1.0,-0.08,20260,9965.30,0,0,165,0.77,-2.66,0.00,0.09,1.00,-0.08
-0.70410156,-0.0017007822,1.12283975E-4,4.089799E-4,0.1,1.0,-0.07,20275,9965.30,0,0,0,0.70,-2.59,0.07,0.10,1.00,-0.07
-1.7041016,2.9921718E-4,-8.8771805E-4,-5.9102016E-4,0.09,1.0,-0.07,20282,9964.30,0,0,165,0.84,-2.66,0.00,0.09,1.00,-0.07
-0.70410156,2.9921718E-4,1.12283975E-4,4.089799E-4,0.09,1.0,-0.08,20298,9965.30,0,0,0,0.84,-2.59,0.07,0.09,1.00,-0.08
-1.3037109,2.9921718E-4,1.12283975E-4,4.089799E-4,0.09,1.0,-0.08,20313,9964.70,0,0,165,0.84,-2.59,0.07,0.09,1.00,-0.08
-0.70410156,2.9921718E-4,1.12283975E-4,4.089799E-4,0.09,1.0,-0.08,20320,9965.30,0,0,0,0.84,-2.59,0.07,0.09,1.00,-0.08
-0.70410156,-7.0078205E-4,-8.8771805E-4,-5.9102016E-4,0.09,1.0,-0.08,20335,9965.30,0,0,165,0.77,-2.66,0.00,0.09,1.00,-0.08
-1.7041016,-7.0078205E-4,-0.0018877164,-5.9102016E-4,0.09,1.0,-0.08,20350,9964.30,0,0,0,0.77,-2.73,0.00,0.09,1.00,-0.08
-0.70410156,-7.0078205E-4,1.12283975E-4,4.089799E-4,0.09,1.0,-0.08,20358,9965.30,0,0,165,0.77,-2.59,0.07,0.09,1.00,-0.08
0.29589844,2.9921718E-4,0.001112286,4.089799E-4,0.1,1.01,-0.08,20372,9966.30,0,0,0,0.84,-2.52,0.07,0.10,1.01,-0.08
-1.0039062,2.9921718E-4,-8.8771805E-4,-5.9102016E-4,0.09,1.0,-0.08,20388,9965.00,0,0,165,0.84,-2.66,0.00,0.09,1.00,-0.08
-0.103515625,0.0012992183,0.001112286,4.089799E-4,0.09,1.0,-0.08,20395,9965.90,0,0,0,0.91,-2.52,0.07,0.09,1.00,-0.08
0.29589844,2.9921718E-4,1.12283975E-4,0.00140898,0.09,1.0,-0.08,20410,9966.30,0,0,165,0.84,-2.59,0.14,0.09,1.00,-0.08
-0.70410156,-7.0078205E-4,0.001112286,4.089799E-4,0.09,1.0,-0.08,20425,9965.30,0,0,0,0.77,-2.52,0.07,0.09,1.00,-0.08
-0.70410156,-7.0078205E-4,-8.8771805E-4,-0.0015910203,0.09,1.0,-0.08,20432,9965.30,0,0,165,0.77,-2.66,-0.07,0.09,1.00,-0.08
0.29589844,2.9921718E-4,0.001112286,-5.9102016E-4,0.09,1.0,-0.07,20447,9966.30,0,0,0,0.84,-2.52,0.00,0.09,1.00,-0.07
-0.40429688,-0.0017007822,1.12283975E-4,4.089799E-4,0.09,1.0,-0.07,20462,9965.60,0,0,165,0.70,-2.59,0.07,0.09,1.00,-0.07
-1.7041016,2.9921718E-4,-8.8771805E-4,-5.9102016E-4,0.1,1.0,-0.08,20469,9964.30,0,0,0,0.84,-2.66,0.00,0.10,1.00,-0.08
-1.7041016,0.0022992184,0.001112286,4.089799E-4,0.1,1.0,-0.08,20486,9964.30,0,0,165,0.98,-2.52,0.07,0.10,1.00,-0.08
-1.7041016,0.0022992184,0.001112286,-5.9102016E-4,0.09,1.0,-0.08,20500,9964.30,0,0,0,0.98,-2.52,0.00,0.09,1.00,-0.08
-1.0039062,-7.0078205E-4,0.001112286,4.089799E-4,0.09,1.0,-0.08,20508,9965.00,0,0,165,0.77,-2.52,0.07,0.09,1.00,-0.08
-0.70410156,-7.0078205E-4,1.12283975E-4,-5.9102016E-4,0.08,1.0,-0.08,20522,9965.30,0,0,0,0.77,-2.59,0.00,0.08,1.00,-0.08
-0.70410156,-7.0078205E-4,-8.8771805E-4,-5.9102016E-4,0.09,1.0,-0.08,20530,9965.30,0,0,165,0.77,-2.66,0.00,0.09,1.00,-0.08
-0.70410156,2.9921718E-4,-8.8771805E-4,4.089799E-4,0.09,1.0,-0.08,20545,9965.30,0,0,0,0.84,-2.66,0.07,0.09,1.00,-0.08
-0.70410156,2.9921718E-4,1.12283975E-4,4.089799E-4,0.09,1.0,-0.07,20560,9965.30,0,0,165,0.84,-2.59,0.07,0.09,1.00,-0.07
0.29589844,0.0012992183,1.12283975E-4,4.089799E-4,0.1,1.0,-0.07,20567,9966.30,0,0,0,0.91,-2.59,0.07,0.10,1.00,-0.07
-1.7041016,2.9921718E-4,1.12283975E-4,-0.0025910202,0.09,1.0,-0.08,20582,9964.30,0,0,165,0.84,-2.59,-0.14,0.09,1.00,-0.08
-0.70410156,0.0022992184,0.001112286,-5.9102016E-4,0.09,1.0,-0.08,20598,9965.30,0,0,0,0.98,-2.52,0.00,0.09,1.00,-0.08
-0.70410156,0.0012992183,1.12283975E-4,4.089799E-4,0.09,1.0,-0.08,20605,9965.30,0,0,165,0.91,-2.59,0.07,0.09,1.00,-0.08
-1.7041016,2.9921718E-4,1.12283975E-4,-0.0015910203,0.09,1.0,-0.08,20621,9964.30,0,0,0,0.84,-2.59,-0.07,0.09,1.00,-0.08
-1.7041016,-7.0078205E-4,-8.8771805E-4,-0.0015910203,0.09,1.0,-0.08,20628,9964.30,0,0,165,0.77,-2.66,-0.07,0.09,1.00,-0.08
-0.70410156,-7.0078205E-4,-8.8771805E-4,-5.9102016E-4,0.09,1.0,-0.08,20645,9965.30,0,0,0,0.77,-2.66,0.00,0.09,1.00,-0.08
-0.70410156,2.9921718E-4,1.12283975E-4,-0.0025910202,0.09,1.0,-0.08,20658,9965.30,0,0,165,0.84,-2.59,-0.14,0.09,1.00,-0.08
-0.70410156,0.0012992183,0.001112286,-5.9102016E-4,0.09,1.0,-0.07,20665,9965.30,0,0,0,0.91,-2.52,0.00,0.09,1.00,-0.07
-1.7041016,0.0012992183,1.12283975E-4,-5.9102016E-4,0.09,1.0,-0.07,20680,9964.30,0,0,165,0.91,-2.59,0.00,0.09,1.00,-0.07
-0.70410156,2.9921718E-4,1.12283975E-4,-5.9102016E-4,0.09,1.0,-0.08,20695,9965.30,0,0,0,0.84,-2.59,0.00,0.09,1.00,-0.08
-0.70410156,0.0012992183,-8.8771805E-4,-5.9102016E-4,0.09,1.0,-0.08,20702,9965.30,0,0,165,0.91,-2.66,0.00,0.09,1.00,-0.08
-0.70410156,0.0012992183,0.001112286,-0.0015910203,0.09,1.0,-0.08,20717,9965.30,0,0,0,0.91,-2.52,-0.07,0.09,1.00,-0.08
-0.70410156,-0.0017007822,0.001112286,4.089799E-4,0.09,1.0,-0.08,20732,9965.30,0,0,165,0.70,-2.52,0.07,0.09,1.00,-0.08
-0.70410156,-0.0017007822,-8.8771805E-4,-0.0015910203,0.09,1.0,-0.08,20740,9965.30,0,0,0,0.70,-2.66,-0.07,0.09,1.00,-0.08
-0.70410156,2.9921718E-4,-8.8771805E-4,0.00140898,0.09,1.0,-0.08,20755,9965.30,0,0,165,0.84,-2.66,0.14,0.09,1.00,-0.08
-0.70410156,2.9921718E-4,0.001112286,0.00140898,0.09,1.0,-0.08,20770,9965.30,0,0,0,0.84,-2.52,0.14,0.09,1.00,-0.08
-0.70410156,-0.0017007822,0.001112286,0.00140898,0.09,1.0,-0.08,20777,9965.30,0,0,165,0.70,-2.52,0.14,0.09,1.00,-0.08
0.29589844,-7.0078205E-4,1.12283975E-4,4.089799E-4,0.09,1.0,-0.08,20793,9966.30,0,0,0,0.77,-2.59,0.07,0.09,1.00,-0.08
0.29589844,-7.0078205E-4,1.12283975E-4,-5.9102016E-4,0.09,1.0,-0.08,20808,9966.30,0,0,165,0.77,-2.59,0.00,0.09,1.00,-0.08
-0.70410156,0.0012992183,0.0021122843,4.089799E-4,0.09,1.0,-0.08,20815,9965.30,0,0,0,0.91,-2.45,0.07,0.09,1.00,-0.08
-0.40429688,2.9921718E-4,1.12283975E-4,4.089799E-4,0.09,1.01,-0.08,20831,9965.60,0,0,165,0.84,-2.59,0.07,0.09,1.01,-0.08
-0.70410156,2.9921718E-4,1.12283975E-4,4.089799E-4,0.09,1.0,-0.08,20846,9965.30,0,0,0,0.84,-2.59,0.07,0.09,1.00,-0.08
-0.70410156,2.9921718E-4,1.12283975E-4,4.089799E-4,0.09,1.0,-0.08,20853,9965.30,0,0,165,0.84,-2.59,0.07,0.09,1.00,-0.08
-1.7041016,0.0012992183,1.12283975E-4,4.089799E-4,0.09,1.0,-0.08,20868,9964.30,0,0,0,0.91,-2.59,0.07,0.09,1.00,-0.08
-1.3037109,-7.0078205E-4,1.12283975E-4,-5.9102016E-4,0.09,1.0,-0.08,20882,9964.70,0,0,165,0.77,-2.59,0.00,0.09,1.00,-0.08
-1.7041016,-0.0017007822,0.001112286,-0.0015910203,0.09,1.0,-0.08,20890,9964.30,0,0,0,0.70,-2.52,-0.07,0.09,1.00,-0.08
-1.7041016,-7.0078205E-4,1.12283975E-4,-5.9102016E-4,0.09,1.0,-0.08,20906,9964.30,0,0,165,0.77,-2.59,0.00,0.09,1.00,-0.08
-0.70410156,-7.0078205E-4,-8.8771805E-4,-5.9102016E-4,0.09,1.0,-0.08,20920,9965.30,0,0,0,0.77,-2.66,0.00,0.09,1.00,-0.08
-0.40429688,0.0012992183,1.12283975E-4,4.089799E-4,0.09,1.0,-0.08,20928,9965.60,0,0,165,0.91,-2.59,0.07,0.09,1.00,-0.08
-0.70410156,2.9921718E-4,1.12283975E-4,-5.9102016E-4,0.09,1.0,-0.08,20943,9965.30,0,0,0,0.84,-2.59,0.00,0.09,1.00,-0.08
-0.70410156,-7.0078205E-4,-8.8771805E-4,-0.0015910203,0.09,1.0,-0.08,20950,9965.30,0,0,165,0.77,-2.66,-0.07,0.09,1.00,-0.08
-0.70410156,2.9921718E-4,1.12283975E-4,-0.0015910203,0.09,1.0,-0.08,20966,9965.30,0,0,0,0.84,-2.59,-0.07,0.09,1.00,-0.08
0.29589844,2.9921718E-4,-8.8771805E-4,-5.9102016E-4,0.09,1.0,-0.08,20980,9966.30,0,0,165,0.84,-2.66,0.00,0.09,1.00,-0.08
-0.70410156,-0.0017007822,-8.8771805E-4,-5.9102016E-4,0.09,1.0,-0.08,20988,9965.30,0,0,0,0.70,-2.66,0.00,0.09,1.00,-0.08
-0.70410156,-7.0078205E-4,1.12283975E-4,4.089799E-4,0.09,1.0,-0.08,21003,9965.30,0,0,165,0.77,-2.59,0.07,0.09,1.00,-0.08
-0.70410156,0.0022992184,0.001112286,-5.9102016E-4,0.09,1.0,-0.08,21025,9965.30,0,0,0,0.98,-2.52,0.00,0.09,1.00,-0.08
-0.70410156,2.9921718E-4,1.12283975E-4,-0.0015910203,0.09,1.0,-0.07,21026,9965.30,0,0,165,0.84,-2.59,-0.07,0.09,1.00,-0.07
-0.70410156,0.0012992183,1.12283975E-4,-5.9102016E-4,0.09,1.0,-0.08,21040,9965.30,0,0,0,0.91,-2.59,0.00,0.09,1.00,-0.08
-0.70410156,2.9921718E-4,0.001112286,4.089799E-4,0.09,1.0,-0.08,21055,9965.30,0,0,165,0.84,-2.52,0.07,0.09,1.00,-0.08
0.5957031,-7.0078205E-4,1.12283975E-4,-0.0015910203,0.09,1.0,-0.08,21062,9966.60,0,0,0,0.77,-2.59,-0.07,0.09,1.00,-0.08
-0.70410156,-7.0078205E-4,-8.8771805E-4,-5.9102016E-4,0.09,1.0,-0.08,21077,9965.30,0,0,165,0.77,-2.66,0.00,0.09,1.00,-0.08
-0.70410156,2.9921718E-4,-8.8771805E-4,0.00140898,0.09,1.0,-0.08,21092,9965.30,0,0,0,0.84,-2.66,0.14,0.09,1.00,-0.08
0.29589844,-7.0078205E-4,1.12283975E-4,0.0024089797,0.09,1.0,-0.08,21100,9966.30,0,0,165,0.77,-2.59,0.21,0.09,1.00,-0.08
-0.70410156,-7.0078205E-4,-8.8771805E-4,0.00140898,0.09,1.0,-0.08,21115,9965.30,0,0,0,0.77,-2.66,0.14,0.09,1.00,-0.08
-1.7041016,-0.0017007822,-8.8771805E-4,-5.9102016E-4,0.09,1.0,-0.07,21130,9964.30,0,0,165,0.70,-2.66,0.00,0.09,1.00,-0.07
-0.70410156,-7.0078205E-4,1.12283975E-4,-0.0015910203,0.09,1.0,-0.08,21137,9965.30,0,0,0,0.77,-2.59,-0.07,0.09,1.00,-0.08
0.29589844,2.9921718E-4,1.12283975E-4,-5.9102016E-4,0.09,1.0,-0.08,21152,9966.30,0,0,165,0.84,-2.59,0.00,0.09,1.00,-0.08
-0.70410156,0.0012992183,-8.8771805E-4,-5.9102016E-4,0.09,1.0,-0.08,21167,9965.30,0,0,0,0.91,-2.66,0.00,0.09,1.00,-0.08
-0.70410156,2.9921718E-4,-0.0018877164,4.089799E-4,0.09,1.0,-0.08,21175,9965.30,0,0,165,0.84,-2.73,0.07,0.09,1.00,-0.08
-1.7041016,-0.0017007822,1.12283975E-4,4.089799E-4,0.09,1.0,-0.08,21190,9964.30,0,0,0,0.70,-2.59,0.07,0.09,1.00,-0.08
-0.70410156,2.9921718E-4,1.12283975E-4,-0.0015910203,0.09,1.0,-0.08,21205,9965.30,0,0,165,0.84,-2.59,-0.07,0.09,1.00,-0.08
-0.70410156,2.9921718E-4,-8.8771805E-4,-5.9102016E-4,0.09,1.0,-0.08,21212,9965.30,0,0,0,0.84,-2.66,0.00,0.09,1.00,-0.08
-0.70410156,2.9921718E-4,-8.8771805E-4,-0.0015910203,0.09,1.0,-0.08,21227,9965.30,0,0,165,0.84,-2.66,-0.07,0.09,1.00,-0.08
-0.70410156,-0.0017007822,1.12283975E-4,4.089799E-4,0.09,1.0,-0.08,21242,9965.30,0,0,0,0.70,-2.59,0.07,0.09,1.00,-0.08
0.29589844,-7.0078205E-4,-0.0018877164,4.089799E-4,0.09,1.0,-0.08,21250,9966.30,0,0,165,0.77,-2.73,0.07,0.09,1.00,-0.08
-0.70410156,2.9921718E-4,-8.8771805E-4,-0.0015910203,0.09,1.0,-0.08,21265,9965.30,0,0,0,0.84,-2.66,-0.07,0.09,1.00,-0.08
0.29589844,2.9921718E-4,0.001112286,4.089799E-4,0.09,1.0,-0.08,21280,9966.30,0,0,165,0.84,-2.52,0.07,0.09,1.00,-0.08
-0.70410156,-0.0017007822,-8.8771805E-4,-5.9102016E-4,0.09,1.0,-0.08,21288,9965.30,0,0,0,0.70,-2.66,0.00,0.09,1.00,-0.08
-0.70410156,-0.0017007822,-0.0018877164,4.089799E-4,0.09,1.0,-0.08,21302,9965.30,0,0,165,0.70,-2.73,0.07,0.09,1.00,-0.08
-0.70410156,2.9921718E-4,0.001112286,4.089799E-4,0.09,1.0,-0.08,21317,9965.30,0,0,0,0.84,-2.52,0.07,0.09,1.00,-0.08
-0.70410156,0.0012992183,-8.8771805E-4,-5.9102016E-4,0.09,1.0,-0.08,21325,9965.30,0,0,165,0.91,-2.66,0.00,0.09,1.00,-0.08
0.29589844,-7.0078205E-4,-0.0018877164,-5.9102016E-4,0.09,1.0,-0.08,21340,9966.30,0,0,0,0.77,-2.73,0.00,0.09,1.00,-0.08
-0.70410156,-7.0078205E-4,1.12283975E-4,4.089799E-4,0.09,1.0,-0.07,21356,9965.30,0,0,165,0.77,-2.59,0.07,0.09,1.00,-0.07
-1.7041016,2.9921718E-4,1.12283975E-4,0.0024089797,0.09,1.0,-0.08,21370,9964.30,0,0,0,0.84,-2.59,0.21,0.09,1.00,-0.08
-0.70410156,2.9921718E-4,1.12283975E-4,4.089799E-4,0.09,1.0,-0.08,21377,9965.30,0,0,165,0.84,-2.59,0.07,0.09,1.00,-0.08
-1.7041016,0.0012992183,1.12283975E-4,-5.9102016E-4,0.09,1.0,-0.08,21392,9964.30,0,0,0,0.91,-2.59,0.00,0.09,1.00,-0.08
-0.70410156,2.9921718E-4,1.12283975E-4,-0.0015910203,0.09,1.0,-0.08,21400,9965.30,0,0,165,0.84,-2.59,-0.07,0.09,1.00,-0.08
-1.0039062,-7.0078205E-4,-8.8771805E-4,-5.9102016E-4,0.09,1.0,-0.08,21416,9965.00,0,0,0,0.77,-2.66,0.00,0.09,1.00,-0.08
0.29589844,-7.0078205E-4,1.12283975E-4,0.00140898,0.09,1.0,-0.08,21431,9966.30,0,0,165,0.77,-2.59,0.14,0.09,1.00,-0.08
-1.0039062,2.9921718E-4,-8.8771805E-4,0.00140898,0.09,1.0,-0.08,21438,9965.00,0,0,0,0.84,-2.66,0.14,0.09,1.00,-0.08
-0.70410156,-7.0078205E-4,-8.8771805E-4,-5.9102016E-4,0.09,1.0,-0.08,21453,9965.30,0,0,165,0.77,-2.66,0.00,0.09,1.00,-0.08
-1.7041016,2.9921718E-4,1.12283975E-4,-5.9102016E-4,0.09,1.0,-0.08,21468,9964.30,0,0,0,0.84,-2.59,0.00,0.09,1.00,-0.08
-1.7041016,2.9921718E-4,1.12283975E-4,-5.9102016E-4,0.09,1.0,-0.08,21475,9964.30,0,0,165,0.84,-2.59,0.00,0.09,1.00,-0.08
-0.70410156,0.0012992183,1.12283975E-4,0.00140898,0.09,1.0,-0.08,21490,9965.30,0,0,0,0.91,-2.59,0.14,0.09,1.00,-0.08
-0.70410156,2.9921718E-4,1.12283975E-4,0.00340898,0.09,1.0,-0.08,21505,9965.30,0,0,165,0.84,-2.59,0.28,0.09,1.00,-0.08
-1.7041016,2.9921718E-4,1.12283975E-4,0.0024089797,0.09,1.0,-0.08,21513,9964.30,0,0,0,0.84,-2.59,0.21,0.09,1.00,-0.08
-0.70410156,-7.0078205E-4,-8.8771805E-4,4.089799E-4,0.09,1.0,-0.08,21528,9965.30,0,0,165,0.77,-2.66,0.07,0.09,1.00,-0.08
-0.70410156,0.0012992183,1.12283975E-4,-0.0025910202,0.09,1.0,-0.08,21543,9965.30,0,0,0,0.91,-2.59,-0.14,0.09,1.00,-0.08
-1.7041016,-7.0078205E-4,1.12283975E-4,4.089799E-4,0.09,1.0,-0.08,21550,9964.30,0,0,165,0.77,-2.59,0.07,0.09,1.00,-0.08
-0.70410156,-0.0017007822,-8.8771805E-4,-5.9102016E-4,0.09,1.0,-0.08,21565,9965.30,0,0,0,0.70,-2.66,0.00,0.09,1.00,-0.08
-0.70410156,-7.0078205E-4,0.001112286,-5.9102016E-4,0.09,1.0,-0.08,21580,9965.30,0,0,165,0.77,-2.52,0.00,0.09,1.00,-0.08
-1.0039062,0.0012992183,0.0021122843,0.00140898,0.09,1.0,-0.08,21588,9965.00,0,0,0,0.91,-2.45,0.14,0.09,1.00,-0.08
-0.70410156,-0.0017007822,1.12283975E-4,0.00140898,0.09,1.0,-0.08,21603,9965.30,0,0,165,0.70,-2.59,0.14,0.09,1.00,-0.08
-0.40429688,0.0012992183,0.001112286,4.089799E-4,0.09,1.0,-0.08,21618,9965.60,0,0,0,0.91,-2.52,0.07,0.09,1.00,-0.08
-1.0039062,0.0012992183,0.001112286,0.00140898,0.09,1.0,-0.08,21626,9965.00,0,0,165,0.91,-2.52,0.14,0.09,1.00,-0.08
-0.70410156,-7.0078205E-4,1.12283975E-4,0.254409,0.09,1.0,-0.08,21640,9965.30,0,0,0,0.77,-2.59,17.85,0.09,1.00,-0.08
-1.7041016,2.9921718E-4,1.12283975E-4,0.254409,0.09,1.0,-0.08,21655,9964.30,0,0,165,0.84,-2.59,17.85,0.09,1.00,-0.08
-0.70410156,-7.0078205E-4,-8.8771805E-4,-0.0015910203,0.09,1.0,-0.08,21662,9965.30,0,0,0,0.77,-2.66,-0.07,0.09,1.00,-0.08
-1.7041016,2.9921718E-4,1.12283975E-4,-0.0015910203,0.09,1.0,-0.08,21678,9964.30,0,0,165,0.84,-2.59,-0.07,0.09,1.00,-0.08
-0.40429688,2.9921718E-4,1.12283975E-4,-5.9102016E-4,0.09,1.0,-0.08,21685,9965.60,0,0,0,0.84,-2.59,0.00,0.09,1.00,-0.08
-0.70410156,0.0012992183,-8.8771805E-4,-0.0015910203,0.09,1.0,-0.08,21700,9965.30,0,0,165,0.91,-2.66,-0.07,0.09,1.00,-0.08
-0.70410156,-7.0078205E-4,-8.8771805E-4,-0.0015910203,0.09,1.0,-0.08,21715,9965.30,0,0,0,0.77,-2.66,-0.07,0.09,1.00,-0.08
-0.70410156,-7.0078205E-4,-8.8771805E-4,-0.0015910203,0.09,1.0,-0.08,21722,9965.30,0,0,165,0.77,-2.66,-0.07,0.09,1.00,-0.08
-0.70410156,-7.0078205E-4,-8.8771805E-4,-0.0015910203,0.09,1.0,-0.08,21737,9965.30,0,0,0,0.77,-2.66,-0.07,0.09,1.00,-0.08
-0.70410156,-7.0078205E-4,-8.8771805E-4,-0.0015910203,0.09,1.0,-0.08,21752,9965.30,0,0,165,0.77,-2.66,-0.07,0.09,1.00,-0.08
0.29589844,0.0022992184,1.12283975E-4,-5.9102016E-4,0.09,1.0,-0.08,21760,9966.30,0,0,0,0.98,-2.59,0.00,0.09,1.00,-0.08
-0.70410156,-7.0078205E-4,-8.8771805E-4,-5.9102016E-4,0.09,1.0,-0.08,21776,9965.30,0,0,165,0.77,-2.66,0.00,0.09,1.00,-0.08
-0.70410156,2.9921718E-4,0.001112286,-5.9102016E-4,0.09,1.0,-0.08,21790,9965.30,0,0,0,0.84,-2.52,0.00,0.09,1.00,-0.08
-2.6035156,-7.0078205E-4,1.12283975E-4,-5.9102016E-4,0.09,1.0,-0.08,21798,9963.40,0,0,165,0.77,-2.59,0.00,0.09,1.00,-0.08
-1.7041016,2.9921718E-4,-8.8771805E-4,4.089799E-4,0.09,1.0,-0.08,21813,9964.30,0,0,0,0.84,-2.66,0.07,0.09,1.00,-0.08
-0.40429688,-7.0078205E-4,-8.8771805E-4,-0.0015910203,0.09,1.0,-0.08,21827,9965.60,0,0,165,0.77,-2.66,-0.07,0.09,1.00,-0.08
-1.0039062,2.9921718E-4,1.12283975E-4,4.089799E-4,0.09,1.0,-0.08,21835,9965.00,0,0,0,0.84,-2.59,0.07,0.09,1.00,-0.08
-1.7041016,2.9921718E-4,1.12283975E-4,-0.0015910203,0.09,1.0,-0.08,21850,9964.30,0,0,165,0.84,-2.59,-0.07,0.09,1.00,-0.08
-0.70410156,-7.0078205E-4,0.001112286,4.089799E-4,0.09,1.0,-0.08,21865,9965.30,0,0,0,0.77,-2.52,0.07,0.09,1.00,-0.08
-1.7041016,2.9921718E-4,-8.8771805E-4,0.00140898,0.09,1.0,-0.08,21872,9964.30,0,0,165,0.84,-2.66,0.14,0.09,1.00,-0.08
-0.70410156,2.9921718E-4,0.001112286,4.089799E-4,0.09,1.0,-0.07,21887,9965.30,0,0,0,0.84,-2.52,0.07,0.09,1.00,-0.07
-1.7041016,-0.0017007822,0.001112286,4.089799E-4,0.09,1.0,-0.08,21903,9964.30,0,0,165,0.70,-2.52,0.07,0.09,1.00,-0.08
-0.70410156,2.9921718E-4,-8.8771805E-4,0.00140898,0.09,1.0,-0.08,21911,9965.30,0,0,0,0.84,-2.66,0.14,0.09,1.00,-0.08
-0.70410156,-7.0078205E-4,1.12283975E-4,-5.9102016E-4,0.09,1.0,-0.08,21926,9965.30,0,0,165,0.77,-2.59,0.00,0.09,1.00,-0.08
-1.7041016,-7.0078205E-4,1.12283975E-4,4.089799E-4,0.09,1.0,-0.08,21940,9964.30,0,0,0,0.77,-2.59,0.07,0.09,1.00,-0.08
-0.70410156,-7.0078205E-4,1.12283975E-4,-5.9102016E-4,0.09,1.0,-0.08,21947,9965.30,0,0,165,0.77,-2.59,0.00,0.09,1.00,-0.08
-0.70410156,-7.0078205E-4,-0.0018877164,-0.0025910202,0.09,1.0,-0.08,21962,9965.30,0,0,0,0.77,-2.73,-0.14,0.09,1.00,-0.08
-0.40429688,2.9921718E-4,0.001112286,4.089799E-4,0.09,1.0,-0.08,21978,9965.60,0,0,165,0.84,-2.52,0.07,0.09,1.00,-0.08
-0.70410156,-7.0078205E-4,-8.8771805E-4,-5.9102016E-4,0.09,1.0,-0.08,21985,9965.30,0,0,0,0.77,-2.66,0.00,0.09,1.00,-0.08
-0.70410156,2.9921718E-4,1.12283975E-4,0.00140898,0.09,1.0,-0.08,22000,9965.30,0,0,165,0.84,-2.59,0.14,0.09,1.00,-0.08
-0.70410156,0.0012992183,0.001112286,4.089799E-4,0.09,1.0,-0.08,22015,9965.30,0,0,0,0.91,-2.52,0.07,0.09,1.00,-0.08
-1.7041016,0.0012992183,0.001112286,-0.0015910203,0.09,1.0,-0.08,22022,9964.30,0,0,165,0.91,-2.52,-0.07,0.09,1.00,-0.08
-0.70410156,0.0012992183,1.12283975E-4,-0.0025910202,0.09,1.0,-0.08,22037,9965.30,0,0,0,0.91,-2.59,-0.14,0.09,1.00,-0.08
-1.0039062,2.9921718E-4,0.001112286,-5.9102016E-4,0.09,1.0,-0.08,22053,9965.00,0,0,165,0.84,-2.52,0.00,0.09,1.00,-0.08
-0.70410156,0.0012992183,0.001112286,4.089799E-4,0.09,1.0,-0.08,22061,9965.30,0,0,0,0.91,-2.52,0.07,0.09,1.00,-0.08
-0.70410156,-7.0078205E-4,-8.8771805E-4,-5.9102016E-4,0.09,1.0,-0.08,22076,9965.30,0,0,165,0.77,-2.66,0.00,0.09,1.00,-0.08
-0.70410156,2.9921718E-4,0.001112286,4.089799E-4,0.09,1.0,-0.08,22090,9965.30,0,0,0,0.84,-2.52,0.07,0.09,1.00,-0.08
-0.70410156,-0.0017007822,1.12283975E-4,4.089799E-4,0.09,1.0,-0.08,22097,9965.30,0,0,165,0.70,-2.59,0.07,0.09,1.00,-0.08
-0.70410156,0.0022992184,0.001112286,4.089799E-4,0.09,1.0,-0.08,22112,9965.30,0,0,0,0.98,-2.52,0.07,0.09,1.00,-0.08
-0.70410156,-7.0078205E-4,0.001112286,4.089799E-4,0.09,1.0,-0.08,22127,9965.30,0,0,165,0.77,-2.52,0.07,0.09,1.00,-0.08
-1.7041016,0.0012992183,1.12283975E-4,-0.0015910203,0.09,1.0,-0.07,22135,9964.30,0,0,0,0.91,-2.59,-0.07,0.09,1.00,-0.07
-0.70410156,2.9921718E-4,1.12283975E-4,0.00140898,0.09,1.0,-0.08,22149,9965.30,0,0,165,0.84,-2.59,0.14,0.09,1.00,-0.08
0.29589844,0.0012992183,0.001112286,0.00140898,0.09,1.0,-0.08,22165,9966.30,0,0,0,0.91,-2.52,0.14,0.09,1.00,-0.08
-0.70410156,2.9921718E-4,0.001112286,-5.9102016E-4,0.09,1.0,-0.08,22173,9965.30,0,0,165,0.84,-2.52,0.00,0.09,1.00,-0.08
-0.70410156,-7.0078205E-4,1.12283975E-4,4.089799E-4,0.09,1.0,-0.08,22188,9965.30,0,0,0,0.77,-2.59,0.07,0.09,1.00,-0.08
-1.7041016,2.9921718E-4,-8.8771805E-4,-0.0025910202,0.09,1.0,-0.08,22203,9964.30,0,0,165,0.84,-2.66,-0.14,0.09,1.00,-0.08
-1.7041016,2.9921718E-4,1.12283975E-4,0.00140898,0.09,1.0,-0.08,22210,9964.30,0,0,0,0.84,-2.59,0.14,0.09,1.00,-0.08
-0.70410156,2.9921718E-4,1.12283975E-4,4.089799E-4,0.09,1.0,-0.08,22225,9965.30,0,0,165,0.84,-2.59,0.07,0.09,1.00,-0.08
-0.70410156,-7.0078205E-4,-8.8771805E-4,4.089799E-4,0.09,1.0,-0.08,22240,9965.30,0,0,0,0.77,-2.66,0.07,0.09,1.00,-0.08
-0.70410156,2.9921718E-4,-8.8771805E-4,-5.9102016E-4,0.09,1.0,-0.08,22248,9965.30,0,0,165,0.84,-2.66,0.00,0.09,1.00,-0.08
-0.70410156,0.0012992183,0.001112286,-5.9102016E-4,0.09,1.0,-0.08,22263,9965.30,0,0,0,0.91,-2.52,0.00,0.09,1.00,-0.08
-0.40429688,2.9921718E-4,-8.8771805E-4,-0.0015910203,0.09,1.0,-0.08,22278,9965.60,0,0,165,0.84,-2.66,-0.07,0.09,1.00,-0.08
-1.7041016,2.9921718E-4,-0.0018877164,-5.9102016E-4,0.09,1.0,-0.08,22285,9964.30,0,0,0,0.84,-2.73,0.00,0.09,1.00,-0.08
-1.3037109,0.0012992183,-8.8771805E-4,-0.0015910203,0.09,1.0,-0.08,22300,9964.70,0,0,165,0.91,-2.66,-0.07,0.09,1.00,-0.08
-0.70410156,-0.0017007822,-8.8771805E-4,-5.9102016E-4,0.09,1.0,-0.08,22317,9965.30,0,0,0,0.70,-2.66,0.00,0.09,1.00,-0.08
-0.70410156,2.9921718E-4,0.001112286,4.089799E-4,0.09,1.0,-0.08,22323,9965.30,0,0,165,0.84,-2.52,0.07,0.09,1.00,-0.08
0.5957031,2.9921718E-4,1.12283975E-4,0.00140898,0.09,1.0,-0.08,22338,9966.60,0,0,0,0.84,-2.59,0.14,0.09,1.00,-0.08
-0.70410156,2.9921718E-4,0.001112286,-0.0015910203,0.09,1.0,-0.08,22353,9965.30,0,0,165,0.84,-2.52,-0.07,0.09,1.00,-0.08
0.29589844,2.9921718E-4,-8.8771805E-4,-5.9102016E-4,0.09,1.0,-0.08,22360,9966.30,0,0,0,0.84,-2.66,0.00,0.09,1.00,-0.08
-0.70410156,2.9921718E-4,1.12283975E-4,-5.9102016E-4,0.09,1.0,-0.08,22375,9965.30,0,0,165,0.84,-2.59,0.00,0.09,1.00,-0.08
-0.70410156,0.0012992183,0.001112286,-5.9102016E-4,0.09,1.0,-0.08,22398,9965.30,0,0,0,0.91,-2.52,0.00,0.09,1.00,-0.08
-0.70410156,-7.0078205E-4,0.001112286,-5.9102016E-4,0.09,1.0,-0.08,22399,9965.30,0,0,165,0.77,-2.52,0.00,0.09,1.00,-0.08
-0.70410156,2.9921718E-4,1.12283975E-4,0.00140898,0.1,1.0,-0.08,22419,9965.30,0,0,0,0.84,-2.59,0.14,0.10,1.00,-0.08
0.29589844,0.0012992183,0.001112286,4.089799E-4,0.09,1.0,-0.07,22428,9966.30,0,0,165,0.91,-2.52,0.07,0.09,1.00,-0.07
-0.40429688,-7.0078205E-4,0.0021122843,0.00140898,0.09,1.0,-0.08,22436,9965.60,0,0,0,0.77,-2.45,0.14,0.09,1.00,-0.08
-0.70410156,0.0022992184,1.12283975E-4,4.089799E-4,0.09,1.0,-0.08,22449,9965.30,0,0,165,0.98,-2.59,0.07,0.09,1.00,-0.08
-0.70410156,2.9921718E-4,1.12283975E-4,-0.0015910203,0.09,1.0,-0.08,22465,9965.30,0,0,0,0.84,-2.59,-0.07,0.09,1.00,-0.08
-0.70410156,2.9921718E-4,0.001112286,0.00140898,0.09,1.0,-0.08,22472,9965.30,0,0,165,0.84,-2.52,0.14,0.09,1.00,-0.08
-0.70410156,-7.0078205E-4,0.001112286,-0.0015910203,0.09,1.0,-0.08,22488,9965.30,0,0,0,0.77,-2.52,-0.07,0.09,1.00,-0.08
-0.70410156,2.9921718E-4,-8.8771805E-4,-5.9102016E-4,0.09,1.0,-0.08,22502,9965.30,0,0,165,0.84,-2.66,0.00,0.09,1.00,-0.08
0.5957031,-7.0078205E-4,-8.8771805E-4,-5.9102016E-4,0.09,1.0,-0.08,22510,9966.60,0,0,0,0.77,-2.66,0.00,0.09,1.00,-0.08
-0.70410156,-7.0078205E-4,-8.8771805E-4,-5.9102016E-4,0.09,1.0,-0.08,22525,9965.30,0,0,165,0.77,-2.66,0.00,0.09,1.00,-0.08
-0.70410156,0.0012992183,1.12283975E-4,-0.0025910202,0.09,1.0,-0.08,22541,9965.30,0,0,0,0.91,-2.59,-0.14,0.09,1.00,-0.08
-0.40429688,-7.0078205E-4,1.12283975E-4,4.089799E-4,0.09,1.0,-0.08,22548,9965.60,0,0,165,0.77,-2.59,0.07,0.09,1.00,-0.08
-0.70410156,-7.0078205E-4,1.12283975E-4,-5.9102016E-4,0.09,1.0,-0.08,22563,9965.30,0,0,0,0.77,-2.59,0.00,0.09,1.00,-0.08
-0.40429688,2.9921718E-4,1.12283975E-4,-5.9102016E-4,0.09,1.0,-0.08,22578,9965.60,0,0,165,0.84,-2.59,0.00,0.09,1.00,-0.08
-0.70410156,2.9921718E-4,0.001112286,4.089799E-4,0.09,1.0,-0.08,22585,9965.30,0,0,0,0.84,-2.52,0.07,0.09,1.00,-0.08
0.29589844,0.0012992183,1.12283975E-4,4.089799E-4,0.09,1.0,-0.08,22599,9966.30,0,0,165,0.91,-2.59,0.07,0.09,1.00,-0.08
-0.70410156,2.9921718E-4,1.12283975E-4,-0.0015910203,0.09,1.0,-0.08,22614,9965.30,0,0,0,0.84,-2.59,-0.07,0.09,1.00,-0.08
-0.70410156,2.9921718E-4,1.12283975E-4,-0.0015910203,0.09,1.0,-0.08,22623,9965.30,0,0,165,0.84,-2.59,-0.07,0.09,1.00,-0.08
-0.70410156,2.9921718E-4,0.001112286,0.00140898,0.09,1.0,-0.08,22638,9965.30,0,0,0,0.84,-2.52,0.14,0.09,1.00,-0.08
-0.70410156,0.0012992183,0.001112286,-5.9102016E-4,0.09,1.0,-0.08,22653,9965.30,0,0,165,0.91,-2.52,0.00,0.09,1.00,-0.08
0.5957031,-0.0017007822,1.12283975E-4,4.089799E-4,0.09,1.0,-0.08,22660,9966.60,0,0,0,0.70,-2.59,0.07,0.09,1.00,-0.08
-1.7041016,0.0012992183,0.001112286,-5.9102016E-4,0.09,1.0,-0.08,22676,9964.30,0,0,165,0.91,-2.52,0.00,0.09,1.00,-0.08
-0.70410156,2.9921718E-4,1.12283975E-4,-0.0015910203,0.09,1.0,-0.08,22690,9965.30,0,0,0,0.84,-2.59,-0.07,0.09,1.00,-0.08
-0.40429688,-7.0078205E-4,0.001112286,-5.9102016E-4,0.09,1.0,-0.08,22698,9965.60,0,0,165,0.77,-2.52,0.00,0.09,1.00,-0.08
-0.70410156,2.9921718E-4,1.12283975E-4,-5.9102016E-4,0.09,1.0,-0.08,22712,9965.30,0,0,0,0.84,-2.59,0.00,0.09,1.00,-0.08
-0.40429688,0.0012992183,1.12283975E-4,-5.9102016E-4,0.09,1.0,-0.08,22727,9965.60,0,0,165,0.91,-2.59,0.00,0.09,1.00,-0.08
-0.70410156,0.0012992183,1.12283975E-4,4.089799E-4,0.09,1.0,-0.08,22735,9965.30,0,0,0,0.91,-2.59,0.07,0.09,1.00,-0.08
-0.70410156,-7.0078205E-4,-8.8771805E-4,-0.0015910203,0.09,1.0,-0.08,22750,9965.30,0,0,165,0.77,-2.66,-0.07,0.09,1.00,-0.08
-0.40429688,-7.0078205E-4,0.001112286,-0.0015910203,0.09,1.0,-0.08,22765,9965.60,0,0,0,0.77,-2.52,-0.07,0.09,1.00,-0.08
-0.70410156,2.9921718E-4,-8.8771805E-4,0.00140898,0.09,1.0,-0.08,22772,9965.30,0,0,165,0.84,-2.66,0.14,0.09,1.00,-0.08
-0.70410156,0.0012992183,1.12283975E-4,-5.9102016E-4,0.09,1.0,-0.08,22788,9965.30,0,0,0,0.91,-2.59,0.00,0.09,1.00,-0.08
-0.70410156,-0.0017007822,1.12283975E-4,-5.9102016E-4,0.09,1.0,-0.08,22803,9965.30,0,0,165,0.70,-2.59,0.00,0.09,1.00,-0.08
-0.70410156,0.0012992183,0.001112286,-5.9102016E-4,0.09,1.0,-0.08,22811,9965.30,0,0,0,0.91,-2.52,0.00,0.09,1.00,-0.08
-1.0039062,-7.0078205E-4,1.12283975E-4,4.089799E-4,0.09,1.0,-0.08,22826,9965.00,0,0,165,0.77,-2.59,0.07,0.09,1.00,-0.08
-0.70410156,2.9921718E-4,1.12283975E-4,-0.0015910203,0.09,1.0,-0.08,22841,9965.30,0,0,0,0.84,-2.59,-0.07,0.09,1.00,-0.08
-0.40429688,2.9921718E-4,-8.8771805E-4,4.089799E-4,0.09,1.0,-0.08,22848,9965.60,0,0,165,0.84,-2.66,0.07,0.09,1.00,-0.08
-0.40429688,0.0012992183,-8.8771805E-4,-5.9102016E-4,0.09,1.0,-0.08,22863,9965.60,0,0,0,0.91,-2.66,0.00,0.09,1.00,-0.08
-0.40429688,-0.0017007822,1.12283975E-4,-5.9102016E-4,0.09,1.0,-0.08,22878,9965.60,0,0,165,0.70,-2.59,0.00,0.09,1.00,-0.08
-1.7041016,-7.0078205E-4,1.12283975E-4,-0.0025910202,0.09,1.0,-0.08,22885,9964.30,0,0,0,0.77,-2.59,-0.14,0.09,1.00,-0.08
-1.3037109,0.0012992183,0.001112286,4.089799E-4,0.09,1.0,-0.08,22900,9964.70,0,0,165,0.91,-2.52,0.07,0.09,1.00,-0.08
-0.40429688,-7.0078205E-4,1.12283975E-4,-5.9102016E-4,0.09,1.0,-0.08,22915,9965.60,0,0,0,0.77,-2.59,0.00,0.09,1.00,-0.08
0.29589844,-0.0017007822,1.12283975E-4,-0.0015910203,0.09,1.0,-0.08,22923,9966.30,0,0,165,0.70,-2.59,-0.07,0.09,1.00,-0.08
-0.70410156,2.9921718E-4,-8.8771805E-4,-0.0025910202,0.09,1.0,-0.08,22938,9965.30,0,0,0,0.84,-2.66,-0.14,0.09,1.00,-0.08
-0.70410156,-7.0078205E-4,1.12283975E-4,-0.0015910203,0.09,1.0,-0.08,22945,9965.30,0,0,165,0.77,-2.59,-0.07,0.09,1.00,-0.08
-0.40429688,0.0012992183,-8.8771805E-4,-0.00359102,0.09,1.0,-0.08,22961,9965.60,0,0,0,0.91,-2.66,-0.21,0.09,1.00,-0.08
-1.7041016,-7.0078205E-4,-0.0018877164,4.089799E-4,0.09,1.0,-0.08,22976,9964.30,0,0,165,0.77,-2.73,0.07,0.09,1.00,-0.08
-0.70410156,2.9921718E-4,1.12283975E-4,-5.9102016E-4,0.09,1.0,-0.08,22983,9965.30,0,0,0,0.84,-2.59,0.00,0.09,1.00,-0.08
-0.70410156,2.9921718E-4,1.12283975E-4,0.00140898,0.09,1.0,-0.08,22998,9965.30,0,0,165,0.84,-2.59,0.14,0.09,1.00,-0.08
-0.70410156,0.0012992183,-8.8771805E-4,-0.0015910203,0.09,1.0,-0.08,23013,9965.30,0,0,0,0.91,-2.66,-0.07,0.09,1.00,-0.08
0.29589844,2.9921718E-4,-8.8771805E-4,4.089799E-4,0.09,1.0,-0.08,23020,9966.30,0,0,165,0.84,-2.66,0.07,0.09,1.00,-0.08
-0.70410156,2.9921718E-4,1.12283975E-4,4.089799E-4,0.09,1.0,-0.08,23035,9965.30,0,0,0,0.84,-2.59,0.07,0.09,1.00,-0.08
-0.70410156,-7.0078205E-4,1.12283975E-4,-5.9102016E-4,0.09,1.0,-0.08,23051,9965.30,0,0,165,0.77,-2.59,0.00,0.09,1.00,-0.08
-0.70410156,0.0012992183,-8.8771805E-4,-0.0015910203,0.09,1.0,-0.08,23058,9965.30,0,0,0,0.91,-2.66,-0.07,0.09,1.00,-0.08
-0.70410156,2.9921718E-4,-8.8771805E-4,-5.9102016E-4,0.09,1.0,-0.08,23073,9965.30,0,0,165,0.84,-2.66,0.00,0.09,1.00,-0.08
-0.40429688,-0.0017007822,1.12283975E-4,-5.9102016E-4,0.09,1.0,-0.08,23088,9965.60,0,0,0,0.70,-2.59,0.00,0.09,1.00,-0.08
-0.70410156,0.0012992183,-8.8771805E-4,-0.0015910203,0.09,1.0,-0.08,23095,9965.30,0,0,165,0.91,-2.66,-0.07,0.09,1.00,-0.08
-0.40429688,2.9921718E-4,1.12283975E-4,4.089799E-4,0.09,1.0,-0.08,23110,9965.60,0,0,0,0.84,-2.59,0.07,0.09,1.00,-0.08
-0.40429688,2.9921718E-4,1.12283975E-4,4.089799E-4,0.09,1.0,-0.08,23126,9965.60,0,0,165,0.84,-2.59,0.07,0.09,1.00,-0.08
0.29589844,2.9921718E-4,1.12283975E-4,0.00140898,0.09,1.0,-0.08,23133,9966.30,0,0,0,0.84,-2.59,0.14,0.09,1.00,-0.08
-0.00390625,2.9921718E-4,1.12283975E-4,-5.9102016E-4,0.09,1.0,-0.08,23148,9966.00,0,0,165,0.84,-2.59,0.00,0.09,1.00,-0.08
-0.70410156,2.9921718E-4,1.12283975E-4,-5.9102016E-4,0.09,1.0,-0.08,23163,9965.30,0,0,0,0.84,-2.59,0.00,0.09,1.00,-0.08
1.5957031,2.9921718E-4,1.12283975E-4,-5.9102016E-4,0.09,1.0,-0.08,23178,9967.60,0,0,165,0.84,-2.59,0.00,0.09,1.00,-0.08
-0.40429688,-7.0078205E-4,0.001112286,4.089799E-4,0.09,1.0,-0.08,23185,9965.60,0,0,0,0.77,-2.52,0.07,0.09,1.00,-0.08
-0.70410156,0.0012992183,1.12283975E-4,0.00140898,0.09,1.0,-0.08,23200,9965.30,0,0,165,0.91,-2.59,0.14,0.09,1.00,-0.08
-0.40429688,2.9921718E-4,1.12283975E-4,-0.0015910203,0.09,1.0,-0.08,23208,9965.60,0,0,0,0.84,-2.59,-0.07,0.09,1.00,-0.08
-0.40429688,-7.0078205E-4,1.12283975E-4,-0.0025910202,0.09,1.0,-0.08,23223,9965.60,0,0,165,0.77,-2.59,-0.14,0.09,1.00,-0.08
-1.7041016,2.9921718E-4,-0.0018877164,4.089799E-4,0.09,1.0,-0.08,23238,9964.30,0,0,0,0.84,-2.73,0.07,0.09,1.00,-0.08
-1.7041016,2.9921718E-4,-8.8771805E-4,-0.0015910203,0.09,1.0,-0.08,23246,9964.30,0,0,165,0.84,-2.66,-0.07,0.09,1.00,-0.08
-0.40429688,-7.0078205E-4,1.12283975E-4,-5.9102016E-4,0.09,1.0,-0.08,23260,9965.60,0,0,0,0.77,-2.59,0.00,0.09,1.00,-0.08
-0.70410156,0.0012992183,1.12283975E-4,-5.9102016E-4,0.09,1.0,-0.08,23275,9965.30,0,0,165,0.91,-2.59,0.00,0.09,1.00,-0.08
0.29589844,-7.0078205E-4,1.12283975E-4,-5.9102016E-4,0.09,1.0,-0.08,23282,9966.30,0,0,0,0.77,-2.59,0.00,0.09,1.00,-0.08
-0.70410156,2.9921718E-4,-8.8771805E-4,4.089799E-4,0.09,1.0,-0.08,23298,9965.30,0,0,165,0.84,-2.66,0.07,0.09,1.00,-0.08
0.5957031,2.9921718E-4,0.001112286,-5.9102016E-4,0.09,1.0,-0.08,23313,9966.60,0,0,0,0.84,-2.52,0.00,0.09,1.00,-0.08
-0.40429688,2.9921718E-4,0.001112286,0.254409,0.09,1.0,-0.08,23320,9965.60,0,0,165,0.84,-2.52,17.85,0.09,1.00,-0.08
-1.7041016,-7.0078205E-4,-8.8771805E-4,-0.0015910203,0.09,1.0,-0.08,23335,9964.30,0,0,0,0.77,-2.66,-0.07,0.09,1.00,-0.08
-1.3037109,2.9921718E-4,1.12283975E-4,0.00140898,0.09,1.0,-0.08,23342,9964.70,0,0,165,0.84,-2.59,0.14,0.09,1.00,-0.08
-0.40429688,2.9921718E-4,1.12283975E-4,4.089799E-4,0.09,1.0,-0.08,23357,9965.60,0,0,0,0.84,-2.59,0.07,0.09,1.00,-0.08
-0.70410156,-7.0078205E-4,1.12283975E-4,-5.9102016E-4,0.09,1.0,-0.08,23372,9965.30,0,0,165,0.77,-2.59,0.00,0.09,1.00,-0.08
-0.40429688,2.9921718E-4,-8.8771805E-4,0.0024089797,0.09,1.0,-0.08,23380,9965.60,0,0,0,0.84,-2.66,0.21,0.09,1.00,-0.08
-1.3037109,2.9921718E-4,-8.8771805E-4,-5.9102016E-4,0.09,1.0,-0.08,23395,9964.70,0,0,165,0.84,-2.66,0.00,0.09,1.00,-0.08
-0.40429688,-7.0078205E-4,-8.8771805E-4,-5.9102016E-4,0.09,1.0,-0.08,23410,9965.60,0,0,0,0.77,-2.66,0.00,0.09,1.00,-0.08
-0.40429688,-0.0017007822,-8.8771805E-4,-5.9102016E-4,0.09,1.0,-0.08,23417,9965.60,0,0,165,0.70,-2.66,0.00,0.09,1.00,-0.08
-0.70410156,0.0012992183,1.12283975E-4,-5.9102016E-4,0.09,1.0,-0.08,23433,9965.30,0,0,0,0.91,-2.59,0.00,0.09,1.00,-0.08
-0.70410156,-7.0078205E-4,-8.8771805E-4,-5.9102016E-4,0.09,1.0,-0.08,23440,9965.30,0,0,165,0.77,-2.66,0.00,0.09,1.00,-0.08
-0.70410156,0.0022992184,1.12283975E-4,-5.9102016E-4,0.09,1.0,-0.08,23455,9965.30,0,0,0,0.98,-2.59,0.00,0.09,1.00,-0.08
-0.40429688,2.9921718E-4,-0.0018877164,-5.9102016E-4,0.09,1.0,-0.08,23470,9965.60,0,0,165,0.84,-2.73,0.00,0.09,1.00,-0.08
-1.7041016,2.9921718E-4,1.12283975E-4,-5.9102016E-4,0.09,1.0,-0.08,23478,9964.30,0,0,0,0.84,-2.59,0.00,0.09,1.00,-0.08
-1.7041016,-0.0017007822,1.12283975E-4,-5.9102016E-4,0.09,1.0,-0.08,23493,9964.30,0,0,165,0.70,-2.59,0.00,0.09,1.00,-0.08
-0.70410156,-7.0078205E-4,1.12283975E-4,-0.0015910203,0.09,1.0,-0.08,23507,9965.30,0,0,0,0.77,-2.59,-0.07,0.09,1.00,-0.08
-0.70410156,2.9921718E-4,0.001112286,-5.9102016E-4,0.09,1.0,-0.08,23515,9965.30,0,0,165,0.84,-2.52,0.00,0.09,1.00,-0.08
-0.40429688,-7.0078205E-4,1.12283975E-4,0.00140898,0.09,1.0,-0.08,23530,9965.60,0,0,0,0.77,-2.59,0.14,0.09,1.00,-0.08
-0.40429688,2.9921718E-4,0.001112286,-5.9102016E-4,0.09,1.0,-0.08,23545,9965.60,0,0,165,0.84,-2.52,0.00,0.09,1.00,-0.08
-1.7041016,2.9921718E-4,1.12283975E-4,-5.9102016E-4,0.09,1.0,-0.08,23552,9964.30,0,0,0,0.84,-2.59,0.00,0.09,1.00,-0.08
0.29589844,2.9921718E-4,1.12283975E-4,-0.0015910203,0.09,1.0,-0.08,23567,9966.30,0,0,165,0.84,-2.59,-0.07,0.09,1.00,-0.08
-0.70410156,-7.0078205E-4,-8.8771805E-4,-0.0015910203,0.09,1.0,-0.08,23582,9965.30,0,0,0,0.77,-2.66,-0.07,0.09,1.00,-0.08
-0.70410156,2.9921718E-4,1.12283975E-4,4.089799E-4,0.09,1.0,-0.08,23590,9965.30,0,0,165,0.84,-2.59,0.07,0.09,1.00,-0.08
-0.70410156,-7.0078205E-4,1.12283975E-4,-5.9102016E-4,0.09,1.0,-0.08,23605,9965.30,0,0,0,0.77,-2.59,0.00,0.09,1.00,-0.08
-0.70410156,-7.0078205E-4,1.12283975E-4,-5.9102016E-4,0.09,1.0,-0.08,23620,9965.30,0,0,165,0.77,-2.59,0.00,0.09,1.00,-0.08
-0.70410156,2.9921718E-4,-8.8771805E-4,4.089799E-4,0.09,1.0,-0.08,23628,9965.30,0,0,0,0.84,-2.66,0.07,0.09,1.00,-0.08
-0.40429688,2.9921718E-4,1.12283975E-4,4.089799E-4,0.09,1.0,-0.08,23643,9965.60,0,0,165,0.84,-2.59,0.07,0.09,1.00,-0.08
-0.40429688,2.9921718E-4,-8.8771805E-4,4.089799E-4,0.09,1.0,-0.08,23657,9965.60,0,0,0,0.84,-2.66,0.07,0.09,1.00,-0.08
-0.40429688,0.0012992183,1.12283975E-4,4.089799E-4,0.09,1.0,-0.08,23665,9965.60,0,0,165,0.91,-2.59,0.07,0.09,1.00,-0.08
-1.7041016,-7.0078205E-4,1.12283975E-4,0.254409,0.09,1.0,-0.08,23680,9964.30,0,0,0,0.77,-2.59,17.85,0.09,1.00,-0.08
-0.70410156,-7.0078205E-4,-8.8771805E-4,-0.0015910203,0.09,1.0,-0.08,23695,9965.30,0,0,165,0.77,-2.66,-0.07,0.09,1.00,-0.08
-1.7041016,2.9921718E-4,-8.8771805E-4,0.00140898,0.09,1.0,-0.08,23703,9964.30,0,0,0,0.84,-2.66,0.14,0.09,1.00,-0.08
-1.7041016,-7.0078205E-4,1.12283975E-4,-0.0015910203,0.09,1.0,-0.08,23718,9964.30,0,0,165,0.77,-2.59,-0.07,0.09,1.00,-0.08
-0.70410156,-7.0078205E-4,-8.8771805E-4,-0.0015910203,0.09,1.0,-0.08,23733,9965.30,0,0,0,0.77,-2.66,-0.07,0.09,1.00,-0.08
-0.70410156,0.0022992184,0.001112286,4.089799E-4,0.09,1.0,-0.08,23740,9965.30,0,0,165,0.98,-2.52,0.07,0.09,1.00,-0.08
-2.0039062,2.9921718E-4,0.001112286,4.089799E-4,0.09,1.0,-0.08,23755,9964.00,0,0,0,0.84,-2.52,0.07,0.09,1.00,-0.08
-0.70410156,-7.0078205E-4,1.12283975E-4,-5.9102016E-4,0.09,1.0,-0.08,23770,9965.30,0,0,165,0.77,-2.59,0.00,0.09,1.00,-0.08
-0.70410156,-7.0078205E-4,1.12283975E-4,-5.9102016E-4,0.09,1.0,-0.08,23778,9965.30,0,0,0,0.77,-2.59,0.00,0.09,1.00,-0.08
-2.303711,0.0012992183,-8.8771805E-4,-0.0015910203,0.09,1.0,-0.08,23792,9963.70,0,0,165,0.91,-2.66,-0.07,0.09,1.00,-0.08
-0.40429688,-7.0078205E-4,-8.8771805E-4,4.089799E-4,0.09,1.0,-0.08,23808,9965.60,0,0,0,0.77,-2.66,0.07,0.09,1.00,-0.08
-1.7041016,-0.0017007822,-8.8771805E-4,-5.9102016E-4,0.09,1.0,-0.08,23815,9964.30,0,0,165,0.70,-2.66,0.00,0.09,1.00,-0.08
-1.7041016,0.0012992183,1.12283975E-4,4.089799E-4,0.09,1.0,-0.08,23830,9964.30,0,0,0,0.91,-2.59,0.07,0.09,1.00,-0.08
0.29589844,2.9921718E-4,1.12283975E-4,-0.0015910203,0.09,1.0,-0.08,23845,9966.30,0,0,165,0.84,-2.59,-0.07,0.09,1.00,-0.08
-0.70410156,-7.0078205E-4,0.001112286,-0.0015910203,0.09,1.0,-0.08,23852,9965.30,0,0,0,0.77,-2.52,-0.07,0.09,1.00,-0.08
-0.40429688,-7.0078205E-4,-8.8771805E-4,-5.9102016E-4,0.09,1.0,-0.08,23867,9965.60,0,0,165,0.77,-2.66,0.00,0.09,1.00,-0.08
-0.70410156,2.9921718E-4,1.12283975E-4,0.00140898,0.09,1.0,-0.08,23882,9965.30,0,0,0,0.84,-2.59,0.14,0.09,1.00,-0.08
-0.70410156,2.9921718E-4,-8.8771805E-4,-5.9102016E-4,0.09,1.0,-0.07,23890,9965.30,0,0,165,0.84,-2.66,0.00,0.09,1.00,-0.07
-1.3037109,2.9921718E-4,1.12283975E-4,-5.9102016E-4,0.09,1.0,-0.08,23905,9964.70,0,0,0,0.84,-2.59,0.00,0.09,1.00,-0.08
-0.70410156,2.9921718E-4,0.001112286,-5.9102016E-4,0.09,1.0,-0.08,23920,9965.30,0,0,165,0.84,-2.52,0.00,0.09,1.00,-0.08
0.29589844,-7.0078205E-4,-8.8771805E-4,-5.9102016E-4,0.09,1.0,-0.08,23927,9966.30,0,0,0,0.77,-2.66,0.00,0.09,1.00,-0.08
-0.70410156,-7.0078205E-4,-8.8771805E-4,0.0024089797,0.09,1.0,-0.08,23942,9965.30,0,0,165,0.77,-2.66,0.21,0.09,1.00,-0.08
-0.70410156,2.9921718E-4,0.001112286,0.00140898,0.09,1.0,-0.08,23958,9965.30,0,0,0,0.84,-2.52,0.14,0.09,1.00,-0.08
-0.70410156,-7.0078205E-4,-8.8771805E-4,4.089799E-4,0.09,1.0,-0.08,23964,9965.30,0,0,165,0.77,-2.66,0.07,0.09,1.00,-0.08
-1.7041016,0.0012992183,0.001112286,-5.9102016E-4,0.09,1.0,-0.08,23979,9964.30,0,0,0,0.91,-2.52,0.00,0.09,1.00,-0.08
-0.70410156,-7.0078205E-4,1.12283975E-4,-5.9102016E-4,0.09,1.0,-0.08,23995,9965.30,0,0,165,0.77,-2.59,0.00,0.09,1.00,-0.08
-0.40429688,2.9921718E-4,0.001112286,4.089799E-4,0.09,1.0,-0.08,24002,9965.60,0,0,0,0.84,-2.52,0.07,0.09,1.00,-0.08
1.5957031,-7.0078205E-4,0.001112286,4.089799E-4,0.09,1.0,-0.08,24017,9967.60,0,0,165,0.77,-2.52,0.07,0.09,1.00,-0.08
-0.70410156,2.9921718E-4,-8.8771805E-4,-5.9102016E-4,0.09,1.0,-0.08,24033,9965.30,0,0,0,0.84,-2.66,0.00,0.09,1.00,-0.08
-0.40429688,-7.0078205E-4,-8.8771805E-4,-5.9102016E-4,0.09,1.0,-0.08,24040,9965.60,0,0,165,0.77,-2.66,0.00,0.09,1.00,-0.08
-0.70410156,-7.0078205E-4,0.001112286,-0.0015910203,0.09,1.0,-0.08,24055,9965.30,0,0,0,0.77,-2.52,-0.07,0.09,1.00,-0.08
-0.70410156,-7.0078205E-4,-8.8771805E-4,-5.9102016E-4,0.09,1.0,-0.08,24070,9965.30,0,0,165,0.77,-2.66,0.00,0.09,1.00,-0.08
-0.70410156,2.9921718E-4,0.001112286,0.00140898,0.09,1.0,-0.08,24078,9965.30,0,0,0,0.84,-2.52,0.14,0.09,1.00,-0.08
-0.40429688,0.0012992183,1.12283975E-4,4.089799E-4,0.09,1.0,-0.08,24093,9965.60,0,0,165,0.91,-2.59,0.07,0.09,1.00,-0.08
-0.40429688,-7.0078205E-4,1.12283975E-4,4.089799E-4,0.09,1.0,-0.08,24108,9965.60,0,0,0,0.77,-2.59,0.07,0.09,1.00,-0.08
-0.70410156,2.9921718E-4,-8.8771805E-4,-0.0015910203,0.09,1.0,-0.08,24115,9965.30,0,0,165,0.84,-2.66,-0.07,0.09,1.00,-0.08
-2.303711,-7.0078205E-4,-8.8771805E-4,0.00140898,0.09,1.0,-0.08,24130,9963.70,0,0,0,0.77,-2.66,0.14,0.09,1.00,-0.08
-0.70410156,2.9921718E-4,1.12283975E-4,-5.9102016E-4,0.09,1.0,-0.08,24145,9965.30,0,0,165,0.84,-2.59,0.00,0.09,1.00,-0.08
-0.70410156,0.0012992183,1.12283975E-4,4.089799E-4,0.09,1.0,-0.08,24152,9965.30,0,0,0,0.91,-2.59,0.07,0.09,1.00,-0.08
-0.70410156,2.9921718E-4,1.12283975E-4,4.089799E-4,0.09,1.0,-0.08,24168,9965.30,0,0,165,0.84,-2.59,0.07,0.09,1.00,-0.08
-0.70410156,0.0012992183,-8.8771805E-4,-5.9102016E-4,0.09,1.0,-0.08,24183,9965.30,0,0,0,0.91,-2.66,0.00,0.09,1.00,-0.08
-1.3037109,-7.0078205E-4,-8.8771805E-4,-5.9102016E-4,0.09,1.0,-0.08,24190,9964.70,0,0,165,0.77,-2.66,0.00,0.09,1.00,-0.08
-1.3037109,2.9921718E-4,0.001112286,-5.9102016E-4,0.09,1.0,-0.08,24205,9964.70,0,0,0,0.84,-2.52,0.00,0.09,1.00,-0.08
-1.7041016,2.9921718E-4,1.12283975E-4,-0.0015910203,0.09,1.0,-0.08,24212,9964.30,0,0,165,0.84,-2.59,-0.07,0.09,1.00,-0.08
-0.40429688,2.9921718E-4,1.12283975E-4,0.00140898,0.09,1.0,-0.08,24227,9965.60,0,0,0,0.84,-2.59,0.14,0.09,1.00,-0.08
-1.7041016,2.9921718E-4,1.12283975E-4,-0.0025910202,0.09,1.0,-0.08,24242,9964.30,0,0,165,0.84,-2.59,-0.14,0.09,1.00,-0.08
-0.70410156,-7.0078205E-4,-8.8771805E-4,4.089799E-4,0.09,1.0,-0.08,24249,9965.30,0,0,0,0.77,-2.66,0.07,0.09,1.00,-0.08
-0.70410156,0.0012992183,0.001112286,-5.9102016E-4,0.09,1.0,-0.08,24265,9965.30,0,0,165,0.91,-2.52,0.00,0.09,1.00,-0.08
-0.70410156,0.0022992184,1.12283975E-4,4.089799E-4,0.09,1.0,-0.08,24280,9965.30,0,0,0,0.98,-2.59,0.07,0.09,1.00,-0.08
-0.40429688,2.9921718E-4,-8.8771805E-4,4.089799E-4,0.09,1.0,-0.08,24287,9965.60,0,0,165,0.84,-2.66,0.07,0.09,1.00,-0.08
-0.70410156,0.0012992183,0.001112286,4.089799E-4,0.09,1.0,-0.08,24302,9965.30,0,0,0,0.91,-2.52,0.07,0.09,1.00,-0.08
-0.40429688,-0.0017007822,-8.8771805E-4,-5.9102016E-4,0.09,1.0,-0.08,24317,9965.60,0,0,165,0.70,-2.66,0.00,0.09,1.00,-0.08
-0.70410156,2.9921718E-4,1.12283975E-4,-0.0015910203,0.09,1.0,-0.08,24325,9965.30,0,0,0,0.84,-2.59,-0.07,0.09,1.00,-0.08
-1.7041016,2.9921718E-4,1.12283975E-4,-5.9102016E-4,0.09,1.0,-0.08,24340,9964.30,0,0,165,0.84,-2.59,0.00,0.09,1.00,-0.08
0.29589844,2.9921718E-4,1.12283975E-4,-5.9102016E-4,0.09,1.0,-0.08,24355,9966.30,0,0,0,0.84,-2.59,0.00,0.09,1.00,-0.08
0.5957031,-7.0078205E-4,-8.8771805E-4,0.00140898,0.09,1.0,-0.08,24362,9966.60,0,0,165,0.77,-2.66,0.14,0.09,1.00,-0.08
-0.40429688,2.9921718E-4,-8.8771805E-4,4.089799E-4,0.09,1.0,-0.08,24377,9965.60,0,0,0,0.84,-2.66,0.07,0.09,1.00,-0.08
-1.3037109,0.0012992183,0.001112286,4.089799E-4,0.09,1.0,-0.08,24393,9964.70,0,0,165,0.91,-2.52,0.07,0.09,1.00,-0.08
-0.40429688,-0.0017007822,-8.8771805E-4,-5.9102016E-4,0.09,1.0,-0.08,24400,9965.60,0,0,0,0.70,-2.66,0.00,0.09,1.00,-0.08
-0.40429688,-7.0078205E-4,1.12283975E-4,-5.9102016E-4,0.09,1.0,-0.08,24415,9965.60,0,0,165,0.77,-2.59,0.00,0.09,1.00,-0.08
-0.40429688,-7.0078205E-4,-0.0018877164,-0.0015910203,0.09,1.0,-0.08,24430,9965.60,0,0,0,0.77,-2.73,-0.07,0.09,1.00,-0.08
-0.70410156,2.9921718E-4,1.12283975E-4,-0.0015910203,0.09,1.0,-0.08,24437,9965.30,0,0,165,0.84,-2.59,-0.07,0.09,1.00,-0.08
-0.70410156,2.9921718E-4,0.001112286,4.089799E-4,0.09,1.0,-0.08,24452,9965.30,0,0,0,0.84,-2.52,0.07,0.09,1.00,-0.08
-0.70410156,2.9921718E-4,1.12283975E-4,-5.9102016E-4,0.09,1.0,-0.08,24467,9965.30,0,0,165,0.84,-2.59,0.00,0.09,1.00,-0.08
-0.70410156,-0.0017007822,1.12283975E-4,4.089799E-4,0.09,1.0,-0.08,24476,9965.30,0,0,0,0.70,-2.59,0.07,0.09,1.00,-0.08
-1.7041016,-7.0078205E-4,1.12283975E-4,4.089799E-4,0.09,1.0,-0.08,24490,9964.30,0,0,165,0.77,-2.59,0.07,0.09,1.00,-0.08
-1.7041016,2.9921718E-4,-0.0018877164,-0.0015910203,0.09,1.0,-0.08,24505,9964.30,0,0,0,0.84,-2.73,-0.07,0.09,1.00,-0.08
-0.70410156,2.9921718E-4,1.12283975E-4,-5.9102016E-4,0.09,1.0,-0.08,24513,9965.30,0,0,165,0.84,-2.59,0.00,0.09,1.00,-0.08
-0.70410156,-7.0078205E-4,1.12283975E-4,-0.0015910203,0.09,1.0,-0.08,24528,9965.30,0,0,0,0.77,-2.59,-0.07,0.09,1.00,-0.08
-0.70410156,2.9921718E-4,1.12283975E-4,-5.9102016E-4,0.09,1.0,-0.08,24543,9965.30,0,0,165,0.84,-2.59,0.00,0.09,1.00,-0.08
-0.40429688,-7.0078205E-4,0.001112286,4.089799E-4,0.09,1.0,-0.08,24550,9965.60,0,0,0,0.77,-2.52,0.07,0.09,1.00,-0.08
-1.3037109,0.0012992183,0.001112286,-0.0015910203,0.09,1.0,-0.08,24573,9964.70,0,0,165,0.91,-2.52,-0.07,0.09,1.00,-0.08
-0.70410156,0.0022992184,1.12283975E-4,4.089799E-4,0.09,1.0,-0.08,24587,9965.30,0,0,0,0.98,-2.59,0.07,0.09,1.00,-0.08
-0.70410156,-0.0017007822,-8.8771805E-4,-0.0015910203,0.09,1.0,-0.08,24589,9965.30,0,0,165,0.70,-2.66,-0.07,0.09,1.00,-0.08
-0.70410156,-7.0078205E-4,1.12283975E-4,4.089799E-4,0.09,1.0,-0.08,24603,9965.30,0,0,0,0.77,-2.59,0.07,0.09,1.00,-0.08
-0.70410156,-7.0078205E-4,1.12283975E-4,-5.9102016E-4,0.09,1.0,-0.08,24610,9965.30,0,0,165,0.77,-2.59,0.00,0.09,1.00,-0.08
-0.70410156,-7.0078205E-4,1.12283975E-4,0.00140898,0.09,1.0,-0.08,24625,9965.30,0,0,0,0.77,-2.59,0.14,0.09,1.00,-0.08
-1.3037109,0.0012992183,1.12283975E-4,-5.9102016E-4,0.09,1.0,-0.08,24640,9964.70,0,0,165,0.91,-2.59,0.00,0.09,1.00,-0.08
-0.40429688,2.9921718E-4,-8.8771805E-4,4.089799E-4,0.09,1.0,-0.08,24648,9965.60,0,0,0,0.84,-2.66,0.07,0.09,1.00,-0.08
-0.40429688,2.9921718E-4,1.12283975E-4,-0.0015910203,0.09,1.0,-0.08,24663,9965.60,0,0,165,0.84,-2.59,-0.07,0.09,1.00,-0.08
-1.3037109,-7.0078205E-4,-8.8771805E-4,0.00140898,0.09,1.0,-0.08,24678,9964.70,0,0,0,0.77,-2.66,0.14,0.09,1.00,-0.08
0.5957031,2.9921718E-4,0.001112286,-5.9102016E-4,0.09,1.01,-0.08,24685,9966.60,0,0,165,0.84,-2.52,0.00,0.09,1.01,-0.08
-1.3037109,2.9921718E-4,1.12283975E-4,4.089799E-4,0.09,1.0,-0.08,24700,9964.70,0,0,0,0.84,-2.59,0.07,0.09,1.00,-0.08
-1.7041016,-7.0078205E-4,1.12283975E-4,0.00140898,0.09,1.0,-0.08,24715,9964.30,0,0,165,0.77,-2.59,0.14,0.09,1.00,-0.08
-0.40429688,0.0012992183,1.12283975E-4,0.00140898,0.09,1.0,-0.08,24722,9965.60,0,0,0,0.91,-2.59,0.14,0.09,1.00,-0.08
-0.40429688,2.9921718E-4,0.001112286,4.089799E-4,0.09,1.0,-0.07,24737,9965.60,0,0,165,0.84,-2.52,0.07,0.09,1.00,-0.07
-1.7041016,-7.0078205E-4,1.12283975E-4,-5.9102016E-4,0.09,1.0,-0.08,24752,9964.30,0,0,0,0.77,-2.59,0.00,0.09,1.00,-0.08
-0.00390625,-7.0078205E-4,-8.8771805E-4,4.089799E-4,0.09,1.0,-0.08,24760,9966.00,0,0,165,0.77,-2.66,0.07,0.09,1.00,-0.08
-0.40429688,2.9921718E-4,1.12283975E-4,4.089799E-4,0.09,1.0,-0.08,24774,9965.60,0,0,0,0.84,-2.59,0.07,0.09,1.00,-0.08
-0.70410156,-7.0078205E-4,1.12283975E-4,0.00140898,0.09,1.0,-0.08,24790,9965.30,0,0,165,0.77,-2.59,0.14,0.09,1.00,-0.08
-0.70410156,2.9921718E-4,1.12283975E-4,4.089799E-4,0.09,1.0,-0.08,24797,9965.30,0,0,0,0.84,-2.59,0.07,0.09,1.00,-0.08
-1.7041016,2.9921718E-4,0.001112286,-5.9102016E-4,0.09,1.0,-0.08,24813,9964.30,0,0,165,0.84,-2.52,0.00,0.09,1.00,-0.08
-0.70410156,-7.0078205E-4,1.12283975E-4,-0.0025910202,0.09,1.0,-0.08,24828,9965.30,0,0,0,0.77,-2.59,-0.14,0.09,1.00,-0.08
-0.40429688,-7.0078205E-4,1.12283975E-4,4.089799E-4,0.09,1.0,-0.08,24835,9965.60,0,0,165,0.77,-2.59,0.07,0.09,1.00,-0.08
-0.70410156,2.9921718E-4,0.001112286,4.089799E-4,0.09,1.0,-0.08,24856,9965.30,0,0,0,0.84,-2.52,0.07,0.09,1.00,-0.08
-0.70410156,0.0012992183,-8.8771805E-4,4.089799E-4,0.09,1.0,-0.08,24865,9965.30,0,0,165,0.91,-2.66,0.07,0.09,1.00,-0.08
-0.70410156,2.9921718E-4,1.12283975E-4,0.00140898,0.09,1.0,-0.08,24873,9965.30,0,0,0,0.84,-2.59,0.14,0.09,1.00,-0.08
-0.70410156,2.9921718E-4,1.12283975E-4,-0.0025910202,0.09,1.0,-0.08,24888,9965.30,0,0,165,0.84,-2.59,-0.14,0.09,1.00,-0.08
-0.70410156,-0.0017007822,1.12283975E-4,-5.9102016E-4,0.09,1.0,-0.08,24899,9965.30,0,0,0,0.70,-2.59,0.00,0.09,1.00,-0.08
-0.70410156,-0.0017007822,1.12283975E-4,-5.9102016E-4,0.09,1.0,-0.08,24910,9965.30,0,0,165,0.70,-2.59,0.00,0.09,1.00,-0.08
-1.3037109,-7.0078205E-4,-0.0018877164,-0.0025910202,0.09,1.0,-0.08,24925,9964.70,0,0,0,0.77,-2.73,-0.14,0.09,1.00,-0.08
-0.70410156,2.9921718E-4,-0.0018877164,-5.9102016E-4,0.09,1.0,-0.08,24932,9965.30,0,0,165,0.84,-2.73,0.00,0.09,1.00,-0.08
-1.7041016,2.9921718E-4,1.12283975E-4,-5.9102016E-4,0.09,1.0,-0.08,24948,9964.30,0,0,0,0.84,-2.59,0.00,0.09,1.00,-0.08
-1.0039062,2.9921718E-4,1.12283975E-4,-5.9102016E-4,0.09,1.0,-0.08,24963,9965.00,0,0,165,0.84,-2.59,0.00,0.09,1.00,-0.08
-1.7041016,2.9921718E-4,-8.8771805E-4,4.089799E-4,0.09,1.0,-0.08,24970,9964.30,0,0,0,0.84,-2.66,0.07,0.09,1.00,-0.08
-0.40429688,2.9921718E-4,-8.8771805E-4,-5.9102016E-4,0.09,1.0,-0.08,24985,9965.60,0,0,165,0.84,-2.66,0.00,0.09,1.00,-0.08
-0.70410156,-7.0078205E-4,0.001112286,4.089799E-4,0.09,1.0,-0.08,25000,9965.30,0,0,0,0.77,-2.52,0.07,0.09,1.00,-0.08
-0.70410156,2.9921718E-4,0.001112286,4.089799E-4,0.09,1.0,-0.08,25007,9965.30,0,0,165,0.84,-2.52,0.07,0.09,1.00,-0.08
-0.40429688,2.9921718E-4,1.12283975E-4,0.00140898,0.09,1.0,-0.08,25022,9965.60,0,0,0,0.84,-2.59,0.14,0.09,1.00,-0.08
-0.70410156,-7.0078205E-4,1.12283975E-4,4.089799E-4,0.09,1.0,-0.08,25037,9965.30,0,0,165,0.77,-2.59,0.07,0.09,1.00,-0.08
-0.40429688,2.9921718E-4,1.12283975E-4,4.089799E-4,0.09,1.0,-0.08,25045,9965.60,0,0,0,0.84,-2.59,0.07,0.09,1.00,-0.08
-0.40429688,2.9921718E-4,1.12283975E-4,4.089799E-4,0.09,1.0,-0.08,25060,9965.60,0,0,165,0.84,-2.59,0.07,0.09,1.00,-0.08
-1.3037109,-0.0017007822,0.001112286,-5.9102016E-4,0.09,1.0,-0.08,25082,9964.70,0,0,0,0.70,-2.52,0.00,0.09,1.00,-0.08
-0.40429688,-7.0078205E-4,-8.8771805E-4,4.089799E-4,0.09,1.0,-0.08,25084,9965.60,0,0,165,0.77,-2.66,0.07,0.09,1.00,-0.08
-0.40429688,2.9921718E-4,-8.8771805E-4,-5.9102016E-4,0.09,1.0,-0.08,25098,9965.60,0,0,0,0.84,-2.66,0.00,0.09,1.00,-0.08
-1.3037109,2.9921718E-4,1.12283975E-4,0.00140898,0.09,1.0,-0.08,25113,9964.70,0,0,165,0.84,-2.59,0.14,0.09,1.00,-0.08
-1.7041016,-0.0017007822,0.0021122843,0.00140898,0.09,1.0,-0.08,25120,9964.30,0,0,0,0.70,-2.45,0.14,0.09,1.00,-0.08
-0.70410156,2.9921718E-4,1.12283975E-4,4.089799E-4,0.09,1.0,-0.08,25134,9965.30,0,0,165,0.84,-2.59,0.07,0.09,1.00,-0.08
0.5957031,2.9921718E-4,-8.8771805E-4,0.00140898,0.09,1.0,-0.08,25149,9966.60,0,0,0,0.84,-2.66,0.14,0.09,1.00,-0.08
-0.70410156,-0.0017007822,-8.8771805E-4,-5.9102016E-4,0.09,1.0,-0.08,25157,9965.30,0,0,165,0.70,-2.66,0.00,0.09,1.00,-0.08
-1.3037109,2.9921718E-4,-0.0018877164,4.089799E-4,0.09,1.0,-0.08,25172,9964.70,0,0,0,0.84,-2.73,0.07,0.09,1.00,-0.08
-0.40429688,-7.0078205E-4,1.12283975E-4,-5.9102016E-4,0.09,1.0,-0.08,25187,9965.60,0,0,165,0.77,-2.59,0.00,0.09,1.00,-0.08
-1.3037109,2.9921718E-4,-8.8771805E-4,4.089799E-4,0.09,1.0,-0.08,25195,9964.70,0,0,0,0.84,-2.66,0.07,0.09,1.00,-0.08
-1.7041016,-7.0078205E-4,1.12283975E-4,-5.9102016E-4,0.09,1.0,-0.08,25210,9964.30,0,0,165,0.77,-2.59,0.00,0.09,1.00,-0.08
-2.6035156,0.0012992183,-8.8771805E-4,-5.9102016E-4,0.09,1.0,-0.08,25226,9963.40,0,0,0,0.91,-2.66,0.00,0.09,1.00,-0.08
-1.7041016,2.9921718E-4,0.001112286,0.254409,0.09,1.0,-0.08,25233,9964.30,0,0,165,0.84,-2.52,17.85,0.09,1.00,-0.08
-0.70410156,0.0012992183,0.001112286,4.089799E-4,0.09,1.0,-0.08,25247,9965.30,0,0,0,0.91,-2.52,0.07,0.09,1.00,-0.08
0.5957031,0.0012992183,0.001112286,-0.0015910203,0.09,1.0,-0.08,25262,9966.60,0,0,165,0.91,-2.52,-0.07,0.09,1.00,-0.08
-0.70410156,-7.0078205E-4,-0.0018877164,-0.0015910203,0.09,1.0,-0.08,25270,9965.30,0,0,0,0.77,-2.73,-0.07,0.09,1.00,-0.08
-0.40429688,2.9921718E-4,0.001112286,4.089799E-4,0.09,1.0,-0.08,25285,9965.60,0,0,165,0.84,-2.52,0.07,0.09,1.00,-0.08
-1.7041016,-7.0078205E-4,1.12283975E-4,0.00140898,0.09,1.0,-0.08,25300,9964.30,0,0,0,0.77,-2.59,0.14,0.09,1.00,-0.08
-0.40429688,2.9921718E-4,-8.8771805E-4,-0.0015910203,0.09,1.0,-0.08,25308,9965.60,0,0,165,0.84,-2.66,-0.07,0.09,1.00,-0.08
-0.70410156,0.0012992183,1.12283975E-4,0.00140898,0.09,1.0,-0.08,25322,9965.30,0,0,0,0.91,-2.59,0.14,0.09,1.00,-0.08
-0.40429688,2.9921718E-4,1.12283975E-4,-5.9102016E-4,0.09,1.0,-0.08,25337,9965.60,0,0,165,0.84,-2.59,0.00,0.09,1.00,-0.08
0.29589844,-7.0078205E-4,1.12283975E-4,-0.0015910203,0.09,1.0,-0.08,25345,9966.30,0,0,0,0.77,-2.59,-0.07,0.09,1.00,-0.08
-0.40429688,2.9921718E-4,-8.8771805E-4,4.089799E-4,0.09,1.0,-0.08,25360,9965.60,0,0,165,0.84,-2.66,0.07,0.09,1.00,-0.08
-1.3037109,2.9921718E-4,0.001112286,4.089799E-4,0.09,1.0,-0.08,25375,9964.70,0,0,0,0.84,-2.52,0.07,0.09,1.00,-0.08
-0.40429688,2.9921718E-4,-8.8771805E-4,4.089799E-4,0.09,1.0,-0.08,25382,9965.60,0,0,165,0.84,-2.66,0.07,0.09,1.00,-0.08
-0.40429688,2.9921718E-4,1.12283975E-4,4.089799E-4,0.09,1.0,-0.08,25398,9965.60,0,0,0,0.84,-2.59,0.07,0.09,1.00,-0.08
-1.3037109,2.9921718E-4,0.001112286,-0.0015910203,0.09,1.0,-0.08,25412,9964.70,0,0,165,0.84,-2.52,-0.07,0.09,1.00,-0.08
0.5957031,-0.0017007822,-0.0018877164,4.089799E-4,0.09,1.0,-0.08,25420,9966.60,0,0,0,0.70,-2.73,0.07,0.09,1.00,-0.08
-1.3037109,-7.0078205E-4,-8.8771805E-4,-5.9102016E-4,0.09,1.0,-0.08,25435,9964.70,0,0,165,0.77,-2.66,0.00,0.09,1.00,-0.08
-1.3037109,-0.0017007822,1.12283975E-4,4.089799E-4,0.09,1.0,-0.08,25450,9964.70,0,0,0,0.70,-2.59,0.07,0.09,1.00,-0.08
-0.70410156,-0.0017007822,0.001112286,-0.0025910202,0.09,1.0,-0.08,25458,9965.30,0,0,165,0.70,-2.52,-0.14,0.09,1.00,-0.08
-0.70410156,-0.0017007822,1.12283975E-4,-5.9102016E-4,0.09,1.0,-0.08,25472,9965.30,0,0,0,0.70,-2.59,0.00,0.09,1.00,-0.08
-0.40429688,-7.0078205E-4,1.12283975E-4,4.089799E-4,0.09,1.0,-0.08,25487,9965.60,0,0,165,0.77,-2.59,0.07,0.09,1.00,-0.08
-1.3037109,2.9921718E-4,1.12283975E-4,-0.0015910203,0.09,1.0,-0.08,25495,9964.70,0,0,0,0.84,-2.59,-0.07,0.09,1.00,-0.08
-1.7041016,0.0012992183,0.001112286,-5.9102016E-4,0.09,1.0,-0.08,25512,9964.30,0,0,165,0.91,-2.52,0.00,0.09,1.00,-0.08
-1.3037109,-0.0017007822,1.12283975E-4,-5.9102016E-4,0.09,1.0,-0.08,25526,9964.70,0,0,0,0.70,-2.59,0.00,0.09,1.00,-0.08
