Pressure_Rel,GyroX_Rel,GyroY_Rel,GyroZ_Rel,AccX_Rel,AccY_Rel,AccZ_Rel,Timestamp,Pressure_abs,HeartRate,Oxygen,Status,GyroX,GyroY,GyroZ,AccX,AccY,AccZ
0.0,0.0,0.0,0.0,0.0,0.0,0.0,4929,10149.20,0,0,0,2.38,-21.07,55.02,0.30,0.86,0.42
0.0,0.0,0.0,0.0,0.0,0.0,0.0,4947,10148.20,0,0,0,43.47,-106.19,-17.08,0.30,0.85,0.42
0.0,0.0,0.0,0.0,0.0,0.0,0.0,4960,10147.20,0,0,0,1.54,-1.82,1.47,0.30,0.85,0.42
0.0,0.0,0.0,0.0,0.0,0.0,0.0,4974,10149.20,0,0,0,0.35,-1.68,2.24,0.30,0.86,0.42
0.0,0.0,0.0,0.0,0.0,0.0,0.0,4989,10150.50,0,0,0,-0.21,-1.61,2.38,0.30,0.87,0.41
0.0,0.0,0.0,0.0,0.0,0.0,0.0,5006,10148.90,0,0,0,0.14,-1.33,1.89,0.30,0.87,0.42
0.0,0.0,0.0,0.0,0.0,0.0,0.0,5027,10148.20,0,0,0,-0.35,-0.84,1.33,0.30,0.87,0.42
0.0,0.0,0.0,0.0,0.0,0.0,0.0,5042,10149.20,0,0,0,-0.77,-0.42,1.26,0.30,0.86,0.42
0.0,0.0,0.0,0.0,0.0,0.0,0.0,5057,10147.20,0,0,0,-1.26,-0.70,1.82,0.30,0.87,0.42
0.0,0.0,0.0,0.0,0.0,0.0,0.0,5073,10150.20,0,0,0,-1.61,-0.77,1.33,0.30,0.88,0.42
0.0,0.0,0.0,0.0,0.0,0.0,0.0,5095,10149.20,0,0,1,-2.03,-0.56,0.70,0.30,0.88,0.42
0.0,0.0,0.0,0.0,0.0,0.0,0.0,5116,10148.20,0,0,1,-2.45,-0.49,-0.35,0.29,0.87,0.42
0.0,0.0,0.0,0.0,0.0,0.0,0.0,5140,10149.20,0,0,1,-2.52,-1.05,-0.56,0.30,0.87,0.41
0.0,0.0,0.0,0.0,0.0,0.0,0.0,5162,10147.20,0,0,1,-2.24,-2.73,-1.05,0.30,0.88,0.41
0.0,0.0,0.0,0.0,0.0,0.0,0.0,5178,10149.20,0,0,1,-1.40,-3.50,-1.19,0.30,0.88,0.41
0.0,0.0,0.0,0.0,0.0,0.0,0.0,5200,10149.90,0,0,1,-0.98,-3.92,-1.47,0.30,0.87,0.42
0.0,0.0,0.0,0.0,0.0,0.0,0.0,5214,10148.90,0,0,1,-1.05,-4.27,-1.19,0.29,0.87,0.42
0.0,0.0,0.0,0.0,0.0,0.0,0.0,5239,10150.20,0,0,1,-1.26,-4.27,-0.63,0.29,0.87,0.43
0.0,0.0,0.0,0.0,0.0,0.0,0.0,5258,10151.20,0,0,1,-1.75,-4.27,-0.63,0.28,0.87,0.42
0.0,0.0,0.0,0.0,0.0,0.0,0.0,5269,10149.20,0,0,1,-1.82,-4.27,-0.98,0.28,0.87,0.42
0.0,0.0,0.0,0.0,0.0,0.0,0.0,5282,10150.20,0,0,1,-1.47,-4.13,-1.05,0.29,0.88,0.42
0.0,0.0,0.0,0.0,0.0,0.0,0.0,5297,10151.50,0,0,1,-1.61,-4.27,-0.91,0.29,0.87,0.42
0.0,0.0,0.0,0.0,0.0,0.0,0.0,5321,10152.20,0,0,1,-2.24,-4.34,0.07,0.29,0.86,0.43
0.0,0.0,0.0,0.0,0.0,0.0,0.0,5342,10152.20,0,0,1,-2.87,-4.69,-0.28,0.28,0.87,0.42
0.0,0.0,0.0,0.0,0.0,0.0,0.0,5365,10151.20,0,0,1,-2.87,-4.76,-1.26,0.28,0.87,0.43
0.0,0.0,0.0,0.0,0.0,0.0,0.0,5387,10149.50,0,0,1,-2.94,-4.55,-1.33,0.28,0.86,0.43
0.0,0.0,0.0,0.0,0.0,0.0,0.0,5402,10150.20,0,0,1,-3.36,-4.34,-0.63,0.28,0.86,0.43
0.0,0.0,0.0,0.0,0.0,0.0,0.0,5424,10150.20,0,0,1,-3.71,-5.11,-0.35,0.29,0.88,0.43
0.0,0.0,0.0,0.0,0.0,0.0,0.0,5447,10150.20,0,0,1,-2.94,-5.95,-0.70,0.29,0.88,0.43
0.0,0.0,0.0,0.0,0.0,0.0,0.0,5469,10151.20,0,0,1,-2.17,-6.58,-1.05,0.28,0.88,0.44
0.0,0.0,0.0,0.0,0.0,0.0,0.0,5491,10152.20,0,0,1,-1.68,-6.09,-1.33,0.28,0.87,0.44
0.0,0.0,0.0,0.0,0.0,0.0,0.0,5499,10150.20,0,0,1,-1.40,-4.97,-1.26,0.28,0.87,0.45
0.0,0.0,0.0,0.0,0.0,0.0,0.0,5515,10151.20,0,0,1,-1.12,-4.27,-1.05,0.28,0.87,0.45
0.0,0.0,0.0,0.0,0.0,0.0,0.0,5530,10152.50,0,0,1,-0.63,-3.43,-0.21,0.28,0.87,0.44
0.0,0.0,0.0,0.0,0.0,0.0,0.0,5545,10150.20,0,0,1,-0.14,-2.94,0.42,0.28,0.87,0.44
0.0,0.0,0.0,0.0,0.0,0.0,0.0,5567,10150.20,0,0,1,0.35,-2.10,1.26,0.28,0.87,0.43
0.0,0.0,0.0,0.0,0.0,0.0,0.0,5589,10153.50,0,0,1,0.98,-1.68,1.12,0.28,0.87,0.43
0.0,0.0,0.0,0.0,0.0,0.0,0.0,5611,10149.20,0,0,1,1.61,-0.63,1.54,0.29,0.86,0.43
0.0,0.0,0.0,0.0,0.0,0.0,0.0,5634,10149.50,0,0,1,1.54,-0.21,2.24,0.29,0.86,0.43
0.0,0.0,0.0,0.0,0.0,0.0,0.0,5649,10152.20,0,0,1,1.40,-0.77,2.38,0.30,0.87,0.42
0.0,0.0,0.0,0.0,0.0,0.0,0.0,5672,10152.20,0,0,1,1.82,-1.68,2.38,0.30,0.87,0.42
0.0,0.0,0.0,0.0,0.0,0.0,0.0,5694,10152.20,0,0,1,2.31,-2.52,1.61,0.30,0.88,0.42
0.0,0.0,0.0,0.0,0.0,0.0,0.0,5716,10151.20,0,0,1,2.94,-2.80,1.12,0.30,0.86,0.42
0.0,0.0,0.0,0.0,0.0,0.0,0.0,5731,10152.20,0,0,1,2.73,-3.01,1.54,0.30,0.86,0.43
0.0,0.0,0.0,0.0,0.0,0.0,0.0,5746,10152.50,0,0,1,2.24,-3.57,1.96,0.30,0.87,0.42
0.0,0.0,0.0,0.0,0.0,0.0,0.0,5762,10152.20,0,0,1,2.38,-3.71,2.38,0.30,0.88,0.42
0.0,0.0,0.0,0.0,0.0,0.0,0.0,5776,10151.20,0,0,1,2.73,-3.29,2.24,0.29,0.87,0.42
0.0,0.0,0.0,0.0,0.0,0.0,0.0,5799,10157.20,0,0,1,2.52,-2.52,2.38,0.30,0.87,0.42
0.0,0.0,0.0,0.0,0.0,0.0,0.0,5814,10152.50,0,0,1,2.03,-1.47,2.52,0.30,0.87,0.42
0.0,0.0,0.0,0.0,0.0,0.0,0.0,5837,10151.20,0,0,1,1.96,-0.56,2.80,0.29,0.88,0.42
0.0,0.0,0.0,0.0,0.0,0.0,0.0,5860,10147.50,0,0,1,2.03,-0.07,2.45,0.30,0.88,0.42
0.0,0.0,0.0,0.0,0.0,0.0,0.0,5881,10156.20,0,0,1,2.10,0.63,1.82,0.30,0.87,0.41
0.0,0.0,0.0,0.0,0.0,0.0,0.0,5904,10152.50,0,0,1,1.89,1.40,1.26,0.30,0.87,0.41
0.0,0.0,0.0,0.0,0.0,0.0,0.0,5926,10151.90,0,0,1,1.75,1.33,1.33,0.31,0.87,0.41
0.0,0.0,0.0,0.0,0.0,0.0,0.0,5941,10152.50,0,0,1,1.54,0.56,1.54,0.31,0.87,0.41
0.0,0.0,0.0,0.0,0.0,0.0,0.0,5963,10152.20,0,0,1,1.19,-0.42,1.68,0.31,0.87,0.41
0.0,0.0,0.0,0.0,0.0,0.0,0.0,5979,10153.50,0,0,1,0.91,-0.98,1.75,0.30,0.87,0.41
0.0,0.0,0.0,0.0,0.0,0.0,0.0,5994,10152.20,0,0,1,0.84,-1.40,1.75,0.30,0.87,0.41
0.0,0.0,0.0,0.0,0.0,0.0,0.0,6016,10152.20,0,0,1,0.56,-1.54,1.68,0.31,0.87,0.41
0.0,0.0,0.0,0.0,0.0,0.0,0.0,6031,10153.20,0,0,1,0.70,-1.40,1.12,0.30,0.88,0.41
0.0,0.0,0.0,0.0,0.0,0.0,0.0,6047,10150.50,0,0,1,0.77,-1.54,1.12,0.30,0.88,0.41
0.0,0.0,0.0,0.0,0.0,0.0,0.0,6071,10153.20,0,0,1,0.70,-1.19,0.70,0.30,0.88,0.41
0.0,0.0,0.0,0.0,0.0,0.0,0.0,6092,10153.20,0,0,1,0.42,-0.70,0.35,0.30,0.88,0.41
0.0,0.0,0.0,0.0,0.0,0.0,0.0,6107,10154.50,0,0,1,0.07,-0.70,-0.07,0.30,0.87,0.41
0.0,0.0,0.0,0.0,0.0,0.0,0.0,6129,10153.90,0,0,1,0.14,-0.28,0.21,0.30,0.88,0.40
0.0,0.0,0.0,0.0,0.0,0.0,0.0,6152,10153.50,0,0,1,0.35,-0.63,0.00,0.30,0.88,0.40
0.0,0.0,0.0,0.0,0.0,0.0,0.0,6174,10153.20,0,0,1,0.70,-0.91,-0.14,0.30,0.87,0.40
0.0,0.0,0.0,0.0,0.0,0.0,0.0,6197,10152.50,0,0,1,0.63,-1.40,0.21,0.30,0.88,0.40
0.0,0.0,0.0,0.0,0.0,0.0,0.0,6219,10153.50,0,0,1,0.07,-2.17,0.00,0.30,0.88,0.41
0.0,0.0,0.0,0.0,0.0,0.0,0.0,6234,10153.50,0,0,1,-0.35,-2.59,-0.49,0.30,0.88,0.41
0.0,0.0,0.0,0.0,0.0,0.0,0.0,6249,10152.90,0,0,1,-0.56,-2.52,-0.70,0.30,0.88,0.41
0.0,0.0,0.0,0.0,0.0,0.0,0.0,6264,10153.20,0,0,1,-0.21,-2.38,-0.98,0.29,0.88,0.41
0.0,0.0,0.0,0.0,0.0,0.0,0.0,6279,10153.50,0,0,1,0.07,-1.89,-0.84,0.29,0.88,0.41
0.0,0.0,0.0,0.0,0.0,0.0,0.0,6294,10154.50,0,0,1,0.00,-1.75,-1.12,0.29,0.87,0.41
0.0,0.0,0.0,0.0,0.0,0.0,0.0,6317,10153.50,0,0,1,0.00,-1.68,-0.70,0.29,0.87,0.41
0.0,0.0,0.0,0.0,0.0,0.0,0.0,6339,10155.50,0,0,1,-0.35,-1.26,-0.35,0.29,0.88,0.42
0.0,0.0,0.0,0.0,0.0,0.0,0.0,6362,10154.20,0,0,1,-0.70,-1.12,-0.21,0.29,0.87,0.42
0.0,0.0,0.0,0.0,0.0,0.0,0.0,6385,10154.20,0,0,1,-0.84,-0.91,0.21,0.30,0.87,0.42
0.0,0.0,0.0,0.0,0.0,0.0,0.0,6399,10153.20,0,0,1,-0.63,-1.12,0.70,0.29,0.88,0.42
0.0,0.0,0.0,0.0,0.0,0.0,0.0,6423,10152.90,0,0,1,-0.35,-1.47,0.98,0.30,0.88,0.42
1.5478516,-0.005454545,0.007315794,-6.698519E-4,0.3,0.87,0.43,10449,10156.60,77,0,3,-0.84,-1.12,1.19,0.30,0.87,0.43
1.5478516,-0.0014545461,0.012315795,0.005330147,0.3,0.87,0.43,10471,10156.60,77,0,3,-0.56,-0.77,1.61,0.30,0.87,0.43
2.5478516,-0.006454546,0.016315795,0.004330147,0.3,0.87,0.43,10494,10157.60,77,0,3,-0.91,-0.49,1.54,0.30,0.87,0.43
1.5478516,-0.0044545457,0.017315796,0.003330147,0.3,0.87,0.42,10509,10156.60,77,0,3,-0.77,-0.42,1.47,0.30,0.87,0.42
0.8486328,-0.0034545455,0.014315795,0.0063301455,0.31,0.87,0.42,10523,10155.90,77,0,3,-0.70,-0.63,1.68,0.31,0.87,0.42
1.5478516,-0.0034545455,0.0103157945,-6.698519E-4,0.31,0.87,0.42,10538,10156.60,77,0,3,-0.70,-0.91,1.19,0.31,0.87,0.42
1.5478516,-0.0014545461,0.002315795,-0.0046698526,0.31,0.87,0.42,10554,10156.60,77,0,3,-0.56,-1.47,0.91,0.31,0.87,0.42
4.5478516,-4.5454595E-4,0.0043157935,-0.006669853,0.3,0.86,0.43,10576,10159.60,77,0,3,-0.49,-1.33,0.77,0.30,0.86,0.43
2.1484375,5.454547E-4,0.0033157952,-0.0046698526,0.3,0.87,0.43,10599,10157.20,77,0,3,-0.42,-1.40,0.91,0.30,0.87,0.43
2.8486328,-4.5454595E-4,0.0053157955,-0.007669853,0.3,0.87,0.42,10623,10157.90,77,0,3,-0.49,-1.26,0.70,0.30,0.87,0.42
1.5478516,0.0065454543,0.007315794,-0.011669854,0.3,0.87,0.42,10636,10156.60,77,0,3,0.00,-1.12,0.42,0.30,0.87,0.42
2.5478516,0.009545454,0.006315794,-0.014669853,0.3,0.87,0.42,10658,10157.60,77,0,3,0.21,-1.19,0.21,0.30,0.87,0.42
1.8486328,0.0065454543,0.006315794,-0.007669853,0.3,0.86,0.42,10681,10156.90,77,0,3,0.00,-1.19,0.70,0.30,0.86,0.42
1.5478516,-4.5454595E-4,-6.842036E-4,-0.009669852,0.3,0.87,0.42,10704,10156.60,77,0,3,-0.49,-1.68,0.56,0.30,0.87,0.42
2.8486328,0.0015454544,0.0043157935,-6.698519E-4,0.3,0.86,0.42,10726,10157.90,77,0,3,-0.35,-1.33,1.19,0.30,0.86,0.42
-2.4521484,0.002545454,0.0053157955,0.0013301484,0.3,0.86,0.43,10749,10152.60,77,0,3,-0.28,-1.26,1.33,0.30,0.86,0.43
1.1484375,-0.0024545453,0.009315794,0.0123301465,0.3,0.87,0.43,10764,10156.20,77,0,3,-0.63,-0.98,2.10,0.30,0.87,0.43
1.1484375,0.005545454,0.011315796,0.009330148,0.3,0.87,0.42,10786,10156.20,77,0,3,-0.07,-0.84,1.89,0.30,0.87,0.42
2.5478516,0.005545454,0.007315794,0.0013301484,0.3,0.87,0.42,10809,10157.60,77,0,3,-0.07,-1.12,1.33,0.30,0.87,0.42
1.5478516,0.0065454543,0.0043157935,-0.006669853,0.3,0.87,0.42,10823,10156.60,77,0,3,0.00,-1.33,0.77,0.30,0.87,0.42
1.5478516,-0.0014545461,0.0043157935,-0.006669853,0.3,0.86,0.43,10846,10156.60,77,0,3,-0.56,-1.33,0.77,0.30,0.86,0.43
-1.1513672,-0.005454545,0.0043157935,-0.006669853,0.31,0.87,0.42,10861,10153.90,77,0,3,-0.84,-1.33,0.77,0.31,0.87,0.42
2.8486328,5.454547E-4,0.0033157952,-6.698519E-4,0.3,0.87,0.43,10891,10157.90,77,0,3,-0.42,-1.40,1.19,0.30,0.87,0.43
-2.4521484,0.002545454,-0.003684206,0.0013301484,0.3,0.87,0.43,10906,10152.60,77,0,3,-0.28,-1.89,1.33,0.30,0.87,0.43
0.8486328,0.0065454543,-0.0066842046,-0.0026698532,0.31,0.87,0.42,10929,10155.90,77,0,3,0.00,-2.10,1.05,0.31,0.87,0.42
1.5478516,0.008545455,-0.003684206,-0.0026698532,0.3,0.87,0.42,10943,10156.60,77,0,3,0.14,-1.89,1.05,0.30,0.87,0.42
1.1484375,0.009545454,0.002315795,-0.0046698526,0.3,0.86,0.43,10966,10156.20,77,0,3,0.21,-1.47,0.91,0.30,0.86,0.43
1.8486328,0.004545454,0.009315794,-0.007669853,0.3,0.87,0.43,10988,10156.90,77,0,3,-0.14,-0.98,0.70,0.30,0.87,0.43
0.8486328,0.0015454544,0.014315795,-0.0036698524,0.3,0.87,0.42,11011,10155.90,77,0,3,-0.35,-0.63,0.98,0.30,0.87,0.42
0.8486328,0.004545454,0.015315794,-0.0026698532,0.3,0.87,0.43,11026,10155.90,77,0,3,-0.14,-0.56,1.05,0.30,0.87,0.43
1.5478516,0.0035454545,0.014315795,3.301464E-4,0.3,0.86,0.42,11041,10156.60,77,0,3,-0.21,-0.63,1.26,0.30,0.86,0.42
1.8486328,-0.0014545461,0.014315795,0.0063301455,0.3,0.86,0.42,11056,10156.90,77,0,3,-0.56,-0.63,1.68,0.30,0.86,0.42
2.1484375,-0.005454545,0.012315795,0.0073301475,0.3,0.86,0.42,11079,10157.20,77,0,3,-0.84,-0.77,1.75,0.30,0.86,0.42
1.8486328,-0.006454546,0.0103157945,0.0073301475,0.3,0.87,0.43,11109,10156.90,77,84,3,-0.91,-0.91,1.75,0.30,0.87,0.43
2.8486328,-0.0034545455,0.0103157945,0.0073301475,0.3,0.87,0.43,11124,10157.90,77,84,3,-0.70,-0.91,1.75,0.30,0.87,0.43
0.8486328,-0.0024545453,0.006315794,-6.698519E-4,0.3,0.87,0.42,11147,10155.90,77,84,3,-0.63,-1.19,1.19,0.30,0.87,0.42
-0.15136719,0.002545454,0.007315794,-6.698519E-4,0.3,0.87,0.43,11169,10154.90,77,84,3,-0.28,-1.12,1.19,0.30,0.87,0.43
1.8486328,0.0035454545,0.0043157935,-0.0026698532,0.3,0.86,0.43,11184,10156.90,77,84,3,-0.21,-1.33,1.05,0.30,0.86,0.43
0.8486328,0.0035454545,0.0043157935,-0.0036698524,0.3,0.86,0.43,11206,10155.90,77,84,3,-0.21,-1.33,0.98,0.30,0.86,0.43
1.1484375,5.454547E-4,0.0053157955,-6.698519E-4,0.3,0.87,0.43,11229,10156.20,77,84,3,-0.42,-1.26,1.19,0.30,0.87,0.43
0.8486328,0.002545454,0.0043157935,-0.0036698524,0.3,0.87,0.42,11251,10155.90,77,84,3,-0.28,-1.33,0.98,0.30,0.87,0.42
0.8486328,0.005545454,-0.0026842058,3.301464E-4,0.3,0.87,0.42,11274,10155.90,77,84,3,-0.07,-1.82,1.26,0.30,0.87,0.42
1.1484375,0.008545455,-0.0056842044,0.0023301467,0.3,0.86,0.43,11289,10156.20,77,84,3,0.14,-2.03,1.40,0.30,0.86,0.43
0.54785156,0.008545455,-0.0066842046,0.009330148,0.3,0.86,0.43,11305,10155.60,77,84,3,0.14,-2.10,1.89,0.30,0.86,0.43
1.8486328,0.0135454545,-0.011684205,0.021330148,0.3,0.86,0.43,11327,10156.90,77,84,3,0.49,-2.45,2.73,0.30,0.86,0.43
-3.8515625,0.017545454,-0.013684206,0.021330148,0.3,0.87,0.43,11349,10151.20,77,84,3,0.77,-2.59,2.73,0.30,0.87,0.43
6.248047,0.018545453,-0.008684207,0.011330146,0.31,0.87,0.43,11364,10161.30,77,84,3,0.84,-2.24,2.03,0.31,0.87,0.43
-0.15136719,0.031545453,-0.015684206,0.0123301465,0.3,0.87,0.43,11386,10154.90,77,84,3,1.75,-2.73,2.10,0.30,0.87,0.43
0.8486328,0.031545453,-0.013684206,0.010330148,0.31,0.86,0.43,11409,10155.90,77,84,3,1.75,-2.59,1.96,0.31,0.86,0.43
-1.8515625,0.061545454,-0.035684206,0.030330144,0.31,0.87,0.42,11431,10153.20,77,84,3,3.85,-4.13,3.36,0.31,0.87,0.42
-4.8515625,0.07954545,-0.025684208,0.042330146,0.31,0.85,0.43,11456,10150.20,77,84,3,5.11,-3.43,4.20,0.31,0.85,0.43
-11.151367,0.057545453,0.0013157949,0.05033015,0.32,0.86,0.43,11476,10143.90,77,84,3,3.57,-1.54,4.76,0.32,0.86,0.43
-19.251953,0.030545453,0.021315794,0.037330147,0.32,0.87,0.42,11491,10135.80,77,84,3,1.68,-0.14,3.85,0.32,0.87,0.42
-22.851562,0.0135454545,0.024315795,0.017330147,0.33,0.88,0.43,11513,10132.20,77,84,3,0.49,0.07,2.45,0.33,0.88,0.43
-26.952148,0.0135454545,0.013315795,0.0063301455,0.33,0.87,0.42,11528,10128.10,77,84,3,0.49,-0.70,1.68,0.33,0.87,0.42
-30.251953,0.010545455,0.0043157935,0.0023301467,0.32,0.87,0.42,11544,10124.80,77,84,3,0.28,-1.33,1.40,0.32,0.87,0.42
-32.95215,0.004545454,-0.0056842044,3.301464E-4,0.32,0.87,0.43,11567,10122.10,77,84,3,-0.14,-2.03,1.26,0.32,0.87,0.43
-31.952148,-0.013454545,0.0043157935,-0.008669853,0.32,0.87,0.43,11596,10123.10,77,84,3,-1.40,-1.33,0.63,0.32,0.87,0.43
-30.952148,-0.005454545,0.014315795,-0.008669853,0.31,0.87,0.43,11604,10124.10,77,84,3,-0.84,-0.63,0.63,0.31,0.87,0.43
-37.95215,0.0015454544,0.009315794,-0.025669854,0.31,0.87,0.43,11626,10117.10,77,84,3,-0.35,-0.98,-0.56,0.31,0.87,0.43
-31.551758,0.014545455,0.015315794,-0.032669853,0.32,0.87,0.44,11649,10123.50,77,84,3,0.56,-0.56,-1.05,0.32,0.87,0.44
-29.952148,0.036545455,0.021315794,-0.024669852,0.31,0.87,0.44,11671,10125.10,77,84,3,2.10,-0.14,-0.49,0.31,0.87,0.44
-30.251953,0.043545455,0.032315794,-0.027669853,0.31,0.86,0.44,11693,10124.80,77,84,3,2.59,0.63,-0.70,0.31,0.86,0.44
-28.952148,0.032545455,0.045315795,-0.026669852,0.31,0.87,0.44,11716,10126.10,77,84,3,1.82,1.54,-0.63,0.31,0.87,0.44
-27.952148,0.048545454,0.061315797,-0.026669852,0.31,0.87,0.44,11731,10127.10,77,84,3,2.94,2.66,-0.63,0.31,0.87,0.44
-27.952148,0.06354545,0.074315794,-0.027669853,0.31,0.87,0.44,11754,10127.10,77,84,3,3.99,3.57,-0.70,0.31,0.87,0.44
-29.952148,0.07154546,0.0793158,-0.025669854,0.31,0.87,0.44,11769,10125.10,77,84,3,4.55,3.92,-0.56,0.31,0.87,0.44
-25.551758,0.07054546,0.07631579,-0.029669851,0.31,0.87,0.44,11785,10129.50,77,84,3,4.48,3.71,-0.84,0.31,0.87,0.44
-24.952148,0.080545455,0.07631579,-0.030669853,0.31,0.87,0.44,11807,10130.10,77,84,3,5.18,3.71,-0.91,0.31,0.87,0.44
-24.952148,0.07854545,0.089315794,-0.036669854,0.3,0.85,0.45,11822,10130.10,77,84,3,5.04,4.62,-1.33,0.30,0.85,0.45
-23.551758,0.07754545,0.1023158,-0.04766985,0.3,0.86,0.44,11844,10131.50,77,84,3,4.97,5.53,-2.10,0.30,0.86,0.44
-24.952148,0.07754545,0.1123158,-0.042669855,0.3,0.87,0.44,11867,10130.10,77,84,3,4.97,6.23,-1.75,0.30,0.87,0.44
-20.551758,0.08254546,0.108315796,-0.038669854,0.3,0.87,0.44,11888,10134.50,77,84,3,5.32,5.95,-1.47,0.30,0.87,0.44
-22.851562,0.08954545,0.1013158,-0.039669853,0.29,0.86,0.44,11911,10132.20,77,84,3,5.81,5.46,-1.54,0.29,0.86,0.44
-21.851562,0.095545456,0.09531579,-0.046669852,0.29,0.85,0.44,11926,10133.20,77,84,3,6.23,5.04,-2.03,0.29,0.85,0.44
-22.551758,0.091545455,0.0913158,-0.045669854,0.28,0.85,0.44,11951,10132.50,77,85,3,5.95,4.76,-1.96,0.28,0.85,0.44
-21.551758,0.083545454,0.089315794,-0.041669853,0.28,0.86,0.44,11971,10133.50,77,85,3,5.39,4.62,-1.68,0.28,0.86,0.44
-20.851562,0.091545455,0.0903158,-0.029669851,0.28,0.86,0.45,11994,10134.20,77,85,3,5.95,4.69,-0.84,0.28,0.86,0.45
-20.851562,0.094545454,0.08131579,-0.028669853,0.28,0.86,0.44,12016,10134.20,77,85,3,6.16,4.06,-0.77,0.28,0.86,0.44
-19.851562,0.08954545,0.07031579,-0.027669853,0.29,0.86,0.44,12031,10135.20,77,85,3,5.81,3.29,-0.70,0.29,0.86,0.44
-19.551758,0.08954545,0.052315794,-0.027669853,0.29,0.87,0.44,12046,10135.50,77,85,3,5.81,2.03,-0.70,0.29,0.87,0.44
-17.551758,0.08954545,0.039315797,-0.018669853,0.29,0.86,0.44,12061,10137.50,77,85,3,5.81,1.12,-0.07,0.29,0.86,0.44
-17.551758,0.094545454,0.026315795,-0.0026698532,0.28,0.86,0.44,12084,10137.50,77,85,3,6.16,0.21,1.05,0.28,0.86,0.44
-16.551758,0.098545454,0.023315795,0.004330147,0.28,0.87,0.44,12106,10138.50,77,85,3,6.44,0.00,1.54,0.28,0.87,0.44
-15.551758,0.10054545,0.009315794,-0.0046698526,0.29,0.87,0.43,12122,10139.50,77,85,3,6.58,-0.98,0.91,0.29,0.87,0.43
-14.551758,0.109545454,0.006315794,-0.0056698537,0.28,0.88,0.43,12144,10140.50,77,85,3,7.21,-1.19,0.84,0.28,0.88,0.43
-13.551758,0.11554546,-0.0016842056,-0.016669853,0.27,0.88,0.43,12166,10141.50,77,85,3,7.63,-1.75,0.07,0.27,0.88,0.43
-8.551758,0.12254545,-0.004684206,-0.028669853,0.27,0.89,0.42,12193,10146.50,77,85,3,8.12,-1.96,-0.77,0.27,0.89,0.42
-7.8515625,0.13454546,-6.842036E-4,-0.037669852,0.26,0.88,0.41,12211,10147.20,77,85,3,8.96,-1.68,-1.40,0.26,0.88,0.41
-4.4521484,0.13754545,0.009315794,-0.04066985,0.25,0.88,0.41,12226,10150.60,77,85,3,9.17,-0.98,-1.61,0.25,0.88,0.41
0.54785156,0.13754545,0.019315794,-0.043669853,0.25,0.9,0.4,12249,10155.60,77,85,3,9.17,-0.28,-1.82,0.25,0.90,0.40
5.5478516,0.14854544,0.019315794,-0.06666985,0.26,0.9,0.38,12271,10160.60,77,85,3,9.94,-0.28,-3.43,0.26,0.90,0.38
11.547852,0.15654546,0.0013157949,-0.07666986,0.27,0.88,0.38,12287,10166.60,77,85,3,10.50,-1.54,-4.13,0.27,0.88,0.38
13.948242,0.16554545,-0.009684205,-0.07766985,0.28,0.89,0.37,12302,10169.00,77,85,3,11.13,-2.31,-4.20,0.28,0.89,0.37
16.547852,0.15454546,-0.04068421,-0.056669854,0.28,0.89,0.36,12324,10171.60,77,85,3,10.36,-4.48,-2.73,0.28,0.89,0.36
19.547852,0.13554545,-0.0726842,-0.038669854,0.28,0.9,0.35,12346,10174.60,77,85,3,9.03,-6.72,-1.47,0.28,0.90,0.35
13.547852,0.12254545,-0.08468421,-0.027669853,0.27,0.92,0.34,12369,10168.60,77,85,3,8.12,-7.56,-0.70,0.27,0.92,0.34
17.248047,0.11554546,-0.07768421,-0.022669852,0.27,0.92,0.33,12391,10172.30,77,85,3,7.63,-7.07,-0.35,0.27,0.92,0.33
17.948242,0.11054546,-0.06368421,-0.015669852,0.27,0.92,0.31,12421,10173.00,77,85,3,7.28,-6.09,0.14,0.27,0.92,0.31
18.547852,0.10054545,-0.056684203,-0.016669853,0.27,0.91,0.3,12429,10173.60,77,85,3,6.58,-5.60,0.07,0.27,0.91,0.30
17.547852,0.08554546,-0.05168421,-0.014669853,0.26,0.92,0.29,12452,10172.60,77,85,3,5.53,-5.25,0.21,0.26,0.92,0.29
18.547852,0.07954545,-0.04468421,-0.016669853,0.26,0.94,0.28,12481,10173.60,77,85,3,5.11,-4.76,0.07,0.26,0.94,0.28
18.547852,0.07854545,-0.032684207,-0.024669852,0.26,0.93,0.27,12504,10173.60,77,85,3,5.04,-3.92,-0.49,0.26,0.93,0.27
21.948242,0.08554546,-0.024684202,-0.020669853,0.27,0.93,0.26,12519,10177.00,77,85,3,5.53,-3.36,-0.21,0.27,0.93,0.26
17.547852,0.080545455,-0.023684204,-0.013669852,0.27,0.92,0.26,12534,10172.60,77,85,3,5.18,-3.29,0.28,0.27,0.92,0.26
17.948242,0.073545456,-0.028684206,-0.0046698526,0.27,0.92,0.25,12549,10173.00,77,85,3,4.69,-3.64,0.91,0.27,0.92,0.25
19.248047,0.06854546,-0.038684208,3.301464E-4,0.27,0.92,0.25,12572,10174.30,77,85,3,4.34,-4.34,1.26,0.27,0.92,0.25
18.547852,0.076545455,-0.043684207,0.018330146,0.28,0.93,0.24,12586,10173.60,77,85,3,4.90,-4.69,2.52,0.28,0.93,0.24
10.547852,0.091545455,-0.04068421,0.04933015,0.28,0.92,0.24,12616,10165.60,77,85,3,5.95,-4.48,4.69,0.28,0.92,0.24
16.547852,0.10354546,-0.025684208,0.09233014,0.28,0.91,0.24,12631,10171.60,77,85,3,6.79,-3.43,7.70,0.28,0.91,0.24
17.547852,0.09754545,-0.012684204,0.13433015,0.29,0.91,0.25,12661,10172.60,77,85,3,6.37,-2.52,10.64,0.29,0.91,0.25
15.547852,0.09054545,0.008315795,0.17533015,0.29,0.91,0.24,12668,10170.60,77,85,3,5.88,-1.05,13.51,0.29,0.91,0.24
15.948242,0.080545455,0.035315793,0.20433015,0.3,0.92,0.24,12691,10171.00,77,85,3,5.18,0.84,15.54,0.30,0.92,0.24
15.948242,0.07454546,0.050315797,0.21733016,0.31,0.94,0.23,12714,10171.00,77,85,3,4.76,1.89,16.45,0.31,0.94,0.23
16.547852,0.07454546,0.06931579,0.21133016,0.32,0.93,0.24,12737,10171.60,77,85,3,4.76,3.22,16.03,0.32,0.93,0.24
14.948242,0.07554545,0.0873158,0.20833014,0.34,0.93,0.24,12759,10170.00,77,85,3,4.83,4.48,15.82,0.34,0.93,0.24
16.547852,0.065545455,0.086315796,0.18733014,0.33,0.94,0.24,12774,10171.60,77,85,3,4.13,4.41,14.35,0.33,0.94,0.24
15.948242,0.06854546,0.0913158,0.16233015,0.33,0.96,0.23,12788,10171.00,77,85,3,4.34,4.76,12.60,0.33,0.96,0.23
15.248047,0.084545456,0.10631579,0.13033015,0.31,0.96,0.23,12804,10170.30,77,85,3,5.46,5.81,10.36,0.31,0.96,0.23
17.948242,0.07754545,0.1363158,0.09233014,0.31,0.92,0.25,12826,10173.00,0,86,3,4.97,7.91,7.70,0.31,0.92,0.25
14.948242,0.045545455,0.1453158,0.06533015,0.3,0.96,0.24,12849,10170.00,0,86,3,2.73,8.54,5.81,0.30,0.96,0.24
14.948242,0.046545453,0.1383158,0.047330152,0.31,0.96,0.22,12879,10170.00,0,86,3,2.80,8.05,4.55,0.31,0.96,0.22
15.248047,0.07054546,0.1203158,0.042330146,0.33,0.93,0.21,12908,10170.30,0,86,3,4.48,6.79,4.20,0.33,0.93,0.21
14.948242,0.084545456,0.0903158,0.06733015,0.34,0.9,0.23,12923,10170.00,0,86,3,5.46,4.69,5.95,0.34,0.90,0.23
13.948242,0.065545455,0.044315793,0.09533015,0.34,0.9,0.24,12939,10169.00,0,86,3,4.13,1.47,7.91,0.34,0.90,0.24
14.248047,0.050545454,0.011315796,0.123330146,0.33,0.9,0.24,12954,10169.30,0,86,3,3.08,-0.84,9.87,0.33,0.90,0.24
13.948242,0.06454545,0.020315794,0.13633014,0.3,0.92,0.23,12977,10169.00,0,86,3,4.06,-0.21,10.78,0.30,0.92,0.23
12.848633,0.058545455,0.037315793,0.122330144,0.31,0.89,0.26,12999,10167.90,0,86,3,3.64,0.98,9.80,0.31,0.89,0.26
13.248047,0.014545455,0.038315795,0.13733014,0.36,0.84,0.28,13013,10168.30,0,86,3,0.56,1.05,10.85,0.36,0.84,0.28
9.248047,-0.032454547,0.024315795,0.19633013,0.39,0.82,0.3,13028,10164.30,0,86,3,-2.73,0.07,14.98,0.39,0.82,0.30
11.848633,-0.066454545,0.018315796,0.26233014,0.39,0.87,0.29,13051,10166.90,0,86,3,-5.11,-0.35,19.60,0.39,0.87,0.29
11.248047,-0.043454546,0.028315794,0.30033013,0.38,0.92,0.28,13066,10166.30,0,86,3,-3.50,0.35,22.26,0.38,0.92,0.28
11.848633,0.030545453,0.08131579,0.32333016,0.4,0.9,0.29,13081,10166.90,0,86,3,1.68,4.06,23.87,0.40,0.90,0.29
12.848633,0.06854546,0.1013158,0.32933015,0.4,0.89,0.32,13104,10167.90,0,86,3,4.34,5.46,24.29,0.40,0.89,0.32
13.248047,0.08654545,0.10731579,0.32033014,0.39,0.96,0.31,13126,10168.30,0,86,3,5.60,5.88,23.66,0.39,0.96,0.31
12.848633,0.16954546,0.1383158,0.28533012,0.32,1.02,0.31,13148,10167.90,0,86,3,11.41,8.05,21.21,0.32,1.02,0.31
11.248047,0.22354545,0.19731581,0.16533016,0.27,1.01,0.31,13171,10166.30,0,86,3,15.19,12.18,12.81,0.27,1.01,0.31
11.248047,0.21754546,0.2213158,-0.007669853,0.24,0.97,0.29,13194,10166.30,0,86,3,14.77,13.86,0.70,0.24,0.97,0.29
8.848633,0.19554545,0.2303158,-0.14266986,0.24,0.93,0.29,13209,10163.90,0,86,3,13.23,14.49,-8.75,0.24,0.93,0.29
8.248047,0.15954545,0.21531579,-0.20066987,0.26,0.88,0.3,13231,10163.30,0,86,3,10.71,13.44,-12.81,0.26,0.88,0.30
5.848633,0.11954545,0.1863158,-0.18766986,0.31,0.83,0.33,13254,10160.90,0,86,3,7.91,11.41,-11.90,0.31,0.83,0.33
2.8486328,0.049545456,0.1093158,-0.16666986,0.35,0.8,0.36,13276,10157.90,0,86,3,3.01,6.02,-10.43,0.35,0.80,0.36
1.1484375,-0.025454547,0.029315794,-0.14466986,0.37,0.82,0.37,13290,10156.20,0,86,3,-2.24,0.42,-8.89,0.37,0.82,0.37
-5.8515625,-0.073454544,-0.025684208,-0.09366986,0.4,0.85,0.37,13305,10149.20,0,86,3,-5.60,-3.43,-5.32,0.40,0.85,0.37
-9.8515625,-0.07945455,-0.06968421,0.0123301465,0.39,0.9,0.38,13328,10145.20,0,86,3,-6.02,-6.51,2.10,0.39,0.90,0.38
-16.851562,-0.06845455,-0.068684205,0.07433015,0.37,0.93,0.38,13351,10138.20,0,86,3,-5.25,-6.44,6.44,0.37,0.93,0.38
-21.851562,-0.066454545,-0.07368421,0.07033014,0.35,0.92,0.38,13374,10133.20,0,86,3,-5.11,-6.79,6.16,0.35,0.92,0.38
-24.851562,-0.08645455,-0.0936842,0.051330145,0.37,0.9,0.38,13397,10130.20,0,86,3,-6.51,-8.19,4.83,0.37,0.90,0.38
-22.551758,-0.08645455,-0.1226842,0.056330148,0.38,0.89,0.38,13411,10132.50,0,86,3,-6.51,-10.22,5.18,0.38,0.89,0.38
-22.551758,-0.06445454,-0.1516842,0.047330152,0.37,0.9,0.37,13434,10132.50,0,86,3,-4.97,-12.25,4.55,0.37,0.90,0.37
-20.851562,-0.07945455,-0.19868422,-0.011669854,0.36,0.92,0.39,13456,10134.20,0,86,3,-6.02,-15.54,0.42,0.36,0.92,0.39
-25.952148,-0.14045455,-0.25168422,-0.08666985,0.34,0.9,0.4,13486,10129.10,0,86,3,-10.29,-19.25,-4.83,0.34,0.90,0.40
-22.851562,-0.18145454,-0.2596842,-0.16866985,0.31,0.88,0.41,13501,10132.20,0,86,3,-13.16,-19.81,-10.57,0.31,0.88,0.41
-21.251953,-0.20745453,-0.24968421,-0.22766985,0.28,0.86,0.41,13524,10133.80,0,86,3,-14.98,-19.11,-14.70,0.28,0.86,0.41
-19.551758,-0.19845454,-0.2296842,-0.26966986,0.28,0.83,0.41,13547,10135.50,0,86,3,-14.35,-17.71,-17.64,0.28,0.83,0.41
-17.551758,-0.16945454,-0.1886842,-0.27766988,0.3,0.8,0.4,13555,10137.50,0,86,3,-12.32,-14.84,-18.20,0.30,0.80,0.40
-16.551758,-0.14145455,-0.1326842,-0.26766986,0.33,0.77,0.4,13577,10138.50,0,86,3,-10.36,-10.92,-17.50,0.33,0.77,0.40
-15.551758,-0.13045456,-0.0926842,-0.22066985,0.35,0.79,0.4,13599,10139.50,0,86,3,-9.59,-8.12,-14.21,0.35,0.79,0.40
-14.551758,-0.13045456,-0.064684205,-0.17666985,0.35,0.82,0.4,13614,10140.50,0,86,3,-9.59,-6.16,-11.13,0.35,0.82,0.40
-15.551758,-0.12845454,-0.071684204,-0.14066985,0.37,0.88,0.39,13637,10139.50,0,86,3,-9.45,-6.65,-8.61,0.37,0.88,0.39
-15.551758,-0.12445454,-0.0966842,-0.08466986,0.4,0.89,0.39,13659,10139.50,0,86,3,-9.17,-8.40,-4.69,0.40,0.89,0.39
-21.551758,-0.11245454,-0.1256842,-0.023669852,0.4,0.93,0.39,13681,10133.50,0,86,3,-8.33,-10.43,-0.42,0.40,0.93,0.39
-15.8515625,-0.09145455,-0.12968421,0.03833015,0.39,0.94,0.4,13704,10139.20,0,86,3,-6.86,-10.71,3.92,0.39,0.94,0.40
-15.8515625,-0.059454545,-0.09868421,0.091330156,0.37,0.92,0.39,13719,10139.20,0,86,3,-4.62,-8.54,7.63,0.37,0.92,0.39
-14.551758,-0.023454545,-0.05568421,0.10633016,0.34,0.92,0.34,13742,10140.50,0,86,3,-2.10,-5.53,8.68,0.34,0.92,0.34
-15.151367,0.038545456,-0.029684205,0.08233015,0.3,0.92,0.31,13764,10139.90,0,86,3,2.24,-3.71,7.00,0.30,0.92,0.31
-13.551758,0.08154546,-0.013684206,0.04433015,0.28,0.91,0.29,13779,10141.50,0,86,3,5.25,-2.59,4.34,0.28,0.91,0.29
-14.151367,0.11854546,-0.004684206,0.016330149,0.25,0.89,0.28,13793,10140.90,0,86,3,7.84,-1.96,2.38,0.25,0.89,0.28
-13.551758,0.12954545,0.007315794,-0.018669853,0.24,0.89,0.29,13824,10141.50,0,86,3,8.61,-1.12,-0.07,0.24,0.89,0.29
-11.551758,0.11154545,0.024315795,-0.016669853,0.25,0.88,0.3,13832,10143.50,0,86,3,7.35,0.07,0.07,0.25,0.88,0.30
-10.151367,0.076545455,0.051315796,0.029330146,0.26,0.88,0.3,13853,10144.90,0,86,3,4.90,1.96,3.29,0.26,0.88,0.30
-9.151367,0.043545455,0.071315795,0.09033015,0.27,0.86,0.32,13876,10145.90,0,86,3,2.59,3.36,7.56,0.27,0.86,0.32
-9.151367,-0.007454546,0.08331579,0.14233014,0.28,0.88,0.34,13898,10145.90,0,86,3,-0.98,4.20,11.20,0.28,0.88,0.34
-8.151367,-0.044454545,0.09631579,0.16733015,0.29,0.9,0.34,13921,10146.90,0,86,3,-3.57,5.11,12.95,0.29,0.90,0.34
-8.151367,-0.024454547,0.14331579,0.17733014,0.29,0.92,0.32,13936,10146.90,0,86,3,-2.17,8.40,13.65,0.29,0.92,0.32
-10.151367,0.0065454543,0.1723158,0.15433015,0.3,0.91,0.31,13958,10144.90,0,86,3,0.00,10.43,12.04,0.30,0.91,0.31
-4.4521484,0.045545455,0.2213158,0.13333014,0.31,0.91,0.31,13981,10150.60,0,86,3,2.73,13.86,10.57,0.31,0.91,0.31
-2.4521484,0.06854546,0.2653158,0.13333014,0.32,0.88,0.31,14004,10152.60,0,86,3,4.34,16.94,10.57,0.32,0.88,0.31
-2.1513672,0.062545456,0.3053158,0.14433014,0.32,0.86,0.32,14019,10152.90,0,86,3,3.92,19.74,11.34,0.32,0.86,0.32
-0.15136719,0.044545457,0.3403158,0.16233015,0.32,0.86,0.32,14034,10154.90,0,86,3,2.66,22.19,12.60,0.32,0.86,0.32
3.8486328,0.023545455,0.3563158,0.18033014,0.35,0.89,0.3,14071,10158.90,0,86,3,1.19,23.31,13.86,0.35,0.89,0.30
6.248047,0.019545455,0.3493158,0.20833014,0.38,0.9,0.29,14073,10161.30,0,86,3,0.91,22.82,15.82,0.38,0.90,0.29
8.547852,0.012545453,0.3173158,0.25333014,0.41,0.91,0.29,14101,10163.60,0,86,3,0.42,20.58,18.97,0.41,0.91,0.29
6.848633,0.004545454,0.2473158,0.27433014,0.43,0.92,0.27,14116,10161.90,0,86,3,-0.14,15.68,20.44,0.43,0.92,0.27
14.948242,0.0065454543,0.14331579,0.25233012,0.45,0.93,0.25,14131,10170.00,0,86,3,0.00,8.40,18.90,0.45,0.93,0.25
18.248047,0.028545454,0.028315794,0.21333015,0.46,0.92,0.24,14161,10173.30,0,86,3,1.54,0.35,16.17,0.46,0.92,0.24
18.948242,0.039545454,-0.0896842,0.14533015,0.43,0.92,0.25,14176,10174.00,0,86,3,2.31,-7.91,11.41,0.43,0.92,0.25
22.248047,0.030545453,-0.2026842,0.06033015,0.42,0.91,0.28,14198,10177.30,0,86,3,1.68,-15.82,5.46,0.42,0.91,0.28
23.248047,0.022545455,-0.27268422,-0.009669852,0.43,0.92,0.26,14221,10178.30,0,86,3,1.12,-20.72,0.56,0.43,0.92,0.26
17.948242,0.056545455,-0.2976842,-0.03366985,0.42,0.91,0.26,14236,10173.00,0,86,3,3.50,-22.47,-1.12,0.42,0.91,0.26
22.248047,0.056545455,-0.28768423,-0.055669855,0.41,0.89,0.28,14259,10177.30,0,86,3,3.50,-21.77,-2.66,0.41,0.89,0.28
21.248047,0.026545454,-0.27268422,-0.09266986,0.39,0.88,0.3,14274,10176.30,0,86,3,1.40,-20.72,-5.25,0.39,0.88,0.30
21.248047,-0.012454547,-0.25168422,-0.12466985,0.39,0.89,0.3,14296,10176.30,0,86,3,-1.33,-19.25,-7.49,0.39,0.89,0.30
22.248047,-0.011454545,-0.2046842,-0.12466985,0.39,0.92,0.27,14311,10177.30,0,86,3,-1.26,-15.96,-7.49,0.39,0.92,0.27
22.948242,0.046545453,-0.11268421,-0.11166985,0.36,0.96,0.27,14325,10178.00,0,86,3,2.80,-9.52,-6.58,0.36,0.96,0.27
20.248047,0.076545455,-0.030684207,-0.15466987,0.33,0.94,0.27,14349,10175.30,0,86,3,4.90,-3.78,-9.59,0.33,0.94,0.27
21.948242,0.056545455,0.014315795,-0.23866986,0.32,0.9,0.28,14378,10177.00,0,86,3,3.50,-0.63,-15.47,0.32,0.90,0.28
21.248047,0.040545456,0.053315796,-0.26866984,0.33,0.86,0.26,14393,10176.30,0,86,3,2.38,2.10,-17.57,0.33,0.86,0.26
21.248047,0.030545453,0.06931579,-0.23666985,0.36,0.85,0.26,14416,10176.30,0,86,3,1.68,3.22,-15.33,0.36,0.85,0.26
21.248047,0.016545454,0.067315795,-0.16666986,0.39,0.84,0.27,14440,10176.30,0,86,3,0.70,3.08,-10.43,0.39,0.84,0.27
21.248047,0.0015454544,0.048315793,-0.09466985,0.39,0.83,0.28,14461,10176.30,0,86,3,-0.35,1.75,-5.39,0.39,0.83,0.28
23.248047,-0.029454544,0.019315794,-0.06666985,0.39,0.87,0.29,14476,10178.30,0,86,3,-2.52,-0.28,-3.43,0.39,0.87,0.29
21.648438,-0.038454548,-6.842036E-4,-0.061669853,0.36,0.91,0.3,14498,10176.70,77,86,3,-3.15,-1.68,-3.08,0.36,0.91,0.30
20.248047,-0.034454543,-0.003684206,-0.09266986,0.35,0.92,0.31,14529,10175.30,77,86,3,-2.87,-1.89,-5.25,0.35,0.92,0.31
19.248047,-0.032454547,0.013315795,-0.100669846,0.36,0.92,0.32,14537,10174.30,77,86,3,-2.73,-0.70,-5.81,0.36,0.92,0.32
19.648438,-0.024454547,0.048315793,-0.09566985,0.33,0.92,0.33,14551,10174.70,77,86,3,-2.17,1.75,-5.46,0.33,0.92,0.33
18.547852,0.021545455,0.1523158,-0.09666985,0.29,0.92,0.36,14573,10173.60,77,86,3,1.05,9.03,-5.53,0.29,0.92,0.36
19.248047,0.065545455,0.32231578,-0.12166986,0.25,0.93,0.4,14596,10174.30,77,86,3,4.13,20.93,-7.28,0.25,0.93,0.40
18.547852,0.106545456,0.5693158,-0.14066985,0.23,0.93,0.43,14619,10173.60,77,86,3,7.00,38.22,-8.61,0.23,0.93,0.43
19.648438,0.13454546,0.86331576,-0.17066985,0.2,0.94,0.45,14641,10174.70,77,86,3,8.96,58.80,-10.71,0.20,0.94,0.45
18.547852,0.17154546,1.1113158,-0.21266985,0.19,0.95,0.45,14664,10173.60,77,86,3,11.55,76.16,-13.65,0.19,0.95,0.45
18.948242,0.22754546,1.3513157,-0.24666987,0.19,0.95,0.45,14686,10174.00,77,86,3,15.47,92.96,-16.03,0.19,0.95,0.45
19.648438,0.25954545,1.5443158,-0.26466987,0.22,0.94,0.44,14709,10174.70,77,86,3,17.71,106.47,-17.29,0.22,0.94,0.44
18.948242,0.28454545,1.6813158,-0.24766986,0.25,0.93,0.41,14723,10174.00,77,86,3,19.46,116.06,-16.10,0.25,0.93,0.41
20.648438,0.31854546,1.7213157,-0.18166985,0.29,0.9,0.37,14746,10175.70,77,86,3,21.84,118.86,-11.48,0.29,0.90,0.37
17.547852,0.35354546,1.6843157,-0.08466986,0.32,0.88,0.35,14768,10172.60,77,86,3,24.29,116.27,-4.69,0.32,0.88,0.35
19.648438,0.38154545,1.6373159,0.005330147,0.31,0.86,0.35,14784,10174.70,77,86,3,26.25,112.98,1.61,0.31,0.86,0.35
19.648438,0.38854545,1.5913159,0.09733015,0.3,0.85,0.36,14806,10174.70,77,86,3,26.74,109.76,8.05,0.30,0.85,0.36
18.948242,0.37054545,1.5083158,0.17733014,0.28,0.87,0.36,14828,10174.00,77,86,3,25.48,103.95,13.65,0.28,0.87,0.36
18.547852,0.34754547,1.4003158,0.20733014,0.27,0.9,0.33,14844,10173.60,77,86,3,23.87,96.39,15.75,0.27,0.90,0.33
17.547852,0.32754543,1.2693158,0.22433016,0.26,0.91,0.31,14866,10172.60,77,86,3,22.47,87.22,16.94,0.26,0.91,0.31
17.948242,0.31754547,1.1553158,0.24533015,0.25,0.92,0.31,14889,10173.00,77,86,3,21.77,79.24,18.41,0.25,0.92,0.31
10.948242,0.29954547,1.0543158,0.26733014,0.22,0.91,0.31,14912,10166.00,77,86,3,20.51,72.17,19.95,0.22,0.91,0.31
21.948242,0.28754544,0.95731574,0.26833016,0.2,0.92,0.32,14933,10177.00,77,86,3,19.67,65.38,20.02,0.20,0.92,0.32
17.648438,0.28054547,0.8923158,0.26533014,0.19,0.92,0.35,14957,10172.70,77,86,3,19.18,60.83,19.81,0.19,0.92,0.35
15.948242,0.29054543,0.8573158,0.25933012,0.18,0.95,0.36,14971,10171.00,77,86,3,19.88,58.38,19.39,0.18,0.95,0.36
15.948242,0.29654545,0.8253158,0.22233014,0.18,0.96,0.35,14993,10171.00,77,86,3,20.30,56.14,16.80,0.18,0.96,0.35
15.547852,0.30154544,0.79031575,0.17433013,0.17,0.96,0.34,15016,10170.60,77,86,3,20.65,53.69,13.44,0.17,0.96,0.34
14.948242,0.31654546,0.7603158,0.13333014,0.17,0.96,0.33,15031,10170.00,77,86,3,21.70,51.59,10.57,0.17,0.96,0.33
15.248047,0.33054546,0.7313158,0.11233015,0.18,0.95,0.33,15046,10170.30,77,86,3,22.68,49.56,9.10,0.18,0.95,0.33
11.948242,0.33854544,0.6993158,0.08833015,0.18,0.95,0.33,15069,10167.00,77,86,3,23.24,47.32,7.42,0.18,0.95,0.33
12.248047,0.35354546,0.6683158,0.07533015,0.17,0.94,0.33,15084,10167.30,77,86,3,24.29,45.15,6.51,0.17,0.94,0.33
10.948242,0.35654545,0.6383158,0.059330147,0.15,0.94,0.32,15105,10166.00,77,86,3,24.50,43.05,5.39,0.15,0.94,0.32
10.248047,0.34254545,0.6073158,0.033330146,0.15,0.94,0.31,15128,10165.30,77,86,3,23.52,40.88,3.57,0.15,0.94,0.31
2.2480469,0.32354546,0.5653158,3.301464E-4,0.14,0.95,0.29,15151,10157.30,77,86,3,22.19,37.94,1.26,0.14,0.95,0.29
5.248047,0.30354548,0.5223158,-0.025669854,0.15,0.93,0.29,15173,10160.30,77,86,3,20.79,34.93,-0.56,0.15,0.93,0.29
-0.8515625,0.29454544,0.48931578,-0.023669852,0.14,0.95,0.28,15189,10154.20,77,86,3,20.16,32.62,-0.42,0.14,0.95,0.28
-4.8515625,0.30054545,0.4823158,-0.016669853,0.12,0.96,0.28,15211,10150.20,77,86,3,20.58,32.13,0.07,0.12,0.96,0.28
-8.151367,0.28154546,0.4593158,-0.039669853,0.11,0.95,0.28,15234,10146.90,77,86,3,19.25,30.52,-1.54,0.11,0.95,0.28
-8.8515625,0.24954545,0.4143158,-0.07866985,0.11,0.96,0.26,15256,10146.20,77,86,3,17.01,27.37,-4.27,0.11,0.96,0.26
-8.8515625,0.22354545,0.3563158,-0.11766985,0.12,0.96,0.24,15286,10146.20,77,86,3,15.19,23.31,-7.00,0.12,0.96,0.24
-9.8515625,0.21554546,0.31131577,-0.12566985,0.12,0.96,0.24,15294,10145.20,77,86,3,14.63,20.16,-7.56,0.12,0.96,0.24
-10.551758,0.21654545,0.2703158,-0.12366985,0.11,0.96,0.24,15309,10144.50,77,86,3,14.70,17.29,-7.42,0.11,0.96,0.24
-9.8515625,0.20854546,0.2353158,-0.10766986,0.1,0.95,0.24,15331,10145.20,77,86,3,14.14,14.84,-6.30,0.10,0.95,0.24
-7.4521484,0.18654546,0.2003158,-0.10366985,0.09,0.96,0.24,15361,10147.60,77,86,3,12.60,12.39,-6.02,0.09,0.96,0.24
-9.452148,0.15454546,0.1543158,-0.11566986,0.09,0.97,0.24,15369,10145.60,80,86,3,10.36,9.17,-6.86,0.09,0.97,0.24
-9.8515625,0.14254546,0.10531579,-0.13066985,0.09,0.98,0.24,15391,10145.20,80,86,3,9.52,5.74,-7.91,0.09,0.98,0.24
-8.8515625,0.14354546,0.08331579,-0.13566986,0.07,0.98,0.24,15413,10146.20,80,86,3,9.59,4.20,-8.26,0.07,0.98,0.24
-8.8515625,0.14954546,0.0733158,-0.14266986,0.05,0.99,0.24,15436,10146.20,80,86,3,10.01,3.50,-8.75,0.05,0.99,0.24
-7.4521484,0.16054545,0.0733158,-0.15766986,0.04,0.99,0.23,15458,10147.60,80,86,3,10.78,3.50,-9.80,0.04,0.99,0.23
-7.4521484,0.16354544,0.071315795,-0.18666986,0.03,0.98,0.23,15481,10147.60,80,86,3,10.99,3.36,-11.83,0.03,0.98,0.23
-7.4521484,0.16654545,0.061315797,-0.20266986,0.04,0.98,0.22,15497,10147.60,80,86,3,11.20,2.66,-12.95,0.04,0.98,0.22
-5.4521484,0.16654545,0.048315793,-0.20166986,0.04,0.98,0.21,15519,10149.60,80,86,3,11.20,1.75,-12.88,0.04,0.98,0.21
-9.452148,0.16154546,0.040315796,-0.19166987,0.05,0.97,0.21,15534,10145.60,80,86,3,10.85,1.19,-12.18,0.05,0.97,0.21
-6.4521484,0.15554546,0.027315795,-0.17566986,0.04,0.97,0.21,15564,10148.60,80,86,3,10.43,0.28,-11.06,0.04,0.97,0.21
-5.4521484,0.14554545,0.018315796,-0.16166985,0.03,0.97,0.21,15572,10149.60,80,86,3,9.73,-0.35,-10.08,0.03,0.97,0.21
-5.4521484,0.12154546,0.007315794,-0.14766987,0.02,0.97,0.21,15589,10149.60,80,86,3,8.05,-1.12,-9.10,0.02,0.97,0.21
-6.4521484,0.09754545,-0.0076842066,-0.13866986,0.02,0.98,0.2,15609,10148.60,80,86,3,6.37,-2.17,-8.47,0.02,0.98,0.20
-3.8515625,0.07854545,-0.019684207,-0.122669846,0.04,0.96,0.19,15631,10151.20,80,86,3,5.04,-3.01,-7.35,0.04,0.96,0.19
-6.151367,0.049545456,-0.057684205,-0.10866985,0.05,0.96,0.18,15654,10148.90,80,86,3,3.01,-5.67,-6.37,0.05,0.96,0.18
-4.4521484,0.019545455,-0.11268421,-0.11166985,0.04,0.97,0.17,15675,10150.60,80,86,3,0.91,-9.52,-6.58,0.04,0.97,0.17
-3.8515625,0.0135454545,-0.1576842,-0.12566985,0.04,0.99,0.18,15691,10151.20,80,86,3,0.49,-12.67,-7.56,0.04,0.99,0.18
-4.151367,0.010545455,-0.19168422,-0.12866986,0.05,0.98,0.18,15714,10150.90,80,86,3,0.28,-15.05,-7.77,0.05,0.98,0.18
-2.1513672,-0.0044545457,-0.21268421,-0.10866985,0.05,0.96,0.2,15737,10152.90,80,86,3,-0.77,-16.52,-6.37,0.05,0.96,0.20
-1.7519531,-0.04245455,-0.21868423,-0.05866985,0.06,0.94,0.2,15759,10153.30,80,86,3,-3.43,-16.94,-2.87,0.06,0.94,0.20
-3.4521484,-0.088454545,-0.2276842,0.0013301484,0.06,0.93,0.2,15774,10151.60,80,86,3,-6.65,-17.57,1.33,0.06,0.93,0.20
-2.4521484,-0.14245455,-0.23768422,0.064330146,0.06,0.93,0.19,15788,10152.60,80,86,3,-10.43,-18.27,5.74,0.06,0.93,0.19
-0.8515625,-0.17545454,-0.25568423,0.101330146,-0.01,1.02,0.14,15804,10154.20,80,86,3,-12.74,-19.53,8.33,-0.01,1.02,0.14
-0.15136719,-0.027454548,-0.2686842,-0.036669854,-0.09,1.19,0.08,15826,10154.90,80,86,3,-2.38,-20.44,-1.33,-0.09,1.19,0.08
-1.1513672,0.26254547,-0.18268421,-0.31466988,-0.02,1.18,0.17,15850,10153.90,80,86,3,17.92,-14.42,-20.79,-0.02,1.18,0.17
1.2480469,0.42054546,-0.106684215,-0.44266987,0.06,1.06,0.24,15872,10156.30,80,86,3,28.98,-9.10,-29.75,0.06,1.06,0.24
1.8486328,0.43654546,-0.06668421,-0.44866985,0.08,0.98,0.24,15893,10156.90,80,86,3,30.10,-6.30,-30.17,0.08,0.98,0.24
3.2480469,0.37454545,-0.034684204,-0.38066986,0.06,0.94,0.21,15917,10158.30,80,86,3,25.76,-4.06,-25.41,0.06,0.94,0.21
5.5478516,0.29754546,-0.026684206,-0.28166986,0.03,0.93,0.19,15939,10160.60,80,86,3,20.37,-3.50,-18.48,0.03,0.93,0.19
6.248047,0.22154546,-0.025684208,-0.16366985,0.02,0.93,0.17,15954,10161.30,80,86,3,15.05,-3.43,-10.22,0.02,0.93,0.17
9.248047,0.15054545,-0.003684206,-0.05366985,0.01,0.93,0.16,15976,10164.30,80,86,3,10.08,-1.89,-2.52,0.01,0.93,0.16
10.248047,0.091545455,0.020315794,0.04533015,-0.02,0.95,0.13,15998,10165.30,80,86,3,5.95,-0.21,4.41,-0.02,0.95,0.13
12.248047,0.080545455,0.032315794,0.078330144,-0.04,0.99,0.11,16021,10167.30,80,86,3,5.18,0.63,6.72,-0.04,0.99,0.11
16.248047,0.09754545,0.04731579,0.06333014,-0.05,1.0,0.12,16043,10171.30,80,86,3,6.37,1.68,5.67,-0.05,1.00,0.12
19.248047,0.109545454,0.044315793,0.042330146,-0.04,1.0,0.12,16051,10174.30,80,86,3,7.21,1.47,4.20,-0.04,1.00,0.12
20.248047,0.117545456,0.046315797,0.005330147,-0.02,0.98,0.12,16066,10175.30,80,86,3,7.77,1.61,1.61,-0.02,0.98,0.12
22.248047,0.10054545,0.040315796,0.0023301467,0.01,0.98,0.13,16096,10177.30,80,86,3,6.58,1.19,1.40,0.01,0.98,0.13
23.648438,0.084545456,0.044315793,0.03433015,0.02,0.99,0.13,16111,10178.70,80,86,3,5.46,1.47,3.64,0.02,0.99,0.13
20.248047,0.091545455,0.044315793,0.052330147,0.02,0.99,0.12,16133,10175.30,80,86,3,5.95,1.47,4.90,0.02,0.99,0.12
25.648438,0.095545456,0.042315796,0.051330145,0.01,0.99,0.12,16156,10180.70,80,86,3,6.23,1.33,4.83,0.01,0.99,0.12
24.648438,0.087545455,0.032315794,0.027330149,0.02,1.03,0.1,16172,10179.70,80,86,3,5.67,0.63,3.15,0.02,1.03,0.10
24.648438,0.10754546,0.021315794,0.0023301467,0.02,1.05,0.08,16194,10179.70,80,86,3,7.07,-0.14,1.40,0.02,1.05,0.08
24.648438,0.13354546,0.0043157935,-0.023669852,0.02,1.03,0.08,16217,10179.70,80,86,3,8.89,-1.33,-0.42,0.02,1.03,0.08
24.648438,0.14354546,3.1579472E-4,-0.041669853,0.0,1.03,0.08,16239,10179.70,80,86,3,9.59,-1.61,-1.68,0.00,1.03,0.08
24.648438,0.13654546,-0.0066842046,-0.07766985,-0.02,1.02,0.09,16261,10179.70,80,86,3,9.10,-2.10,-4.20,-0.02,1.02,0.09
22.648438,0.117545456,-0.004684206,-0.12066986,-0.02,1.0,0.09,16284,10177.70,80,86,3,7.77,-1.96,-7.21,-0.02,1.00,0.09
24.648438,0.10754546,3.1579472E-4,-0.13766985,-0.02,0.98,0.08,16298,10179.70,80,86,3,7.07,-1.61,-8.40,-0.02,0.98,0.08
22.648438,0.11254545,0.008315795,-0.13266985,-0.02,0.99,0.08,16313,10177.70,80,86,3,7.42,-1.05,-8.05,-0.02,0.99,0.08
21.648438,0.11954545,0.028315794,-0.11366984,-0.03,0.99,0.09,16336,10176.70,80,86,3,7.91,0.35,-6.72,-0.03,0.99,0.09
21.648438,0.11954545,0.050315797,-0.09866986,-0.03,0.99,0.08,16358,10176.70,80,86,3,7.91,1.89,-5.67,-0.03,0.99,0.08
20.648438,0.10754546,0.062315796,-0.08766985,-0.03,0.98,0.08,16373,10175.70,80,86,3,7.07,2.73,-4.90,-0.03,0.98,0.08
20.948242,0.08654545,0.061315797,-0.06766985,-0.02,0.97,0.08,16396,10176.00,80,86,3,5.60,2.66,-3.50,-0.02,0.97,0.08
20.948242,0.057545453,0.063315794,-0.028669853,-0.01,0.96,0.09,16418,10176.00,80,86,3,3.57,2.80,-0.77,-0.01,0.96,0.09
20.948242,0.018545453,0.057315797,0.017330147,-0.01,0.98,0.09,16441,10176.00,80,86,3,0.84,2.38,2.45,-0.01,0.98,0.09
19.648438,-0.010454547,0.054315798,0.041330148,-0.01,0.99,0.09,16464,10174.70,80,86,3,-1.19,2.17,4.13,-0.01,0.99,0.09
20.948242,-0.024454547,0.054315798,0.04433015,-0.02,0.99,0.09,16479,10176.00,80,86,3,-2.17,2.17,4.34,-0.02,0.99,0.09
21.948242,-0.035454545,0.044315793,0.03133015,-0.02,1.0,0.08,16501,10177.00,80,86,3,-2.94,1.47,3.43,-0.02,1.00,0.08
19.248047,-0.037454545,0.037315793,0.02033015,-0.02,1.0,0.08,16516,10174.30,80,86,3,-3.08,0.98,2.66,-0.02,1.00,0.08
18.948242,-0.037454545,0.028315794,0.0133301485,-0.01,1.0,0.09,16538,10174.00,80,86,3,-3.08,0.35,2.17,-0.01,1.00,0.09
18.948242,-0.029454544,0.022315795,0.003330147,-0.01,1.0,0.09,16554,10174.00,80,86,3,-2.52,-0.07,1.47,-0.01,1.00,0.09
19.248047,-0.022454545,0.015315794,0.0023301467,-0.01,1.01,0.09,16569,10174.30,80,86,3,-2.03,-0.56,1.40,-0.01,1.01,0.09
19.248047,-0.0014545461,0.016315795,0.0013301484,-0.03,1.02,0.09,16591,10174.30,80,86,3,-0.56,-0.49,1.33,-0.03,1.02,0.09
13.948242,0.015545454,0.016315795,-0.011669854,-0.03,1.01,0.09,16613,10169.00,80,86,3,0.63,-0.49,0.42,-0.03,1.01,0.09
23.348633,0.028545454,0.018315796,-0.015669852,-0.02,1.0,0.09,16636,10178.40,80,86,3,1.54,-0.35,0.14,-0.02,1.00,0.09
17.948242,0.025545456,0.014315795,-0.014669853,-0.02,1.0,0.09,16650,10173.00,80,86,3,1.33,-0.63,0.21,-0.02,1.00,0.09
18.948242,0.021545455,0.008315795,-0.0036698524,-0.01,1.0,0.09,16673,10174.00,80,86,3,1.05,-1.05,0.98,-0.01,1.00,0.09
18.248047,0.016545454,-0.003684206,0.0023301467,-0.01,0.99,0.09,16696,10173.30,80,86,3,0.70,-1.89,1.40,-0.01,0.99,0.09
18.248047,0.010545455,-0.018684205,0.0123301465,-0.02,0.99,0.08,16719,10173.30,80,86,3,0.28,-2.94,2.10,-0.02,0.99,0.08
18.248047,0.0135454545,-0.032684207,0.017330147,-0.01,1.0,0.08,16742,10173.30,80,86,3,0.49,-3.92,2.45,-0.01,1.00,0.08
17.248047,0.009545454,-0.032684207,0.025330149,-0.02,1.0,0.09,16763,10172.30,80,86,3,0.21,-3.92,3.01,-0.02,1.00,0.09
18.648438,0.0065454543,-0.037684206,0.023330145,-0.02,0.99,0.09,16786,10173.70,80,86,3,0.00,-4.27,2.87,-0.02,0.99,0.09
17.248047,-0.006454546,-0.04068421,0.022330146,-0.01,0.99,0.1,16793,10172.30,80,86,3,-0.91,-4.48,2.80,-0.01,0.99,0.10
16.248047,-0.019454546,-0.04068421,0.025330149,-0.02,0.99,0.1,16809,10171.30,80,86,3,-1.82,-4.48,3.01,-0.02,0.99,0.10
17.248047,-0.028454546,-0.04168421,0.023330145,-0.02,1.01,0.1,16831,10172.30,80,86,3,-2.45,-4.55,2.87,-0.02,1.01,0.10
16.248047,-0.022454545,-0.033684205,0.016330149,-0.02,1.01,0.1,16854,10171.30,80,86,3,-2.03,-3.99,2.38,-0.02,1.01,0.10
19.248047,-0.019454546,-0.028684206,0.008330148,-0.01,1.0,0.1,16876,10174.30,80,86,3,-1.82,-3.64,1.82,-0.01,1.00,0.10
15.6484375,-0.016454546,-0.023684204,0.009330148,-0.01,1.0,0.1,16892,10170.70,80,86,3,-1.61,-3.29,1.89,-0.01,1.00,0.10
13.6484375,-0.013454545,-0.017684203,0.0123301465,-0.01,0.99,0.11,16913,10168.70,80,86,3,-1.40,-2.87,2.10,-0.01,0.99,0.11
10.547852,-0.029454544,-0.022684205,0.010330148,-0.01,1.0,0.1,16936,10165.60,80,86,3,-2.52,-3.22,1.96,-0.01,1.00,0.10
8.547852,-0.041454542,-0.027684204,0.010330148,-0.01,1.01,0.1,16959,10163.60,80,86,3,-3.36,-3.57,1.96,-0.01,1.01,0.10
5.5478516,-0.040454544,-0.033684205,0.016330149,-0.01,1.01,0.09,16981,10160.60,80,86,3,-3.29,-3.99,2.38,-0.01,1.01,0.09
4.5478516,-0.038454548,-0.034684204,0.009330148,-0.01,1.0,0.1,16995,10159.60,80,86,3,-3.15,-4.06,1.89,-0.01,1.00,0.10
2.5478516,-0.033454545,-0.04168421,0.0133301485,-0.01,1.0,0.1,17018,10157.60,80,86,3,-2.80,-4.55,2.17,-0.01,1.00,0.10
0.54785156,-0.025454547,-0.046684206,0.011330146,-0.01,1.0,0.1,17048,10155.60,80,86,3,-2.24,-4.90,2.03,-0.01,1.00,0.10
1.8486328,-0.023454545,-0.043684207,0.011330146,-0.01,1.0,0.1,17056,10156.90,80,86,3,-2.10,-4.69,2.03,-0.01,1.00,0.10
1.8486328,-0.017454544,-0.036684204,0.0133301485,-0.01,1.0,0.1,17071,10156.90,80,86,3,-1.68,-4.20,2.17,-0.01,1.00,0.10
0.54785156,-0.008454545,-0.023684204,0.015330147,-0.02,1.01,0.1,17105,10155.60,80,86,3,-1.05,-3.29,2.31,-0.02,1.01,0.10
8.948242,-0.0044545457,-0.018684205,0.0123301465,-0.01,1.0,0.11,17117,10164.00,80,86,3,-0.77,-2.94,2.10,-0.01,1.00,0.11
3.9482422,-0.0024545453,-0.013684206,0.016330149,-0.01,1.0,0.11,17139,10159.00,80,86,3,-0.63,-2.59,2.38,-0.01,1.00,0.11
3.9482422,-0.006454546,3.1579472E-4,0.02033015,-0.01,1.0,0.11,17154,10159.00,80,86,3,-0.91,-1.61,2.66,-0.01,1.00,0.11
3.9482422,-0.015454546,0.012315795,0.021330148,-0.01,0.99,0.11,17176,10159.00,80,86,3,-1.54,-0.77,2.73,-0.01,0.99,0.11
2.5478516,-0.023454545,0.017315796,0.022330146,-0.01,1.0,0.11,17198,10157.60,80,86,3,-2.10,-0.42,2.80,-0.01,1.00,0.11
2.8486328,-0.016454546,0.024315795,0.014330149,-0.01,1.0,0.1,17223,10157.90,80,86,3,-1.61,0.07,2.24,-0.01,1.00,0.10
3.9482422,-0.005454545,0.022315795,0.008330148,0.0,1.0,0.1,17244,10159.00,80,86,3,-0.84,-0.07,1.82,0.00,1.00,0.10
4.948242,-0.007454546,0.006315794,0.0013301484,0.0,1.0,0.1,17274,10160.00,80,86,3,-0.98,-1.19,1.33,0.00,1.00,0.10
2.2480469,-0.008454545,3.1579472E-4,0.0013301484,0.0,1.0,0.1,17281,10157.30,80,86,3,-1.05,-1.61,1.33,0.00,1.00,0.10
3.9482422,-0.007454546,-0.0026842058,0.0023301467,-0.01,1.0,0.11,17296,10159.00,80,86,3,-0.98,-1.82,1.40,-0.01,1.00,0.11
4.948242,-0.008454545,3.1579472E-4,0.004330147,-0.01,1.0,0.11,17311,10160.00,80,86,3,-1.05,-1.61,1.54,-0.01,1.00,0.11
5.248047,-0.006454546,0.0013157949,-0.0046698526,-0.01,1.0,0.11,17335,10160.30,80,86,3,-0.91,-1.54,0.91,-0.01,1.00,0.11
4.948242,-0.0034545455,0.006315794,-0.0056698537,-0.01,1.0,0.11,17356,10160.00,80,86,3,-0.70,-1.19,0.84,-0.01,1.00,0.11
4.948242,-0.0044545457,0.011315796,3.301464E-4,-0.01,1.0,0.11,17371,10160.00,80,86,3,-0.77,-0.84,1.26,-0.01,1.00,0.11
5.248047,-0.0044545457,0.019315794,0.0073301475,-0.01,1.0,0.11,17394,10160.30,80,86,3,-0.77,-0.28,1.75,-0.01,1.00,0.11
5.248047,-4.5454595E-4,0.027315795,0.0133301485,-0.01,1.0,0.11,17417,10160.30,80,86,3,-0.49,0.28,2.17,-0.01,1.00,0.11
6.248047,-0.0044545457,0.025315795,0.011330146,-0.01,1.0,0.1,17439,10161.30,80,86,3,-0.77,0.14,2.03,-0.01,1.00,0.10
5.248047,-0.005454545,0.017315796,0.008330148,-0.01,1.0,0.1,17470,10160.30,80,86,3,-0.84,-0.42,1.82,-0.01,1.00,0.10
6.248047,-0.008454545,0.013315795,0.010330148,-0.01,1.0,0.1,17484,10161.30,80,86,3,-1.05,-0.70,1.96,-0.01,1.00,0.10
6.248047,-0.012454547,0.008315795,0.011330146,-0.01,1.0,0.1,17499,10161.30,80,86,3,-1.33,-1.05,2.03,-0.01,1.00,0.10
1.2480469,-0.011454545,0.017315796,0.019330148,-0.01,1.0,0.11,17521,10156.30,80,86,3,-1.26,-0.42,2.59,-0.01,1.00,0.11
7.248047,-0.014454545,0.020315794,0.017330147,-0.01,1.0,0.11,17536,10162.30,80,86,3,-1.47,-0.21,2.45,-0.01,1.00,0.11
8.547852,-0.019454546,0.022315795,0.016330149,-0.01,1.0,0.1,17558,10163.60,80,86,3,-1.82,-0.07,2.38,-0.01,1.00,0.10
8.547852,-0.021454547,0.020315794,0.008330148,-0.01,1.0,0.1,17573,10163.60,80,86,3,-1.96,-0.21,1.82,-0.01,1.00,0.10
8.547852,-0.020454546,0.019315794,0.005330147,-0.01,1.0,0.1,17596,10163.60,80,86,3,-1.89,-0.28,1.61,-0.01,1.00,0.10
11.6484375,-0.019454546,0.016315795,0.008330148,-0.0,0.99,0.11,17611,10166.70,80,86,3,-1.82,-0.49,1.82,-0.00,0.99,0.11
11.6484375,-0.013454545,0.019315794,0.014330149,-0.01,1.0,0.11,17634,10166.70,80,86,3,-1.40,-0.28,2.24,-0.01,1.00,0.11
12.6484375,-0.017454544,0.016315795,0.0123301465,-0.01,1.0,0.11,17657,10167.70,80,86,3,-1.68,-0.49,2.10,-0.01,1.00,0.11
14.948242,-0.024454547,0.009315794,0.004330147,-0.01,1.0,0.11,17679,10170.00,80,86,3,-2.17,-0.98,1.54,-0.01,1.00,0.11
15.6484375,-0.027454548,0.002315795,0.0023301467,-0.0,1.0,0.11,17702,10170.70,80,86,3,-2.38,-1.47,1.40,-0.00,1.00,0.11
16.648438,-0.023454545,-0.0016842056,0.0063301455,-0.01,1.0,0.11,17716,10171.70,80,86,3,-2.10,-1.75,1.68,-0.01,1.00,0.11
17.948242,-0.011454545,0.0013157949,0.010330148,-0.01,1.0,0.11,17746,10173.00,80,86,3,-1.26,-1.54,1.96,-0.01,1.00,0.11
17.948242,-0.0044545457,0.0013157949,0.008330148,-0.01,1.0,0.12,17761,10173.00,80,86,3,-0.77,-1.54,1.82,-0.01,1.00,0.12
21.948242,-0.0014545461,-0.0016842056,3.301464E-4,-0.01,1.0,0.12,17784,10177.00,80,86,3,-0.56,-1.75,1.26,-0.01,1.00,0.12
22.648438,-0.0024545453,-0.003684206,-6.698519E-4,-0.0,0.99,0.12,17791,10177.70,80,86,3,-0.63,-1.89,1.19,-0.00,0.99,0.12
22.948242,5.454547E-4,-0.004684206,0.004330147,0.0,0.99,0.11,17813,10178.00,80,86,3,-0.42,-1.96,1.54,0.00,0.99,0.11
23.948242,0.0015454544,-0.0066842046,0.014330149,0.01,0.99,0.12,17828,10179.00,80,86,3,-0.35,-2.10,2.24,0.01,0.99,0.12
24.948242,-0.005454545,-0.0016842056,0.033330146,0.01,1.0,0.12,17850,10180.00,80,86,3,-0.84,-1.75,3.57,0.01,1.00,0.12
22.948242,-0.006454546,-6.842036E-4,0.039330147,0.0,1.01,0.12,17874,10178.00,80,86,3,-0.91,-1.68,3.99,0.00,1.01,0.12
24.348633,5.454547E-4,3.1579472E-4,0.028330147,-0.0,1.01,0.12,17895,10179.40,80,86,3,-0.42,-1.61,3.22,-0.00,1.01,0.12
22.948242,0.011545454,0.0013157949,0.010330148,-0.0,1.0,0.11,17918,10178.00,80,86,3,0.35,-1.54,1.96,-0.00,1.00,0.11
22.648438,0.017545454,0.0013157949,-0.0016698521,0.0,1.0,0.11,17933,10177.70,80,86,3,0.77,-1.54,1.12,0.00,1.00,0.11
22.948242,0.020545455,3.1579472E-4,-0.011669854,0.0,1.0,0.11,17964,10178.00,80,86,3,0.98,-1.61,0.42,0.00,1.00,0.11
21.948242,0.023545455,0.0043157935,-0.009669852,-0.0,0.99,0.12,17979,10177.00,80,86,3,1.19,-1.33,0.56,-0.00,0.99,0.12
21.948242,0.017545454,0.009315794,-0.007669853,0.0,1.0,0.11,18001,10177.00,80,86,3,0.77,-0.98,0.70,0.00,1.00,0.11
21.348633,0.011545454,0.011315796,-0.0036698524,0.0,0.99,0.11,18023,10176.40,80,86,3,0.35,-0.84,0.98,0.00,0.99,0.11
20.948242,0.010545455,0.008315795,-0.0016698521,0.0,1.0,0.1,18038,10176.00,80,86,3,0.28,-1.05,1.12,0.00,1.00,0.10
21.348633,0.010545455,0.008315795,0.0013301484,0.0,1.0,0.1,18054,10176.40,80,86,3,0.28,-1.05,1.33,0.00,1.00,0.10
19.348633,0.012545453,0.0053157955,3.301464E-4,-0.0,1.0,0.11,18068,10174.40,80,86,3,0.42,-1.26,1.26,-0.00,1.00,0.11
20.348633,0.011545454,0.007315794,3.301464E-4,0.0,1.0,0.11,18090,10175.40,80,86,3,0.35,-1.12,1.26,0.00,1.00,0.11
21.648438,0.0015454544,0.007315794,0.009330148,-0.0,0.99,0.11,18114,10176.70,80,86,3,-0.35,-1.12,1.89,-0.00,0.99,0.11
21.348633,-0.0094545465,0.011315796,0.011330146,-0.0,0.99,0.11,18136,10176.40,80,86,3,-1.12,-0.84,2.03,-0.00,0.99,0.11
15.248047,-0.014454545,0.024315795,0.014330149,-0.0,1.0,0.11,18151,10170.30,80,86,3,-1.47,0.07,2.24,-0.00,1.00,0.11
18.348633,-0.022454545,0.024315795,0.014330149,0.0,1.0,0.11,18173,10173.40,80,86,3,-2.03,0.07,2.24,0.00,1.00,0.11
20.348633,-0.022454545,0.024315795,0.009330148,0.0,1.0,0.11,18197,10175.40,80,86,3,-2.03,0.07,1.89,0.00,1.00,0.11
19.348633,-0.017454544,0.020315794,0.011330146,0.01,1.0,0.11,18219,10174.40,80,86,3,-1.68,-0.21,2.03,0.01,1.00,0.11
20.648438,-0.014454545,0.017315796,0.019330148,0.01,1.0,0.12,18241,10175.70,80,86,3,-1.47,-0.42,2.59,0.01,1.00,0.12
19.348633,-0.013454545,0.020315794,0.019330148,0.0,1.0,0.11,18256,10174.40,80,86,3,-1.40,-0.21,2.59,0.00,1.00,0.11
20.648438,-0.014454545,0.025315795,0.014330149,0.0,1.0,0.12,18278,10175.70,80,86,3,-1.47,0.14,2.24,0.00,1.00,0.12
19.348633,-0.016454546,0.027315795,0.0063301455,0.0,1.0,0.11,18292,10174.40,80,86,3,-1.61,0.28,1.68,0.00,1.00,0.11
20.348633,-0.015454546,0.028315794,0.004330147,0.0,1.0,0.11,18316,10175.40,80,86,3,-1.54,0.35,1.54,0.00,1.00,0.11
20.648438,-0.014454545,0.031315796,0.005330147,0.01,1.0,0.12,18331,10175.70,80,86,3,-1.47,0.56,1.61,0.01,1.00,0.12
21.648438,-0.017454544,0.032315794,0.003330147,0.01,1.0,0.12,18353,10176.70,80,86,3,-1.68,0.63,1.47,0.01,1.00,0.12
22.648438,-0.013454545,0.031315796,0.014330149,0.01,1.0,0.12,18376,10177.70,80,86,3,-1.40,0.56,2.24,0.01,1.00,0.12
21.348633,-0.006454546,0.028315794,0.017330147,0.0,1.01,0.12,18399,10176.40,80,86,3,-0.91,0.35,2.45,0.00,1.01,0.12
19.948242,-0.0044545457,0.024315795,0.0073301475,0.0,1.0,0.12,18421,10175.00,80,86,3,-0.77,0.07,1.75,0.00,1.00,0.12
18.648438,-0.008454545,0.015315794,-0.006669853,0.01,1.0,0.12,18437,10173.70,80,86,3,-1.05,-0.56,0.77,0.01,1.00,0.12
18.648438,-0.007454546,0.0103157945,-0.011669854,0.01,1.0,0.11,18459,10173.70,80,86,3,-0.98,-0.91,0.42,0.01,1.00,0.11
18.648438,0.0015454544,0.0033157952,-0.007669853,0.01,1.0,0.12,18481,10173.70,80,86,3,-0.35,-1.40,0.70,0.01,1.00,0.12
18.648438,0.008545455,3.1579472E-4,-0.0036698524,0.01,1.0,0.12,18503,10173.70,80,86,3,0.14,-1.61,0.98,0.01,1.00,0.12
21.948242,0.009545454,-0.004684206,-0.010669853,0.0,1.0,0.12,18526,10177.00,80,86,3,0.21,-1.96,0.49,0.00,1.00,0.12
17.648438,0.011545454,-0.0066842046,-0.007669853,0.0,1.0,0.12,18541,10172.70,80,86,3,0.35,-2.10,0.70,0.00,1.00,0.12
19.948242,0.0135454545,-0.003684206,-0.014669853,0.0,1.0,0.12,18563,10175.00,80,86,3,0.49,-1.89,0.21,0.00,1.00,0.12
22.348633,0.012545453,-0.004684206,-0.012669853,0.0,0.99,0.12,18570,10177.40,80,86,3,0.42,-1.96,0.35,0.00,0.99,0.12
18.948242,0.0065454543,-0.0056842044,-0.007669853,0.0,0.99,0.12,18594,10174.00,80,86,3,0.00,-2.03,0.70,0.00,0.99,0.12
17.348633,0.0075454544,-0.0016842056,0.004330147,0.0,1.0,0.12,18616,10172.40,80,86,3,0.07,-1.75,1.54,0.00,1.00,0.12
15.948242,0.009545454,-0.0016842056,0.0063301455,0.0,1.0,0.12,18638,10171.00,80,86,3,0.21,-1.75,1.68,0.00,1.00,0.12
14.948242,0.009545454,-0.003684206,0.0023301467,0.0,0.99,0.12,18660,10170.00,80,86,3,0.21,-1.89,1.40,0.00,0.99,0.12
12.248047,0.0035454545,-0.012684204,0.0013301484,0.01,0.99,0.12,18676,10167.30,80,86,3,-0.21,-2.52,1.33,0.01,0.99,0.12
9.948242,-0.0024545453,-0.016684204,0.0123301465,0.01,1.0,0.12,18699,10165.00,80,86,3,-0.63,-2.80,2.10,0.01,1.00,0.12
8.248047,-0.005454545,-0.023684204,0.014330149,0.0,1.0,0.11,18722,10163.30,80,86,3,-0.84,-3.29,2.24,0.00,1.00,0.11
5.948242,-0.0034545455,-0.024684202,0.0063301455,-0.0,1.01,0.11,18744,10161.00,80,86,3,-0.70,-3.36,1.68,-0.00,1.01,0.11
4.948242,-0.0024545453,-0.023684204,-0.009669852,0.0,1.0,0.12,18766,10160.00,80,86,3,-0.63,-3.29,0.56,0.00,1.00,0.12
5.948242,5.454547E-4,-0.018684205,-0.010669853,0.0,1.0,0.12,18781,10161.00,80,86,3,-0.42,-2.94,0.49,0.00,1.00,0.12
6.248047,0.0015454544,-0.008684207,-0.015669852,0.0,1.0,0.12,18795,10161.30,80,86,3,-0.35,-2.24,0.14,0.00,1.00,0.12
6.248047,5.454547E-4,-0.0056842044,-0.012669853,0.01,0.99,0.12,18811,10161.30,80,86,3,-0.42,-2.03,0.35,0.01,0.99,0.12
6.248047,-0.0024545453,0.0013157949,-0.006669853,0.0,0.99,0.12,18834,10161.30,80,86,3,-0.63,-1.54,0.77,0.00,0.99,0.12
6.248047,-0.008454545,-6.842036E-4,-0.0026698532,0.01,1.0,0.12,18856,10161.30,80,86,3,-1.05,-1.68,1.05,0.01,1.00,0.12
6.248047,-0.0094545465,-0.003684206,-0.0026698532,0.01,1.0,0.12,18871,10161.30,80,86,3,-1.12,-1.89,1.05,0.01,1.00,0.12
12.948242,-0.0044545457,-0.009684205,-6.698519E-4,0.01,1.0,0.12,18894,10168.00,80,86,3,-0.77,-2.31,1.19,0.01,1.00,0.12
6.248047,0.004545454,-0.009684205,-0.0036698524,0.0,1.01,0.11,18916,10161.30,80,86,3,-0.14,-2.31,0.98,0.00,1.01,0.11
8.248047,0.010545455,-0.010684207,-0.008669853,0.0,1.0,0.11,18939,10163.30,80,86,3,0.28,-2.38,0.63,0.00,1.00,0.11
9.248047,0.009545454,-0.009684205,-0.014669853,0.01,1.0,0.12,18961,10164.30,80,86,3,0.21,-2.31,0.21,0.01,1.00,0.12
9.6484375,0.0035454545,-0.012684204,-0.014669853,0.01,0.99,0.12,18983,10164.70,80,86,3,-0.21,-2.52,0.21,0.01,0.99,0.12
9.6484375,0.0015454544,-0.012684204,-0.008669853,0.01,0.99,0.12,18999,10164.70,80,86,3,-0.35,-2.52,0.63,0.01,0.99,0.12
9.6484375,5.454547E-4,-0.012684204,-0.007669853,0.0,1.0,0.12,19021,10164.70,80,86,3,-0.42,-2.52,0.70,0.00,1.00,0.12
10.6484375,-0.0014545461,-0.009684205,-0.0046698526,-0.0,1.0,0.12,19037,10165.70,80,86,3,-0.56,-2.31,0.91,-0.00,1.00,0.12
10.6484375,-0.0014545461,-0.0066842046,-0.012669853,-0.0,1.0,0.12,19059,10165.70,80,86,3,-0.56,-2.10,0.35,-0.00,1.00,0.12
10.6484375,-0.0034545455,-0.0026842058,-0.009669852,0.0,1.0,0.12,19073,10165.70,80,86,3,-0.70,-1.82,0.56,0.00,1.00,0.12
11.6484375,-0.0044545457,-0.003684206,-0.011669854,0.01,1.0,0.12,19096,10166.70,80,86,3,-0.77,-1.89,0.42,0.01,1.00,0.12
10.6484375,0.0075454544,3.1579472E-4,0.003330147,0.0,1.0,0.11,19111,10165.70,80,86,3,0.07,-1.61,1.47,0.00,1.00,0.11
11.6484375,0.011545454,-0.003684206,0.0063301455,0.0,1.0,0.11,19134,10166.70,80,86,3,0.35,-1.89,1.68,0.00,1.00,0.11
12.6484375,0.011545454,-0.0076842066,3.301464E-4,-0.0,1.0,0.11,19171,10167.70,80,86,3,0.35,-2.17,1.26,-0.00,1.00,0.11
6.948242,0.002545454,-0.014684208,-0.006669853,0.0,0.99,0.12,19179,10162.00,80,86,3,-0.28,-2.66,0.77,0.00,0.99,0.12
9.6484375,-0.0094545465,-0.013684206,-0.0016698521,0.01,1.0,0.11,19203,10164.70,80,86,3,-1.12,-2.59,1.12,0.01,1.00,0.11
9.948242,-0.012454547,-0.013684206,0.0063301455,0.01,1.0,0.12,19219,10165.00,80,86,3,-1.33,-2.59,1.68,0.01,1.00,0.12
10.6484375,-0.005454545,-0.009684205,0.005330147,-0.0,1.0,0.12,19239,10165.70,80,86,3,-0.84,-2.31,1.61,-0.00,1.00,0.12
11.948242,-0.005454545,-0.003684206,3.301464E-4,-0.0,1.0,0.12,19269,10167.00,80,86,3,-0.84,-1.89,1.26,-0.00,1.00,0.12
10.948242,-0.0034545455,0.0053157955,0.0013301484,0.0,1.0,0.12,19284,10166.00,80,86,3,-0.70,-1.26,1.33,0.00,1.00,0.12
12.948242,-0.0044545457,0.012315795,0.0073301475,0.01,1.0,0.12,19299,10168.00,80,86,3,-0.77,-0.77,1.75,0.01,1.00,0.12
10.948242,-0.006454546,0.014315795,0.010330148,0.01,1.0,0.12,19321,10166.00,80,86,3,-0.91,-0.63,1.96,0.01,1.00,0.12
8.948242,-0.012454547,0.015315794,0.010330148,0.01,1.0,0.12,19336,10164.00,80,86,3,-1.33,-0.56,1.96,0.01,1.00,0.12
12.248047,-0.011454545,0.012315795,0.0133301485,0.0,1.01,0.12,19366,10167.30,80,86,3,-1.26,-0.77,2.17,0.00,1.01,0.12
13.948242,-0.005454545,0.011315796,0.008330148,0.0,1.0,0.11,19381,10169.00,80,86,3,-0.84,-0.84,1.82,0.00,1.00,0.11
16.648438,-0.0044545457,0.011315796,-0.0036698524,0.0,1.0,0.12,19404,10171.70,80,86,3,-0.77,-0.84,0.98,0.00,1.00,0.12
16.348633,-0.0034545455,0.013315795,-0.006669853,0.01,1.0,0.12,19419,10171.40,80,86,3,-0.70,-0.70,0.77,0.01,1.00,0.12
18.348633,-0.0044545457,0.008315795,-0.0036698524,0.01,1.0,0.12,19441,10173.40,80,86,3,-0.77,-1.05,0.98,0.01,1.00,0.12
19.348633,-0.0044545457,0.0053157955,-0.0036698524,0.01,1.0,0.12,19463,10174.40,80,86,3,-0.77,-1.26,0.98,0.01,1.00,0.12
20.348633,5.454547E-4,0.0033157952,-0.0036698524,0.0,1.0,0.12,19486,10175.40,80,86,3,-0.42,-1.40,0.98,0.00,1.00,0.12
21.948242,0.005545454,-0.003684206,-0.008669853,0.0,1.0,0.12,19508,10177.00,80,86,3,-0.07,-1.89,0.63,0.00,1.00,0.12
22.348633,0.011545454,-0.0016842056,-0.010669853,0.0,1.0,0.12,19524,10177.40,80,86,3,0.35,-1.75,0.49,0.00,1.00,0.12
24.348633,0.011545454,-0.0016842056,-0.008669853,0.0,1.0,0.12,19546,10179.40,80,86,3,0.35,-1.75,0.63,0.00,1.00,0.12
26.348633,0.011545454,3.1579472E-4,-0.007669853,0.01,0.99,0.12,19561,10181.40,80,86,3,0.35,-1.61,0.70,0.01,0.99,0.12
25.348633,0.010545455,-6.842036E-4,-0.0046698526,0.01,0.99,0.12,19584,10180.40,80,86,3,0.28,-1.68,0.91,0.01,0.99,0.12
26.047852,0.004545454,0.006315794,0.0133301485,0.01,0.99,0.13,19598,10181.10,80,86,3,-0.14,-1.19,2.17,0.01,0.99,0.13
25.348633,-0.0034545455,0.002315795,0.019330148,0.01,1.0,0.12,19621,10180.40,80,86,3,-0.70,-1.47,2.59,0.01,1.00,0.12
24.348633,-0.0024545453,0.006315794,0.017330147,0.01,0.88,0.12,19636,10179.40,0,86,3,-0.63,-1.19,2.45,0.01,0.88,0.12
24.648438,5.454547E-4,0.0033157952,0.017330147,0.01,1.0,0.12,19658,10179.70,0,86,3,-0.42,-1.40,2.45,0.01,1.00,0.12
24.648438,0.004545454,0.0033157952,0.017330147,0.01,0.87,0.12,19680,10179.70,0,86,3,-0.14,-1.40,2.45,0.01,0.87,0.12
24.648438,0.010545455,0.002315795,0.0123301465,0.01,0.99,0.12,19704,10179.70,0,86,3,0.28,-1.47,2.10,0.01,0.99,0.12
23.348633,0.0075454544,0.0033157952,0.014330149,0.01,0.99,0.12,19726,10178.40,0,86,3,0.07,-1.40,2.24,0.01,0.99,0.12
23.648438,0.0035454545,3.1579472E-4,0.004330147,0.0,0.99,0.25,19741,10178.70,0,86,3,-0.21,-1.61,1.54,0.00,0.99,0.25
23.648438,-0.0094545465,0.0053157955,0.0063301455,0.01,1.0,0.13,19763,10178.70,0,86,3,-1.12,-1.26,1.68,0.01,1.00,0.13
24.648438,-0.014454545,0.0043157935,0.008330148,0.01,1.0,0.12,19778,10179.70,0,86,3,-1.47,-1.33,1.82,0.01,1.00,0.12
23.648438,-0.015454546,0.0053157955,0.015330147,0.01,0.99,0.12,19801,10178.70,0,86,3,-1.54,-1.26,2.31,0.01,0.99,0.12
22.648438,-0.012454547,0.0033157952,0.019330148,0.01,1.0,0.12,19816,10177.70,0,86,3,-1.33,-1.40,2.59,0.01,1.00,0.12
23.648438,-0.007454546,0.0053157955,0.022330146,0.01,1.0,0.12,19838,10178.70,0,86,3,-0.98,-1.26,2.80,0.01,1.00,0.12
23.348633,-0.008454545,-6.842036E-4,0.0123301465,0.01,1.0,0.13,19853,10178.40,0,86,3,-1.05,-1.68,2.10,0.01,1.00,0.13
22.348633,-0.0094545465,0.0013157949,0.0063301455,0.01,1.0,0.13,19875,10177.40,0,86,3,-1.12,-1.54,1.68,0.01,1.00,0.13
22.648438,-0.008454545,0.008315795,0.0123301465,0.01,1.0,0.13,19898,10177.70,0,86,3,-1.05,-1.05,2.10,0.01,1.00,0.13
23.047852,-0.006454546,0.013315795,0.024330147,0.01,1.0,0.13,19923,10178.10,0,86,3,-0.91,-0.70,2.94,0.01,1.00,0.13
22.047852,-0.006454546,0.017315796,0.024330147,0.01,1.0,0.13,19944,10177.10,0,86,3,-0.91,-0.42,2.94,0.01,1.00,0.13
22.047852,-0.0044545457,0.018315796,0.017330147,0.02,1.0,0.13,19966,10177.10,0,86,3,-0.77,-0.35,2.45,0.02,1.00,0.13
22.047852,-0.0014545461,0.018315796,0.011330146,0.02,1.0,0.12,19981,10177.10,0,86,3,-0.56,-0.35,2.03,0.02,1.00,0.12
21.648438,0.004545454,0.016315795,0.005330147,0.02,1.0,0.13,20003,10176.70,0,86,3,-0.14,-0.49,1.61,0.02,1.00,0.13
22.348633,-4.5454595E-4,0.012315795,-0.0026698532,0.02,0.99,0.13,20033,10177.40,0,86,3,-0.49,-0.77,1.05,0.02,0.99,0.13
15.948242,-0.0024545453,0.009315794,-6.698519E-4,0.02,1.0,0.13,20040,10171.00,0,86,3,-0.63,-0.98,1.19,0.02,1.00,0.13
21.047852,5.454547E-4,0.009315794,3.301464E-4,0.02,1.0,0.13,20055,10176.10,0,86,3,-0.42,-0.98,1.26,0.02,1.00,0.13
21.047852,0.005545454,0.0103157945,-0.0026698532,0.02,1.0,0.13,20079,10176.10,0,86,3,-0.07,-0.91,1.05,0.02,1.00,0.13
21.348633,0.0015454544,3.1579472E-4,-0.016669853,0.01,1.0,0.13,20093,10176.40,0,86,3,-0.35,-1.61,0.07,0.01,1.00,0.13
22.348633,0.004545454,-0.0026842058,-0.016669853,0.02,1.0,0.13,20116,10177.40,0,86,3,-0.14,-1.82,0.07,0.02,1.00,0.13
23.348633,0.012545453,-0.0016842056,-0.012669853,0.02,1.0,0.12,20138,10178.40,0,86,3,0.42,-1.75,0.35,0.02,1.00,0.12
20.348633,0.014545455,-0.004684206,-0.011669854,0.01,1.0,0.12,20161,10175.40,0,86,3,0.56,-1.96,0.42,0.01,1.00,0.12
21.047852,0.012545453,-0.004684206,-0.009669852,0.01,0.99,0.13,20184,10176.10,0,86,3,0.42,-1.96,0.56,0.01,0.99,0.13
20.348633,0.012545453,-0.0076842066,-0.0026698532,0.01,0.99,0.13,20198,10175.40,0,86,3,0.42,-2.17,1.05,0.01,0.99,0.13
20.348633,0.0065454543,-0.0076842066,3.301464E-4,0.01,0.99,0.13,20220,10175.40,0,86,3,0.00,-2.17,1.26,0.01,0.99,0.13
19.348633,0.0015454544,-0.004684206,0.004330147,0.01,1.0,0.13,20251,10174.40,0,86,3,-0.35,-1.96,1.54,0.01,1.00,0.13
19.348633,-0.0014545461,-0.003684206,0.005330147,0.01,1.0,0.13,20266,10174.40,0,86,3,-0.56,-1.89,1.61,0.01,1.00,0.13
19.348633,-0.006454546,-0.0056842044,0.0023301467,0.01,0.99,0.13,20289,10174.40,0,86,3,-0.91,-2.03,1.40,0.01,0.99,0.13
19.348633,-0.006454546,-0.0026842058,0.0063301455,0.01,0.99,0.13,20303,10174.40,0,86,3,-0.91,-1.82,1.68,0.01,0.99,0.13
17.348633,-0.005454545,-0.0026842058,0.0073301475,0.01,1.0,0.13,20319,10172.40,0,86,3,-0.84,-1.82,1.75,0.01,1.00,0.13
17.348633,-0.0034545455,3.1579472E-4,0.0063301455,0.01,1.0,0.13,20341,10172.40,0,86,3,-0.70,-1.61,1.68,0.01,1.00,0.13
17.648438,0.0015454544,-0.0016842056,0.0073301475,0.02,1.0,0.13,20364,10172.70,0,86,3,-0.35,-1.75,1.75,0.02,1.00,0.13
14.6484375,-0.0014545461,-0.0076842066,0.011330146,0.02,1.0,0.13,20378,10169.70,0,86,3,-0.56,-2.17,2.03,0.02,1.00,0.13
12.6484375,5.454547E-4,-0.004684206,0.011330146,0.02,1.0,0.13,20402,10167.70,0,86,3,-0.42,-1.96,2.03,0.02,1.00,0.13
10.6484375,0.0015454544,-0.004684206,0.003330147,0.01,1.0,0.12,20423,10165.70,0,86,3,-0.35,-1.96,1.47,0.01,1.00,0.12
8.248047,-0.0024545453,3.1579472E-4,-0.0056698537,0.01,1.0,0.13,20446,10163.30,0,86,3,-0.63,-1.61,0.84,0.01,1.00,0.13
10.948242,5.454547E-4,-0.0026842058,-0.017669853,0.01,1.0,0.12,20468,10166.00,0,86,3,-0.42,-1.82,0.00,0.01,1.00,0.12
4.5478516,0.0075454544,-0.0016842056,-0.009669852,0.02,0.87,0.12,20483,10159.60,0,86,3,0.07,-1.75,0.56,0.02,0.87,0.12
10.6484375,0.010545455,-0.0056842044,-0.006669853,0.02,1.0,0.12,20506,10165.70,0,86,3,0.28,-2.03,0.77,0.02,1.00,0.12
8.948242,0.008545455,-0.0066842046,-0.010669853,0.01,0.99,0.13,20521,10164.00,0,86,3,0.14,-2.10,0.49,0.01,0.99,0.13
9.248047,0.002545454,-0.0076842066,-0.010669853,0.01,0.99,0.13,20543,10164.30,0,86,3,-0.28,-2.17,0.49,0.01,0.99,0.13
9.6484375,-0.0034545455,-0.004684206,0.0013301484,0.02,0.99,0.13,20558,10164.70,0,86,3,-0.70,-1.96,1.33,0.02,0.99,0.13
9.948242,-0.006454546,3.1579472E-4,0.014330149,0.02,0.99,0.13,20573,10165.00,0,86,3,-0.91,-1.61,2.24,0.02,0.99,0.13
8.948242,-0.010454547,0.0013157949,0.025330149,0.02,1.0,0.13,20596,10164.00,0,86,3,-1.19,-1.54,3.01,0.02,1.00,0.13
8.948242,-0.010454547,0.0013157949,0.024330147,0.02,1.0,0.13,20626,10164.00,0,86,3,-1.19,-1.54,2.94,0.02,1.00,0.13
8.948242,-0.007454546,-0.0016842056,0.015330147,0.01,0.87,0.12,20634,10164.00,0,86,3,-0.98,-1.75,2.31,0.01,0.87,0.12
8.948242,-0.0024545453,3.1579472E-4,0.008330148,0.02,1.0,0.13,20656,10164.00,0,86,3,-0.63,-1.61,1.82,0.02,1.00,0.13
7.948242,5.454547E-4,0.0043157935,0.0073301475,0.02,1.0,0.13,20678,10163.00,0,86,3,-0.42,-1.33,1.75,0.02,1.00,0.13
8.948242,-0.0014545461,0.006315794,0.0063301455,0.02,1.0,0.12,20706,10164.00,0,86,3,-0.56,-1.19,1.68,0.02,1.00,0.12
9.6484375,0.0035454545,-6.842036E-4,0.004330147,0.02,1.0,0.12,20723,10164.70,0,86,3,-0.21,-1.68,1.54,0.02,1.00,0.12
8.248047,0.0065454543,-0.003684206,3.301464E-4,0.02,1.0,0.13,20738,10163.30,0,86,3,0.00,-1.89,1.26,0.02,1.00,0.13
8.948242,0.005545454,-0.004684206,-0.0036698524,0.01,1.0,0.13,20760,10164.00,0,86,3,-0.07,-1.96,0.98,0.01,1.00,0.13
10.248047,0.0065454543,-0.0026842058,-0.006669853,0.02,1.0,0.13,20776,10165.30,0,86,3,0.00,-1.82,0.77,0.02,1.00,0.13
9.6484375,0.008545455,3.1579472E-4,-0.006669853,0.02,1.0,0.13,20798,10164.70,0,86,3,0.14,-1.61,0.77,0.02,1.00,0.13
9.248047,0.010545455,0.002315795,-0.009669852,0.02,1.0,0.12,20814,10164.30,0,86,3,0.28,-1.47,0.56,0.02,1.00,0.12
8.248047,0.014545455,3.1579472E-4,-0.013669852,0.02,1.0,0.12,20836,10163.30,0,86,3,0.56,-1.61,0.28,0.02,1.00,0.12
9.248047,0.015545454,-0.0016842056,-0.013669852,0.02,0.99,0.12,20851,10164.30,0,86,3,0.63,-1.75,0.28,0.02,0.99,0.12
10.6484375,0.014545455,-0.0016842056,-0.010669853,0.02,1.0,0.12,20873,10165.70,0,86,3,0.56,-1.75,0.49,0.02,1.00,0.12
10.248047,0.0135454545,-0.003684206,-0.011669854,0.01,1.0,0.12,20895,10165.30,0,86,3,0.49,-1.89,0.42,0.01,1.00,0.12
5.248047,0.0135454545,0.0033157952,-0.0026698532,0.01,1.0,0.13,20918,10160.30,0,86,3,0.49,-1.40,1.05,0.01,1.00,0.13
9.6484375,0.008545455,0.0033157952,-0.0016698521,0.02,0.99,0.12,20941,10164.70,0,86,3,0.14,-1.40,1.12,0.02,0.99,0.12
9.6484375,5.454547E-4,-6.842036E-4,0.0063301455,0.02,1.0,0.12,20956,10164.70,0,86,3,-0.42,-1.68,1.68,0.02,1.00,0.12
10.248047,5.454547E-4,3.1579472E-4,0.0123301465,0.02,1.0,0.12,20979,10165.30,0,86,3,-0.42,-1.61,2.10,0.02,1.00,0.12
10.6484375,-4.5454595E-4,-0.0016842056,0.015330147,0.02,0.99,0.12,21001,10165.70,0,86,3,-0.49,-1.75,2.31,0.02,0.99,0.12
12.6484375,-0.008454545,-0.003684206,0.014330149,0.02,1.0,0.12,21023,10167.70,0,86,3,-1.05,-1.89,2.24,0.02,1.00,0.12
11.6484375,-0.007454546,-0.0066842046,0.008330148,0.02,1.0,0.12,21038,10166.70,0,86,3,-0.98,-2.10,1.82,0.02,1.00,0.12
12.348633,-0.008454545,-0.012684204,0.0063301455,0.02,1.0,0.12,21053,10167.40,0,86,3,-1.05,-2.52,1.68,0.02,1.00,0.12
12.6484375,-0.006454546,-0.011684205,0.004330147,0.02,1.0,0.12,21068,10167.70,0,86,3,-0.91,-2.45,1.54,0.02,1.00,0.12
13.948242,-0.008454545,-0.010684207,0.0013301484,0.02,1.0,0.13,21091,10169.00,0,86,3,-1.05,-2.38,1.33,0.02,1.00,0.13
13.948242,-0.008454545,-0.0076842066,0.003330147,0.02,1.0,0.12,21113,10169.00,0,86,3,-1.05,-2.17,1.47,0.02,1.00,0.12
15.948242,-0.0024545453,-0.0066842046,-6.698519E-4,0.02,1.0,0.12,21136,10171.00,0,86,3,-0.63,-2.10,1.19,0.02,1.00,0.12
16.348633,0.002545454,-0.010684207,-0.0046698526,0.02,1.0,0.12,21158,10171.40,0,86,3,-0.28,-2.38,0.91,0.02,1.00,0.12
15.948242,0.0015454544,-0.013684206,-0.013669852,0.02,1.0,0.12,21173,10171.00,0,86,3,-0.35,-2.59,0.28,0.02,1.00,0.12
15.6484375,-0.0034545455,-0.012684204,-0.012669853,0.01,0.99,0.13,21196,10170.70,0,86,3,-0.70,-2.52,0.35,0.01,0.99,0.13
21.648438,-0.0044545457,3.1579472E-4,3.301464E-4,0.02,0.99,0.13,21219,10176.70,0,86,3,-0.77,-1.61,1.26,0.02,0.99,0.13
20.047852,-0.0034545455,0.009315794,0.008330148,0.02,1.0,0.13,21241,10175.10,0,86,3,-0.70,-0.98,1.82,0.02,1.00,0.13
21.047852,-0.005454545,0.014315795,0.011330146,0.01,1.0,0.13,21263,10176.10,0,86,3,-0.84,-0.63,2.03,0.01,1.00,0.13
21.348633,-0.0034545455,0.015315794,0.0073301475,0.01,1.0,0.13,21285,10176.40,0,86,3,-0.70,-0.56,1.75,0.01,1.00,0.13
22.047852,5.454547E-4,0.016315795,0.003330147,0.02,1.0,0.13,21301,10177.10,0,86,3,-0.42,-0.49,1.47,0.02,1.00,0.13
23.648438,5.454547E-4,0.014315795,0.0023301467,0.02,0.99,0.13,21316,10178.70,0,86,3,-0.42,-0.63,1.40,0.02,0.99,0.13
23.047852,-0.0024545453,0.019315794,0.0123301465,0.02,0.99,0.13,21338,10178.10,0,86,3,-0.63,-0.28,2.10,0.02,0.99,0.13
25.047852,-0.010454547,0.018315796,0.018330146,0.02,1.0,0.13,21361,10180.10,0,86,3,-1.19,-0.35,2.52,0.02,1.00,0.13
23.348633,-0.0094545465,0.020315794,0.025330149,0.02,1.0,0.13,21376,10178.40,0,86,3,-1.12,-0.21,3.01,0.02,1.00,0.13
22.047852,-0.008454545,0.021315794,0.016330149,0.02,1.0,0.12,21398,10177.10,0,86,3,-1.05,-0.14,2.38,0.02,1.00,0.12
22.648438,-0.007454546,0.019315794,3.301464E-4,0.02,1.0,0.12,21421,10177.70,0,86,3,-0.98,-0.28,1.26,0.02,1.00,0.12
22.348633,-0.0034545455,0.017315796,-0.0046698526,0.02,1.0,0.12,21443,10177.40,0,86,3,-0.70,-0.42,0.91,0.02,1.00,0.12
22.648438,0.0035454545,0.016315795,-0.0056698537,0.02,0.99,0.13,21466,10177.70,0,86,3,-0.21,-0.49,0.84,0.02,0.99,0.13
21.348633,-0.0014545461,0.015315794,-0.0026698532,0.02,0.99,0.13,21488,10176.40,0,86,3,-0.56,-0.56,1.05,0.02,0.99,0.13
21.047852,-0.006454546,0.0103157945,0.0013301484,0.02,1.0,0.13,21504,10176.10,0,86,3,-0.91,-0.91,1.33,0.02,1.00,0.13
22.348633,-0.0034545455,0.015315794,0.005330147,0.02,1.0,0.13,21526,10177.40,0,86,3,-0.70,-0.56,1.61,0.02,1.00,0.13
16.648438,-0.007454546,0.016315795,0.004330147,0.01,1.0,0.13,21540,10171.70,0,86,3,-0.98,-0.49,1.54,0.01,1.00,0.13
20.648438,-0.0094545465,0.012315795,0.0013301484,0.02,0.99,0.13,21563,10175.70,0,86,3,-1.12,-0.77,1.33,0.02,0.99,0.13
22.748047,-0.0094545465,0.0103157945,0.0063301455,0.02,0.99,0.13,21578,10177.80,0,86,3,-1.12,-0.91,1.68,0.02,0.99,0.13
20.648438,-0.012454547,0.0013157949,0.0133301485,0.02,0.99,0.13,21601,10175.70,0,86,3,-1.33,-1.54,2.17,0.02,0.99,0.13
20.648438,-0.014454545,-0.0026842058,0.009330148,0.02,1.0,0.13,21616,10175.70,0,86,3,-1.47,-1.82,1.89,0.02,1.00,0.13
22.648438,-0.011454545,0.002315795,0.0133301485,0.02,1.0,0.14,21638,10177.70,0,86,3,-1.26,-1.47,2.17,0.02,1.00,0.14
17.648438,-0.011454545,0.006315794,0.0123301465,0.02,1.0,0.13,21660,10172.70,0,86,3,-1.26,-1.19,2.10,0.02,1.00,0.13
19.047852,-0.010454547,0.0103157945,0.018330146,0.02,1.0,0.13,21683,10174.10,0,86,3,-1.19,-0.91,2.52,0.02,1.00,0.13
21.047852,-0.006454546,0.016315795,0.017330147,0.02,1.0,0.13,21699,10176.10,0,86,3,-0.91,-0.49,2.45,0.02,1.00,0.13
20.648438,-0.007454546,0.018315796,0.0123301465,0.02,1.0,0.14,21721,10175.70,0,86,3,-0.98,-0.35,2.10,0.02,1.00,0.14
21.047852,-0.005454545,0.018315796,0.011330146,0.02,1.0,0.14,21751,10176.10,0,86,3,-0.84,-0.35,2.03,0.02,1.00,0.14
21.047852,0.0015454544,0.018315796,0.017330147,0.02,0.99,0.13,21758,10176.10,0,86,3,-0.35,-0.35,2.45,0.02,0.99,0.13
20.348633,0.005545454,0.020315794,0.026330147,0.02,0.99,0.14,21774,10175.40,0,86,3,-0.07,-0.21,3.08,0.02,0.99,0.14
20.648438,0.005545454,0.017315796,0.024330147,0.02,1.0,0.13,21804,10175.70,0,86,3,-0.07,-0.42,2.94,0.02,1.00,0.13
20.348633,0.0015454544,0.015315794,0.02033015,0.02,0.99,0.14,21811,10175.40,0,86,3,-0.35,-0.56,2.66,0.02,0.99,0.14
20.047852,-0.006454546,0.015315794,0.0133301485,0.02,1.0,0.14,21826,10175.10,0,86,3,-0.91,-0.56,2.17,0.02,1.00,0.14
21.047852,-0.0044545457,0.0103157945,0.0123301465,0.03,1.0,0.13,21848,10176.10,0,86,3,-0.77,-0.91,2.10,0.03,1.00,0.13
20.047852,-0.0014545461,0.009315794,0.019330148,0.03,1.0,0.14,21871,10175.10,0,86,3,-0.56,-0.98,2.59,0.03,1.00,0.14
25.047852,0.004545454,0.0053157955,0.023330145,0.03,1.0,0.14,21893,10180.10,0,86,3,-0.14,-1.26,2.87,0.03,1.00,0.14
20.047852,0.002545454,-0.004684206,0.017330147,0.03,1.0,0.13,21909,10175.10,0,86,3,-0.28,-1.96,2.45,0.03,1.00,0.13
21.047852,0.010545455,-0.010684207,0.0133301485,0.03,1.0,0.14,21945,10176.10,0,86,3,0.28,-2.38,2.17,0.03,1.00,0.14
20.047852,0.017545454,-0.004684206,0.014330149,0.03,1.0,0.14,21953,10175.10,0,86,3,0.77,-1.96,2.24,0.03,1.00,0.14
19.047852,0.018545453,-0.0016842056,0.015330147,0.03,1.0,0.14,21975,10174.10,0,86,3,0.84,-1.75,2.31,0.03,1.00,0.14
21.348633,0.030545453,0.002315795,0.015330147,0.03,1.01,0.13,21990,10176.40,0,86,3,1.68,-1.47,2.31,0.03,1.01,0.13
19.648438,0.039545454,3.1579472E-4,0.011330146,0.03,1.0,0.13,22006,10174.70,0,86,3,2.31,-1.61,2.03,0.03,1.00,0.13
19.348633,0.045545455,-0.0066842046,0.0023301467,0.04,1.0,0.14,22020,10174.40,0,86,3,2.73,-2.10,1.40,0.04,1.00,0.14
20.348633,0.046545453,-0.014684208,-0.006669853,0.04,1.0,0.13,22036,10175.40,0,86,3,2.80,-2.66,0.77,0.04,1.00,0.13
13.348633,0.045545455,-0.019684207,-0.006669853,0.04,1.0,0.13,22058,10168.40,0,86,3,2.73,-3.01,0.77,0.04,1.00,0.13
18.648438,0.044545457,-0.024684202,-0.0056698537,0.03,0.99,0.13,22073,10173.70,0,86,3,2.66,-3.36,0.84,0.03,0.99,0.13
18.348633,0.045545455,-0.021684207,-0.0056698537,0.03,1.0,0.13,22095,10173.40,0,86,3,2.73,-3.15,0.84,0.03,1.00,0.13
17.348633,0.046545453,-0.015684206,-0.0036698524,0.02,1.0,0.13,22111,10172.40,0,86,3,2.80,-2.73,0.98,0.02,1.00,0.13
16.348633,0.045545455,-0.008684207,-0.0046698526,0.03,0.99,0.13,22133,10171.40,0,86,3,2.73,-2.24,0.91,0.03,0.99,0.13
15.348633,0.036545455,-0.010684207,0.0023301467,0.04,0.99,0.13,22156,10170.40,0,86,3,2.10,-2.38,1.40,0.04,0.99,0.13
13.348633,0.027545454,-0.010684207,0.005330147,0.04,0.99,0.12,22179,10168.40,0,86,3,1.47,-2.38,1.61,0.04,0.99,0.12
12.348633,0.025545456,-0.0066842046,0.009330148,0.03,1.0,0.12,22200,10167.40,0,86,3,1.33,-2.10,1.89,0.03,1.00,0.12
11.6484375,0.025545456,-0.010684207,0.0023301467,0.03,1.0,0.11,22223,10166.70,0,86,3,1.33,-2.38,1.40,0.03,1.00,0.11
9.6484375,0.030545453,-0.013684206,-0.009669852,0.03,1.0,0.12,22238,10164.70,0,86,3,1.68,-2.59,0.56,0.03,1.00,0.12
8.948242,0.032545455,-0.008684207,-0.011669854,0.03,1.0,0.12,22261,10164.00,0,86,3,1.82,-2.24,0.42,0.03,1.00,0.12
8.6484375,0.032545455,-0.0056842044,-0.018669853,0.03,0.99,0.12,22275,10163.70,0,86,3,1.82,-2.03,-0.07,0.03,0.99,0.12
7.6484375,0.028545454,-0.0066842046,-0.019669853,0.03,0.99,0.12,22290,10162.70,0,86,3,1.54,-2.10,-0.14,0.03,0.99,0.12
7.948242,0.027545454,-0.0026842058,-0.017669853,0.03,0.99,0.12,22306,10163.00,0,86,3,1.47,-1.82,0.00,0.03,0.99,0.12
8.6484375,0.023545455,-0.0056842044,-0.011669854,0.03,0.99,0.12,22321,10163.70,0,86,3,1.19,-2.03,0.42,0.03,0.99,0.12
8.6484375,0.005545454,-0.013684206,-0.0026698532,0.03,0.99,0.12,22343,10163.70,0,86,3,-0.07,-2.59,1.05,0.03,0.99,0.12
7.948242,-0.007454546,-0.015684206,-0.0036698524,0.02,1.0,0.12,22366,10163.00,0,86,3,-0.98,-2.73,0.98,0.02,1.00,0.12
7.6484375,-0.0044545457,-0.011684205,-0.0026698532,0.03,1.0,0.11,22389,10162.70,0,86,3,-0.77,-2.45,1.05,0.03,1.00,0.11
8.948242,0.0075454544,-0.003684206,-0.0036698524,0.03,1.0,0.11,22418,10164.00,0,86,3,0.07,-1.89,0.98,0.03,1.00,0.11
11.948242,0.010545455,-0.0026842058,-0.0056698537,0.02,1.0,0.12,22426,10167.00,0,86,3,0.28,-1.82,0.84,0.02,1.00,0.12
5.948242,5.454547E-4,3.1579472E-4,-0.007669853,0.02,0.99,0.12,22450,10161.00,0,86,3,-0.42,-1.61,0.70,0.02,0.99,0.12
9.948242,-0.005454545,0.0013157949,-0.006669853,0.03,1.0,0.12,22470,10165.00,0,86,3,-0.84,-1.54,0.77,0.03,1.00,0.12
10.948242,-0.014454545,3.1579472E-4,0.003330147,0.03,1.0,0.12,22493,10166.00,0,86,3,-1.47,-1.61,1.47,0.03,1.00,0.12
10.948242,-0.013454545,0.0043157935,0.0123301465,0.03,1.0,0.12,22501,10166.00,0,86,3,-1.40,-1.33,2.10,0.03,1.00,0.12
9.948242,-0.010454547,3.1579472E-4,0.008330148,0.03,1.0,0.12,22523,10165.00,0,86,3,-1.19,-1.61,1.82,0.03,1.00,0.12
10.948242,-0.005454545,3.1579472E-4,0.004330147,0.03,1.0,0.12,22538,10166.00,0,86,3,-0.84,-1.61,1.54,0.03,1.00,0.12
9.948242,-4.5454595E-4,-6.842036E-4,-0.0036698524,0.03,1.0,0.12,22553,10165.00,0,86,3,-0.49,-1.68,0.98,0.03,1.00,0.12
9.948242,0.004545454,0.0033157952,-0.0056698537,0.03,1.0,0.12,22570,10165.00,0,86,3,-0.14,-1.40,0.84,0.03,1.00,0.12
9.348633,0.008545455,0.008315795,-0.0016698521,0.03,0.99,0.12,22590,10164.40,0,86,3,0.14,-1.05,1.12,0.03,0.99,0.12
5.248047,-0.0014545461,0.008315795,0.0063301455,0.04,0.99,0.12,22621,10160.30,0,86,3,-0.56,-1.05,1.68,0.04,0.99,0.12
9.6484375,-0.0034545455,0.011315796,0.011330146,0.03,1.0,0.12,22636,10164.70,0,86,3,-0.70,-0.84,2.03,0.03,1.00,0.12
11.6484375,-0.007454546,0.013315795,0.0063301455,0.02,1.0,0.12,22650,10166.70,0,86,3,-0.98,-0.70,1.68,0.02,1.00,0.12
11.348633,-0.006454546,0.009315794,-0.0056698537,0.03,1.0,0.12,22681,10166.40,0,86,3,-0.91,-0.98,0.84,0.03,1.00,0.12
11.348633,-0.0044545457,0.009315794,-0.0056698537,0.03,1.0,0.11,22695,10166.40,0,86,3,-0.77,-0.98,0.84,0.03,1.00,0.11
10.348633,0.004545454,0.006315794,0.0013301484,0.03,1.0,0.11,22726,10165.40,0,86,3,-0.14,-1.19,1.33,0.03,1.00,0.11
10.348633,0.0015454544,0.0033157952,3.301464E-4,0.03,0.99,0.12,22741,10165.40,0,86,3,-0.35,-1.40,1.26,0.03,0.99,0.12
11.6484375,5.454547E-4,0.0043157935,3.301464E-4,0.03,0.99,0.12,22756,10166.70,0,86,3,-0.42,-1.33,1.26,0.03,0.99,0.12
11.348633,-4.5454595E-4,3.1579472E-4,0.0013301484,0.03,1.0,0.12,22772,10166.40,0,86,3,-0.49,-1.61,1.33,0.03,1.00,0.12
15.6484375,-0.006454546,-0.003684206,0.0063301455,0.03,1.0,0.12,22786,10170.70,0,86,3,-0.91,-1.89,1.68,0.03,1.00,0.12
12.348633,-0.012454547,-0.0026842058,0.009330148,0.03,0.99,0.12,22809,10167.40,0,86,3,-1.33,-1.82,1.89,0.03,0.99,0.12
11.6484375,-0.011454545,-6.842036E-4,0.0063301455,0.03,1.0,0.12,22816,10166.70,0,86,3,-1.26,-1.68,1.68,0.03,1.00,0.12
12.6484375,-0.0094545465,0.0043157935,0.0073301475,0.03,1.0,0.12,22838,10167.70,0,86,3,-1.12,-1.33,1.75,0.03,1.00,0.12
13.6484375,-0.0094545465,0.008315795,0.008330148,0.03,1.0,0.12,22861,10168.70,0,86,3,-1.12,-1.05,1.82,0.03,1.00,0.12
14.348633,-0.0044545457,0.011315796,0.005330147,0.03,1.0,0.12,22883,10169.40,0,86,3,-0.77,-0.84,1.61,0.03,1.00,0.12
14.6484375,0.0015454544,0.012315795,0.0013301484,0.03,1.0,0.12,22906,10169.70,0,86,3,-0.35,-0.77,1.33,0.03,1.00,0.12
14.6484375,0.0035454545,0.009315794,-0.0046698526,0.03,1.0,0.12,22929,10169.70,0,86,3,-0.21,-0.98,0.91,0.03,1.00,0.12
15.6484375,0.0065454543,0.007315794,-0.007669853,0.03,0.99,0.12,22944,10170.70,0,86,3,0.00,-1.12,0.70,0.03,0.99,0.12
17.648438,0.0075454544,0.006315794,-0.011669854,0.03,1.0,0.12,22966,10172.70,92,0,3,0.07,-1.19,0.42,0.03,1.00,0.12
18.648438,0.004545454,3.1579472E-4,-0.013669852,0.03,1.0,0.12,22988,10173.70,92,0,3,-0.14,-1.61,0.28,0.03,1.00,0.12
19.047852,0.0075454544,-6.842036E-4,-0.008669853,0.03,1.0,0.12,23011,10174.10,92,0,3,0.07,-1.68,0.63,0.03,1.00,0.12
20.047852,0.008545455,0.0033157952,-0.008669853,0.03,1.0,0.12,23018,10175.10,92,0,3,0.14,-1.40,0.63,0.03,1.00,0.12
21.047852,0.0075454544,0.0013157949,-0.011669854,0.02,1.0,0.12,23041,10176.10,92,0,3,0.07,-1.54,0.42,0.02,1.00,0.12
22.047852,0.009545454,-6.842036E-4,-0.022669852,0.02,1.0,0.12,23055,10177.10,92,0,3,0.21,-1.68,-0.35,0.02,1.00,0.12
25.047852,0.0035454545,-0.0056842044,-0.025669854,0.03,1.0,0.12,23070,10180.10,92,0,3,-0.21,-2.03,-0.56,0.03,1.00,0.12
25.047852,0.002545454,-0.010684207,-0.020669853,0.03,0.99,0.13,23093,10180.10,92,0,3,-0.28,-2.38,-0.21,0.03,0.99,0.13
26.348633,-0.0034545455,-0.011684205,-0.0016698521,0.03,0.99,0.12,23116,10181.40,92,0,3,-0.70,-2.45,1.12,0.03,0.99,0.12
26.047852,-0.008454545,-0.0066842046,0.0133301485,0.03,0.99,0.13,23131,10181.10,92,0,3,-1.05,-2.10,2.17,0.03,0.99,0.13
25.047852,-0.015454546,-0.0056842044,0.02033015,0.03,1.0,0.12,23153,10180.10,92,0,3,-1.54,-2.03,2.66,0.03,1.00,0.12
25.047852,-0.015454546,0.0033157952,0.022330146,0.02,1.0,0.13,23175,10180.10,92,0,3,-1.54,-1.40,2.80,0.02,1.00,0.13
25.348633,-0.012454547,0.008315795,0.0133301485,0.03,1.0,0.12,23198,10180.40,92,0,3,-1.33,-1.05,2.17,0.03,1.00,0.12
25.047852,-0.013454545,0.011315796,0.0123301465,0.03,0.99,0.13,23221,10180.10,92,0,3,-1.40,-0.84,2.10,0.03,0.99,0.13
24.348633,-0.016454546,0.009315794,0.0133301485,0.04,1.0,0.13,23236,10179.40,92,0,3,-1.61,-0.98,2.17,0.04,1.00,0.13
25.348633,-0.016454546,0.0053157955,0.011330146,0.04,1.0,0.13,23258,10180.40,92,0,3,-1.61,-1.26,2.03,0.04,1.00,0.13
24.348633,-0.017454544,0.002315795,0.0063301455,0.03,1.0,0.13,23273,10179.40,92,0,3,-1.68,-1.47,1.68,0.03,1.00,0.13
23.348633,-0.020454546,0.0013157949,3.301464E-4,0.03,1.0,0.13,23289,10178.40,92,0,3,-1.89,-1.54,1.26,0.03,1.00,0.13
23.748047,-0.018454546,0.0053157955,-0.0046698526,0.03,1.0,0.13,23303,10178.80,92,0,3,-1.75,-1.26,0.91,0.03,1.00,0.13
23.748047,-0.016454546,0.009315794,-0.0046698526,0.03,1.0,0.13,23318,10178.80,92,0,3,-1.61,-0.98,0.91,0.03,1.00,0.13
23.348633,-0.008454545,0.018315796,-0.006669853,0.03,1.0,0.13,23341,10178.40,92,0,3,-1.05,-0.35,0.77,0.03,1.00,0.13
21.348633,-0.0024545453,0.019315794,-0.0046698526,0.04,1.0,0.13,23363,10176.40,92,0,3,-0.63,-0.28,0.91,0.04,1.00,0.13
27.448242,-4.5454595E-4,0.013315795,-0.0046698526,0.04,1.0,0.13,23393,10182.50,92,0,3,-0.49,-0.70,0.91,0.04,1.00,0.13
23.348633,0.002545454,0.0103157945,0.0013301484,0.04,1.0,0.13,23401,10178.40,92,0,3,-0.28,-0.91,1.33,0.04,1.00,0.13
22.348633,0.004545454,0.009315794,0.004330147,0.03,1.0,0.13,23423,10177.40,92,0,3,-0.14,-0.98,1.54,0.03,1.00,0.13
22.748047,0.0065454543,0.0103157945,-0.0016698521,0.03,1.0,0.13,23446,10177.80,92,0,3,0.00,-0.91,1.12,0.03,1.00,0.13
21.748047,0.0035454545,0.008315795,-6.698519E-4,0.04,0.99,0.13,23468,10176.80,92,0,3,-0.21,-1.05,1.19,0.04,0.99,0.13
21.748047,-4.5454595E-4,0.0053157955,0.004330147,0.04,1.0,0.13,23490,10176.80,92,0,3,-0.49,-1.26,1.54,0.04,1.00,0.13
21.748047,5.454547E-4,3.1579472E-4,-0.0036698524,0.03,1.0,0.13,23506,10176.80,92,0,3,-0.42,-1.61,0.98,0.03,1.00,0.13
25.748047,0.0015454544,-0.0016842056,-0.0016698521,0.04,1.0,0.13,23529,10180.80,92,0,3,-0.35,-1.75,1.12,0.04,1.00,0.13
23.047852,0.005545454,-0.003684206,-6.698519E-4,0.03,1.0,0.13,23543,10178.10,92,0,3,-0.07,-1.89,1.19,0.03,1.00,0.13
22.748047,0.0065454543,-0.009684205,-0.0056698537,0.03,1.0,0.13,23558,10177.80,92,0,3,0.00,-2.31,0.84,0.03,1.00,0.13
22.748047,0.010545455,-0.010684207,-0.009669852,0.03,1.0,0.13,23573,10177.80,92,0,3,0.28,-2.38,0.56,0.03,1.00,0.13
23.348633,0.010545455,-0.010684207,-0.015669852,0.03,1.0,0.13,23603,10178.40,92,0,3,0.28,-2.38,0.14,0.03,1.00,0.13
23.047852,0.014545455,-0.009684205,-0.009669852,0.03,1.0,0.13,23618,10178.10,92,0,3,0.56,-2.31,0.56,0.03,1.00,0.13
23.047852,0.022545455,-0.008684207,-0.0026698532,0.03,1.0,0.13,23640,10178.10,92,0,3,1.12,-2.24,1.05,0.03,1.00,0.13
22.047852,0.024545453,-0.010684207,-6.698519E-4,0.03,1.0,0.13,23663,10177.10,92,0,3,1.26,-2.38,1.19,0.03,1.00,0.13
23.047852,0.016545454,-0.010684207,-0.006669853,0.03,0.99,0.13,23678,10178.10,92,0,3,0.70,-2.38,0.77,0.03,0.99,0.13
22.047852,0.004545454,-0.011684205,-0.013669852,0.03,1.0,0.13,23701,10177.10,92,0,3,-0.14,-2.45,0.28,0.03,1.00,0.13
20.748047,0.004545454,-0.0056842044,-0.008669853,0.03,0.99,0.13,23723,10175.80,92,0,3,-0.14,-2.03,0.63,0.03,0.99,0.13
21.047852,0.0015454544,-0.009684205,3.301464E-4,0.04,0.99,0.13,23746,10176.10,92,0,3,-0.35,-2.31,1.26,0.04,0.99,0.13
22.047852,0.0035454545,-0.008684207,0.010330148,0.03,0.99,0.13,23761,10177.10,92,0,3,-0.21,-2.24,1.96,0.03,0.99,0.13
22.748047,0.0035454545,-0.010684207,0.0123301465,0.03,1.0,0.13,23784,10177.80,92,0,3,-0.21,-2.38,2.10,0.03,1.00,0.13
22.348633,0.0075454544,-0.009684205,0.010330148,0.03,1.0,0.13,23799,10177.40,92,0,3,0.07,-2.31,1.96,0.03,1.00,0.13
21.348633,0.009545454,-0.0076842066,0.009330148,0.03,1.0,0.13,23813,10176.40,92,0,3,0.21,-2.17,1.89,0.03,1.00,0.13
20.348633,0.0075454544,-0.004684206,0.009330148,0.03,1.0,0.13,23828,10175.40,92,0,3,0.07,-1.96,1.89,0.03,1.00,0.13
20.348633,0.004545454,-6.842036E-4,0.009330148,0.04,1.0,0.13,23851,10175.40,92,0,3,-0.14,-1.68,1.89,0.04,1.00,0.13
18.348633,0.004545454,0.002315795,0.011330146,0.04,1.0,0.13,23873,10173.40,92,0,3,-0.14,-1.47,2.03,0.04,1.00,0.13
18.348633,0.0065454543,0.0013157949,0.009330148,0.04,0.99,0.13,23888,10173.40,92,86,3,0.00,-1.54,1.89,0.04,0.99,0.13
13.348633,-0.0024545453,3.1579472E-4,0.010330148,0.04,1.0,0.13,23911,10168.40,92,86,3,-0.63,-1.61,1.96,0.04,1.00,0.13
12.6484375,-4.5454595E-4,0.0053157955,0.0123301465,0.04,1.0,0.12,23933,10167.70,92,86,3,-0.49,-1.26,2.10,0.04,1.00,0.12
12.047852,0.005545454,0.0043157935,0.0063301455,0.04,1.0,0.12,23956,10167.10,92,86,3,-0.07,-1.33,1.68,0.04,1.00,0.12
10.948242,0.010545455,0.0043157935,-0.0026698532,0.04,1.0,0.13,23978,10166.00,92,86,3,0.28,-1.33,1.05,0.04,1.00,0.13
8.6484375,0.010545455,0.0043157935,-0.010669853,0.03,1.0,0.13,24001,10163.70,92,86,3,0.28,-1.33,0.49,0.03,1.00,0.13
8.6484375,0.010545455,0.008315795,-0.012669853,0.04,0.99,0.12,24016,10163.70,92,86,3,0.28,-1.05,0.35,0.04,0.99,0.12
8.6484375,0.010545455,0.007315794,-0.007669853,0.04,0.99,0.12,24030,10163.70,92,86,3,0.28,-1.12,0.70,0.04,0.99,0.12
9.348633,0.008545455,0.008315795,-0.0056698537,0.04,0.99,0.12,24046,10164.40,92,86,3,0.14,-1.05,0.84,0.04,0.99,0.12
8.6484375,0.005545454,0.0043157935,-0.0026698532,0.04,1.0,0.12,24068,10163.70,92,86,3,-0.07,-1.33,1.05,0.04,1.00,0.12
8.6484375,5.454547E-4,0.002315795,-0.0016698521,0.03,1.0,0.12,24083,10163.70,92,86,3,-0.42,-1.47,1.12,0.03,1.00,0.12
5.6484375,-0.0014545461,0.0043157935,-0.0026698532,0.03,1.0,0.12,24106,10160.70,92,86,3,-0.56,-1.33,1.05,0.03,1.00,0.12
8.6484375,-4.5454595E-4,0.006315794,-0.0056698537,0.03,1.0,0.12,24121,10163.70,92,86,3,-0.49,-1.19,0.84,0.03,1.00,0.12
9.948242,0.0015454544,0.007315794,-0.0046698526,0.03,1.0,0.12,24145,10165.00,92,86,3,-0.35,-1.12,0.91,0.03,1.00,0.12
9.6484375,0.005545454,0.009315794,-0.0056698537,0.03,1.0,0.12,24167,10164.70,92,86,3,-0.07,-0.98,0.84,0.03,1.00,0.12
9.6484375,0.0065454543,0.011315796,-0.009669852,0.03,1.0,0.12,24188,10164.70,92,86,3,0.00,-0.84,0.56,0.03,1.00,0.12
9.948242,0.009545454,0.0103157945,-0.018669853,0.03,1.0,0.12,24211,10165.00,92,86,3,0.21,-0.91,-0.07,0.03,1.00,0.12
8.6484375,0.004545454,0.008315795,-0.020669853,0.03,1.0,0.12,24234,10163.70,92,86,3,-0.14,-1.05,-0.21,0.03,1.00,0.12
9.948242,0.004545454,0.009315794,-0.017669853,0.03,1.0,0.12,24248,10165.00,92,86,3,-0.14,-0.98,0.00,0.03,1.00,0.12
9.6484375,0.0075454544,0.006315794,-0.010669853,0.03,0.99,0.12,24271,10164.70,92,86,3,0.07,-1.19,0.49,0.03,0.99,0.12
9.948242,0.009545454,0.0053157955,-0.006669853,0.03,1.0,0.12,24293,10165.00,92,86,3,0.21,-1.26,0.77,0.03,1.00,0.12
9.948242,0.009545454,0.0053157955,-0.008669853,0.03,1.0,0.12,24308,10165.00,92,86,3,0.21,-1.26,0.63,0.03,1.00,0.12
10.948242,0.004545454,0.0043157935,-0.010669853,0.03,0.99,0.13,24330,10166.00,92,86,3,-0.14,-1.33,0.49,0.03,0.99,0.13
10.948242,-0.0094545465,0.002315795,0.0013301484,0.03,0.99,0.12,24353,10166.00,92,86,3,-1.12,-1.47,1.33,0.03,0.99,0.12
10.948242,-0.015454546,0.0043157935,0.014330149,0.03,0.99,0.12,24368,10166.00,92,86,3,-1.54,-1.33,2.24,0.03,0.99,0.12
10.948242,-0.017454544,3.1579472E-4,0.010330148,0.03,1.0,0.12,24390,10166.00,92,86,3,-1.68,-1.61,1.96,0.03,1.00,0.12
11.348633,-0.013454545,0.002315795,0.008330148,0.03,1.0,0.12,24422,10166.40,92,86,3,-1.40,-1.47,1.82,0.03,1.00,0.12
13.047852,-0.010454547,0.0013157949,0.004330147,0.03,1.0,0.13,24436,10168.10,92,86,3,-1.19,-1.54,1.54,0.03,1.00,0.13
12.348633,-0.005454545,0.0043157935,0.0063301455,0.03,1.0,0.13,24458,10167.40,92,86,3,-0.84,-1.33,1.68,0.03,1.00,0.13
11.6484375,-0.0014545461,0.007315794,0.0063301455,0.04,1.0,0.13,24474,10166.70,92,86,3,-0.56,-1.12,1.68,0.04,1.00,0.13
13.348633,-4.5454595E-4,0.0043157935,0.0063301455,0.03,1.01,0.13,24496,10168.40,92,86,3,-0.49,-1.33,1.68,0.03,1.01,0.13
13.348633,0.004545454,0.0043157935,-0.0036698524,0.03,1.0,0.13,24518,10168.40,92,86,3,-0.14,-1.33,0.98,0.03,1.00,0.13
13.348633,0.005545454,0.0033157952,-0.014669853,0.03,1.0,0.13,24534,10168.40,92,86,3,-0.07,-1.40,0.21,0.03,1.00,0.13
15.6484375,0.004545454,0.0013157949,-0.020669853,0.03,1.0,0.13,24556,10170.70,92,86,3,-0.14,-1.54,-0.21,0.03,1.00,0.13
13.6484375,0.0075454544,0.0053157955,-0.017669853,0.03,1.0,0.13,24571,10168.70,92,86,3,0.07,-1.26,0.00,0.03,1.00,0.13
15.348633,0.011545454,0.0053157955,-0.017669853,0.03,1.0,0.12,24586,10170.40,92,86,3,0.35,-1.26,0.00,0.03,1.00,0.12
15.047852,0.015545454,3.1579472E-4,-0.021669853,0.02,1.0,0.12,24608,10170.10,92,86,3,0.63,-1.61,-0.28,0.02,1.00,0.12
17.748047,0.018545453,0.0013157949,-0.020669853,0.02,1.0,0.12,24630,10172.80,92,86,3,0.84,-1.54,-0.21,0.02,1.00,0.12
16.648438,0.018545453,0.0013157949,-0.016669853,0.03,0.99,0.12,24653,10171.70,92,86,3,0.84,-1.54,0.07,0.03,0.99,0.12
18.348633,0.009545454,0.0013157949,-0.011669854,0.02,0.99,0.13,24676,10173.40,92,86,3,0.21,-1.54,0.42,0.02,0.99,0.13
18.748047,0.004545454,0.002315795,-0.006669853,0.02,1.0,0.12,24698,10173.80,92,86,3,-0.14,-1.47,0.77,0.02,1.00,0.12
19.348633,0.002545454,0.008315795,-0.0016698521,0.03,1.0,0.13,24713,10174.40,92,86,3,-0.28,-1.05,1.12,0.03,1.00,0.13
21.047852,0.002545454,0.0103157945,3.301464E-4,0.02,1.0,0.13,24735,10176.10,93,86,3,-0.28,-0.91,1.26,0.02,1.00,0.13
22.748047,0.009545454,0.0103157945,3.301464E-4,0.02,1.0,0.13,24758,10177.80,93,86,3,0.21,-0.91,1.26,0.02,1.00,0.13
24.047852,0.008545455,0.0103157945,-0.0016698521,0.03,1.0,0.13,24780,10179.10,93,86,3,0.14,-0.91,1.12,0.03,1.00,0.13
24.047852,0.009545454,0.009315794,3.301464E-4,0.03,1.0,0.12,24796,10179.10,93,86,3,0.21,-0.98,1.26,0.03,1.00,0.12
24.047852,0.008545455,0.011315796,0.005330147,0.03,1.0,0.12,24811,10179.10,93,86,3,0.14,-0.84,1.61,0.03,1.00,0.12
23.047852,0.010545455,0.0103157945,0.0073301475,0.03,1.0,0.12,24826,10178.10,93,86,3,0.28,-0.91,1.75,0.03,1.00,0.12
24.047852,0.008545455,0.0103157945,0.004330147,0.02,1.0,0.12,24848,10179.10,93,86,3,0.14,-0.91,1.54,0.02,1.00,0.12
23.047852,0.005545454,0.008315795,0.003330147,0.03,0.99,0.12,24870,10178.10,93,86,3,-0.07,-1.05,1.47,0.03,0.99,0.12
22.748047,-4.5454595E-4,0.0053157955,0.0063301455,0.03,1.0,0.13,24893,10177.80,93,86,3,-0.49,-1.26,1.68,0.03,1.00,0.13
22.047852,-0.007454546,0.0033157952,0.0073301475,0.03,0.99,0.12,24916,10177.10,93,86,3,-0.98,-1.40,1.75,0.03,0.99,0.12
23.047852,-0.006454546,0.002315795,0.017330147,0.03,0.99,0.12,24938,10178.10,93,86,3,-0.91,-1.47,2.45,0.03,0.99,0.12
22.047852,-0.012454547,-0.0056842044,0.02033015,0.03,1.0,0.12,24953,10177.10,93,86,3,-1.33,-2.03,2.66,0.03,1.00,0.12
22.348633,-0.017454544,-0.008684207,0.014330149,0.03,0.99,0.13,24975,10177.40,93,86,3,-1.68,-2.24,2.24,0.03,0.99,0.13
23.448242,-0.024454547,-0.008684207,0.011330146,0.03,0.99,0.13,24998,10178.50,93,86,3,-2.17,-2.24,2.03,0.03,0.99,0.13
21.348633,-0.032454547,-0.0076842066,0.014330149,0.03,1.0,0.13,25021,10176.40,93,86,3,-2.73,-2.17,2.24,0.03,1.00,0.13
22.348633,-0.03145455,-0.004684206,0.021330148,0.04,1.0,0.13,25036,10177.40,93,86,3,-2.66,-1.96,2.73,0.04,1.00,0.13
21.348633,-0.032454547,-0.004684206,0.025330149,0.04,1.0,0.13,25051,10176.40,93,86,3,-2.73,-1.96,3.01,0.04,1.00,0.13
21.748047,-0.025454547,-0.004684206,0.024330147,0.04,1.0,0.13,25066,10176.80,93,86,3,-2.24,-1.96,2.94,0.04,1.00,0.13
21.348633,-0.019454546,-0.0056842044,0.019330148,0.04,1.0,0.13,25088,10176.40,93,86,3,-1.82,-2.03,2.59,0.04,1.00,0.13
21.348633,-0.011454545,-0.0026842058,0.014330149,0.04,1.0,0.14,25110,10176.40,93,86,3,-1.26,-1.82,2.24,0.04,1.00,0.14
21.748047,-0.007454546,0.0013157949,0.010330148,0.04,1.0,0.14,25133,10176.80,93,86,3,-0.98,-1.54,1.96,0.04,1.00,0.14
20.047852,-0.0094545465,0.0053157955,0.0073301475,0.04,1.0,0.14,25156,10175.10,93,86,3,-1.12,-1.26,1.75,0.04,1.00,0.14
17.748047,-0.0034545455,0.0043157935,0.005330147,0.04,1.01,0.13,25172,10172.80,93,86,3,-0.70,-1.33,1.61,0.04,1.01,0.13
19.348633,0.002545454,0.0043157935,-0.006669853,0.03,1.0,0.14,25193,10174.40,93,86,3,-0.28,-1.33,0.77,0.03,1.00,0.14
18.748047,5.454547E-4,-0.0026842058,-0.016669853,0.04,1.0,0.13,25224,10173.80,93,86,3,-0.42,-1.82,0.07,0.04,1.00,0.13
20.748047,0.0035454545,-0.0056842044,-0.018669853,0.04,1.0,0.13,25238,10175.80,93,86,3,-0.21,-2.03,-0.07,0.04,1.00,0.13
19.748047,0.009545454,-0.004684206,-0.014669853,0.04,1.0,0.13,25269,10174.80,93,86,3,0.21,-1.96,0.21,0.04,1.00,0.13
19.748047,0.018545453,-0.009684205,-0.018669853,0.04,0.99,0.13,25284,10174.80,93,86,3,0.84,-2.31,-0.07,0.04,0.99,0.13
20.047852,0.019545455,-0.010684207,-0.016669853,0.04,1.0,0.13,25298,10175.10,93,86,3,0.91,-2.38,0.07,0.04,1.00,0.13
19.748047,0.020545455,-0.010684207,-0.011669854,0.03,0.99,0.13,25313,10174.80,93,86,3,0.98,-2.38,0.42,0.03,0.99,0.13
14.6484375,0.017545454,-0.012684204,-0.009669852,0.03,0.99,0.13,25328,10169.70,93,86,3,0.77,-2.52,0.56,0.03,0.99,0.13
20.047852,0.0135454545,-0.0076842066,-0.012669853,0.03,0.99,0.13,25358,10175.10,93,86,3,0.49,-2.17,0.35,0.03,0.99,0.13
19.047852,0.005545454,-0.0056842044,-0.007669853,0.04,0.99,0.14,25373,10174.10,93,86,3,-0.07,-2.03,0.70,0.04,0.99,0.14
19.047852,-0.0014545461,-0.0076842066,-0.0036698524,0.04,0.99,0.13,25396,10174.10,93,86,3,-0.56,-2.17,0.98,0.04,0.99,0.13
18.047852,-0.0044545457,-0.008684207,0.004330147,0.04,0.99,0.13,25411,10173.10,93,86,3,-0.77,-2.24,1.54,0.04,0.99,0.13
17.047852,5.454547E-4,-0.009684205,0.010330148,0.04,0.99,0.13,25433,10172.10,93,86,3,-0.42,-2.31,1.96,0.04,0.99,0.13
13.348633,-0.0014545461,-0.010684207,0.02033015,0.04,1.0,0.13,25456,10168.40,93,86,3,-0.56,-2.38,2.66,0.04,1.00,0.13
10.6484375,0.004545454,-0.010684207,0.019330148,0.04,1.0,0.13,25478,10165.70,93,86,3,-0.14,-2.38,2.59,0.04,1.00,0.13
8.948242,0.0065454543,-0.010684207,0.010330148,0.04,1.0,0.13,25501,10164.00,93,86,3,0.00,-2.38,1.96,0.04,1.00,0.13
7.348633,0.004545454,-0.0026842058,3.301464E-4,0.03,1.0,0.13,25517,10162.40,93,86,3,-0.14,-1.82,1.26,0.03,1.00,0.13
7.348633,0.0035454545,-0.0026842058,-0.008669853,0.03,1.0,0.13,25545,10162.40,93,86,3,-0.21,-1.82,0.63,0.03,1.00,0.13
7.948242,0.004545454,0.002315795,-0.011669854,0.03,1.0,0.12,25554,10163.00,93,86,3,-0.14,-1.47,0.42,0.03,1.00,0.12
7.348633,0.002545454,0.0043157935,-0.015669852,0.04,1.0,0.13,25568,10162.40,93,86,3,-0.28,-1.33,0.14,0.04,1.00,0.13
6.348633,0.002545454,0.0013157949,-0.016669853,0.04,1.0,0.13,25583,10161.40,93,86,3,-0.28,-1.54,0.07,0.04,1.00,0.13
3.2480469,-0.0024545453,-0.003684206,-0.014669853,0.04,0.99,0.13,25605,10158.30,93,86,3,-0.63,-1.89,0.21,0.04,0.99,0.13
7.348633,-0.0024545453,-0.0056842044,-0.006669853,0.03,0.99,0.13,25628,10162.40,0,86,3,-0.63,-2.03,0.77,0.03,0.99,0.13
8.6484375,-0.0034545455,-0.008684207,-0.0036698524,0.03,1.0,0.13,25652,10163.70,0,86,3,-0.70,-2.24,0.98,0.03,1.00,0.13
8.348633,-0.006454546,-0.008684207,-0.0016698521,0.03,0.99,0.13,25666,10163.40,0,86,3,-0.91,-2.24,1.12,0.03,0.99,0.13
8.6484375,-0.0034545455,-0.0056842044,0.0063301455,0.03,0.99,0.12,25695,10163.70,0,86,3,-0.70,-2.03,1.68,0.03,0.99,0.12
9.6484375,0.002545454,-0.004684206,0.0123301465,0.04,1.0,0.13,25711,10164.70,0,86,3,-0.28,-1.96,2.10,0.04,1.00,0.13
9.348633,5.454547E-4,-0.003684206,0.004330147,0.03,1.0,0.13,25733,10164.40,0,86,3,-0.42,-1.89,1.54,0.03,1.00,0.13
8.6484375,-0.010454547,-6.842036E-4,-6.698519E-4,0.04,0.99,0.13,25756,10163.70,0,86,3,-1.19,-1.68,1.19,0.04,0.99,0.13
11.348633,-0.015454546,-0.0016842056,-0.0046698526,0.04,0.99,0.14,25778,10166.40,0,86,3,-1.54,-1.75,0.91,0.04,0.99,0.14
9.6484375,-0.019454546,0.002315795,0.008330148,0.04,1.0,0.13,25793,10164.70,0,86,3,-1.82,-1.47,1.82,0.04,1.00,0.13
9.6484375,-0.015454546,0.0013157949,0.0123301465,0.04,0.99,0.13,25808,10164.70,0,86,3,-1.54,-1.54,2.10,0.04,0.99,0.13
8.6484375,-0.013454545,0.0013157949,0.009330148,0.04,1.0,0.13,25824,10163.70,0,86,3,-1.40,-1.54,1.89,0.04,1.00,0.13
5.948242,-0.006454546,0.0013157949,0.0013301484,0.03,1.0,0.13,25846,10161.00,0,86,3,-0.91,-1.54,1.33,0.03,1.00,0.13
12.6484375,0.0015454544,0.0043157935,-6.698519E-4,0.04,1.0,0.13,25869,10167.70,0,86,3,-0.35,-1.33,1.19,0.04,1.00,0.13
9.6484375,0.0015454544,0.0033157952,0.0023301467,0.04,1.0,0.13,25883,10164.70,0,86,3,-0.35,-1.40,1.40,0.04,1.00,0.13
11.047852,-0.005454545,0.002315795,0.004330147,0.05,0.99,0.14,25905,10166.10,0,86,3,-0.84,-1.47,1.54,0.05,0.99,0.14
10.6484375,-0.006454546,-0.003684206,0.008330148,0.04,1.0,0.13,25936,10165.70,0,86,3,-0.91,-1.89,1.82,0.04,1.00,0.13
12.047852,-4.5454595E-4,-0.0026842058,0.003330147,0.04,1.0,0.13,25950,10167.10,0,86,3,-0.49,-1.82,1.47,0.04,1.00,0.13
14.047852,-0.0034545455,-0.003684206,-0.009669852,0.04,1.0,0.14,25973,10169.10,0,86,3,-0.70,-1.89,0.56,0.04,1.00,0.14
12.047852,-0.008454545,0.0013157949,-0.009669852,0.04,1.0,0.14,25988,10167.10,0,86,3,-1.05,-1.54,0.56,0.04,1.00,0.14
13.6484375,-0.0094545465,0.0043157935,-0.007669853,0.04,1.0,0.14,26011,10168.70,0,86,3,-1.12,-1.33,0.70,0.04,1.00,0.14
13.047852,-0.0014545461,0.008315795,-0.007669853,0.04,1.0,0.13,26033,10168.10,0,86,3,-0.56,-1.05,0.70,0.04,1.00,0.13
14.047852,-0.0014545461,0.006315794,-0.012669853,0.04,0.99,0.13,26048,10169.10,0,86,3,-0.56,-1.19,0.35,0.04,0.99,0.13
14.047852,0.0015454544,0.0043157935,-0.014669853,0.03,1.0,0.14,26071,10169.10,0,86,3,-0.35,-1.33,0.21,0.03,1.00,0.14
14.047852,0.004545454,0.0053157955,-0.012669853,0.03,1.0,0.13,26086,10169.10,0,86,3,-0.14,-1.26,0.35,0.03,1.00,0.13
15.748047,0.005545454,0.007315794,-0.009669852,0.03,0.99,0.14,26108,10170.80,0,86,3,-0.07,-1.12,0.56,0.03,0.99,0.14
15.348633,0.004545454,0.006315794,-0.007669853,0.04,0.99,0.14,26122,10170.40,0,86,3,-0.14,-1.19,0.70,0.04,0.99,0.14
15.348633,-0.0024545453,0.0043157935,-0.0036698524,0.04,0.99,0.13,26145,10170.40,0,86,3,-0.63,-1.33,0.98,0.04,0.99,0.13
16.348633,-0.0014545461,0.002315795,-0.0026698532,0.03,0.99,0.13,26168,10171.40,0,86,3,-0.56,-1.47,1.05,0.03,0.99,0.13
15.348633,0.0015454544,0.007315794,-0.0046698526,0.03,1.0,0.13,26190,10170.40,0,86,3,-0.35,-1.12,0.91,0.03,1.00,0.13
17.348633,0.0035454545,0.007315794,-0.006669853,0.03,1.0,0.13,26213,10172.40,0,86,3,-0.21,-1.12,0.77,0.03,1.00,0.13
17.348633,0.0035454545,0.009315794,-0.009669852,0.03,1.0,0.13,26228,10172.40,0,86,3,-0.21,-0.98,0.56,0.03,1.00,0.13
18.348633,0.004545454,0.008315795,-0.009669852,0.04,1.0,0.13,26250,10173.40,0,86,3,-0.14,-1.05,0.56,0.04,1.00,0.13
18.348633,5.454547E-4,0.008315795,-0.014669853,0.03,1.0,0.13,26273,10173.40,0,86,3,-0.42,-1.05,0.21,0.03,1.00,0.13
21.448242,0.004545454,0.007315794,-0.014669853,0.03,1.0,0.14,26287,10176.50,0,86,3,-0.14,-1.12,0.21,0.03,1.00,0.14
20.748047,0.008545455,0.009315794,-0.011669854,0.03,0.99,0.14,26310,10175.80,0,86,3,0.14,-0.98,0.42,0.03,0.99,0.14
21.448242,0.0065454543,0.008315795,-0.008669853,0.03,0.99,0.14,26326,10176.50,0,86,3,0.00,-1.05,0.63,0.03,0.99,0.14
21.748047,0.0015454544,0.006315794,-0.010669853,0.03,0.99,0.14,26341,10176.80,0,86,3,-0.35,-1.19,0.49,0.03,0.99,0.14
15.047852,5.454547E-4,0.009315794,-6.698519E-4,0.03,0.99,0.14,26363,10170.10,0,86,3,-0.42,-0.98,1.19,0.03,0.99,0.14
21.748047,-0.007454546,0.0103157945,3.301464E-4,0.04,0.99,0.14,26386,10176.80,0,86,3,-0.98,-0.91,1.26,0.04,0.99,0.14
20.348633,-0.011454545,0.006315794,0.0063301455,0.03,0.99,0.14,26408,10175.40,0,86,3,-1.26,-1.19,1.68,0.03,0.99,0.14
21.748047,-0.011454545,0.0053157955,0.0063301455,0.03,1.0,0.14,26431,10176.80,0,86,3,-1.26,-1.26,1.68,0.03,1.00,0.14
21.748047,-0.016454546,0.0043157935,0.0063301455,0.03,1.0,0.14,26446,10176.80,0,86,3,-1.61,-1.33,1.68,0.03,1.00,0.14
21.047852,-0.016454546,0.0043157935,0.004330147,0.03,1.0,0.14,26468,10176.10,0,86,3,-1.61,-1.33,1.54,0.03,1.00,0.14
21.748047,-0.013454545,0.0043157935,0.011330146,0.04,0.99,0.14,26492,10176.80,0,86,3,-1.40,-1.33,2.03,0.04,0.99,0.14
22.047852,-0.013454545,0.0033157952,0.017330147,0.04,0.99,0.14,26513,10177.10,0,86,3,-1.40,-1.40,2.45,0.04,0.99,0.14
20.047852,-0.012454547,-0.003684206,0.016330149,0.03,1.0,0.14,26535,10175.10,0,86,3,-1.33,-1.89,2.38,0.03,1.00,0.14
18.047852,-0.017454544,0.006315794,0.003330147,0.03,0.99,0.14,26550,10173.10,0,86,3,-1.68,-1.19,1.47,0.03,0.99,0.14
22.047852,-0.014454545,0.0033157952,-0.006669853,0.03,1.0,0.14,26565,10177.10,0,86,3,-1.47,-1.40,0.77,0.03,1.00,0.14
21.047852,-0.013454545,0.0033157952,-0.0016698521,0.04,1.0,0.14,26580,10176.10,0,86,3,-1.40,-1.40,1.12,0.04,1.00,0.14
20.047852,-0.011454545,0.007315794,0.0063301455,0.04,0.99,0.14,26603,10175.10,0,86,3,-1.26,-1.12,1.68,0.04,0.99,0.14
21.047852,-0.010454547,0.0053157955,0.009330148,0.04,0.99,0.14,26625,10176.10,0,86,3,-1.19,-1.26,1.89,0.04,0.99,0.14
20.047852,-0.0094545465,0.0033157952,0.011330146,0.03,1.0,0.14,26655,10175.10,0,86,3,-1.12,-1.40,2.03,0.03,1.00,0.14
18.047852,-0.0024545453,0.002315795,0.011330146,0.04,1.0,0.14,26663,10173.10,0,86,3,-0.63,-1.47,2.03,0.04,1.00,0.14
21.047852,0.0035454545,0.0013157949,-0.0016698521,0.04,0.99,0.14,26693,10176.10,0,86,3,-0.21,-1.54,1.12,0.04,0.99,0.14
21.448242,-4.5454595E-4,0.0033157952,0.0013301484,0.04,0.99,0.15,26708,10176.50,0,86,3,-0.49,-1.40,1.33,0.04,0.99,0.15
21.448242,-0.010454547,-0.0016842056,0.005330147,0.04,0.99,0.15,26731,10176.50,0,86,3,-1.19,-1.75,1.61,0.04,0.99,0.15
21.047852,-0.008454545,3.1579472E-4,0.0063301455,0.04,1.0,0.14,26753,10176.10,0,86,3,-1.05,-1.61,1.68,0.04,1.00,0.14
21.448242,-0.0034545455,0.0043157935,-0.0016698521,0.03,1.0,0.14,26768,10176.50,0,86,3,-0.70,-1.33,1.12,0.03,1.00,0.14
19.748047,-0.0034545455,0.002315795,-0.010669853,0.03,1.0,0.14,26798,10174.80,0,86,3,-0.70,-1.47,0.49,0.03,1.00,0.14
20.448242,-0.0014545461,3.1579472E-4,-0.014669853,0.04,1.0,0.14,26813,10175.50,0,86,3,-0.56,-1.61,0.21,0.04,1.00,0.14
20.448242,-4.5454595E-4,0.0013157949,-0.013669852,0.04,0.99,0.14,26828,10175.50,0,86,3,-0.49,-1.54,0.28,0.04,0.99,0.14
18.348633,0.004545454,-0.0016842056,-0.007669853,0.04,0.99,0.14,26844,10173.40,0,86,3,-0.14,-1.75,0.70,0.04,0.99,0.14
19.348633,0.004545454,-0.009684205,-6.698519E-4,0.04,0.99,0.14,26866,10174.40,0,86,3,-0.14,-2.31,1.19,0.04,0.99,0.14
18.748047,0.004545454,-0.014684208,0.0023301467,0.04,1.0,0.14,26881,10173.80,0,86,3,-0.14,-2.66,1.40,0.04,1.00,0.14
16.748047,0.0065454543,-0.013684206,0.003330147,0.03,0.99,0.15,26903,10171.80,0,86,3,0.00,-2.59,1.47,0.03,0.99,0.15
19.748047,5.454547E-4,-0.010684207,0.0013301484,0.03,0.99,0.15,26925,10174.80,0,86,3,-0.42,-2.38,1.33,0.03,0.99,0.15
17.748047,-0.0034545455,-0.0026842058,-0.0026698532,0.04,1.0,0.15,26948,10172.80,0,86,3,-0.70,-1.82,1.05,0.04,1.00,0.15
18.348633,-0.0044545457,3.1579472E-4,-6.698519E-4,0.04,1.0,0.14,26971,10173.40,0,86,3,-0.77,-1.61,1.19,0.04,1.00,0.14
17.748047,0.0015454544,3.1579472E-4,-0.0046698526,0.04,1.0,0.14,26992,10172.80,0,86,3,-0.35,-1.61,0.91,0.04,1.00,0.14
19.047852,0.0075454544,-6.842036E-4,-0.007669853,0.04,1.0,0.14,27008,10174.10,0,86,3,0.07,-1.68,0.70,0.04,1.00,0.14
18.748047,0.014545455,-0.0016842056,-0.0056698537,0.04,0.99,0.14,27030,10173.80,0,86,3,0.56,-1.75,0.84,0.04,0.99,0.14
18.348633,0.016545454,-0.0056842044,-0.007669853,0.04,0.99,0.14,27053,10173.40,0,86,3,0.70,-2.03,0.70,0.04,0.99,0.14
16.348633,0.021545455,-0.0056842044,-0.0036698524,0.04,0.99,0.15,27077,10171.40,0,86,3,1.05,-2.03,0.98,0.04,0.99,0.15
15.748047,0.018545453,-0.009684205,-0.0016698521,0.04,0.99,0.14,27083,10170.80,0,86,3,0.84,-2.31,1.12,0.04,0.99,0.14
14.047852,0.0135454545,-0.011684205,0.009330148,0.04,0.99,0.14,27106,10169.10,0,86,3,0.49,-2.45,1.89,0.04,0.99,0.14
12.047852,0.0135454545,-0.014684208,0.0063301455,0.04,0.99,0.14,27121,10167.10,0,86,3,0.49,-2.66,1.68,0.04,0.99,0.14
10.047852,0.015545454,-0.013684206,0.003330147,0.04,1.0,0.14,27151,10165.10,0,86,3,0.63,-2.59,1.47,0.04,1.00,0.14
10.047852,0.014545455,-0.012684204,-0.009669852,0.04,1.0,0.14,27166,10165.10,0,86,3,0.56,-2.52,0.56,0.04,1.00,0.14
-0.051757812,0.0075454544,-0.0016842056,-0.013669852,0.04,1.0,0.14,27189,10155.00,0,86,3,0.07,-1.75,0.28,0.04,1.00,0.14
8.348633,5.454547E-4,0.002315795,-0.012669853,0.04,0.99,0.14,27211,10163.40,0,86,3,-0.42,-1.47,0.35,0.04,0.99,0.14
6.6484375,0.0015454544,0.0033157952,-0.010669853,0.03,0.99,0.14,27227,10161.70,0,86,3,-0.35,-1.40,0.49,0.03,0.99,0.14
7.348633,0.002545454,0.0043157935,-0.010669853,0.03,1.0,0.14,27248,10162.40,0,86,3,-0.28,-1.33,0.49,0.03,1.00,0.14
5.948242,0.008545455,0.0043157935,-0.008669853,0.04,1.0,0.14,27271,10161.00,0,86,3,0.14,-1.33,0.63,0.04,1.00,0.14
7.348633,0.016545454,0.0043157935,-0.011669854,0.04,1.0,0.14,27293,10162.40,0,86,3,0.70,-1.33,0.42,0.04,1.00,0.14
7.348633,0.018545453,0.0033157952,-0.009669852,0.04,1.0,0.14,27309,10162.40,0,86,3,0.84,-1.40,0.56,0.04,1.00,0.14
8.348633,0.017545454,0.0033157952,-0.0046698526,0.04,1.0,0.14,27331,10163.40,0,86,3,0.77,-1.40,0.91,0.04,1.00,0.14
5.6484375,0.0135454545,-0.004684206,-0.012669853,0.03,0.99,0.14,27346,10160.70,0,86,3,0.49,-1.96,0.35,0.03,0.99,0.14
12.047852,0.012545453,3.1579472E-4,-0.017669853,0.03,0.99,0.14,27369,10167.10,0,86,3,0.42,-1.61,0.00,0.03,0.99,0.14
10.047852,0.010545455,3.1579472E-4,-0.014669853,0.04,0.99,0.14,27391,10165.10,0,86,3,0.28,-1.61,0.21,0.04,0.99,0.14
9.6484375,0.012545453,3.1579472E-4,-0.008669853,0.04,1.0,0.13,27413,10164.70,0,86,3,0.42,-1.61,0.63,0.04,1.00,0.13
9.348633,0.019545455,0.007315794,-0.009669852,0.03,1.0,0.13,27428,10164.40,0,86,3,0.91,-1.12,0.56,0.03,1.00,0.13
10.6484375,0.022545455,0.0103157945,-0.016669853,0.03,1.0,0.13,27451,10165.70,0,86,3,1.12,-0.91,0.07,0.03,1.00,0.13
9.348633,0.016545454,0.0043157935,-0.025669854,0.03,0.99,0.13,27473,10164.40,0,86,3,0.70,-1.33,-0.56,0.03,0.99,0.13
9.348633,0.0065454543,0.002315795,-0.018669853,0.04,1.0,0.13,27496,10164.40,0,86,3,0.00,-1.47,-0.07,0.04,1.00,0.13
10.348633,0.0015454544,3.1579472E-4,-0.008669853,0.04,1.0,0.13,27519,10165.40,0,86,3,-0.35,-1.61,0.63,0.04,1.00,0.13
8.6484375,0.002545454,-0.004684206,-0.0016698521,0.03,0.99,0.13,27533,10163.70,0,86,3,-0.28,-1.96,1.12,0.03,0.99,0.13
10.6484375,0.002545454,-0.0066842046,-0.007669853,0.03,0.99,0.13,27556,10165.70,0,86,3,-0.28,-2.10,0.70,0.03,0.99,0.13
12.6484375,0.0065454543,-0.0056842044,-0.009669852,0.03,0.99,0.13,27571,10167.70,0,86,3,0.00,-2.03,0.56,0.03,0.99,0.13
13.047852,0.0065454543,-0.003684206,-0.012669853,0.03,0.99,0.13,27593,10168.10,0,86,3,0.00,-1.89,0.35,0.03,0.99,0.13
15.047852,0.005545454,0.0013157949,-0.009669852,0.03,0.99,0.13,27608,10170.10,0,86,3,-0.07,-1.54,0.56,0.03,0.99,0.13
19.748047,-0.0024545453,0.006315794,-0.0046698526,0.03,0.99,0.13,27630,10174.80,0,86,3,-0.63,-1.19,0.91,0.03,0.99,0.13
19.047852,-0.013454545,0.006315794,0.004330147,0.03,0.99,0.13,27646,10174.10,0,86,3,-1.40,-1.19,1.54,0.03,0.99,0.13
19.748047,-0.015454546,0.002315795,0.014330149,0.03,1.0,0.13,27669,10174.80,0,86,3,-1.54,-1.47,2.24,0.03,1.00,0.13
20.748047,-0.013454545,0.0013157949,0.014330149,0.03,0.98,0.14,27691,10175.80,0,86,3,-1.40,-1.54,2.24,0.03,0.98,0.14
23.047852,-0.018454546,-0.009684205,0.015330147,0.03,0.99,0.14,27713,10178.10,0,86,3,-1.75,-2.31,2.31,0.03,0.99,0.14
23.047852,-0.024454547,-0.010684207,0.022330146,0.04,0.99,0.14,27736,10178.10,0,86,3,-2.17,-2.38,2.80,0.04,0.99,0.14
22.047852,-0.025454547,-0.009684205,0.03433015,0.04,0.99,0.14,27751,10177.10,0,86,3,-2.24,-2.31,3.64,0.04,0.99,0.14
20.047852,-0.022454545,-0.010684207,0.03833015,0.04,1.0,0.14,27773,10175.10,0,86,3,-2.03,-2.38,3.92,0.04,1.00,0.14
15.047852,-0.018454546,-0.011684205,0.043330148,0.05,1.0,0.15,27796,10170.10,0,86,3,-1.75,-2.45,4.27,0.05,1.00,0.15
14.047852,-0.020454546,-0.015684206,0.042330146,0.05,0.99,0.15,27825,10169.10,0,86,3,-1.89,-2.73,4.20,0.05,0.99,0.15
10.348633,-0.021454547,-0.019684207,0.04633015,0.05,1.0,0.15,27826,10165.40,0,86,3,-1.96,-3.01,4.48,0.05,1.00,0.15
6.348633,-0.025454547,-0.014684208,0.03633015,0.05,1.01,0.14,27855,10161.40,0,86,3,-2.24,-2.66,3.78,0.05,1.01,0.14
5.348633,-0.022454545,-0.008684207,0.017330147,0.04,1.01,0.14,27863,10160.40,0,86,3,-2.03,-2.24,2.45,0.04,1.01,0.14
7.348633,-0.016454546,-0.003684206,-0.013669852,0.04,1.01,0.14,27885,10162.40,0,86,3,-1.61,-1.89,0.28,0.04,1.01,0.14
2.3486328,-0.006454546,0.002315795,-0.034669854,0.03,1.01,0.14,27908,10157.40,0,86,3,-0.91,-1.47,-1.19,0.03,1.01,0.14
4.348633,0.0015454544,0.008315795,-0.039669853,0.04,1.0,0.14,27938,10159.40,0,86,3,-0.35,-1.05,-1.54,0.04,1.00,0.14
8.047852,0.009545454,0.013315795,-0.034669854,0.04,0.99,0.14,27953,10163.10,0,86,3,0.21,-0.70,-1.19,0.04,0.99,0.14
12.348633,0.012545453,0.011315796,-0.034669854,0.03,0.99,0.15,27975,10167.40,0,86,3,0.42,-0.84,-1.19,0.03,0.99,0.15
16.348633,0.011545454,0.012315795,-0.031669855,0.03,0.99,0.14,27998,10171.40,0,86,3,0.35,-0.77,-0.98,0.03,0.99,0.14
21.448242,0.010545455,0.009315794,-0.022669852,0.04,0.99,0.15,28013,10176.50,0,86,3,0.28,-0.98,-0.35,0.04,0.99,0.15
22.448242,0.0135454545,0.012315795,0.0013301484,0.04,0.98,0.15,28036,10177.50,0,86,3,0.49,-0.77,1.33,0.04,0.98,0.15
16.748047,0.0065454543,0.007315794,0.0123301465,0.04,0.98,0.15,28052,10171.80,0,86,3,0.00,-1.12,2.10,0.04,0.98,0.15
21.448242,0.0015454544,0.0043157935,0.023330145,0.04,0.99,0.15,28066,10176.50,0,86,3,-0.35,-1.33,2.87,0.04,0.99,0.15
20.047852,0.002545454,0.0033157952,0.029330146,0.04,0.99,0.15,28088,10175.10,0,86,3,-0.28,-1.40,3.29,0.04,0.99,0.15
20.748047,-0.0014545461,-6.842036E-4,0.035330147,0.05,0.99,0.15,28103,10175.80,0,86,3,-0.56,-1.68,3.71,0.05,0.99,0.15
17.748047,-0.010454547,-0.011684205,0.03833015,0.05,0.99,0.15,28125,10172.80,0,86,3,-1.19,-2.45,3.92,0.05,0.99,0.15
11.348633,-0.013454545,-0.014684208,0.048330147,0.06,1.0,0.15,28148,10166.40,93,86,3,-1.40,-2.66,4.62,0.06,1.00,0.15
6.6484375,-0.015454546,-0.015684206,0.04433015,0.05,1.01,0.15,28178,10161.70,93,86,3,-1.54,-2.73,4.34,0.05,1.01,0.15
4.6484375,-0.010454547,-0.018684205,0.024330147,0.04,1.02,0.14,28200,10159.70,93,86,3,-1.19,-2.94,2.94,0.04,1.02,0.14
0.9482422,0.004545454,-0.009684205,-0.010669853,0.03,1.02,0.14,28223,10156.00,93,86,3,-0.14,-2.31,0.49,0.03,1.02,0.14
2.6484375,0.027545454,0.0013157949,-0.04066985,0.03,1.01,0.14,28239,10157.70,93,86,3,1.47,-1.54,-1.61,0.03,1.01,0.14
4.6484375,0.040545456,0.011315796,-0.057669852,0.04,1.0,0.14,28261,10159.70,93,86,3,2.38,-0.84,-2.80,0.04,1.00,0.14
12.047852,0.043545455,0.017315796,-0.060669854,0.03,0.99,0.14,28276,10167.10,93,86,3,2.59,-0.42,-3.01,0.03,0.99,0.14
12.047852,0.040545456,0.015315794,-0.05866985,0.03,0.99,0.14,28293,10167.10,93,86,3,2.38,-0.56,-2.87,0.03,0.99,0.14
15.047852,0.032545455,0.012315795,-0.049669854,0.03,0.99,0.14,28313,10170.10,93,86,3,1.82,-0.77,-2.24,0.03,0.99,0.14
18.047852,0.032545455,0.012315795,-0.037669852,0.04,0.98,0.14,28328,10173.10,93,86,3,1.82,-0.77,-1.40,0.04,0.98,0.14
19.748047,0.021545455,0.006315794,-0.013669852,0.04,0.98,0.14,28350,10174.80,93,86,3,1.05,-1.19,0.28,0.04,0.98,0.14
17.047852,0.009545454,-0.0066842046,-0.0036698524,0.04,0.98,0.14,28365,10172.10,93,86,3,0.21,-2.10,0.98,0.04,0.98,0.14
20.047852,-4.5454595E-4,-0.010684207,0.004330147,0.04,0.98,0.14,28388,10175.10,93,86,3,-0.49,-2.38,1.54,0.04,0.98,0.14
18.348633,-0.0044545457,-0.009684205,0.017330147,0.04,0.99,0.14,28410,10173.40,93,86,3,-0.77,-2.31,2.45,0.04,0.99,0.14
17.348633,-0.0014545461,-0.012684204,0.029330146,0.04,1.0,0.14,28433,10172.40,93,86,3,-0.56,-2.52,3.29,0.04,1.00,0.14
14.348633,-4.5454595E-4,-0.011684205,0.037330147,0.05,0.99,0.15,28456,10169.40,93,86,3,-0.49,-2.45,3.85,0.05,0.99,0.15
9.348633,-0.0034545455,-0.003684206,0.043330148,0.05,0.99,0.15,28471,10164.40,93,86,3,-0.70,-1.89,4.27,0.05,0.99,0.15
4.348633,-0.006454546,0.0043157935,0.03433015,0.04,1.01,0.14,28493,10159.40,93,86,3,-0.91,-1.33,3.64,0.04,1.01,0.14
3.3486328,-0.0014545461,0.009315794,0.008330148,0.03,1.01,0.13,28516,10158.40,93,86,3,-0.56,-0.98,1.82,0.03,1.01,0.13
3.3486328,0.012545453,0.014315795,-0.021669853,0.04,1.01,0.14,28538,10158.40,93,86,3,0.42,-0.63,-0.28,0.04,1.01,0.14
3.9482422,0.009545454,0.018315796,-0.032669853,0.04,1.0,0.14,28553,10159.00,93,86,3,0.21,-0.35,-1.05,0.04,1.00,0.14
5.348633,0.0075454544,0.018315796,-0.034669854,0.04,1.0,0.13,28568,10160.40,93,86,3,0.07,-0.35,-1.19,0.04,1.00,0.13
6.348633,0.010545455,0.020315794,-0.038669854,0.04,1.0,0.13,28590,10161.40,93,86,3,0.28,-0.21,-1.47,0.04,1.00,0.13
9.348633,0.009545454,0.023315795,-0.04466985,0.03,0.99,0.14,28605,10164.40,93,86,3,0.21,0.00,-1.89,0.03,0.99,0.14
13.348633,0.002545454,0.018315796,-0.046669852,0.04,0.99,0.14,28636,10168.40,93,86,3,-0.28,-0.35,-2.03,0.04,0.99,0.14
15.348633,-0.0024545453,0.015315794,-0.036669854,0.04,0.99,0.14,28651,10170.40,93,86,3,-0.63,-0.56,-1.33,0.04,0.99,0.14
18.748047,-0.006454546,0.008315795,-0.017669853,0.04,0.98,0.14,28673,10173.80,93,86,3,-0.91,-1.05,0.00,0.04,0.98,0.14
19.748047,-0.015454546,-6.842036E-4,-0.0036698524,0.04,0.99,0.14,28695,10174.80,93,86,3,-1.54,-1.68,0.98,0.04,0.99,0.14
20.748047,-0.014454545,-0.008684207,0.008330148,0.04,0.99,0.14,28711,10175.80,93,86,3,-1.47,-2.24,1.82,0.04,0.99,0.14
19.748047,-0.0094545465,-0.010684207,0.014330149,0.04,0.99,0.14,28733,10174.80,93,86,3,-1.12,-2.38,2.24,0.04,0.99,0.14
18.748047,-0.0024545453,-0.009684205,0.017330147,0.04,0.99,0.15,28756,10173.80,93,86,3,-0.63,-2.31,2.45,0.04,0.99,0.15
18.047852,-0.006454546,-0.015684206,0.024330147,0.04,0.98,0.15,28778,10173.10,93,86,3,-0.91,-2.73,2.94,0.04,0.98,0.15
9.6484375,-0.017454544,-0.011684205,0.035330147,0.05,0.98,0.15,28793,10164.70,93,86,3,-1.68,-2.45,3.71,0.05,0.98,0.15
8.6484375,-0.028454546,-0.012684204,0.04933015,0.05,0.99,0.15,28809,10163.70,93,86,3,-2.45,-2.52,4.69,0.05,0.99,0.15
5.948242,-0.033454545,-0.008684207,0.048330147,0.04,1.0,0.14,28831,10161.00,93,86,3,-2.80,-2.24,4.62,0.04,1.00,0.14
-2.0517578,-0.028454546,-0.008684207,0.033330146,0.03,1.01,0.14,28853,10153.00,93,86,3,-2.45,-2.24,3.57,0.03,1.01,0.14
1.9482422,-0.011454545,0.0033157952,0.0063301455,0.03,1.01,0.14,28868,10157.00,93,86,3,-1.26,-1.40,1.68,0.03,1.01,0.14
1.6484375,-4.5454595E-4,0.012315795,-0.020669853,0.03,1.01,0.14,28891,10156.70,93,86,3,-0.49,-0.77,-0.21,0.03,1.01,0.14
3.9482422,0.0065454543,0.020315794,-0.035669852,0.03,1.0,0.14,28913,10159.00,93,86,3,0.00,-0.21,-1.26,0.03,1.00,0.14
7.0478516,0.011545454,0.031315796,-0.035669852,0.04,1.0,0.14,28944,10162.10,93,86,3,0.35,0.56,-1.26,0.04,1.00,0.14
9.047852,0.012545453,0.031315796,-0.030669853,0.03,0.99,0.15,28958,10164.10,93,86,3,0.42,0.56,-0.91,0.03,0.99,0.15
14.047852,0.0035454545,0.029315794,-0.021669853,0.03,0.99,0.15,28972,10169.10,93,87,3,-0.21,0.42,-0.28,0.03,0.99,0.15
16.348633,5.454547E-4,0.030315794,-0.008669853,0.04,0.98,0.14,28995,10171.40,93,87,3,-0.42,0.49,0.63,0.04,0.98,0.14
19.448242,-0.005454545,0.018315796,0.0013301484,0.04,0.98,0.15,29018,10174.50,93,87,3,-0.84,-0.35,1.33,0.04,0.98,0.15
18.047852,-0.008454545,0.011315796,0.015330147,0.04,0.98,0.15,29048,10173.10,93,87,3,-1.05,-0.84,2.31,0.04,0.98,0.15
19.448242,-0.012454547,3.1579472E-4,0.026330147,0.04,0.99,0.14,29056,10174.50,93,87,3,-1.33,-1.61,3.08,0.04,0.99,0.14
19.448242,-0.013454545,-0.0066842046,0.033330146,0.05,0.99,0.14,29072,10174.50,93,87,3,-1.40,-2.10,3.57,0.05,0.99,0.14
16.348633,-0.006454546,-0.008684207,0.03433015,0.05,0.99,0.15,29086,10171.40,93,87,3,-0.91,-2.24,3.64,0.05,0.99,0.15
14.348633,-0.007454546,-0.018684205,0.03833015,0.04,0.99,0.15,29108,10169.40,93,87,3,-0.98,-2.94,3.92,0.04,0.99,0.15
11.348633,-0.013454545,-0.022684205,0.037330147,0.05,0.99,0.15,29130,10166.40,93,87,3,-1.40,-3.22,3.85,0.05,0.99,0.15
5.348633,-0.019454546,-0.018684205,0.037330147,0.05,1.0,0.15,29153,10160.40,93,87,3,-1.82,-2.94,3.85,0.05,1.00,0.15
1.9482422,-0.019454546,-0.015684206,0.024330147,0.04,1.01,0.14,29168,10157.00,93,87,3,-1.82,-2.73,2.94,0.04,1.01,0.14
1.3486328,-0.0044545457,-0.0066842046,0.005330147,0.03,1.01,0.14,29190,10156.40,93,87,3,-0.77,-2.10,1.61,0.03,1.01,0.14
0.24804688,0.005545454,0.0033157952,-0.015669852,0.03,1.02,0.14,29213,10155.30,93,87,3,-0.07,-1.40,0.14,0.03,1.02,0.14
2.6484375,0.012545453,0.016315795,-0.034669854,0.03,1.01,0.15,29243,10157.70,93,87,3,0.42,-0.49,-1.19,0.03,1.01,0.15
6.6484375,0.0075454544,0.026315795,-0.043669853,0.04,0.99,0.15,29266,10161.70,93,87,3,0.07,0.21,-1.82,0.04,0.99,0.15
10.6484375,0.002545454,0.029315794,-0.028669853,0.04,0.99,0.14,29273,10165.70,93,87,3,-0.28,0.42,-0.77,0.04,0.99,0.14
13.748047,-0.0014545461,0.024315795,-0.011669854,0.04,0.99,0.15,29296,10168.80,93,87,3,-0.56,0.07,0.42,0.04,0.99,0.15
10.6484375,-0.0014545461,0.022315795,-0.011669854,0.04,0.98,0.15,29311,10165.70,93,87,3,-0.56,-0.07,0.42,0.04,0.98,0.15
17.748047,-4.5454595E-4,0.016315795,-0.0046698526,0.04,0.98,0.15,29341,10172.80,93,87,3,-0.49,-0.49,0.91,0.04,0.98,0.15
19.448242,-0.0034545455,0.007315794,0.010330148,0.05,0.99,0.15,29356,10174.50,93,87,3,-0.70,-1.12,1.96,0.05,0.99,0.15
20.748047,-0.0094545465,3.1579472E-4,0.023330145,0.05,0.98,0.15,29371,10175.80,93,87,3,-1.12,-1.61,2.87,0.05,0.98,0.15
19.748047,-0.011454545,-0.0056842044,0.035330147,0.05,0.99,0.15,29393,10174.80,93,87,3,-1.26,-2.03,3.71,0.05,0.99,0.15
17.748047,-0.020454546,-0.009684205,0.039330147,0.05,0.99,0.16,29419,10172.80,93,87,3,-1.89,-2.31,3.99,0.05,0.99,0.16
15.748047,-0.023454545,-0.018684205,0.03433015,0.05,0.99,0.16,29438,10170.80,93,87,3,-2.10,-2.94,3.64,0.05,0.99,0.16
15.047852,-0.020454546,-0.017684203,0.037330147,0.05,1.0,0.16,29461,10170.10,93,87,3,-1.89,-2.87,3.85,0.05,1.00,0.16
3.6484375,-0.021454547,-0.019684207,0.033330146,0.05,0.98,0.16,29476,10158.70,93,87,3,-1.96,-3.01,3.57,0.05,0.98,0.16
7.0478516,-0.027454548,-0.012684204,0.027330149,0.05,1.0,0.15,29498,10162.10,93,87,3,-2.38,-2.52,3.15,0.05,1.00,0.15
-0.051757812,-0.022454545,-0.0076842066,0.021330148,0.04,1.01,0.15,29521,10155.00,93,87,3,-2.03,-2.17,2.73,0.04,1.01,0.15
0.3486328,-0.008454545,-0.0016842056,0.004330147,0.04,1.01,0.15,29552,10155.40,93,87,3,-1.05,-1.75,1.54,0.04,1.01,0.15
0.3486328,-0.0034545455,0.002315795,-0.011669854,0.04,1.01,0.15,29558,10155.40,93,87,3,-0.70,-1.47,0.42,0.04,1.01,0.15
1.9482422,0.004545454,0.009315794,-0.018669853,0.04,1.01,0.15,29573,10157.00,93,87,3,-0.14,-0.98,-0.07,0.04,1.01,0.15
2.3486328,0.009545454,0.013315795,-0.019669853,0.04,1.0,0.15,29596,10157.40,93,87,3,0.21,-0.70,-0.14,0.04,1.00,0.15
4.948242,0.0065454543,0.014315795,-0.027669853,0.04,0.99,0.15,29618,10160.00,93,87,3,0.00,-0.63,-0.70,0.04,0.99,0.15
10.047852,0.008545455,0.009315794,-0.027669853,0.04,0.99,0.15,29640,10165.10,93,87,3,0.14,-0.98,-0.70,0.04,0.99,0.15
12.047852,0.009545454,0.006315794,-0.027669853,0.04,0.99,0.15,29657,10167.10,93,87,3,0.21,-1.19,-0.70,0.04,0.99,0.15
17.047852,0.010545455,0.0043157935,-0.027669853,0.04,0.98,0.15,29678,10172.10,93,87,3,0.28,-1.33,-0.70,0.04,0.98,0.15
18.047852,0.014545455,0.002315795,-0.016669853,0.05,0.99,0.15,29701,10173.10,93,87,3,0.56,-1.47,0.07,0.05,0.99,0.15
18.448242,0.012545453,-6.842036E-4,-0.0036698524,0.05,0.99,0.16,29731,10173.50,93,87,3,0.42,-1.68,0.98,0.05,0.99,0.16
19.448242,0.010545455,-0.0076842066,0.004330147,0.05,0.99,0.16,29745,10174.50,93,87,3,0.28,-2.17,1.54,0.05,0.99,0.16
19.448242,0.011545454,-0.013684206,0.0123301465,0.05,0.98,0.16,29769,10174.50,93,87,3,0.35,-2.59,2.10,0.05,0.98,0.16
17.448242,0.0065454543,-0.018684205,0.017330147,0.05,0.98,0.16,29782,10172.50,93,87,3,0.00,-2.94,2.45,0.05,0.98,0.16
14.348633,-0.0034545455,-0.023684204,0.025330149,0.05,0.98,0.16,29806,10169.40,93,87,3,-0.70,-3.29,3.01,0.05,0.98,0.16
11.348633,-0.008454545,-0.025684208,0.029330146,0.05,0.98,0.16,29821,10166.40,93,87,3,-1.05,-3.43,3.29,0.05,0.98,0.16
6.6484375,-0.010454547,-0.022684205,0.042330146,0.05,0.99,0.16,29836,10161.70,93,87,3,-1.19,-3.22,4.20,0.05,0.99,0.16
