Pressure_Rel,GyroX_Rel,GyroY_Rel,GyroZ_Rel,AccX_Rel,AccY_Rel,AccZ_Rel,Timestamp,Pressure_abs,HeartRate,Oxygen,Status,GyroX,GyroY,GyroZ,AccX,AccY,AccZ
0.0,0.0,0.0,0.0,0.0,0.0,0.0,4143,9968.70,0,0,165,0.91,-2.59,0.14,0.19,0.99,-0.01
0.0,0.0,0.0,0.0,0.0,0.0,0.0,4158,9969.40,0,0,0,0.84,-2.73,0.14,0.19,0.99,-0.01
0.0,0.0,0.0,0.0,0.0,0.0,0.0,4173,9968.70,0,0,165,0.70,-2.66,0.00,0.19,0.99,-0.01
0.0,0.0,0.0,0.0,0.0,0.0,0.0,4179,9968.70,0,0,0,0.77,-2.52,0.00,0.20,0.99,-0.01
0.0,0.0,0.0,0.0,0.0,0.0,0.0,4194,9969.70,0,0,165,0.84,-2.59,0.00,0.20,0.99,-0.01
0.0,0.0,0.0,0.0,0.0,0.0,0.0,4209,9968.70,0,0,0,0.84,-2.66,0.07,0.19,0.99,-0.01
0.0,0.0,0.0,0.0,0.0,0.0,0.0,4218,9968.70,0,0,165,0.84,-2.66,0.14,0.19,0.99,-0.01
0.0,0.0,0.0,0.0,0.0,0.0,0.0,4232,9968.70,0,0,0,0.91,-2.73,0.14,0.20,0.99,-0.01
0.0,0.0,0.0,0.0,0.0,0.0,0.0,4246,9968.70,0,0,165,0.70,-2.73,0.07,0.19,0.99,-0.01
0.0,0.0,0.0,0.0,0.0,0.0,0.0,4255,9967.40,0,0,0,0.77,-2.59,-0.07,0.19,0.99,-0.01
0.0,0.0,0.0,0.0,0.0,0.0,0.0,4270,9968.70,0,0,165,0.77,-2.66,-0.14,0.19,0.99,-0.01
0.0,0.0,0.0,0.0,0.0,0.0,0.0,4284,9968.40,0,0,0,0.77,-2.73,-0.14,0.19,0.99,-0.01
0.0,0.0,0.0,0.0,0.0,0.0,0.0,4292,9968.70,0,0,165,0.77,-2.59,0.00,0.19,0.99,-0.01
0.0,0.0,0.0,0.0,0.0,0.0,0.0,4307,9968.40,0,0,0,0.98,-2.59,0.21,0.19,0.99,-0.01
0.0,0.0,0.0,0.0,0.0,0.0,0.0,4322,9968.70,0,0,165,0.84,-2.80,0.28,0.19,0.99,-0.01
0.0,0.0,0.0,0.0,0.0,0.0,0.0,4329,9971.90,0,0,0,0.91,-2.66,0.21,0.19,0.99,-0.01
0.0,0.0,0.0,0.0,0.0,0.0,0.0,4344,9969.10,0,0,165,0.84,-2.73,0.07,0.19,0.99,-0.01
0.0,0.0,0.0,0.0,0.0,0.0,0.0,4359,9969.70,0,0,0,0.77,-2.66,-0.07,0.19,0.99,-0.01
0.0,0.0,0.0,0.0,0.0,0.0,0.0,4367,9968.70,0,0,165,0.77,-2.80,-0.07,0.19,0.99,-0.01
0.0,0.0,0.0,0.0,0.0,0.0,0.0,4381,9968.70,0,0,0,0.63,-2.66,0.00,0.19,0.99,-0.01
0.0,0.0,0.0,0.0,0.0,0.0,0.0,4396,9967.80,0,0,165,0.77,-2.73,-0.07,0.19,0.99,-0.01
0.0,0.0,0.0,0.0,0.0,0.0,0.0,4404,9969.70,0,0,0,0.77,-2.66,0.14,0.19,0.99,-0.01
0.0,0.0,0.0,0.0,0.0,0.0,0.0,4419,9968.70,0,0,165,0.84,-2.73,0.21,0.19,0.99,-0.01
0.0,0.0,0.0,0.0,0.0,0.0,0.0,4435,9968.70,0,0,0,0.70,-2.66,0.00,0.19,0.99,-0.01
0.0,0.0,0.0,0.0,0.0,0.0,0.0,4442,9969.70,0,0,165,0.77,-2.73,-0.14,0.19,0.99,-0.01
0.0,0.0,0.0,0.0,0.0,0.0,0.0,4457,9967.80,0,0,0,0.84,-2.59,-0.07,0.19,0.99,-0.01
0.0,0.0,0.0,0.0,0.0,0.0,0.0,4472,9968.70,0,0,165,0.84,-2.66,-0.07,0.19,0.99,-0.01
0.0,0.0,0.0,0.0,0.0,0.0,0.0,4479,9969.10,0,0,0,0.77,-2.73,0.14,0.19,0.99,-0.01
0.0,0.0,0.0,0.0,0.0,0.0,0.0,4495,9970.00,0,0,165,0.77,-2.80,0.07,0.19,0.99,-0.01
0.0,0.0,0.0,0.0,0.0,0.0,0.0,4510,9968.70,0,0,0,0.84,-2.73,0.07,0.19,0.99,-0.01
0.0,0.0,0.0,0.0,0.0,0.0,0.0,4517,9969.10,0,0,165,0.77,-2.66,0.14,0.20,0.99,-0.01
0.0,0.0,0.0,0.0,0.0,0.0,0.0,4533,9968.70,0,0,0,0.91,-2.66,-0.07,0.19,0.99,-0.01
0.0,0.0,0.0,0.0,0.0,0.0,0.0,4547,9969.10,0,0,165,0.70,-2.59,-0.28,0.19,0.99,-0.01
0.0,0.0,0.0,0.0,0.0,0.0,0.0,4555,9967.80,0,0,0,0.70,-2.66,-0.14,0.19,0.99,-0.01
0.0,0.0,0.0,0.0,0.0,0.0,0.0,4570,9969.10,0,0,165,0.70,-2.59,0.07,0.20,0.99,-0.01
0.0,0.0,0.0,0.0,0.0,0.0,0.0,4585,9969.10,0,0,0,0.77,-2.73,0.28,0.19,0.99,-0.01
0.0,0.0,0.0,0.0,0.0,0.0,0.0,4592,9969.10,0,0,165,0.84,-2.66,0.35,0.20,0.99,-0.01
0.0,0.0,0.0,0.0,0.0,0.0,0.0,4607,9969.10,0,0,0,0.84,-2.66,0.21,0.19,0.99,-0.01
0.0,0.0,0.0,0.0,0.0,0.0,0.0,4627,9967.80,0,0,165,0.77,-2.66,0.00,0.19,0.99,-0.01
0.0,0.0,0.0,0.0,0.0,0.0,0.0,4629,9969.10,0,0,0,0.70,-2.59,-0.21,0.19,0.99,-0.01
0.0,0.0,0.0,0.0,0.0,0.0,0.0,4645,9968.10,0,0,165,0.70,-2.66,-0.14,0.19,0.99,-0.01
0.0,0.0,0.0,0.0,0.0,0.0,0.0,4660,9968.40,0,0,0,0.70,-2.66,-0.14,0.19,0.99,-0.01
0.0,0.0,0.0,0.0,0.0,0.0,0.0,4668,9968.70,0,0,165,0.91,-2.59,0.00,0.19,0.99,-0.01
0.0,0.0,0.0,0.0,0.0,0.0,0.0,4682,9969.10,0,0,0,0.77,-2.73,0.07,0.19,0.99,-0.01
0.0,0.0,0.0,0.0,0.0,0.0,0.0,4697,9969.10,0,0,165,0.77,-2.73,0.07,0.19,0.99,-0.01
0.0,0.0,0.0,0.0,0.0,0.0,0.0,4704,9968.70,0,0,0,0.91,-2.66,0.21,0.19,0.99,-0.01
0.0,0.0,0.0,0.0,0.0,0.0,0.0,4720,9967.80,0,0,165,0.70,-2.66,-0.07,0.19,0.99,-0.01
0.0,0.0,0.0,0.0,0.0,0.0,0.0,4734,9968.70,0,0,0,0.77,-2.59,-17.85,0.19,0.99,-0.01
0.0,0.0,0.0,0.0,0.0,0.0,0.0,4741,9969.10,0,0,165,0.91,-2.66,-0.14,0.19,0.99,-0.01
0.0,0.0,0.0,0.0,0.0,0.0,0.0,4757,9969.10,0,0,0,0.77,-2.66,0.07,0.19,0.99,-0.01
0.0,0.0,0.0,0.0,0.0,0.0,0.0,4771,9969.10,0,0,165,0.84,-2.59,0.14,0.19,0.99,-0.01
0.0,0.0,0.0,0.0,0.0,0.0,0.0,4779,9968.10,0,0,0,0.77,-2.59,0.14,0.19,0.99,-0.01
0.0,0.0,0.0,0.0,0.0,0.0,0.0,4794,9969.10,0,0,165,0.77,-2.66,-0.07,0.19,0.99,-0.01
0.0,0.0,0.0,0.0,0.0,0.0,0.0,4809,9968.10,0,0,0,0.77,-2.66,0.07,0.19,0.99,-0.01
0.0,0.0,0.0,0.0,0.0,0.0,0.0,4817,9968.10,0,0,165,0.77,-2.66,-0.07,0.20,0.99,-0.01
0.0,0.0,0.0,0.0,0.0,0.0,0.0,4831,9969.10,0,0,0,0.84,-2.66,-0.07,0.19,0.99,-0.01
0.0,0.0,0.0,0.0,0.0,0.0,0.0,4847,9969.10,0,0,165,0.70,-2.59,-0.07,0.19,0.99,-0.01
0.0,0.0,0.0,0.0,0.0,0.0,0.0,4854,9968.10,0,0,0,0.77,-2.73,0.14,0.19,0.99,-0.01
0.0,0.0,0.0,0.0,0.0,0.0,0.0,4870,9969.10,0,0,165,0.77,-2.73,0.00,0.20,0.99,-0.01
0.0,0.0,0.0,0.0,0.0,0.0,0.0,4885,9969.10,0,0,0,0.77,-2.66,0.07,0.19,0.99,-0.01
0.0,0.0,0.0,0.0,0.0,0.0,0.0,4891,9969.10,0,0,165,0.77,-2.66,0.00,0.20,0.99,-0.01
0.61621094,8.9645945E-4,-9.525791E-4,-0.0017780556,0.19,0.99,-0.01,14912,9969.40,0,0,0,0.84,-2.73,0.00,0.19,0.99,-0.01
-0.2841797,-0.00110354,-9.525791E-4,-0.0057780556,0.19,0.99,-0.01,14919,9968.50,0,0,165,0.70,-2.73,-0.28,0.19,0.99,-0.01
-0.2841797,-0.00110354,-0.0019525774,2.2194453E-4,0.19,0.99,-0.01,14934,9968.50,0,0,0,0.70,-2.80,0.14,0.19,0.99,-0.01
0.61621094,8.9645945E-4,-0.0019525774,-0.0017780556,0.19,0.99,-0.01,14949,9969.40,0,0,165,0.84,-2.80,0.00,0.19,0.99,-0.01
-0.2841797,-1.0353979E-4,-9.525791E-4,-7.780555E-4,0.19,0.99,-0.01,14957,9968.50,0,0,0,0.77,-2.73,0.07,0.19,0.99,-0.01
-0.2841797,-1.0353979E-4,-0.0019525774,-7.780555E-4,0.19,0.99,-0.01,14972,9968.50,0,0,165,0.77,-2.80,0.07,0.19,0.99,-0.01
-0.2841797,-1.0353979E-4,4.741922E-5,-0.0027780556,0.2,0.99,-0.01,14987,9968.50,0,0,0,0.77,-2.66,-0.07,0.20,0.99,-0.01
-0.2841797,-1.0353979E-4,-9.525791E-4,-0.0027780556,0.19,0.99,-0.01,14994,9968.50,0,0,165,0.77,-2.73,-0.07,0.19,0.99,-0.01
0.61621094,8.9645945E-4,0.0020474233,-0.0017780556,0.19,0.99,-0.01,15009,9969.40,0,0,0,0.84,-2.52,0.00,0.19,0.99,-0.01
0.61621094,-1.0353979E-4,-9.525791E-4,-0.0037780558,0.19,0.99,-0.01,15024,9969.40,0,0,165,0.77,-2.73,-0.14,0.19,0.99,-0.01
-0.6845703,0.0018964605,0.0020474233,0.0012219442,0.19,0.99,-0.01,15032,9968.10,0,0,0,0.91,-2.52,0.21,0.19,0.99,-0.01
-0.2841797,-1.0353979E-4,4.741922E-5,-7.780555E-4,0.19,0.99,-0.01,15047,9968.50,0,0,165,0.77,-2.66,0.07,0.19,0.99,-0.01
-0.2841797,-1.0353979E-4,0.0010474212,-7.780555E-4,0.19,0.99,-0.01,15061,9968.50,0,0,0,0.77,-2.59,0.07,0.19,0.99,-0.01
0.015625,8.9645945E-4,0.0010474212,-0.0017780556,0.19,0.99,-0.01,15069,9968.80,0,0,165,0.84,-2.59,0.00,0.19,0.99,-0.01
-0.2841797,8.9645945E-4,-9.525791E-4,-0.0027780556,0.19,0.99,-0.01,15084,9968.50,0,0,0,0.84,-2.73,-0.07,0.19,0.99,-0.01
0.61621094,8.9645945E-4,0.0010474212,-0.0037780558,0.2,0.99,-0.01,15099,9969.40,0,0,165,0.84,-2.59,-0.14,0.20,0.99,-0.01
-0.2841797,-1.0353979E-4,4.741922E-5,-0.0017780556,0.19,0.99,-0.01,15106,9968.50,0,0,0,0.77,-2.66,0.00,0.19,0.99,-0.01
0.9160156,0.0018964605,4.741922E-5,-7.780555E-4,0.19,0.99,-0.01,15121,9969.70,0,0,165,0.91,-2.66,0.07,0.19,0.99,-0.01
0.61621094,0.0018964605,-0.0019525774,2.2194453E-4,0.19,0.99,-0.01,15136,9969.40,0,0,0,0.91,-2.80,0.14,0.19,0.99,-0.01
-0.2841797,0.0018964605,4.741922E-5,-0.0017780556,0.19,0.99,-0.01,15144,9968.50,0,0,165,0.91,-2.66,0.00,0.19,0.99,-0.01
0.015625,-1.0353979E-4,4.741922E-5,-0.0017780556,0.19,0.99,-0.01,15159,9968.80,0,0,0,0.77,-2.66,0.00,0.19,0.99,-0.01
0.015625,-0.00110354,0.0010474212,-0.0027780556,0.19,0.99,-0.01,15174,9968.80,0,0,165,0.70,-2.59,-0.07,0.19,0.99,-0.01
0.3154297,-0.00110354,4.741922E-5,-0.0037780558,0.19,0.99,-0.01,15182,9969.10,0,0,0,0.70,-2.66,-0.14,0.19,0.99,-0.01
-0.2841797,-1.0353979E-4,0.0020474233,-0.0027780556,0.19,0.99,-0.01,15196,9968.50,0,0,165,0.77,-2.52,-0.07,0.19,0.99,-0.01
-0.984375,-0.00210354,4.741922E-5,-0.0027780556,0.19,0.99,-0.01,15211,9967.80,0,0,0,0.63,-2.66,-0.07,0.19,0.99,-0.01
-0.2841797,-1.0353979E-4,-9.525791E-4,-0.0017780556,0.19,0.99,-0.01,15218,9968.50,0,0,165,0.77,-2.73,0.00,0.19,0.99,-0.01
-0.2841797,8.9645945E-4,-9.525791E-4,2.2194453E-4,0.19,0.99,-0.01,15233,9968.50,0,0,0,0.84,-2.73,0.14,0.19,0.99,-0.01
-0.2841797,-0.00110354,4.741922E-5,-7.780555E-4,0.19,0.99,-0.01,15249,9968.50,0,0,165,0.70,-2.66,0.07,0.19,0.99,-0.01
1.9160156,8.9645945E-4,-9.525791E-4,-7.780555E-4,0.19,0.99,-0.01,15257,9970.70,0,0,0,0.84,-2.73,0.07,0.19,0.99,-0.01
-0.2841797,0.0018964605,0.0010474212,-7.780555E-4,0.19,0.99,-0.01,15271,9968.50,0,0,165,0.91,-2.59,0.07,0.19,0.99,-0.01
-0.2841797,-1.0353979E-4,0.0010474212,-0.0027780556,0.19,0.99,-0.01,15286,9968.50,0,0,0,0.77,-2.59,-0.07,0.19,0.99,-0.01
-0.2841797,-0.00110354,0.0010474212,-0.0027780556,0.19,0.99,-0.01,15294,9968.50,0,0,165,0.70,-2.59,-0.07,0.19,0.99,-0.01
-0.2841797,8.9645945E-4,-0.0019525774,-7.780555E-4,0.19,0.99,-0.01,15309,9968.50,0,0,0,0.84,-2.80,0.07,0.19,0.99,-0.01
0.015625,-0.00110354,4.741922E-5,-7.780555E-4,0.19,0.99,-0.01,15324,9968.80,0,0,165,0.70,-2.66,0.07,0.19,0.99,-0.01
-1.2841797,-1.0353979E-4,4.741922E-5,-0.0017780556,0.19,0.99,-0.01,15332,9967.50,0,0,0,0.77,-2.66,0.00,0.19,0.99,-0.01
-0.2841797,8.9645945E-4,4.741922E-5,2.2194453E-4,0.19,0.99,-0.01,15346,9968.50,0,0,165,0.84,-2.66,0.14,0.19,0.99,-0.01
-0.2841797,-1.0353979E-4,0.0010474212,-0.0017780556,0.19,0.99,-0.01,15361,9968.50,0,0,0,0.77,-2.59,0.00,0.19,0.99,-0.01
0.015625,-1.0353979E-4,4.741922E-5,-0.0017780556,0.2,0.99,-0.01,15369,9968.80,0,0,165,0.77,-2.66,0.00,0.20,0.99,-0.01
0.9160156,-0.00110354,-9.525791E-4,-0.0027780556,0.19,0.99,-0.01,15384,9969.70,0,0,0,0.70,-2.73,-0.07,0.19,0.99,-0.01
0.015625,-0.00110354,4.741922E-5,-0.0017780556,0.2,0.99,-0.01,15399,9968.80,0,0,165,0.70,-2.66,0.00,0.20,0.99,-0.01
-1.2841797,-1.0353979E-4,-9.525791E-4,-0.0027780556,0.19,0.99,-0.01,15407,9967.50,0,0,0,0.77,-2.73,-0.07,0.19,0.99,-0.01
0.015625,-1.0353979E-4,0.0010474212,-7.780555E-4,0.19,0.99,-0.01,15421,9968.80,0,0,165,0.77,-2.59,0.07,0.19,0.99,-0.01
0.9160156,8.9645945E-4,0.0010474212,-7.780555E-4,0.19,0.99,-0.01,15436,9969.70,0,0,0,0.84,-2.59,0.07,0.19,0.99,-0.01
-0.2841797,-0.00110354,4.741922E-5,-7.780555E-4,0.19,0.99,-0.01,15444,9968.50,0,0,165,0.70,-2.66,0.07,0.19,0.99,-0.01
-0.2841797,8.9645945E-4,0.0010474212,-7.780555E-4,0.19,0.99,-0.01,15459,9968.50,0,0,0,0.84,-2.59,0.07,0.19,0.99,-0.01
-0.2841797,-0.00110354,4.741922E-5,-7.780555E-4,0.19,0.99,-0.01,15474,9968.50,0,0,165,0.70,-2.66,0.07,0.19,0.99,-0.01
0.015625,-1.0353979E-4,4.741922E-5,-0.0037780558,0.19,0.99,-0.01,15481,9968.80,0,0,0,0.77,-2.66,-0.14,0.19,0.99,-0.01
0.015625,-1.0353979E-4,4.741922E-5,-0.0017780556,0.19,0.99,-0.01,15496,9968.80,0,0,165,0.77,-2.66,0.00,0.19,0.99,-0.01
0.015625,-1.0353979E-4,-9.525791E-4,-0.0037780558,0.19,0.99,-0.01,15511,9968.80,0,0,0,0.77,-2.73,-0.14,0.19,0.99,-0.01
-0.2841797,8.9645945E-4,4.741922E-5,-0.25577807,0.19,0.99,-0.01,15519,9968.50,0,0,165,0.84,-2.66,-17.78,0.19,0.99,-0.01
0.015625,-1.0353979E-4,0.0010474212,-7.780555E-4,0.19,0.99,-0.01,15534,9968.80,0,0,0,0.77,-2.59,0.07,0.19,0.99,-0.01
0.015625,8.9645945E-4,4.741922E-5,0.0012219442,0.19,0.99,-0.01,15549,9968.80,0,0,165,0.84,-2.66,0.21,0.19,0.99,-0.01
-0.2841797,8.9645945E-4,4.741922E-5,2.2194453E-4,0.19,0.99,-0.01,15557,9968.50,0,0,0,0.84,-2.66,0.14,0.19,0.99,-0.01
0.015625,-1.0353979E-4,-9.525791E-4,-0.0027780556,0.19,0.99,-0.01,15571,9968.80,0,0,165,0.77,-2.73,-0.07,0.19,0.99,-0.01
0.9160156,-0.00110354,0.0010474212,-0.0017780556,0.19,0.99,-0.01,15586,9969.70,0,0,0,0.70,-2.59,0.00,0.19,0.99,-0.01
0.015625,-1.0353979E-4,0.0010474212,-0.0027780556,0.2,0.99,-0.01,15594,9968.80,0,0,165,0.77,-2.59,-0.07,0.20,0.99,-0.01
0.015625,8.9645945E-4,4.741922E-5,-0.0017780556,0.19,0.99,-0.01,15608,9968.80,0,0,0,0.84,-2.66,0.00,0.19,0.99,-0.01
0.9160156,-1.0353979E-4,4.741922E-5,-7.780555E-4,0.19,0.99,-0.01,15624,9969.70,0,0,165,0.77,-2.66,0.07,0.19,0.99,-0.01
0.015625,8.9645945E-4,4.741922E-5,0.0022219447,0.19,0.99,-0.01,15639,9968.80,0,0,0,0.84,-2.66,0.28,0.19,0.99,-0.01
-0.2841797,8.9645945E-4,4.741922E-5,0.0012219442,0.19,0.99,-0.01,15646,9968.50,0,0,165,0.84,-2.66,0.21,0.19,0.99,-0.01
0.015625,0.0018964605,0.0010474212,-0.0017780556,0.19,0.99,-0.01,15661,9968.80,0,0,0,0.91,-2.59,0.00,0.19,0.99,-0.01
0.015625,-1.0353979E-4,4.741922E-5,-0.0017780556,0.2,0.99,-0.01,15669,9968.80,0,0,165,0.77,-2.66,0.00,0.20,0.99,-0.01
0.015625,-0.00110354,-9.525791E-4,-0.0027780556,0.19,0.99,-0.01,15684,9968.80,0,0,0,0.70,-2.73,-0.07,0.19,0.99,-0.01
0.015625,8.9645945E-4,0.0010474212,-0.0027780556,0.19,0.99,-0.01,15698,9968.80,0,0,165,0.84,-2.59,-0.07,0.19,0.99,-0.01
0.015625,8.9645945E-4,4.741922E-5,-7.780555E-4,0.19,0.99,-0.01,15706,9968.80,0,0,0,0.84,-2.66,0.07,0.19,0.99,-0.01
0.015625,-0.00110354,4.741922E-5,-0.0017780556,0.19,0.99,-0.01,15721,9968.80,0,0,165,0.70,-2.66,0.00,0.19,0.99,-0.01
0.9160156,-1.0353979E-4,4.741922E-5,-7.780555E-4,0.19,0.99,-0.01,15737,9969.70,0,0,0,0.77,-2.66,0.07,0.19,0.99,-0.01
0.015625,8.9645945E-4,4.741922E-5,-0.0017780556,0.19,0.99,-0.01,15744,9968.80,0,0,165,0.84,-2.66,0.00,0.19,0.99,-0.01
0.61621094,-0.00110354,4.741922E-5,-7.780555E-4,0.19,0.99,-0.01,15758,9969.40,0,0,0,0.70,-2.66,0.07,0.19,0.99,-0.01
0.3154297,-0.00210354,-9.525791E-4,-0.0017780556,0.19,0.99,-0.01,15773,9969.10,0,0,165,0.63,-2.73,0.00,0.19,0.99,-0.01
0.015625,-0.00110354,4.741922E-5,-0.0017780556,0.2,0.99,-0.01,15781,9968.80,0,0,0,0.70,-2.66,0.00,0.20,0.99,-0.01
-0.984375,8.9645945E-4,0.0010474212,-7.780555E-4,0.19,0.99,-0.01,15797,9967.80,0,0,165,0.84,-2.59,0.07,0.19,0.99,-0.01
1.3154297,-1.0353979E-4,0.0010474212,-0.0027780556,0.19,0.99,-0.01,15812,9970.10,0,0,0,0.77,-2.59,-0.07,0.19,0.99,-0.01
-1.2841797,8.9645945E-4,0.0010474212,-7.780555E-4,0.19,0.99,-0.01,15819,9967.50,0,0,165,0.84,-2.59,0.07,0.19,0.99,-0.01
-1.2841797,-0.00110354,4.741922E-5,-0.0027780556,0.19,0.99,-0.01,15834,9967.50,0,0,0,0.70,-2.66,-0.07,0.19,0.99,-0.01
0.015625,-1.0353979E-4,4.741922E-5,-0.0017780556,0.19,0.99,-0.01,15849,9968.80,0,0,165,0.77,-2.66,0.00,0.19,0.99,-0.01
-0.2841797,8.9645945E-4,4.741922E-5,-0.0027780556,0.19,0.99,-0.01,15857,9968.50,0,0,0,0.84,-2.66,-0.07,0.19,0.99,-0.01
-0.2841797,8.9645945E-4,-9.525791E-4,2.2194453E-4,0.19,0.99,-0.01,15871,9968.50,0,0,165,0.84,-2.73,0.14,0.19,0.99,-0.01
0.015625,-1.0353979E-4,4.741922E-5,-7.780555E-4,0.19,0.99,-0.01,15886,9968.80,0,0,0,0.77,-2.66,0.07,0.19,0.99,-0.01
-0.984375,0.0018964605,0.0010474212,-7.780555E-4,0.19,0.99,-0.01,15894,9967.80,0,0,165,0.91,-2.59,0.07,0.19,0.99,-0.01
0.015625,8.9645945E-4,4.741922E-5,-7.780555E-4,0.19,0.99,-0.01,15909,9968.80,0,0,0,0.84,-2.66,0.07,0.19,0.99,-0.01
0.015625,8.9645945E-4,0.0010474212,2.2194453E-4,0.19,0.99,-0.01,15924,9968.80,0,0,165,0.84,-2.59,0.14,0.19,0.99,-0.01
0.015625,-1.0353979E-4,0.0010474212,2.2194453E-4,0.19,0.99,-0.01,15932,9968.80,0,0,0,0.77,-2.59,0.14,0.19,0.99,-0.01
0.9160156,8.9645945E-4,4.741922E-5,-7.780555E-4,0.19,0.99,-0.01,15946,9969.70,0,0,165,0.84,-2.66,0.07,0.19,0.99,-0.01
0.015625,-0.00110354,0.0010474212,-0.0027780556,0.19,0.99,-0.01,15961,9968.80,0,0,0,0.70,-2.59,-0.07,0.19,0.99,-0.01
0.015625,-1.0353979E-4,-9.525791E-4,-0.0017780556,0.19,0.99,-0.01,15969,9968.80,0,0,165,0.77,-2.73,0.00,0.19,0.99,-0.01
0.9160156,-1.0353979E-4,-9.525791E-4,-7.780555E-4,0.19,0.99,-0.01,15984,9969.70,0,0,0,0.77,-2.73,0.07,0.19,0.99,-0.01
0.015625,-1.0353979E-4,4.741922E-5,-7.780555E-4,0.19,0.99,-0.01,15999,9968.80,0,0,165,0.77,-2.66,0.07,0.19,0.99,-0.01
0.015625,-1.0353979E-4,-9.525791E-4,-0.0027780556,0.19,0.99,-0.01,16006,9968.80,0,0,0,0.77,-2.73,-0.07,0.19,0.99,-0.01
0.015625,-1.0353979E-4,4.741922E-5,-0.0027780556,0.19,0.99,-0.01,16022,9968.80,0,0,165,0.77,-2.66,-0.07,0.19,0.99,-0.01
0.61621094,-0.00110354,0.0010474212,-0.0027780556,0.19,0.99,-0.01,16037,9969.40,0,0,0,0.70,-2.59,-0.07,0.19,0.99,-0.01
0.9160156,-0.00110354,-9.525791E-4,-0.0017780556,0.19,0.99,-0.01,16044,9969.70,0,0,165,0.70,-2.73,0.00,0.19,0.99,-0.01
0.61621094,-0.00110354,4.741922E-5,2.2194453E-4,0.19,0.99,-0.01,16059,9969.40,0,0,0,0.70,-2.66,0.14,0.19,0.99,-0.01
-0.2841797,8.9645945E-4,-9.525791E-4,0.0012219442,0.2,0.99,-0.01,16074,9968.50,0,0,165,0.84,-2.73,0.21,0.20,0.99,-0.01
-0.5839844,-0.00210354,-9.525791E-4,2.2194453E-4,0.19,0.99,-0.01,16082,9968.20,0,0,0,0.63,-2.73,0.14,0.19,0.99,-0.01
0.9160156,0.0018964605,4.741922E-5,-0.0017780556,0.19,0.99,-0.01,16097,9969.70,0,0,165,0.91,-2.66,0.00,0.19,0.99,-0.01
0.9160156,8.9645945E-4,0.0010474212,-7.780555E-4,0.19,0.99,-0.01,16111,9969.70,0,0,0,0.84,-2.59,0.07,0.19,0.99,-0.01
0.015625,-0.00110354,4.741922E-5,-0.0017780556,0.19,0.99,-0.01,16118,9968.80,0,0,165,0.70,-2.66,0.00,0.19,0.99,-0.01
0.015625,-1.0353979E-4,4.741922E-5,2.2194453E-4,0.19,0.99,-0.01,16134,9968.80,0,0,0,0.77,-2.66,0.14,0.19,0.99,-0.01
2.2158203,-0.00110354,-9.525791E-4,-0.0017780556,0.19,0.99,-0.01,16149,9971.00,0,0,165,0.70,-2.73,0.00,0.19,0.99,-0.01
0.015625,8.9645945E-4,-0.0019525774,-7.780555E-4,0.19,0.99,-0.01,16156,9968.80,0,0,0,0.84,-2.80,0.07,0.19,0.99,-0.01
0.015625,-0.00110354,-9.525791E-4,-0.0027780556,0.19,0.99,-0.01,16171,9968.80,0,0,165,0.70,-2.73,-0.07,0.19,0.99,-0.01
2.2158203,8.9645945E-4,-9.525791E-4,-0.0047780555,0.19,0.99,-0.01,16187,9971.00,0,0,0,0.84,-2.73,-0.21,0.19,0.99,-0.01
0.015625,-0.00110354,-9.525791E-4,-0.0037780558,0.19,0.99,-0.01,16194,9968.80,0,0,165,0.70,-2.73,-0.14,0.19,0.99,-0.01
-0.984375,8.9645945E-4,0.0010474212,-7.780555E-4,0.19,0.99,-0.01,16209,9967.80,0,0,0,0.84,-2.59,0.07,0.19,0.99,-0.01
0.015625,8.9645945E-4,-9.525791E-4,2.2194453E-4,0.19,0.99,-0.01,16224,9968.80,0,0,165,0.84,-2.73,0.14,0.19,0.99,-0.01
-0.984375,-1.0353979E-4,-0.0019525774,-7.780555E-4,0.19,0.99,-0.01,16231,9967.80,0,0,0,0.77,-2.80,0.07,0.19,0.99,-0.01
0.015625,8.9645945E-4,4.741922E-5,2.2194453E-4,0.19,0.99,-0.01,16246,9968.80,0,0,165,0.84,-2.66,0.14,0.19,0.99,-0.01
0.015625,-0.00110354,4.741922E-5,-7.780555E-4,0.2,0.99,-0.01,16261,9968.80,0,0,0,0.70,-2.66,0.07,0.20,0.99,-0.01
0.015625,0.0028964607,4.741922E-5,-7.780555E-4,0.2,0.99,-0.01,16269,9968.80,0,0,165,0.98,-2.66,0.07,0.20,0.99,-0.01
0.015625,-1.0353979E-4,4.741922E-5,-0.0027780556,0.2,0.99,-0.01,16283,9968.80,0,0,0,0.77,-2.66,-0.07,0.20,0.99,-0.01
0.015625,8.9645945E-4,0.0010474212,-7.780555E-4,0.19,0.99,-0.01,16298,9968.80,0,0,165,0.84,-2.59,0.07,0.19,0.99,-0.01
0.3154297,8.9645945E-4,-9.525791E-4,-0.0017780556,0.19,0.99,-0.01,16307,9969.10,0,0,0,0.84,-2.73,0.00,0.19,0.99,-0.01
-0.984375,-1.0353979E-4,0.0010474212,-0.0037780558,0.19,0.99,-0.01,16321,9967.80,0,0,165,0.77,-2.59,-0.14,0.19,0.99,-0.01
0.015625,-0.00210354,-0.0019525774,-7.780555E-4,0.19,0.99,-0.01,16336,9968.80,0,0,0,0.63,-2.80,0.07,0.19,0.99,-0.01
0.9160156,0.0018964605,-9.525791E-4,2.2194453E-4,0.19,0.99,-0.01,16344,9969.70,0,0,165,0.91,-2.73,0.14,0.19,0.99,-0.01
0.015625,-1.0353979E-4,0.0010474212,0.0022219447,0.2,0.99,-0.01,16359,9968.80,0,0,0,0.77,-2.59,0.28,0.20,0.99,-0.01
0.015625,8.9645945E-4,4.741922E-5,0.0012219442,0.19,0.99,-0.01,16374,9968.80,0,0,165,0.84,-2.66,0.21,0.19,0.99,-0.01
0.015625,0.0018964605,-0.0019525774,-7.780555E-4,0.2,0.99,-0.01,16381,9968.80,0,0,0,0.91,-2.80,0.07,0.20,0.99,-0.01
0.015625,-1.0353979E-4,0.0010474212,-0.0027780556,0.19,0.99,-0.01,16396,9968.80,0,0,165,0.77,-2.59,-0.07,0.19,0.99,-0.01
0.015625,-0.00210354,4.741922E-5,-0.0057780556,0.19,0.99,-0.01,16411,9968.80,0,0,0,0.63,-2.66,-0.28,0.19,0.99,-0.01
0.015625,-0.0031035393,0.0020474233,-0.007778055,0.19,0.99,-0.01,16419,9968.80,0,0,165,0.56,-2.52,-0.42,0.19,0.99,-0.01
-0.2841797,8.9645945E-4,0.0010474212,-0.007778055,0.19,0.99,-0.01,16433,9968.50,0,0,0,0.84,-2.59,-0.42,0.19,0.99,-0.01
0.015625,-1.0353979E-4,-9.525791E-4,-0.0017780556,0.19,0.99,-0.01,16448,9968.80,0,0,165,0.77,-2.73,0.00,0.19,0.99,-0.01
1.3154297,0.0018964605,4.741922E-5,0.0022219447,0.19,0.99,-0.01,16456,9970.10,0,0,0,0.91,-2.66,0.28,0.19,0.99,-0.01
0.015625,0.0018964605,4.741922E-5,0.0032219444,0.19,0.99,-0.01,16472,9968.80,0,0,165,0.91,-2.66,0.35,0.19,0.99,-0.01
0.3154297,-1.0353979E-4,0.0010474212,0.005221945,0.19,0.99,-0.01,16487,9969.10,0,0,0,0.77,-2.59,0.49,0.19,0.99,-0.01
0.015625,8.9645945E-4,0.0010474212,0.0022219447,0.19,0.99,-0.01,16494,9968.80,0,0,165,0.84,-2.59,0.28,0.19,0.99,-0.01
0.015625,8.9645945E-4,4.741922E-5,-0.0027780556,0.19,0.99,-0.01,16509,9968.80,0,0,0,0.84,-2.66,-0.07,0.19,0.99,-0.01
0.015625,-1.0353979E-4,4.741922E-5,-0.0037780558,0.19,0.99,-0.01,16523,9968.80,0,0,165,0.77,-2.66,-0.14,0.19,0.99,-0.01
-0.984375,-0.00110354,0.0020474233,-0.0027780556,0.19,0.99,-0.01,16531,9967.80,0,0,0,0.70,-2.52,-0.07,0.19,0.99,-0.01
-0.984375,-0.00210354,4.741922E-5,-0.0027780556,0.19,0.99,-0.01,16546,9967.80,0,0,165,0.63,-2.66,-0.07,0.19,0.99,-0.01
1.3154297,-1.0353979E-4,4.741922E-5,0.0012219442,0.2,0.99,-0.01,16561,9970.10,0,0,0,0.77,-2.66,0.21,0.20,0.99,-0.01
-0.984375,-1.0353979E-4,4.741922E-5,2.2194453E-4,0.19,0.99,-0.01,16569,9967.80,0,0,165,0.77,-2.66,0.14,0.19,0.99,-0.01
0.015625,-1.0353979E-4,0.0010474212,-0.0037780558,0.19,0.99,-0.01,16584,9968.80,0,0,0,0.77,-2.59,-0.14,0.19,0.99,-0.01
0.015625,8.9645945E-4,4.741922E-5,-0.0037780558,0.19,0.99,-0.01,16599,9968.80,0,0,165,0.84,-2.66,-0.14,0.19,0.99,-0.01
-0.984375,-1.0353979E-4,4.741922E-5,-0.0017780556,0.19,0.99,-0.01,16606,9967.80,0,0,0,0.77,-2.66,0.00,0.19,0.99,-0.01
0.015625,-1.0353979E-4,4.741922E-5,-0.0027780556,0.19,0.99,-0.01,16621,9968.80,0,0,165,0.77,-2.66,-0.07,0.19,0.99,-0.01
0.3154297,8.9645945E-4,4.741922E-5,2.2194453E-4,0.19,0.99,-0.01,16636,9969.10,0,0,0,0.84,-2.66,0.14,0.19,0.99,-0.01
-0.984375,8.9645945E-4,-9.525791E-4,0.0012219442,0.19,0.99,-0.01,16644,9967.80,0,0,165,0.84,-2.73,0.21,0.19,0.99,-0.01
0.015625,-1.0353979E-4,0.0010474212,0.0022219447,0.2,0.99,-0.01,16659,9968.80,0,0,0,0.77,-2.59,0.28,0.20,0.99,-0.01
-0.984375,-1.0353979E-4,-9.525791E-4,2.2194453E-4,0.19,0.99,-0.01,16674,9967.80,0,0,165,0.77,-2.73,0.14,0.19,0.99,-0.01
0.015625,8.9645945E-4,-9.525791E-4,2.2194453E-4,0.19,0.99,-0.01,16681,9968.80,0,0,0,0.84,-2.73,0.14,0.19,0.99,-0.01
0.015625,-0.00110354,4.741922E-5,-0.0037780558,0.19,0.99,-0.01,16696,9968.80,0,0,165,0.70,-2.66,-0.14,0.19,0.99,-0.01
-0.5839844,-0.00110354,0.0010474212,-0.0057780556,0.19,0.99,-0.01,16711,9968.20,0,0,0,0.70,-2.59,-0.28,0.19,0.99,-0.01
0.3154297,-0.00210354,4.741922E-5,-0.0017780556,0.19,0.99,-0.01,16719,9969.10,0,0,165,0.63,-2.66,0.00,0.19,0.99,-0.01
-0.984375,8.9645945E-4,4.741922E-5,0.0022219447,0.2,0.99,-0.01,16734,9967.80,0,0,0,0.84,-2.66,0.28,0.20,0.99,-0.01
0.3154297,0.0018964605,4.741922E-5,0.004221944,0.19,0.99,-0.01,16749,9969.10,0,0,165,0.91,-2.66,0.42,0.19,0.99,-0.01
0.015625,-1.0353979E-4,-9.525791E-4,0.004221944,0.19,0.99,-0.01,16756,9968.80,0,0,0,0.77,-2.73,0.42,0.19,0.99,-0.01
0.015625,-0.00110354,4.741922E-5,0.25322193,0.19,0.99,-0.01,16771,9968.80,0,0,165,0.70,-2.66,17.85,0.19,0.99,-0.01
0.015625,-1.0353979E-4,0.0010474212,-0.0057780556,0.19,0.99,-0.01,16787,9968.80,0,0,0,0.77,-2.59,-0.28,0.19,0.99,-0.01
0.015625,-0.00210354,4.741922E-5,-0.007778055,0.19,0.99,-0.01,16794,9968.80,0,0,165,0.63,-2.66,-0.42,0.19,0.99,-0.01
-0.984375,-0.00110354,4.741922E-5,-0.0067780553,0.19,0.99,-0.01,16808,9967.80,0,0,0,0.70,-2.66,-0.35,0.19,0.99,-0.01
-0.984375,0.0018964605,4.741922E-5,2.2194453E-4,0.19,0.99,-0.01,16824,9967.80,0,0,165,0.91,-2.66,0.14,0.19,0.99,-0.01
0.015625,8.9645945E-4,-0.0019525774,0.004221944,0.19,0.99,-0.01,16831,9968.80,0,0,0,0.84,-2.80,0.42,0.19,0.99,-0.01
0.3154297,0.0028964607,4.741922E-5,0.005221945,0.19,0.99,-0.01,16846,9969.10,0,0,165,0.98,-2.66,0.49,0.19,0.99,-0.01
0.9160156,-1.0353979E-4,4.741922E-5,0.0022219447,0.19,0.99,-0.01,16861,9969.70,0,0,0,0.77,-2.66,0.28,0.19,0.99,-0.01
0.3154297,-0.00210354,-9.525791E-4,-0.0047780555,0.19,0.99,-0.01,16868,9969.10,0,0,165,0.63,-2.73,-0.21,0.19,0.99,-0.01
0.3154297,-1.0353979E-4,0.0010474212,-0.0067780553,0.19,0.99,-0.01,16884,9969.10,0,0,0,0.77,-2.59,-0.35,0.19,0.99,-0.01
0.015625,-0.00210354,0.0010474212,-0.009778056,0.19,0.99,-0.01,16899,9968.80,0,0,165,0.63,-2.59,-0.56,0.19,0.99,-0.01
0.3154297,-1.0353979E-4,0.0010474212,-0.0017780556,0.19,1.0,-0.01,16906,9969.10,0,0,0,0.77,-2.59,0.00,0.19,1.00,-0.01
1.3154297,8.9645945E-4,4.741922E-5,0.0012219442,0.19,0.99,-0.01,16922,9970.10,0,0,165,0.84,-2.66,0.21,0.19,0.99,-0.01
0.015625,8.9645945E-4,4.741922E-5,0.005221945,0.2,0.99,-0.01,16936,9968.80,0,0,0,0.84,-2.66,0.49,0.20,0.99,-0.01
0.015625,0.0028964607,-9.525791E-4,0.004221944,0.19,0.99,-0.01,16944,9968.80,0,0,165,0.98,-2.73,0.42,0.19,0.99,-0.01
0.015625,8.9645945E-4,0.0010474212,2.2194453E-4,0.19,0.99,-0.01,16959,9968.80,0,0,0,0.84,-2.59,0.14,0.19,0.99,-0.01
0.3154297,-0.00110354,4.741922E-5,-0.0037780558,0.19,0.99,-0.01,16974,9969.10,0,0,165,0.70,-2.66,-0.14,0.19,0.99,-0.01
0.015625,8.9645945E-4,0.0010474212,-0.0037780558,0.19,0.99,-0.01,16981,9968.80,0,0,0,0.84,-2.59,-0.14,0.19,0.99,-0.01
0.3154297,-1.0353979E-4,0.0010474212,-0.0047780555,0.19,0.99,-0.01,16996,9969.10,0,0,165,0.77,-2.59,-0.21,0.19,0.99,-0.01
0.3154297,8.9645945E-4,0.0020474233,0.0012219442,0.19,0.99,-0.01,17011,9969.10,0,0,0,0.84,-2.52,0.21,0.19,0.99,-0.01
0.3154297,8.9645945E-4,0.0010474212,0.0022219447,0.19,0.99,-0.01,17019,9969.10,0,0,165,0.84,-2.59,0.28,0.19,0.99,-0.01
0.3154297,-1.0353979E-4,4.741922E-5,0.0022219447,0.19,0.99,-0.01,17033,9969.10,0,0,0,0.77,-2.66,0.28,0.19,0.99,-0.01
0.3154297,-0.00110354,4.741922E-5,-7.780555E-4,0.19,0.99,-0.01,17049,9969.10,0,0,165,0.70,-2.66,0.07,0.19,0.99,-0.01
0.3154297,-1.0353979E-4,-9.525791E-4,-0.0017780556,0.19,0.99,-0.01,17057,9969.10,0,0,0,0.77,-2.73,0.00,0.19,0.99,-0.01
-0.5839844,-0.00210354,-9.525791E-4,-0.0057780556,0.19,0.99,-0.01,17072,9968.20,0,0,165,0.63,-2.73,-0.28,0.19,0.99,-0.01
0.3154297,-0.00110354,4.741922E-5,-0.0037780558,0.19,0.99,-0.01,17086,9969.10,0,0,0,0.70,-2.66,-0.14,0.19,0.99,-0.01
-0.984375,-0.00110354,-9.525791E-4,-7.780555E-4,0.19,0.99,-0.01,17094,9967.80,0,0,165,0.70,-2.73,0.07,0.19,0.99,-0.01
0.3154297,8.9645945E-4,0.0010474212,0.0032219444,0.19,0.99,-0.01,17109,9969.10,0,0,0,0.84,-2.59,0.35,0.19,0.99,-0.01
0.3154297,0.0018964605,4.741922E-5,0.0022219447,0.19,0.99,-0.01,17124,9969.10,0,0,165,0.91,-2.66,0.28,0.19,0.99,-0.01
-0.5839844,-1.0353979E-4,4.741922E-5,2.2194453E-4,0.2,0.99,-0.01,17132,9968.20,0,0,0,0.77,-2.66,0.14,0.20,0.99,-0.01
0.3154297,-1.0353979E-4,4.741922E-5,-0.0027780556,0.2,0.99,-0.01,17147,9969.10,0,0,165,0.77,-2.66,-0.07,0.20,0.99,-0.01
-0.5839844,-1.0353979E-4,4.741922E-5,-0.0067780553,0.2,0.99,-0.01,17162,9968.20,0,0,0,0.77,-2.66,-0.35,0.20,0.99,-0.01
0.3154297,-0.00110354,0.0020474233,-0.0047780555,0.19,0.99,-0.01,17169,9969.10,0,0,165,0.70,-2.52,-0.21,0.19,0.99,-0.01
-0.984375,-1.0353979E-4,4.741922E-5,-0.0027780556,0.19,0.99,-0.01,17183,9967.80,0,0,0,0.77,-2.66,-0.07,0.19,0.99,-0.01
0.3154297,-1.0353979E-4,0.0010474212,2.2194453E-4,0.19,0.99,-0.01,17199,9969.10,0,0,165,0.77,-2.59,0.14,0.19,0.99,-0.01
0.3154297,0.0018964605,4.741922E-5,0.005221945,0.19,0.99,-0.01,17207,9969.10,0,0,0,0.91,-2.66,0.49,0.19,0.99,-0.01
0.3154297,0.0028964607,4.741922E-5,0.004221944,0.19,0.99,-0.01,17221,9969.10,0,0,165,0.98,-2.66,0.42,0.19,0.99,-0.01
0.3154297,-1.0353979E-4,-0.0019525774,-0.0017780556,0.19,0.99,-0.01,17236,9969.10,0,0,0,0.77,-2.80,0.00,0.19,0.99,-0.01
0.3154297,-1.0353979E-4,0.0010474212,-0.0027780556,0.19,0.99,-0.01,17243,9969.10,0,0,165,0.77,-2.59,-0.07,0.19,0.99,-0.01
0.3154297,-0.00110354,0.0010474212,-0.0057780556,0.19,0.99,-0.01,17259,9969.10,0,0,0,0.70,-2.59,-0.28,0.19,0.99,-0.01
0.3154297,-1.0353979E-4,4.741922E-5,-0.0037780558,0.19,0.99,-0.01,17274,9969.10,0,0,165,0.77,-2.66,-0.14,0.19,0.99,-0.01
0.3154297,-0.00110354,-0.0019525774,-7.780555E-4,0.19,0.99,-0.01,17281,9969.10,0,0,0,0.70,-2.80,0.07,0.19,0.99,-0.01
1.3154297,8.9645945E-4,-9.525791E-4,0.0012219442,0.19,0.99,-0.01,17296,9970.10,0,0,165,0.84,-2.73,0.21,0.19,0.99,-0.01
0.9160156,0.0028964607,-9.525791E-4,0.0032219444,0.19,0.99,-0.01,17310,9969.70,0,0,0,0.98,-2.73,0.35,0.19,0.99,-0.01
0.3154297,-1.0353979E-4,-9.525791E-4,0.0012219442,0.19,0.99,-0.01,17319,9969.10,0,0,165,0.77,-2.73,0.21,0.19,0.99,-0.01
0.3154297,-1.0353979E-4,4.741922E-5,-0.0027780556,0.19,0.99,-0.01,17334,9969.10,0,0,0,0.77,-2.66,-0.07,0.19,0.99,-0.01
0.3154297,-0.00210354,0.0010474212,-0.0047780555,0.19,0.99,-0.01,17348,9969.10,0,0,165,0.63,-2.59,-0.21,0.19,0.99,-0.01
0.015625,-0.00110354,0.0010474212,-0.0047780555,0.19,0.99,-0.01,17356,9968.80,0,0,0,0.70,-2.59,-0.21,0.19,0.99,-0.01
0.3154297,0.0018964605,-9.525791E-4,-0.0017780556,0.2,0.99,-0.01,17371,9969.10,0,0,165,0.91,-2.73,0.00,0.20,0.99,-0.01
0.3154297,8.9645945E-4,-0.0019525774,-7.780555E-4,0.19,0.99,-0.01,17386,9969.10,0,0,0,0.84,-2.80,0.07,0.19,0.99,-0.01
0.3154297,8.9645945E-4,4.741922E-5,0.0032219444,0.19,0.99,-0.01,17393,9969.10,0,0,165,0.84,-2.66,0.35,0.19,0.99,-0.01
-0.5839844,8.9645945E-4,4.741922E-5,2.2194453E-4,0.2,0.99,-0.01,17408,9968.20,0,0,0,0.84,-2.66,0.14,0.20,0.99,-0.01
0.3154297,-1.0353979E-4,4.741922E-5,-7.780555E-4,0.19,0.99,-0.01,17424,9969.10,0,0,165,0.77,-2.66,0.07,0.19,0.99,-0.01
-0.5839844,8.9645945E-4,-9.525791E-4,-0.0037780558,0.19,0.99,-0.01,17431,9968.20,0,0,0,0.84,-2.73,-0.14,0.19,0.99,-0.01
-0.5839844,-1.0353979E-4,4.741922E-5,-0.0047780555,0.19,0.99,-0.01,17446,9968.20,0,0,165,0.77,-2.66,-0.21,0.19,0.99,-0.01
0.3154297,8.9645945E-4,4.741922E-5,-0.0027780556,0.19,0.99,-0.01,17461,9969.10,0,0,0,0.84,-2.66,-0.07,0.19,0.99,-0.01
0.015625,-0.00110354,-9.525791E-4,-7.780555E-4,0.19,0.99,-0.01,17469,9968.80,0,0,165,0.70,-2.73,0.07,0.19,0.99,-0.01
0.3154297,0.0028964607,-9.525791E-4,2.2194453E-4,0.19,0.99,-0.01,17483,9969.10,0,0,0,0.98,-2.73,0.14,0.19,0.99,-0.01
-0.5839844,0.0018964605,-9.525791E-4,0.0022219447,0.19,0.99,-0.01,17498,9968.20,0,0,165,0.91,-2.73,0.28,0.19,0.99,-0.01
0.3154297,8.9645945E-4,-0.0019525774,0.0012219442,0.19,0.99,-0.01,17506,9969.10,0,0,0,0.84,-2.80,0.21,0.19,0.99,-0.01
0.3154297,-1.0353979E-4,4.741922E-5,-0.0047780555,0.19,0.99,-0.01,17521,9969.10,0,0,165,0.77,-2.66,-0.21,0.19,0.99,-0.01
0.3154297,8.9645945E-4,4.741922E-5,-0.0057780556,0.19,0.99,-0.01,17536,9969.10,0,0,0,0.84,-2.66,-0.28,0.19,0.99,-0.01
0.3154297,-0.00110354,4.741922E-5,-0.008778056,0.19,0.99,-0.01,17544,9969.10,0,0,165,0.70,-2.66,-0.49,0.19,0.99,-0.01
-0.5839844,-0.00110354,4.741922E-5,-0.0057780556,0.19,0.99,-0.01,17559,9968.20,0,0,0,0.70,-2.66,-0.28,0.19,0.99,-0.01
-0.5839844,-1.0353979E-4,0.0010474212,0.0012219442,0.19,0.99,-0.01,17574,9968.20,0,0,165,0.77,-2.59,0.21,0.19,0.99,-0.01
-0.5839844,8.9645945E-4,4.741922E-5,0.004221944,0.19,0.99,-0.01,17580,9968.20,0,0,0,0.84,-2.66,0.42,0.19,0.99,-0.01
-0.5839844,0.0028964607,-9.525791E-4,0.008221944,0.19,0.99,-0.01,17596,9968.20,0,0,165,0.98,-2.73,0.70,0.19,0.99,-0.01
0.3154297,0.0018964605,4.741922E-5,0.006221945,0.2,0.99,-0.01,17611,9969.10,0,0,0,0.91,-2.66,0.56,0.20,0.99,-0.01
0.3154297,8.9645945E-4,4.741922E-5,0.0032219444,0.19,0.99,-0.01,17618,9969.10,0,0,165,0.84,-2.66,0.35,0.19,0.99,-0.01
0.3154297,-1.0353979E-4,0.0010474212,-0.0047780555,0.19,0.99,-0.01,17634,9969.10,0,0,0,0.77,-2.59,-0.21,0.19,0.99,-0.01
0.3154297,-0.00210354,0.0010474212,-0.008778056,0.19,0.99,-0.01,17648,9969.10,0,0,165,0.63,-2.59,-0.49,0.19,0.99,-0.01
0.015625,-0.00110354,4.741922E-5,-0.0057780556,0.19,0.99,-0.01,17656,9968.80,0,0,0,0.70,-2.66,-0.28,0.19,0.99,-0.01
-0.5839844,-1.0353979E-4,0.0010474212,-0.0047780555,0.19,0.99,-0.01,17671,9968.20,0,0,165,0.77,-2.59,-0.21,0.19,0.99,-0.01
0.3154297,8.9645945E-4,0.0010474212,-0.0017780556,0.19,0.99,-0.01,17686,9969.10,0,0,0,0.84,-2.59,0.00,0.19,0.99,-0.01
-0.5839844,8.9645945E-4,-9.525791E-4,0.0022219447,0.19,0.99,-0.01,17693,9968.20,0,0,165,0.84,-2.73,0.28,0.19,0.99,-0.01
-0.5839844,0.0028964607,-9.525791E-4,0.0022219447,0.19,0.99,-0.01,17708,9968.20,0,0,0,0.98,-2.73,0.28,0.19,0.99,-0.01
0.3154297,-1.0353979E-4,-9.525791E-4,-7.780555E-4,0.19,0.99,-0.01,17724,9969.10,0,0,165,0.77,-2.73,0.07,0.19,0.99,-0.01
0.3154297,-1.0353979E-4,4.741922E-5,-7.780555E-4,0.19,0.99,-0.01,17731,9969.10,0,0,0,0.77,-2.66,0.07,0.19,0.99,-0.01
0.61621094,-1.0353979E-4,0.0010474212,-0.0037780558,0.19,0.99,-0.01,17746,9969.40,0,0,165,0.77,-2.59,-0.14,0.19,0.99,-0.01
-0.5839844,0.0018964605,0.0010474212,-7.780555E-4,0.19,0.99,-0.01,17761,9968.20,0,0,0,0.91,-2.59,0.07,0.19,0.99,-0.01
-0.5839844,-1.0353979E-4,4.741922E-5,0.0012219442,0.19,0.99,-0.01,17769,9968.20,0,0,165,0.77,-2.66,0.21,0.19,0.99,-0.01
-0.5839844,-0.00110354,4.741922E-5,2.2194453E-4,0.19,0.99,-0.01,17784,9968.20,0,0,0,0.70,-2.66,0.14,0.19,0.99,-0.01
-0.5839844,-1.0353979E-4,0.0010474212,2.2194453E-4,0.19,0.99,-0.01,17799,9968.20,0,0,165,0.77,-2.59,0.14,0.19,0.99,-0.01
0.3154297,8.9645945E-4,0.0010474212,-0.0047780555,0.19,0.99,-0.01,17806,9969.10,0,0,0,0.84,-2.59,-0.21,0.19,0.99,-0.01
-0.984375,-1.0353979E-4,4.741922E-5,-0.0047780555,0.19,0.99,-0.01,17821,9967.80,0,0,165,0.77,-2.66,-0.21,0.19,0.99,-0.01
-0.5839844,-1.0353979E-4,-9.525791E-4,-0.0027780556,0.19,0.99,-0.01,17836,9968.20,0,0,0,0.77,-2.73,-0.07,0.19,0.99,-0.01
0.3154297,-1.0353979E-4,-9.525791E-4,0.0022219447,0.19,0.99,-0.01,17843,9969.10,0,0,165,0.77,-2.73,0.28,0.19,0.99,-0.01
0.3154297,8.9645945E-4,-9.525791E-4,0.0022219447,0.19,0.99,-0.01,17866,9969.10,0,0,0,0.84,-2.73,0.28,0.19,0.99,-0.01
0.61621094,-0.00110354,-0.0019525774,2.2194453E-4,0.19,0.99,-0.01,17874,9969.40,0,0,165,0.70,-2.80,0.14,0.19,0.99,-0.01
0.3154297,8.9645945E-4,4.741922E-5,-7.780555E-4,0.19,0.99,-0.01,17881,9969.10,0,0,0,0.84,-2.66,0.07,0.19,0.99,-0.01
0.3154297,-1.0353979E-4,4.741922E-5,-0.0047780555,0.19,0.99,-0.01,17896,9969.10,0,0,165,0.77,-2.66,-0.21,0.19,0.99,-0.01
0.3154297,-1.0353979E-4,4.741922E-5,-0.0057780556,0.19,0.99,-0.01,17911,9969.10,0,0,0,0.77,-2.66,-0.28,0.19,0.99,-0.01
-0.5839844,-1.0353979E-4,0.0010474212,-0.0017780556,0.19,0.99,-0.01,17919,9968.20,0,0,165,0.77,-2.59,0.00,0.19,0.99,-0.01
0.015625,8.9645945E-4,4.741922E-5,0.0012219442,0.19,0.99,-0.01,17934,9968.80,0,0,0,0.84,-2.66,0.21,0.19,0.99,-0.01
0.3154297,8.9645945E-4,4.741922E-5,0.0032219444,0.19,0.99,-0.01,17949,9969.10,0,0,165,0.84,-2.66,0.35,0.19,0.99,-0.01
-0.5839844,0.0018964605,4.741922E-5,0.0012219442,0.19,0.99,-0.01,17956,9968.20,0,0,0,0.91,-2.66,0.21,0.19,0.99,-0.01
0.61621094,-1.0353979E-4,0.0020474233,2.2194453E-4,0.19,0.99,-0.01,17971,9969.40,0,0,165,0.77,-2.52,0.14,0.19,0.99,-0.01
0.3154297,-1.0353979E-4,-9.525791E-4,-0.0027780556,0.19,0.99,-0.01,17986,9969.10,0,0,0,0.77,-2.73,-0.07,0.19,0.99,-0.01
-0.5839844,-1.0353979E-4,4.741922E-5,-0.0017780556,0.19,0.99,-0.01,17993,9968.20,0,0,165,0.77,-2.66,0.00,0.19,0.99,-0.01
0.3154297,0.0018964605,4.741922E-5,-0.0017780556,0.19,0.99,-0.01,18009,9969.10,0,0,0,0.91,-2.66,0.00,0.19,0.99,-0.01
-0.5839844,8.9645945E-4,0.0010474212,-0.0027780556,0.19,0.99,-0.01,18023,9968.20,0,0,165,0.84,-2.59,-0.07,0.19,0.99,-0.01
-0.5839844,-0.00110354,0.0010474212,-0.0027780556,0.19,0.99,-0.01,18032,9968.20,0,0,0,0.70,-2.59,-0.07,0.19,0.99,-0.01
0.3154297,-1.0353979E-4,4.741922E-5,-0.0047780555,0.19,0.99,-0.01,18046,9969.10,0,0,165,0.77,-2.66,-0.21,0.19,0.99,-0.01
1.3154297,-0.00110354,4.741922E-5,-0.0037780558,0.19,0.99,-0.01,18061,9970.10,0,0,0,0.70,-2.66,-0.14,0.19,0.99,-0.01
-0.5839844,8.9645945E-4,-0.0019525774,-0.0027780556,0.19,0.99,-0.01,18069,9968.20,0,0,165,0.84,-2.80,-0.07,0.19,0.99,-0.01
-0.5839844,8.9645945E-4,4.741922E-5,0.0022219447,0.19,0.99,-0.01,18084,9968.20,0,0,0,0.84,-2.66,0.28,0.19,0.99,-0.01
-0.5839844,8.9645945E-4,4.741922E-5,0.0012219442,0.19,0.99,-0.01,18099,9968.20,0,0,165,0.84,-2.66,0.21,0.19,0.99,-0.01
0.3154297,8.9645945E-4,-9.525791E-4,0.0012219442,0.19,0.99,-0.01,18106,9969.10,0,0,0,0.84,-2.73,0.21,0.19,0.99,-0.01
-0.5839844,-0.00210354,-9.525791E-4,-7.780555E-4,0.19,0.99,-0.01,18121,9968.20,0,0,165,0.63,-2.73,0.07,0.19,0.99,-0.01
0.61621094,-0.00110354,-9.525791E-4,-0.0017780556,0.19,0.99,-0.01,18136,9969.40,0,0,0,0.70,-2.73,0.00,0.19,0.99,-0.01
-0.5839844,-1.0353979E-4,4.741922E-5,-0.0037780558,0.2,0.99,-0.01,18144,9968.20,0,0,165,0.77,-2.66,-0.14,0.20,0.99,-0.01
0.3154297,-0.00110354,4.741922E-5,-0.0027780556,0.19,0.99,-0.01,18159,9969.10,0,0,0,0.70,-2.66,-0.07,0.19,0.99,-0.01
0.3154297,-0.00110354,4.741922E-5,-0.0027780556,0.19,0.99,-0.01,18167,9969.10,0,0,165,0.70,-2.66,-0.07,0.19,0.99,-0.01
-0.2841797,-1.0353979E-4,0.0010474212,-7.780555E-4,0.19,0.99,-0.01,18181,9968.50,0,0,0,0.77,-2.59,0.07,0.19,0.99,-0.01
-0.5839844,8.9645945E-4,4.741922E-5,2.2194453E-4,0.19,0.99,-0.01,18196,9968.20,0,0,165,0.84,-2.66,0.14,0.19,0.99,-0.01
-0.5839844,8.9645945E-4,4.741922E-5,0.0022219447,0.19,0.99,-0.01,18203,9968.20,0,0,0,0.84,-2.66,0.28,0.19,0.99,-0.01
-0.2841797,8.9645945E-4,0.0010474212,-7.780555E-4,0.19,0.99,-0.01,18219,9968.50,0,0,165,0.84,-2.59,0.07,0.19,0.99,-0.01
0.3154297,-1.0353979E-4,4.741922E-5,-7.780555E-4,0.19,0.99,-0.01,18234,9969.10,0,0,0,0.77,-2.66,0.07,0.19,0.99,-0.01
-0.5839844,8.9645945E-4,4.741922E-5,-7.780555E-4,0.19,0.99,-0.01,18241,9968.20,0,0,165,0.84,-2.66,0.07,0.19,0.99,-0.01
0.61621094,-0.00110354,4.741922E-5,-0.0017780556,0.19,0.99,-0.01,18256,9969.40,0,0,0,0.70,-2.66,0.00,0.19,0.99,-0.01
-0.5839844,-1.0353979E-4,0.0010474212,-0.0017780556,0.19,0.99,-0.01,18271,9968.20,0,0,165,0.77,-2.59,0.00,0.19,0.99,-0.01
0.3154297,8.9645945E-4,4.741922E-5,-0.0027780556,0.19,0.99,-0.01,18278,9969.10,0,0,0,0.84,-2.66,-0.07,0.19,0.99,-0.01
-0.2841797,-0.00110354,4.741922E-5,-0.0017780556,0.19,0.99,-0.01,18293,9968.50,0,0,165,0.70,-2.66,0.00,0.19,0.99,-0.01
0.61621094,-1.0353979E-4,4.741922E-5,-7.780555E-4,0.19,0.99,-0.01,18308,9969.40,0,0,0,0.77,-2.66,0.07,0.19,0.99,-0.01
-0.5839844,8.9645945E-4,0.0010474212,-0.0027780556,0.19,0.99,-0.01,18317,9968.20,0,0,165,0.84,-2.59,-0.07,0.19,0.99,-0.01
0.3154297,-0.00110354,-9.525791E-4,2.2194453E-4,0.19,0.99,-0.01,18331,9969.10,0,0,0,0.70,-2.73,0.14,0.19,0.99,-0.01
-0.2841797,0.0018964605,-9.525791E-4,0.0022219447,0.19,0.99,-0.01,18346,9968.50,0,0,165,0.91,-2.73,0.28,0.19,0.99,-0.01
-0.5839844,8.9645945E-4,-9.525791E-4,0.0032219444,0.2,0.99,-0.01,18354,9968.20,0,0,0,0.84,-2.73,0.35,0.20,0.99,-0.01
-0.2841797,8.9645945E-4,-0.0019525774,0.0012219442,0.19,0.99,-0.01,18368,9968.50,0,0,165,0.84,-2.80,0.21,0.19,0.99,-0.01
-0.2841797,8.9645945E-4,4.741922E-5,-7.780555E-4,0.19,0.99,-0.01,18384,9968.50,0,0,0,0.84,-2.66,0.07,0.19,0.99,-0.01
0.3154297,-0.00110354,4.741922E-5,-0.0047780555,0.19,0.99,-0.01,18391,9969.10,0,0,165,0.70,-2.66,-0.21,0.19,0.99,-0.01
0.61621094,8.9645945E-4,0.0010474212,-0.0047780555,0.19,0.99,-0.01,18406,9969.40,0,0,0,0.84,-2.59,-0.21,0.19,0.99,-0.01
-0.5839844,-0.00210354,4.741922E-5,-0.0067780553,0.19,0.99,-0.01,18421,9968.20,0,0,165,0.63,-2.66,-0.35,0.19,0.99,-0.01
-0.2841797,-0.00210354,-9.525791E-4,-0.0027780556,0.19,0.99,-0.01,18428,9968.50,0,0,0,0.63,-2.73,-0.07,0.19,0.99,-0.01
0.61621094,-1.0353979E-4,0.0010474212,0.0012219442,0.19,0.99,-0.01,18443,9969.40,0,0,165,0.77,-2.59,0.21,0.19,0.99,-0.01
0.3154297,8.9645945E-4,-9.525791E-4,0.0032219444,0.19,0.99,-0.01,18458,9969.10,0,0,0,0.84,-2.73,0.35,0.19,0.99,-0.01
-0.5839844,0.0018964605,0.0010474212,0.0022219447,0.19,0.99,-0.01,18466,9968.20,0,0,165,0.91,-2.59,0.28,0.19,0.99,-0.01
-0.5839844,8.9645945E-4,4.741922E-5,-7.780555E-4,0.19,0.99,-0.01,18481,9968.20,0,0,0,0.84,-2.66,0.07,0.19,0.99,-0.01
0.015625,-1.0353979E-4,4.741922E-5,-0.0027780556,0.19,0.99,-0.01,18496,9968.80,0,0,165,0.77,-2.66,-0.07,0.19,0.99,-0.01
0.3154297,-0.00110354,0.0010474212,-0.0057780556,0.19,0.99,-0.01,18503,9969.10,0,0,0,0.70,-2.59,-0.28,0.19,0.99,-0.01
0.015625,-1.0353979E-4,0.0010474212,-0.0037780558,0.19,0.99,-0.01,18518,9968.80,0,0,165,0.77,-2.59,-0.14,0.19,0.99,-0.01
0.61621094,-1.0353979E-4,0.0010474212,-7.780555E-4,0.2,0.99,-0.01,18534,9969.40,0,0,0,0.77,-2.59,0.07,0.20,0.99,-0.01
0.3154297,-1.0353979E-4,-9.525791E-4,2.2194453E-4,0.19,0.99,-0.01,18540,9969.10,0,0,165,0.77,-2.73,0.14,0.19,0.99,-0.01
0.61621094,8.9645945E-4,4.741922E-5,2.2194453E-4,0.19,0.99,-0.01,18557,9969.40,0,0,0,0.84,-2.66,0.14,0.19,0.99,-0.01
-0.2841797,0.0018964605,-9.525791E-4,0.0012219442,0.19,0.99,-0.01,18572,9968.50,0,0,165,0.91,-2.73,0.21,0.19,0.99,-0.01
-0.5839844,-1.0353979E-4,4.741922E-5,-0.0017780556,0.19,0.99,-0.01,18578,9968.20,0,0,0,0.77,-2.66,0.00,0.19,0.99,-0.01
-0.5839844,-1.0353979E-4,4.741922E-5,-7.780555E-4,0.19,0.99,-0.01,18593,9968.20,0,0,165,0.77,-2.66,0.07,0.19,0.99,-0.01
-0.2841797,-0.00210354,-9.525791E-4,-0.0037780558,0.19,0.99,-0.01,18608,9968.50,0,0,0,0.63,-2.73,-0.14,0.19,0.99,-0.01
0.3154297,-0.00210354,4.741922E-5,-0.0027780556,0.19,0.99,-0.01,18616,9969.10,0,0,165,0.63,-2.66,-0.07,0.19,0.99,-0.01
0.61621094,8.9645945E-4,0.0010474212,-0.0037780558,0.19,0.99,-0.01,18631,9969.40,0,0,0,0.84,-2.59,-0.14,0.19,0.99,-0.01
-0.2841797,-0.00110354,4.741922E-5,-0.25677806,0.19,0.99,-0.01,18646,9968.50,0,0,165,0.70,-2.66,-17.85,0.19,0.99,-0.01
-0.2841797,8.9645945E-4,4.741922E-5,-0.0017780556,0.19,0.99,-0.01,18654,9968.50,0,0,0,0.84,-2.66,0.00,0.19,0.99,-0.01
-0.5839844,-1.0353979E-4,-9.525791E-4,-7.780555E-4,0.19,0.99,-0.01,18668,9968.20,0,0,165,0.77,-2.73,0.07,0.19,0.99,-0.01
0.015625,-1.0353979E-4,4.741922E-5,0.0012219442,0.19,0.99,-0.01,18683,9968.80,0,0,0,0.77,-2.66,0.21,0.19,0.99,-0.01
-0.5839844,8.9645945E-4,0.0010474212,0.0012219442,0.19,0.99,-0.01,18691,9968.20,0,0,165,0.84,-2.59,0.21,0.19,0.99,-0.01
-0.2841797,8.9645945E-4,0.0010474212,-0.0017780556,0.19,0.99,-0.01,18706,9968.50,0,0,0,0.84,-2.59,0.00,0.19,0.99,-0.01
-0.2841797,-0.00110354,0.0010474212,2.2194453E-4,0.19,0.99,-0.01,18721,9968.50,0,0,165,0.70,-2.59,0.14,0.19,0.99,-0.01
-0.2841797,0.0018964605,0.0010474212,0.0022219447,0.19,0.99,-0.01,18729,9968.50,0,0,0,0.91,-2.59,0.28,0.19,0.99,-0.01
-0.2841797,0.0018964605,4.741922E-5,0.0012219442,0.2,0.99,-0.01,18743,9968.50,0,0,165,0.91,-2.66,0.21,0.20,0.99,-0.01
0.61621094,-0.00110354,-9.525791E-4,-0.0017780556,0.2,0.99,-0.01,18758,9969.40,0,0,0,0.70,-2.73,0.00,0.20,0.99,-0.01
-0.2841797,-0.0031035393,4.741922E-5,-0.0067780553,0.19,0.99,-0.01,18766,9968.50,0,0,165,0.56,-2.66,-0.35,0.19,0.99,-0.01
0.61621094,-0.0031035393,4.741922E-5,-0.009778056,0.19,0.99,-0.01,18781,9969.40,0,0,0,0.56,-2.66,-0.56,0.19,0.99,-0.01
-0.5839844,-1.0353979E-4,4.741922E-5,-0.0047780555,0.19,0.99,-0.01,18796,9968.20,0,0,165,0.77,-2.66,-0.21,0.19,0.99,-0.01
-0.5839844,-1.0353979E-4,4.741922E-5,0.0012219442,0.19,0.99,-0.01,18803,9968.20,0,0,0,0.77,-2.66,0.21,0.19,0.99,-0.01
0.61621094,0.0028964607,-9.525791E-4,0.007221944,0.19,0.99,-0.01,18819,9969.40,0,0,165,0.98,-2.73,0.63,0.19,0.99,-0.01
0.3154297,0.004896461,4.741922E-5,0.008221944,0.19,0.99,-0.01,18834,9969.10,0,0,0,1.12,-2.66,0.70,0.19,0.99,-0.01
0.61621094,-1.0353979E-4,0.0010474212,0.0032219444,0.19,0.99,-0.01,18841,9969.40,0,0,165,0.77,-2.59,0.35,0.19,0.99,-0.01
-0.2841797,-0.00110354,4.741922E-5,-0.0037780558,0.19,0.99,-0.01,18856,9968.50,0,0,0,0.70,-2.66,-0.14,0.19,0.99,-0.01
0.61621094,-0.0031035393,0.0010474212,-0.011778056,0.19,0.99,-0.01,18871,9969.40,0,0,165,0.56,-2.59,-0.70,0.19,0.99,-0.01
-0.2841797,-0.0031035393,4.741922E-5,-0.011778056,0.19,0.99,-0.01,18879,9968.50,0,0,0,0.56,-2.66,-0.70,0.19,0.99,-0.01
-0.2841797,-0.00110354,0.0010474212,-0.008778056,0.19,0.99,-0.01,18894,9968.50,0,0,165,0.70,-2.59,-0.49,0.19,0.99,-0.01
0.61621094,-1.0353979E-4,4.741922E-5,0.0012219442,0.19,0.99,-0.01,18909,9969.40,0,0,0,0.77,-2.66,0.21,0.19,0.99,-0.01
0.61621094,0.0018964605,-0.0019525774,0.007221944,0.19,0.99,-0.01,18916,9969.40,0,0,165,0.91,-2.80,0.63,0.19,0.99,-0.01
-0.2841797,0.00389646,4.741922E-5,0.008221944,0.19,0.99,-0.01,18931,9968.50,0,0,0,1.05,-2.66,0.70,0.19,0.99,-0.01
-0.2841797,0.00389646,4.741922E-5,0.006221945,0.19,0.99,-0.01,18946,9968.50,0,0,165,1.05,-2.66,0.56,0.19,0.99,-0.01
-0.2841797,-0.00110354,-9.525791E-4,-0.0017780556,0.2,0.99,-0.01,18954,9968.50,0,0,0,0.70,-2.73,0.00,0.20,0.99,-0.01
-0.2841797,-0.00210354,4.741922E-5,-0.0057780556,0.19,0.99,-0.01,18968,9968.50,0,0,165,0.63,-2.66,-0.28,0.19,0.99,-0.01
0.61621094,-0.00210354,4.741922E-5,-0.007778055,0.19,0.99,-0.01,18983,9969.40,0,0,0,0.63,-2.66,-0.42,0.19,0.99,-0.01
0.61621094,-1.0353979E-4,4.741922E-5,-0.0057780556,0.19,0.99,-0.01,18990,9969.40,0,0,165,0.77,-2.66,-0.28,0.19,0.99,-0.01
-0.2841797,-1.0353979E-4,4.741922E-5,-0.0017780556,0.19,0.99,-0.01,19006,9968.50,0,0,0,0.77,-2.66,0.00,0.19,0.99,-0.01
0.61621094,8.9645945E-4,-9.525791E-4,0.0012219442,0.19,0.99,-0.01,19021,9969.40,0,0,165,0.84,-2.73,0.21,0.19,0.99,-0.01
-0.2841797,8.9645945E-4,4.741922E-5,2.2194453E-4,0.19,0.99,-0.01,19028,9968.50,0,0,0,0.84,-2.66,0.14,0.19,0.99,-0.01
-0.2841797,0.0028964607,0.0010474212,-7.780555E-4,0.19,0.99,-0.01,19044,9968.50,0,0,165,0.98,-2.59,0.07,0.19,0.99,-0.01
0.3154297,8.9645945E-4,4.741922E-5,-0.0037780558,0.19,0.99,-0.01,19059,9969.10,0,0,0,0.84,-2.66,-0.14,0.19,0.99,-0.01
-0.2841797,-1.0353979E-4,-9.525791E-4,-0.0027780556,0.19,0.99,-0.01,19066,9968.50,0,0,165,0.77,-2.73,-0.07,0.19,0.99,-0.01
0.61621094,8.9645945E-4,4.741922E-5,-7.780555E-4,0.19,0.99,-0.01,19081,9969.40,0,0,0,0.84,-2.66,0.07,0.19,0.99,-0.01
-1.2841797,0.0018964605,0.0010474212,0.004221944,0.19,0.99,-0.01,19096,9967.50,0,0,165,0.91,-2.59,0.42,0.19,0.99,-0.01
0.015625,-1.0353979E-4,4.741922E-5,2.2194453E-4,0.19,0.99,-0.01,19104,9968.80,0,0,0,0.77,-2.66,0.14,0.19,0.99,-0.01
-0.5839844,-0.00110354,4.741922E-5,2.2194453E-4,0.2,0.99,-0.01,19118,9968.20,0,0,165,0.70,-2.66,0.14,0.20,0.99,-0.01
-0.2841797,-0.00210354,-9.525791E-4,-0.0037780558,0.2,0.99,-0.01,19134,9968.50,0,0,0,0.63,-2.73,-0.14,0.20,0.99,-0.01
-0.2841797,-0.00110354,4.741922E-5,-0.0067780553,0.19,0.99,-0.01,19141,9968.50,0,0,165,0.70,-2.66,-0.35,0.19,0.99,-0.01
0.61621094,-0.0031035393,4.741922E-5,-0.007778055,0.19,0.99,-0.01,19156,9969.40,0,0,0,0.56,-2.66,-0.42,0.19,0.99,-0.01
0.61621094,-0.00110354,4.741922E-5,-0.0047780555,0.19,0.99,-0.01,19170,9969.40,0,0,165,0.70,-2.66,-0.21,0.19,0.99,-0.01
-0.2841797,-0.00110354,-9.525791E-4,2.2194453E-4,0.19,0.99,-0.01,19178,9968.50,0,0,0,0.70,-2.73,0.14,0.19,0.99,-0.01
-0.2841797,0.0028964607,0.0010474212,0.007221944,0.19,0.99,-0.01,19194,9968.50,0,0,165,0.98,-2.59,0.63,0.19,0.99,-0.01
0.61621094,8.9645945E-4,-9.525791E-4,0.011221944,0.2,0.99,-0.01,19208,9969.40,0,0,0,0.84,-2.73,0.91,0.20,0.99,-0.01
-1.2841797,0.00389646,-9.525791E-4,0.006221945,0.2,0.99,-0.01,19216,9967.50,0,0,165,1.05,-2.73,0.56,0.20,0.99,-0.01
0.61621094,-1.0353979E-4,4.741922E-5,-0.0027780556,0.19,0.99,-0.01,19231,9969.40,0,0,0,0.77,-2.66,-0.07,0.19,0.99,-0.01
0.61621094,-0.0031035393,-9.525791E-4,-0.012778056,0.19,0.99,-0.01,19246,9969.40,0,0,165,0.56,-2.73,-0.77,0.19,0.99,-0.01
-0.2841797,-0.00510354,0.0010474212,-0.015778055,0.19,0.99,-0.01,19254,9968.50,0,0,0,0.42,-2.59,-0.98,0.19,0.99,-0.01
-0.2841797,-0.00210354,0.0010474212,-0.009778056,0.19,0.99,-0.01,19269,9968.50,0,0,165,0.63,-2.59,-0.56,0.19,0.99,-0.01
-0.2841797,8.9645945E-4,0.0010474212,-7.780555E-4,0.19,0.99,-0.01,19284,9968.50,0,0,0,0.84,-2.59,0.07,0.19,0.99,-0.01
-0.2841797,0.0018964605,-9.525791E-4,0.010221943,0.19,0.99,-0.01,19291,9968.50,0,0,165,0.91,-2.73,0.84,0.19,0.99,-0.01
0.61621094,0.0028964607,-0.0019525774,0.010221943,0.19,0.99,-0.01,19305,9969.40,0,0,0,0.98,-2.80,0.84,0.19,0.99,-0.01
-0.5839844,0.0018964605,-9.525791E-4,0.007221944,0.2,0.99,-0.01,19321,9968.20,0,0,165,0.91,-2.73,0.63,0.20,0.99,-0.01
-0.2841797,-1.0353979E-4,-9.525791E-4,-0.0037780558,0.2,0.99,-0.01,19328,9968.50,0,0,0,0.77,-2.73,-0.14,0.20,0.99,-0.01
-0.2841797,-0.0031035393,0.0010474212,-0.009778056,0.2,0.99,-0.01,19344,9968.50,0,0,165,0.56,-2.59,-0.56,0.20,0.99,-0.01
0.015625,-0.0041035395,-9.525791E-4,-0.012778056,0.19,0.99,-0.01,19358,9968.80,0,0,0,0.49,-2.73,-0.77,0.19,0.99,-0.01
-0.2841797,-0.00210354,0.0010474212,-0.0067780553,0.19,0.99,-0.01,19366,9968.50,0,0,165,0.63,-2.59,-0.35,0.19,0.99,-0.01
-0.2841797,-0.00110354,0.0010474212,2.2194453E-4,0.19,0.99,-0.01,19381,9968.50,0,0,0,0.70,-2.59,0.14,0.19,0.99,-0.01
-0.984375,8.9645945E-4,4.741922E-5,0.004221944,0.19,0.99,-0.01,19396,9967.80,0,0,165,0.84,-2.66,0.42,0.19,0.99,-0.01
-0.2841797,0.0018964605,-9.525791E-4,0.0032219444,0.19,0.99,-0.01,19403,9968.50,0,0,0,0.91,-2.73,0.35,0.19,0.99,-0.01
1.015625,8.9645945E-4,4.741922E-5,-7.780555E-4,0.19,0.99,-0.01,19419,9969.80,0,0,165,0.84,-2.66,0.07,0.19,0.99,-0.01
-0.2841797,8.9645945E-4,4.741922E-5,2.2194453E-4,0.19,0.99,-0.01,19434,9968.50,0,0,0,0.84,-2.66,0.14,0.19,0.99,-0.01
0.015625,-1.0353979E-4,-9.525791E-4,-0.0027780556,0.19,0.99,-0.02,19441,9968.80,0,0,165,0.77,-2.73,-0.07,0.19,0.99,-0.02
-0.2841797,8.9645945E-4,4.741922E-5,-7.780555E-4,0.2,0.99,-0.02,19456,9968.50,0,0,0,0.84,-2.66,0.07,0.20,0.99,-0.02
0.015625,-0.00110354,0.0010474212,-7.780555E-4,0.2,0.99,-0.01,19471,9968.80,0,0,165,0.70,-2.59,0.07,0.20,0.99,-0.01
0.015625,-1.0353979E-4,0.0010474212,-0.0037780558,0.19,0.99,-0.01,19478,9968.80,0,0,0,0.77,-2.59,-0.14,0.19,0.99,-0.01
-0.2841797,-0.0031035393,0.0020474233,-0.007778055,0.19,0.99,-0.01,19493,9968.50,0,0,165,0.56,-2.52,-0.42,0.19,0.99,-0.01
-0.2841797,-0.0031035393,0.0010474212,-0.0067780553,0.19,0.99,-0.01,19509,9968.50,0,0,0,0.56,-2.59,-0.35,0.19,0.99,-0.01
0.015625,-1.0353979E-4,0.0010474212,-0.0017780556,0.19,0.99,-0.01,19516,9968.80,0,0,165,0.77,-2.59,0.00,0.19,0.99,-0.01
-0.2841797,0.00389646,-9.525791E-4,0.005221945,0.19,0.99,-0.01,19531,9968.50,0,0,0,1.05,-2.73,0.49,0.19,0.99,-0.01
0.015625,0.00389646,4.741922E-5,0.013221944,0.19,0.99,-0.01,19546,9968.80,0,0,165,1.05,-2.66,1.05,0.19,0.99,-0.01
0.015625,0.004896461,-9.525791E-4,0.0122219445,0.19,0.99,-0.01,19554,9968.80,0,0,0,1.12,-2.73,0.98,0.19,0.99,-0.01
-0.984375,8.9645945E-4,-9.525791E-4,0.005221945,0.2,0.99,-0.01,19569,9967.80,0,0,165,0.84,-2.73,0.49,0.20,0.99,-0.01
1.015625,-0.00110354,4.741922E-5,-0.007778055,0.2,0.99,-0.01,19584,9969.80,0,0,0,0.70,-2.66,-0.42,0.20,0.99,-0.01
0.015625,-0.00510354,0.0020474233,-0.016778056,0.19,0.99,-0.01,19591,9968.80,0,0,165,0.42,-2.52,-1.05,0.19,0.99,-0.01
-0.2841797,-0.00610354,0.0010474212,-0.018778056,0.19,0.99,-0.01,19606,9968.50,0,0,0,0.35,-2.59,-1.19,0.19,0.99,-0.01
0.015625,-0.0031035393,4.741922E-5,-0.014778056,0.19,0.99,-0.01,19620,9968.80,0,0,165,0.56,-2.66,-0.91,0.19,0.99,-0.01
-1.2841797,-0.0031035393,-9.525791E-4,-0.0057780556,0.19,1.0,-0.01,19628,9967.50,0,0,0,0.56,-2.73,-0.28,0.19,1.00,-0.01
-0.2841797,0.0028964607,4.741922E-5,0.004221944,0.19,0.99,-0.0,19643,9968.50,0,0,165,0.98,-2.66,0.42,0.19,0.99,-0.00
-0.2841797,0.00389646,-0.0019525774,0.014221945,0.19,0.99,-0.01,19658,9968.50,0,0,0,1.05,-2.80,1.12,0.19,0.99,-0.01
0.015625,0.004896461,-9.525791E-4,0.014221945,0.19,0.99,-0.01,19666,9968.80,0,0,165,1.12,-2.73,1.12,0.19,0.99,-0.01
0.015625,0.0018964605,-0.0019525774,0.007221944,0.2,0.99,-0.01,19681,9968.80,0,0,0,0.91,-2.80,0.63,0.20,0.99,-0.01
0.61621094,8.9645945E-4,0.0010474212,-0.0017780556,0.19,0.99,-0.01,19696,9969.40,0,0,165,0.84,-2.59,0.00,0.19,0.99,-0.01
0.015625,-0.00110354,0.0020474233,-0.009778056,0.19,0.99,-0.01,19704,9968.80,0,0,0,0.70,-2.52,-0.56,0.19,0.99,-0.01
-0.2841797,-0.0031035393,0.0020474233,-0.0107780555,0.19,0.99,-0.01,19718,9968.50,0,0,165,0.56,-2.52,-0.63,0.19,0.99,-0.01
0.015625,-0.00210354,4.741922E-5,-0.009778056,0.19,0.99,-0.01,19733,9968.80,0,0,0,0.63,-2.66,-0.56,0.19,0.99,-0.01
-0.984375,-1.0353979E-4,0.0020474233,-0.0037780558,0.19,0.99,-0.01,19741,9967.80,0,0,165,0.77,-2.52,-0.14,0.19,0.99,-0.01
0.015625,8.9645945E-4,4.741922E-5,0.0032219444,0.19,0.99,-0.0,19756,9968.80,0,0,0,0.84,-2.66,0.35,0.19,0.99,-0.00
0.015625,0.0018964605,4.741922E-5,0.005221945,0.19,0.99,-0.01,19771,9968.80,0,0,165,0.91,-2.66,0.49,0.19,0.99,-0.01
0.61621094,8.9645945E-4,-9.525791E-4,0.0022219447,0.19,0.99,-0.01,19778,9969.40,0,0,0,0.84,-2.73,0.28,0.19,0.99,-0.01
0.61621094,0.0018964605,0.0010474212,-0.0027780556,0.19,0.99,-0.01,19793,9969.40,0,0,165,0.91,-2.59,-0.07,0.19,0.99,-0.01
0.3154297,8.9645945E-4,4.741922E-5,-0.0017780556,0.19,0.99,-0.01,19808,9969.10,0,0,0,0.84,-2.66,0.00,0.19,0.99,-0.01
-0.2841797,-1.0353979E-4,-9.525791E-4,-0.0027780556,0.19,0.99,-0.01,19817,9968.50,0,0,165,0.77,-2.73,-0.07,0.19,0.99,-0.01
-1.2841797,-0.00110354,0.0010474212,-0.0017780556,0.19,0.99,-0.01,19831,9967.50,0,0,0,0.70,-2.59,0.00,0.19,0.99,-0.01
0.015625,-0.00110354,4.741922E-5,-0.0017780556,0.19,0.99,-0.01,19845,9968.80,0,0,165,0.70,-2.66,0.00,0.19,0.99,-0.01
-0.2841797,-0.00210354,0.0010474212,-0.0027780556,0.19,0.99,-0.01,19854,9968.50,0,0,0,0.63,-2.59,-0.07,0.19,0.99,-0.01
1.9160156,-1.0353979E-4,0.0020474233,-0.0017780556,0.19,0.99,-0.01,19870,9970.70,0,0,165,0.77,-2.52,0.00,0.19,0.99,-0.01
0.015625,-1.0353979E-4,4.741922E-5,-7.780555E-4,0.19,0.99,-0.01,19887,9968.80,0,0,0,0.77,-2.66,0.07,0.19,0.99,-0.01
0.015625,8.9645945E-4,0.0010474212,2.2194453E-4,0.19,0.99,-0.01,19891,9968.80,0,0,165,0.84,-2.59,0.14,0.19,0.99,-0.01
1.015625,8.9645945E-4,0.0010474212,0.005221945,0.19,0.99,-0.01,19905,9969.80,0,0,0,0.84,-2.59,0.49,0.19,0.99,-0.01
-0.2841797,0.0018964605,-9.525791E-4,0.005221945,0.19,0.99,-0.01,19921,9968.50,0,0,165,0.91,-2.73,0.49,0.19,0.99,-0.01
-0.2841797,8.9645945E-4,-0.0019525774,2.2194453E-4,0.19,0.99,-0.01,19928,9968.50,0,0,0,0.84,-2.80,0.14,0.19,0.99,-0.01
0.015625,-0.00210354,-9.525791E-4,-0.0047780555,0.19,0.99,-0.01,19943,9968.80,0,0,165,0.63,-2.73,-0.21,0.19,0.99,-0.01
0.015625,-0.00110354,4.741922E-5,-0.007778055,0.19,0.99,-0.01,19959,9968.80,0,0,0,0.70,-2.66,-0.42,0.19,0.99,-0.01
0.015625,-0.0031035393,-9.525791E-4,-0.009778056,0.19,0.99,-0.01,19966,9968.80,0,0,165,0.56,-2.73,-0.56,0.19,0.99,-0.01
-0.984375,-0.00110354,0.0010474212,-0.0057780556,0.19,0.99,-0.01,19981,9967.80,0,0,0,0.70,-2.59,-0.28,0.19,0.99,-0.01
0.015625,-0.00110354,0.0010474212,-0.0037780558,0.19,0.99,-0.01,19996,9968.80,0,0,165,0.70,-2.59,-0.14,0.19,0.99,-0.01
0.015625,-1.0353979E-4,-9.525791E-4,0.0012219442,0.19,0.99,-0.01,20004,9968.80,0,0,0,0.77,-2.73,0.21,0.19,0.99,-0.01
0.015625,0.0028964607,4.741922E-5,0.005221945,0.19,0.99,-0.01,20019,9968.80,0,0,165,0.98,-2.66,0.49,0.19,0.99,-0.01
0.015625,0.0018964605,-9.525791E-4,0.006221945,0.19,0.99,-0.01,20034,9968.80,0,0,0,0.91,-2.73,0.56,0.19,0.99,-0.01
0.015625,0.0018964605,4.741922E-5,0.0022219447,0.2,0.99,-0.01,20041,9968.80,0,0,165,0.91,-2.66,0.28,0.20,0.99,-0.01
-0.2841797,-1.0353979E-4,4.741922E-5,-0.0017780556,0.19,0.99,-0.01,20056,9968.50,0,0,0,0.77,-2.66,0.00,0.19,0.99,-0.01
0.015625,-0.0031035393,4.741922E-5,-0.0067780553,0.19,0.99,-0.01,20070,9968.80,0,0,165,0.56,-2.66,-0.35,0.19,0.99,-0.01
0.015625,-0.00210354,-9.525791E-4,-0.007778055,0.19,0.99,-0.01,20078,9968.80,0,0,0,0.63,-2.73,-0.42,0.19,0.99,-0.01
1.015625,-0.00110354,0.0010474212,-0.007778055,0.19,0.99,-0.01,20093,9969.80,0,0,165,0.70,-2.59,-0.42,0.19,0.99,-0.01
-0.984375,0.0018964605,-9.525791E-4,-0.0047780555,0.19,0.99,-0.01,20109,9967.80,0,0,0,0.91,-2.73,-0.21,0.19,0.99,-0.01
1.015625,0.0018964605,4.741922E-5,0.0022219447,0.19,0.99,-0.01,20116,9969.80,0,0,165,0.91,-2.66,0.28,0.19,0.99,-0.01
0.015625,0.0018964605,-9.525791E-4,0.004221944,0.19,0.99,-0.01,20130,9968.80,0,0,0,0.91,-2.73,0.42,0.19,0.99,-0.01
0.015625,0.0018964605,4.741922E-5,0.007221944,0.19,0.99,-0.01,20145,9968.80,0,0,165,0.91,-2.66,0.63,0.19,0.99,-0.01
0.015625,8.9645945E-4,-9.525791E-4,0.0022219447,0.19,0.99,-0.01,20153,9968.80,0,0,0,0.84,-2.73,0.28,0.19,0.99,-0.01
0.015625,8.9645945E-4,4.741922E-5,-0.0017780556,0.19,0.99,-0.01,20169,9968.80,0,0,165,0.84,-2.66,0.00,0.19,0.99,-0.01
0.015625,-1.0353979E-4,4.741922E-5,-0.0057780556,0.19,0.99,-0.01,20184,9968.80,0,0,0,0.77,-2.66,-0.28,0.19,0.99,-0.01
0.015625,-0.00210354,4.741922E-5,-0.008778056,0.19,0.99,-0.01,20191,9968.80,0,0,165,0.63,-2.66,-0.49,0.19,0.99,-0.01
0.015625,-0.00110354,4.741922E-5,-0.0067780553,0.19,0.99,-0.01,20206,9968.80,0,0,0,0.70,-2.66,-0.35,0.19,0.99,-0.01
0.015625,-0.00110354,4.741922E-5,-0.0037780558,0.19,0.99,-0.01,20221,9968.80,0,0,165,0.70,-2.66,-0.14,0.19,0.99,-0.01
-0.2841797,-0.00110354,0.0010474212,-0.0017780556,0.19,0.99,-0.01,20228,9968.50,0,0,0,0.70,-2.59,0.00,0.19,0.99,-0.01
0.015625,0.0018964605,4.741922E-5,0.0022219447,0.19,0.99,-0.01,20243,9968.80,0,0,165,0.91,-2.66,0.28,0.19,0.99,-0.01
1.015625,0.0028964607,4.741922E-5,0.004221944,0.19,0.99,-0.01,20258,9969.80,0,0,0,0.98,-2.66,0.42,0.19,0.99,-0.01
0.015625,0.0018964605,4.741922E-5,0.005221945,0.19,0.99,-0.01,20266,9968.80,0,0,165,0.91,-2.66,0.49,0.19,0.99,-0.01
0.015625,8.9645945E-4,4.741922E-5,0.0022219447,0.19,0.99,-0.01,20280,9968.80,0,0,0,0.84,-2.66,0.28,0.19,0.99,-0.01
0.015625,8.9645945E-4,4.741922E-5,2.2194453E-4,0.19,0.99,-0.01,20303,9968.80,0,0,165,0.84,-2.66,0.14,0.19,0.99,-0.01
0.015625,-0.00110354,4.741922E-5,-0.0017780556,0.19,0.99,-0.01,20304,9968.80,0,0,0,0.70,-2.66,0.00,0.19,0.99,-0.01
-0.2841797,-0.00210354,4.741922E-5,-0.0047780555,0.19,0.99,-0.01,20319,9968.50,0,0,165,0.63,-2.66,-0.21,0.19,0.99,-0.01
1.015625,-0.00210354,0.0010474212,-0.0067780553,0.2,0.99,-0.01,20334,9969.80,0,0,0,0.63,-2.59,-0.35,0.20,0.99,-0.01
-0.984375,-0.0031035393,4.741922E-5,-0.009778056,0.19,0.99,-0.01,20341,9967.80,0,0,165,0.56,-2.66,-0.56,0.19,0.99,-0.01
0.015625,-1.0353979E-4,0.0010474212,-0.007778055,0.19,0.99,-0.01,20356,9968.80,0,0,0,0.77,-2.59,-0.42,0.19,0.99,-0.01
0.015625,-1.0353979E-4,-9.525791E-4,-0.0067780553,0.19,0.99,-0.01,20371,9968.80,0,0,165,0.77,-2.73,-0.35,0.19,0.99,-0.01
0.015625,-1.0353979E-4,-9.525791E-4,0.0022219447,0.19,0.99,-0.01,20378,9968.80,0,0,0,0.77,-2.73,0.28,0.19,0.99,-0.01
-1.2841797,0.0028964607,4.741922E-5,0.009221944,0.19,0.99,-0.01,20393,9967.50,0,0,165,0.98,-2.66,0.77,0.19,0.99,-0.01
0.015625,0.0028964607,4.741922E-5,0.008221944,0.19,0.99,-0.01,20408,9968.80,0,0,0,0.98,-2.66,0.70,0.19,0.99,-0.01
0.015625,0.0018964605,-9.525791E-4,0.005221945,0.19,0.99,-0.01,20416,9968.80,0,0,165,0.91,-2.73,0.49,0.19,0.99,-0.01
-0.984375,8.9645945E-4,4.741922E-5,-7.780555E-4,0.19,0.99,-0.01,20431,9967.80,0,0,0,0.84,-2.66,0.07,0.19,0.99,-0.01
0.015625,-1.0353979E-4,0.0010474212,-0.007778055,0.19,0.99,-0.01,20445,9968.80,0,0,165,0.77,-2.59,-0.42,0.19,0.99,-0.01
0.015625,-0.00110354,0.0010474212,-0.009778056,0.19,0.99,-0.01,20453,9968.80,0,0,0,0.70,-2.59,-0.56,0.19,0.99,-0.01
0.015625,-1.0353979E-4,4.741922E-5,-0.007778055,0.19,0.99,-0.01,20468,9968.80,0,0,165,0.77,-2.66,-0.42,0.19,0.99,-0.01
0.3154297,-1.0353979E-4,4.741922E-5,-0.0037780558,0.19,0.99,-0.01,20483,9969.10,0,0,0,0.77,-2.66,-0.14,0.19,0.99,-0.01
-0.984375,8.9645945E-4,4.741922E-5,0.0012219442,0.19,0.99,-0.01,20491,9967.80,0,0,165,0.84,-2.66,0.21,0.19,0.99,-0.01
0.015625,0.0018964605,-0.0019525774,0.0032219444,0.19,0.99,-0.01,20506,9968.80,0,0,0,0.91,-2.80,0.35,0.19,0.99,-0.01
0.015625,8.9645945E-4,0.0010474212,0.0012219442,0.19,0.99,-0.01,20521,9968.80,0,0,165,0.84,-2.59,0.21,0.19,0.99,-0.01
1.015625,8.9645945E-4,-9.525791E-4,0.0012219442,0.19,0.99,-0.01,20528,9969.80,0,0,0,0.84,-2.73,0.21,0.19,0.99,-0.01
0.015625,-0.00110354,0.0020474233,-7.780555E-4,0.2,0.99,-0.01,20543,9968.80,0,0,165,0.70,-2.52,0.07,0.20,0.99,-0.01
-0.984375,0.0018964605,0.0010474212,-0.0017780556,0.2,0.99,-0.01,20559,9967.80,0,0,0,0.91,-2.59,0.00,0.20,0.99,-0.01
0.3154297,8.9645945E-4,4.741922E-5,2.2194453E-4,0.2,0.99,-0.01,20566,9969.10,0,0,165,0.84,-2.66,0.14,0.20,0.99,-0.01
0.015625,-1.0353979E-4,0.0010474212,-7.780555E-4,0.2,0.99,-0.01,20581,9968.80,0,0,0,0.77,-2.59,0.07,0.20,0.99,-0.01
0.015625,-1.0353979E-4,0.0010474212,-0.0037780558,0.19,0.99,-0.01,20596,9968.80,0,0,165,0.77,-2.59,-0.14,0.19,0.99,-0.01
0.015625,-1.0353979E-4,4.741922E-5,-0.0047780555,0.19,0.99,-0.01,20603,9968.80,0,0,0,0.77,-2.66,-0.21,0.19,0.99,-0.01
-0.984375,-0.00110354,4.741922E-5,-0.0057780556,0.19,0.99,-0.01,20619,9967.80,0,0,165,0.70,-2.66,-0.28,0.19,0.99,-0.01
-0.984375,-0.00110354,-9.525791E-4,-0.0027780556,0.19,0.99,-0.01,20634,9967.80,0,0,0,0.70,-2.73,-0.07,0.19,0.99,-0.01
0.015625,0.0028964607,0.0010474212,2.2194453E-4,0.19,0.99,-0.01,20641,9968.80,0,0,165,0.98,-2.59,0.14,0.19,0.99,-0.01
0.015625,-1.0353979E-4,4.741922E-5,0.004221944,0.2,0.99,-0.01,20656,9968.80,0,0,0,0.77,-2.66,0.42,0.20,0.99,-0.01
1.015625,8.9645945E-4,-9.525791E-4,0.007221944,0.2,0.99,-0.01,20670,9969.80,0,0,165,0.84,-2.73,0.63,0.20,0.99,-0.01
-0.984375,8.9645945E-4,4.741922E-5,0.004221944,0.19,0.99,-0.01,20678,9967.80,0,0,0,0.84,-2.66,0.42,0.19,0.99,-0.01
0.015625,8.9645945E-4,0.0010474212,-0.0027780556,0.19,0.99,-0.01,20693,9968.80,0,0,165,0.84,-2.59,-0.07,0.19,0.99,-0.01
0.3154297,-0.00210354,-9.525791E-4,-0.007778055,0.19,0.99,-0.01,20709,9969.10,0,0,0,0.63,-2.73,-0.42,0.19,0.99,-0.01
0.015625,-0.00110354,0.0010474212,-0.008778056,0.19,0.99,-0.01,20716,9968.80,0,0,165,0.70,-2.59,-0.49,0.19,0.99,-0.01
-0.984375,-0.0031035393,0.0010474212,-0.008778056,0.19,0.99,-0.01,20730,9967.80,0,0,0,0.56,-2.59,-0.49,0.19,0.99,-0.01
1.015625,-1.0353979E-4,4.741922E-5,-0.0017780556,0.19,0.99,-0.01,20746,9969.80,0,0,165,0.77,-2.66,0.00,0.19,0.99,-0.01
0.015625,0.0018964605,4.741922E-5,0.0032219444,0.19,0.99,-0.01,20753,9968.80,0,0,0,0.91,-2.66,0.35,0.19,0.99,-0.01
0.015625,8.9645945E-4,-9.525791E-4,0.004221944,0.19,0.99,-0.01,20768,9968.80,0,0,165,0.84,-2.73,0.42,0.19,0.99,-0.01
0.015625,0.0028964607,4.741922E-5,0.0032219444,0.2,0.99,-0.01,20784,9968.80,0,0,0,0.98,-2.66,0.35,0.20,0.99,-0.01
0.015625,-0.00110354,-9.525791E-4,-7.780555E-4,0.19,0.99,-0.01,20791,9968.80,0,0,165,0.70,-2.73,0.07,0.19,0.99,-0.01
0.015625,-0.00210354,4.741922E-5,-0.0057780556,0.19,0.99,-0.01,20806,9968.80,0,0,0,0.63,-2.66,-0.28,0.19,0.99,-0.01
0.015625,8.9645945E-4,4.741922E-5,-0.0057780556,0.19,0.99,-0.01,20820,9968.80,0,0,165,0.84,-2.66,-0.28,0.19,0.99,-0.01
0.015625,-0.00110354,4.741922E-5,-7.780555E-4,0.19,0.99,-0.01,20828,9968.80,0,0,0,0.70,-2.66,0.07,0.19,0.99,-0.01
-0.984375,8.9645945E-4,4.741922E-5,0.0022219447,0.19,0.99,-0.01,20844,9967.80,0,0,165,0.84,-2.66,0.28,0.19,0.99,-0.01
0.015625,8.9645945E-4,0.0010474212,0.0032219444,0.19,0.99,-0.01,20859,9968.80,0,0,0,0.84,-2.59,0.35,0.19,0.99,-0.01
1.015625,-1.0353979E-4,4.741922E-5,2.2194453E-4,0.19,0.99,-0.01,20866,9969.80,0,0,165,0.77,-2.66,0.14,0.19,0.99,-0.01
0.3154297,0.0018964605,4.741922E-5,-7.780555E-4,0.19,0.99,-0.01,20881,9969.10,0,0,0,0.91,-2.66,0.07,0.19,0.99,-0.01
0.3154297,-0.00110354,4.741922E-5,-0.0037780558,0.19,0.99,-0.01,20896,9969.10,0,0,165,0.70,-2.66,-0.14,0.19,0.99,-0.01
0.3154297,8.9645945E-4,4.741922E-5,-0.0057780556,0.19,0.99,-0.01,20903,9969.10,0,0,0,0.84,-2.66,-0.28,0.19,0.99,-0.01
0.015625,-0.00110354,0.0010474212,-0.0037780558,0.19,0.99,-0.01,20918,9968.80,0,0,165,0.70,-2.59,-0.14,0.19,0.99,-0.01
0.015625,-1.0353979E-4,-9.525791E-4,-0.0037780558,0.19,0.99,-0.01,20933,9968.80,0,0,0,0.77,-2.73,-0.14,0.19,0.99,-0.01
0.015625,-0.00110354,4.741922E-5,-0.0017780556,0.19,0.99,-0.01,20941,9968.80,0,0,165,0.70,-2.66,0.00,0.19,0.99,-0.01
-0.5839844,-0.00110354,0.0010474212,-0.0017780556,0.19,0.99,-0.01,20963,9968.20,0,0,0,0.70,-2.59,0.00,0.19,0.99,-0.01
0.015625,-0.00210354,-9.525791E-4,-7.780555E-4,0.19,0.99,-0.01,20971,9968.80,0,0,165,0.63,-2.73,0.07,0.19,0.99,-0.01
-0.2841797,0.0028964607,0.0020474233,2.2194453E-4,0.2,0.99,-0.01,20978,9968.50,0,0,0,0.98,-2.52,0.14,0.20,0.99,-0.01
0.015625,8.9645945E-4,0.0010474212,-0.0017780556,0.19,0.99,-0.01,20993,9968.80,0,0,165,0.84,-2.59,0.00,0.19,0.99,-0.01
0.3154297,0.0028964607,4.741922E-5,0.0022219447,0.19,0.99,-0.01,21009,9969.10,0,0,0,0.98,-2.66,0.28,0.19,0.99,-0.01
0.3154297,-1.0353979E-4,4.741922E-5,0.0032219444,0.19,0.99,-0.01,21017,9969.10,0,0,165,0.77,-2.66,0.35,0.19,0.99,-0.01
0.3154297,0.0018964605,0.0010474212,0.0022219447,0.19,0.99,-0.01,21030,9969.10,0,0,0,0.91,-2.59,0.28,0.19,0.99,-0.01
0.3154297,0.0018964605,4.741922E-5,0.0012219442,0.19,0.99,-0.01,21045,9969.10,0,0,165,0.91,-2.66,0.21,0.19,0.99,-0.01
1.3154297,-0.00210354,0.0010474212,-7.780555E-4,0.19,0.99,-0.01,21054,9970.10,0,0,0,0.63,-2.59,0.07,0.19,0.99,-0.01
0.015625,8.9645945E-4,4.741922E-5,-0.0027780556,0.2,0.99,-0.01,21068,9968.80,0,0,165,0.84,-2.66,-0.07,0.20,0.99,-0.01
0.015625,-1.0353979E-4,0.0010474212,-0.0037780558,0.2,0.99,-0.01,21084,9968.80,0,0,0,0.77,-2.59,-0.14,0.20,0.99,-0.01
0.3154297,-0.00110354,4.741922E-5,-0.007778055,0.19,0.99,-0.01,21091,9969.10,0,0,165,0.70,-2.66,-0.42,0.19,0.99,-0.01
0.015625,-1.0353979E-4,4.741922E-5,-0.0067780553,0.19,0.99,-0.01,21106,9968.80,0,0,0,0.77,-2.66,-0.35,0.19,0.99,-0.01
-0.5839844,-1.0353979E-4,0.0010474212,-0.0057780556,0.19,0.99,-0.01,21120,9968.20,0,0,165,0.77,-2.59,-0.28,0.19,0.99,-0.01
0.3154297,8.9645945E-4,4.741922E-5,-7.780555E-4,0.19,0.99,-0.01,21128,9969.10,0,0,0,0.84,-2.66,0.07,0.19,0.99,-0.01
0.015625,0.00389646,4.741922E-5,0.004221944,0.19,0.99,-0.01,21144,9968.80,0,0,165,1.05,-2.66,0.42,0.19,0.99,-0.01
-0.5839844,0.0028964607,4.741922E-5,0.010221943,0.2,0.99,-0.01,21159,9968.20,0,0,0,0.98,-2.66,0.84,0.20,0.99,-0.01
0.015625,0.0018964605,4.741922E-5,0.007221944,0.2,0.99,-0.01,21166,9968.80,0,0,165,0.91,-2.66,0.63,0.20,0.99,-0.01
0.3154297,-1.0353979E-4,-9.525791E-4,-0.0027780556,0.2,0.99,-0.01,21181,9969.10,0,0,0,0.77,-2.73,-0.07,0.20,0.99,-0.01
-0.5839844,-0.00110354,0.0010474212,-0.0067780553,0.19,0.99,-0.01,21195,9968.20,0,0,165,0.70,-2.59,-0.35,0.19,0.99,-0.01
0.3154297,-0.0041035395,0.0020474233,-0.009778056,0.19,0.99,-0.01,21203,9969.10,0,0,0,0.49,-2.52,-0.56,0.19,0.99,-0.01
-0.5839844,-0.00210354,0.0010474212,-0.007778055,0.19,0.99,-0.01,21219,9968.20,0,0,165,0.63,-2.59,-0.42,0.19,0.99,-0.01
0.015625,-1.0353979E-4,-9.525791E-4,-0.0027780556,0.19,0.99,-0.01,21233,9968.80,0,0,0,0.77,-2.73,-0.07,0.19,0.99,-0.01
-0.984375,8.9645945E-4,4.741922E-5,0.0032219444,0.19,0.99,-0.01,21240,9967.80,0,0,165,0.84,-2.66,0.35,0.19,0.99,-0.01
0.3154297,0.0028964607,0.0010474212,0.004221944,0.19,0.99,-0.01,21256,9969.10,0,0,0,0.98,-2.59,0.42,0.19,0.99,-0.01
-0.5839844,0.0028964607,0.0010474212,0.0032219444,0.19,0.99,-0.01,21271,9968.20,0,0,165,0.98,-2.59,0.35,0.19,0.99,-0.01
0.3154297,8.9645945E-4,4.741922E-5,-7.780555E-4,0.19,0.99,-0.01,21278,9969.10,0,0,0,0.84,-2.66,0.07,0.19,0.99,-0.01
0.3154297,-0.00110354,-9.525791E-4,-0.0027780556,0.19,0.99,-0.01,21293,9969.10,0,0,165,0.70,-2.73,-0.07,0.19,0.99,-0.01
0.3154297,-0.00210354,-9.525791E-4,-0.0057780556,0.19,0.99,-0.01,21308,9969.10,0,0,0,0.63,-2.73,-0.28,0.19,0.99,-0.01
0.3154297,-0.00210354,0.0010474212,-0.0047780555,0.19,0.99,-0.01,21317,9969.10,0,0,165,0.63,-2.59,-0.21,0.19,0.99,-0.01
0.015625,-0.00210354,-9.525791E-4,-0.007778055,0.2,0.99,-0.01,21330,9968.80,0,0,0,0.63,-2.73,-0.42,0.20,0.99,-0.01
-0.5839844,-0.00210354,0.0010474212,-0.0037780558,0.19,0.99,-0.01,21345,9968.20,0,0,165,0.63,-2.59,-0.14,0.19,0.99,-0.01
0.015625,-1.0353979E-4,0.0010474212,-7.780555E-4,0.19,0.99,-0.01,21354,9968.80,0,0,0,0.77,-2.59,0.07,0.19,0.99,-0.01
0.015625,-0.00110354,4.741922E-5,0.0012219442,0.19,0.99,-0.01,21368,9968.80,0,0,165,0.70,-2.66,0.21,0.19,0.99,-0.01
1.3154297,8.9645945E-4,0.0010474212,0.006221945,0.19,0.99,-0.01,21384,9970.10,0,0,0,0.84,-2.59,0.56,0.19,0.99,-0.01
0.015625,0.0028964607,-9.525791E-4,0.0032219444,0.19,0.99,-0.01,21390,9968.80,0,0,165,0.98,-2.73,0.35,0.19,0.99,-0.01
0.3154297,0.0018964605,0.0010474212,0.0022219447,0.19,0.99,-0.01,21405,9969.10,0,0,0,0.91,-2.59,0.28,0.19,0.99,-0.01
-0.5839844,8.9645945E-4,-9.525791E-4,2.2194453E-4,0.19,0.99,-0.01,21421,9968.20,0,0,165,0.84,-2.73,0.14,0.19,0.99,-0.01
1.3154297,-0.00110354,4.741922E-5,-7.780555E-4,0.19,0.99,-0.01,21428,9970.10,0,0,0,0.70,-2.66,0.07,0.19,0.99,-0.01
1.3154297,-0.00110354,-9.525791E-4,2.2194453E-4,0.19,0.99,-0.01,21443,9970.10,0,0,165,0.70,-2.73,0.14,0.19,0.99,-0.01
0.3154297,-1.0353979E-4,0.0030474216,-0.0017780556,0.2,0.99,-0.01,21458,9969.10,0,0,0,0.77,-2.45,0.00,0.20,0.99,-0.01
0.3154297,-0.00210354,4.741922E-5,-0.0057780556,0.19,0.99,-0.01,21466,9969.10,0,0,165,0.63,-2.66,-0.28,0.19,0.99,-0.01
0.3154297,-0.00210354,4.741922E-5,-0.009778056,0.19,0.99,-0.01,21481,9969.10,0,0,0,0.63,-2.66,-0.56,0.19,0.99,-0.01
1.015625,-0.00210354,0.0010474212,-0.0107780555,0.19,0.99,-0.01,21496,9969.80,0,0,165,0.63,-2.59,-0.63,0.19,0.99,-0.01
-0.5839844,8.9645945E-4,4.741922E-5,-0.0037780558,0.19,0.99,-0.01,21503,9968.20,0,0,0,0.84,-2.66,-0.14,0.19,0.99,-0.01
-0.5839844,8.9645945E-4,0.0010474212,0.0022219447,0.19,0.99,-0.01,21518,9968.20,0,0,165,0.84,-2.59,0.28,0.19,0.99,-0.01
-0.5839844,0.0028964607,-0.0019525774,0.007221944,0.19,0.99,-0.01,21533,9968.20,0,0,0,0.98,-2.80,0.63,0.19,0.99,-0.01
1.3154297,0.0028964607,4.741922E-5,0.009221944,0.19,0.99,-0.01,21540,9970.10,0,0,165,0.98,-2.66,0.77,0.19,0.99,-0.01
-0.5839844,8.9645945E-4,4.741922E-5,0.0032219444,0.19,0.99,-0.01,21555,9968.20,0,0,0,0.84,-2.66,0.35,0.19,0.99,-0.01
1.3154297,-1.0353979E-4,0.0010474212,-0.0037780558,0.19,0.99,-0.01,21571,9970.10,0,0,165,0.77,-2.59,-0.14,0.19,0.99,-0.01
0.3154297,-0.00210354,4.741922E-5,-0.0107780555,0.19,0.99,-0.01,21578,9969.10,0,0,0,0.63,-2.66,-0.63,0.19,0.99,-0.01
-0.5839844,-0.0031035393,4.741922E-5,-0.011778056,0.19,0.99,-0.01,21594,9968.20,0,0,165,0.56,-2.66,-0.70,0.19,0.99,-0.01
0.3154297,-1.0353979E-4,0.0020474233,-0.0037780558,0.19,0.99,-0.01,21608,9969.10,0,0,0,0.77,-2.52,-0.14,0.19,0.99,-0.01
0.3154297,-1.0353979E-4,4.741922E-5,2.2194453E-4,0.19,0.99,-0.01,21616,9969.10,0,0,165,0.77,-2.66,0.14,0.19,0.99,-0.01
0.3154297,0.0018964605,4.741922E-5,0.004221944,0.19,0.99,-0.01,21630,9969.10,0,0,0,0.91,-2.66,0.42,0.19,0.99,-0.01
0.3154297,0.0018964605,0.0010474212,0.0032219444,0.2,0.99,-0.0,21645,9969.10,0,0,165,0.91,-2.59,0.35,0.20,0.99,-0.00
-0.5839844,0.0018964605,4.741922E-5,2.2194453E-4,0.2,0.99,-0.01,21653,9968.20,0,0,0,0.91,-2.66,0.14,0.20,0.99,-0.01
0.3154297,-1.0353979E-4,4.741922E-5,-0.0027780556,0.2,0.99,-0.01,21669,9969.10,0,0,165,0.77,-2.66,-0.07,0.20,0.99,-0.01
-0.5839844,-1.0353979E-4,0.0020474233,-0.0047780555,0.19,0.99,-0.01,21684,9968.20,0,0,0,0.77,-2.52,-0.21,0.19,0.99,-0.01
-1.5839844,-0.00110354,4.741922E-5,-0.0037780558,0.19,0.99,-0.01,21691,9967.20,0,0,165,0.70,-2.66,-0.14,0.19,0.99,-0.01
0.3154297,-0.00210354,4.741922E-5,-0.0027780556,0.19,0.99,-0.01,21705,9969.10,0,0,0,0.63,-2.66,-0.07,0.19,0.99,-0.01
0.7158203,-1.0353979E-4,4.741922E-5,-0.0017780556,0.2,0.99,-0.0,21721,9969.50,0,0,165,0.77,-2.66,0.00,0.20,0.99,-0.00
0.3154297,-1.0353979E-4,0.0020474233,2.2194453E-4,0.19,0.99,-0.01,21728,9969.10,0,0,0,0.77,-2.52,0.14,0.19,0.99,-0.01
0.3154297,0.0018964605,-9.525791E-4,0.0012219442,0.19,0.99,-0.01,21745,9969.10,0,0,165,0.91,-2.73,0.21,0.19,0.99,-0.01
0.3154297,8.9645945E-4,4.741922E-5,-7.780555E-4,0.2,0.99,-0.01,21759,9969.10,0,0,0,0.84,-2.66,0.07,0.20,0.99,-0.01
0.3154297,-1.0353979E-4,4.741922E-5,-7.780555E-4,0.19,0.99,-0.01,21767,9969.10,0,0,165,0.77,-2.66,0.07,0.19,0.99,-0.01
0.3154297,0.0018964605,0.0010474212,0.0012219442,0.19,0.99,-0.01,21781,9969.10,0,0,0,0.91,-2.59,0.21,0.19,0.99,-0.01
-0.5839844,-1.0353979E-4,0.0010474212,2.2194453E-4,0.19,0.99,-0.01,21795,9968.20,0,0,165,0.77,-2.59,0.14,0.19,0.99,-0.01
0.3154297,-0.00110354,0.0010474212,-0.0027780556,0.19,0.99,-0.01,21803,9969.10,0,0,0,0.70,-2.59,-0.07,0.19,0.99,-0.01
0.3154297,-1.0353979E-4,4.741922E-5,-0.0017780556,0.19,0.99,-0.01,21819,9969.10,0,0,165,0.77,-2.66,0.00,0.19,0.99,-0.01
0.3154297,-1.0353979E-4,0.0010474212,-0.0017780556,0.19,0.99,-0.01,21834,9969.10,0,0,0,0.77,-2.59,0.00,0.19,0.99,-0.01
-0.5839844,-0.00110354,-9.525791E-4,-0.0017780556,0.2,0.99,-0.01,21840,9968.20,0,0,165,0.70,-2.73,0.00,0.20,0.99,-0.01
-0.5839844,-1.0353979E-4,-9.525791E-4,2.2194453E-4,0.19,0.99,-0.01,21855,9968.20,0,0,0,0.77,-2.73,0.14,0.19,0.99,-0.01
-0.984375,-0.00110354,0.0010474212,-7.780555E-4,0.19,0.99,-0.01,21871,9967.80,0,0,165,0.70,-2.59,0.07,0.19,0.99,-0.01
0.3154297,-1.0353979E-4,4.741922E-5,-0.0017780556,0.19,0.99,-0.01,21878,9969.10,0,0,0,0.77,-2.66,0.00,0.19,0.99,-0.01
-0.5839844,-0.00210354,4.741922E-5,-0.0017780556,0.19,0.99,-0.01,21893,9968.20,0,0,165,0.63,-2.66,0.00,0.19,0.99,-0.01
-0.5839844,0.0018964605,4.741922E-5,0.0022219447,0.19,0.99,-0.01,21908,9968.20,0,0,0,0.91,-2.66,0.28,0.19,0.99,-0.01
-0.5839844,-1.0353979E-4,4.741922E-5,0.0012219442,0.19,0.99,-0.01,21916,9968.20,0,0,165,0.77,-2.66,0.21,0.19,0.99,-0.01
-0.5839844,8.9645945E-4,4.741922E-5,2.2194453E-4,0.2,0.99,-0.01,21931,9968.20,0,0,0,0.84,-2.66,0.14,0.20,0.99,-0.01
-0.5839844,-0.00210354,4.741922E-5,-7.780555E-4,0.2,0.99,-0.01,21946,9968.20,0,0,165,0.63,-2.66,0.07,0.20,0.99,-0.01
0.3154297,-0.00110354,0.0020474233,-0.0047780555,0.19,0.99,-0.01,21953,9969.10,0,0,0,0.70,-2.52,-0.21,0.19,0.99,-0.01
-0.5839844,8.9645945E-4,0.0020474233,-0.0047780555,0.19,0.99,-0.01,21969,9968.20,0,0,165,0.84,-2.52,-0.21,0.19,0.99,-0.01
-0.5839844,-0.00210354,0.0010474212,-0.0037780558,0.19,0.99,-0.01,21984,9968.20,0,0,0,0.63,-2.59,-0.14,0.19,0.99,-0.01
0.3154297,0.0018964605,0.0010474212,-7.780555E-4,0.19,0.99,-0.01,21991,9969.10,0,0,165,0.91,-2.59,0.07,0.19,0.99,-0.01
0.3154297,-1.0353979E-4,0.0010474212,-7.780555E-4,0.19,0.99,-0.01,22005,9969.10,0,0,0,0.77,-2.59,0.07,0.19,0.99,-0.01
0.3154297,-1.0353979E-4,4.741922E-5,-0.0017780556,0.19,0.99,-0.01,22021,9969.10,0,0,165,0.77,-2.66,0.00,0.19,0.99,-0.01
0.3154297,-0.00210354,0.0010474212,-0.0027780556,0.19,0.99,-0.01,22028,9969.10,0,0,0,0.63,-2.59,-0.07,0.19,0.99,-0.01
0.3154297,-0.00110354,4.741922E-5,-0.0037780558,0.19,0.99,-0.01,22043,9969.10,0,0,165,0.70,-2.66,-0.14,0.19,0.99,-0.01
0.3154297,-1.0353979E-4,4.741922E-5,2.2194453E-4,0.19,0.99,-0.01,22058,9969.10,0,0,0,0.77,-2.66,0.14,0.19,0.99,-0.01
0.7158203,8.9645945E-4,4.741922E-5,0.004221944,0.19,0.98,0.0,22066,9969.50,0,0,165,0.84,-2.66,0.42,0.19,0.98,0.00
0.3154297,0.0078964615,0.0020474233,2.2194453E-4,0.19,0.98,0.01,22080,9969.10,0,0,0,1.33,-2.52,0.14,0.19,0.98,0.01
0.3154297,0.00389646,0.0020474233,0.006221945,0.19,0.99,-0.0,22096,9969.10,0,0,165,1.05,-2.52,0.56,0.19,0.99,-0.00
-0.2841797,0.004896461,4.741922E-5,0.007221944,0.19,0.99,-0.01,22103,9968.50,0,0,0,1.12,-2.66,0.63,0.19,0.99,-0.01
-0.5839844,0.004896461,4.741922E-5,-0.0027780556,0.19,0.98,-0.02,22118,9968.20,0,0,165,1.12,-2.66,-0.07,0.19,0.98,-0.02
-0.5839844,-1.0353979E-4,4.741922E-5,-0.007778055,0.19,0.98,-0.01,22134,9968.20,0,0,0,0.77,-2.66,-0.42,0.19,0.98,-0.01
0.3154297,-0.0031035393,4.741922E-5,-0.009778056,0.19,0.99,-0.01,22141,9969.10,0,0,165,0.56,-2.66,-0.56,0.19,0.99,-0.01
0.3154297,-0.00510354,4.741922E-5,-0.021778055,0.19,0.99,-0.0,22156,9969.10,0,0,0,0.42,-2.66,-1.40,0.19,0.99,-0.00
-0.5839844,-0.0031035393,0.0030474216,-0.016778056,0.2,1.0,-0.0,22171,9968.20,0,0,165,0.56,-2.45,-1.05,0.20,1.00,-0.00
0.3154297,8.9645945E-4,0.0010474212,0.0022219447,0.19,1.0,-0.0,22179,9969.10,0,0,0,0.84,-2.59,0.28,0.19,1.00,-0.00
-0.5839844,0.0068964595,-0.0019525774,0.020221945,0.19,0.99,-0.01,22194,9968.20,0,0,165,1.26,-2.80,1.54,0.19,0.99,-0.01
0.3154297,0.005896461,4.741922E-5,0.015221945,0.19,0.99,-0.01,22208,9969.10,0,0,0,1.19,-2.66,1.19,0.19,0.99,-0.01
0.7158203,0.00389646,-0.0019525774,0.013221944,0.19,0.99,-0.0,22216,9969.50,0,0,165,1.05,-2.80,1.05,0.19,0.99,-0.00
-0.2841797,0.00389646,-0.0019525774,2.2194453E-4,0.19,0.99,-0.01,22231,9968.50,0,0,0,1.05,-2.80,0.14,0.19,0.99,-0.01
-0.2841797,-0.00110354,0.00404742,-0.015778055,0.19,0.99,-0.01,22246,9968.50,0,0,165,0.70,-2.38,-0.98,0.19,0.99,-0.01
0.3154297,-0.0031035393,0.0020474233,-0.011778056,0.2,0.99,-0.01,22253,9969.10,0,0,0,0.56,-2.52,-0.70,0.20,0.99,-0.01
-0.5839844,8.9645945E-4,-0.0019525774,-7.780555E-4,0.2,0.99,-0.02,22268,9968.20,0,0,165,0.84,-2.80,0.07,0.20,0.99,-0.02
-0.5839844,8.9645945E-4,0.0010474212,2.2194453E-4,0.2,0.99,-0.01,22283,9968.20,0,0,0,0.84,-2.59,0.14,0.20,0.99,-0.01
0.3154297,-0.00110354,-9.525791E-4,-7.780555E-4,0.2,0.99,-0.01,22290,9969.10,0,0,165,0.70,-2.73,0.07,0.20,0.99,-0.01
-0.5839844,-0.0031035393,4.741922E-5,-0.009778056,0.19,0.99,-0.0,22305,9968.20,0,0,0,0.56,-2.66,-0.56,0.19,0.99,-0.00
-0.5839844,-0.0031035393,0.0020474233,-0.017778056,0.19,0.99,-0.0,22321,9968.20,0,0,165,0.56,-2.52,-1.12,0.19,0.99,-0.00
0.3154297,-0.00110354,4.741922E-5,-0.008778056,0.19,0.99,-0.0,22329,9969.10,0,0,0,0.70,-2.66,-0.49,0.19,0.99,-0.00
-0.5839844,0.00389646,4.741922E-5,0.010221943,0.19,1.0,-0.01,22343,9968.20,0,0,165,1.05,-2.66,0.84,0.19,1.00,-0.01
0.3154297,0.0078964615,-9.525791E-4,0.029221946,0.2,0.99,-0.01,22359,9969.10,0,0,0,1.33,-2.73,2.17,0.20,0.99,-0.01
0.7158203,0.0078964615,-0.0029525757,0.029221946,0.2,0.98,-0.01,22367,9969.50,0,0,165,1.33,-2.87,2.17,0.20,0.98,-0.01
-0.5839844,0.0018964605,-9.525791E-4,0.007221944,0.2,0.98,-0.01,22381,9968.20,0,0,0,0.91,-2.73,0.63,0.20,0.98,-0.01
0.3154297,-0.00610354,4.741922E-5,-0.020778056,0.2,0.98,-0.01,22396,9969.10,0,0,165,0.35,-2.66,-1.33,0.20,0.98,-0.01
-0.5839844,-0.009103539,0.00404742,-0.039778057,0.19,0.99,-0.01,22411,9968.20,0,0,0,0.14,-2.38,-2.66,0.19,0.99,-0.01
0.3154297,-0.00810354,0.00404742,-0.036778055,0.19,1.0,-0.01,22418,9969.10,0,0,165,0.21,-2.38,-2.45,0.19,1.00,-0.01
-0.2841797,-0.00510354,0.0020474233,-0.016778056,0.19,1.0,-0.01,22434,9968.50,0,0,0,0.42,-2.52,-1.05,0.19,1.00,-0.01
0.3154297,0.00389646,-0.0029525757,0.013221944,0.19,1.0,-0.01,22440,9969.10,0,0,165,1.05,-2.87,1.05,0.19,1.00,-0.01
-0.5839844,0.0078964615,-9.525791E-4,0.030221947,0.19,0.99,-0.0,22455,9968.20,0,0,0,1.33,-2.73,2.24,0.19,0.99,-0.00
-0.5839844,0.0078964615,-0.0029525757,0.026221946,0.2,0.99,-0.01,22470,9968.20,0,0,165,1.33,-2.87,1.96,0.20,0.99,-0.01
-0.5839844,0.0018964605,4.741922E-5,0.007221944,0.2,0.98,-0.01,22478,9968.20,0,0,0,0.91,-2.66,0.63,0.20,0.98,-0.01
0.3154297,-0.00110354,0.0010474212,-0.015778055,0.2,0.98,-0.01,22493,9969.10,0,0,165,0.70,-2.59,-0.98,0.20,0.98,-0.01
0.3154297,-0.00610354,0.0020474233,-0.021778055,0.19,0.99,-0.02,22508,9969.10,0,0,0,0.35,-2.52,-1.40,0.19,0.99,-0.02
-0.5839844,-0.0041035395,0.0010474212,-0.015778055,0.19,0.99,-0.01,22516,9968.20,0,0,165,0.49,-2.59,-0.98,0.19,0.99,-0.01
-0.5839844,-0.00210354,0.0010474212,-0.0027780556,0.19,1.0,-0.01,22531,9968.20,0,0,0,0.63,-2.59,-0.07,0.19,1.00,-0.01
0.3154297,0.0018964605,-9.525791E-4,0.008221944,0.19,0.99,-0.0,22546,9969.10,0,0,165,0.91,-2.73,0.70,0.19,0.99,-0.00
0.3154297,0.0028964607,-9.525791E-4,0.013221944,0.19,0.99,-0.0,22553,9969.10,0,0,0,0.98,-2.73,1.05,0.19,0.99,-0.00
0.3154297,0.00389646,0.0020474233,0.009221944,0.2,0.99,-0.0,22568,9969.10,0,0,165,1.05,-2.52,0.77,0.20,0.99,-0.00
0.015625,0.0028964607,4.741922E-5,-0.0017780556,0.19,0.99,-0.01,22584,9968.80,0,0,0,0.98,-2.66,0.00,0.19,0.99,-0.01
0.3154297,8.9645945E-4,4.741922E-5,-0.0047780555,0.19,0.99,-0.01,22590,9969.10,0,0,165,0.84,-2.66,-0.21,0.19,0.99,-0.01
0.7158203,-0.00110354,4.741922E-5,-0.009778056,0.19,0.99,-0.01,22606,9969.50,0,0,0,0.70,-2.66,-0.56,0.19,0.99,-0.01
0.3154297,-0.00110354,0.0020474233,-0.007778055,0.19,0.99,-0.01,22621,9969.10,0,0,165,0.70,-2.52,-0.42,0.19,0.99,-0.01
-0.5839844,-0.00110354,4.741922E-5,-0.0027780556,0.19,0.99,-0.01,22628,9968.20,0,0,0,0.70,-2.66,-0.07,0.19,0.99,-0.01
-0.5839844,-1.0353979E-4,-9.525791E-4,2.2194453E-4,0.2,0.99,-0.01,22643,9968.20,0,0,165,0.77,-2.73,0.14,0.20,0.99,-0.01
-0.2841797,8.9645945E-4,4.741922E-5,0.0032219444,0.19,0.99,-0.01,22658,9968.50,0,0,0,0.84,-2.66,0.35,0.19,0.99,-0.01
-0.5839844,8.9645945E-4,-9.525791E-4,0.0012219442,0.19,0.99,-0.01,22667,9968.20,0,0,165,0.84,-2.73,0.21,0.19,0.99,-0.01
0.3154297,-0.00110354,4.741922E-5,-0.0027780556,0.19,0.99,-0.01,22681,9969.10,0,0,0,0.70,-2.66,-0.07,0.19,0.99,-0.01
-0.5839844,-0.00110354,-9.525791E-4,-0.0057780556,0.19,0.99,-0.01,22696,9968.20,0,0,165,0.70,-2.73,-0.28,0.19,0.99,-0.01
-0.5839844,-1.0353979E-4,0.0010474212,-0.0037780558,0.19,0.99,-0.01,22703,9968.20,0,0,0,0.77,-2.59,-0.14,0.19,0.99,-0.01
-1.2841797,-0.00110354,4.741922E-5,-0.0017780556,0.19,0.99,-0.01,22719,9967.50,0,0,165,0.70,-2.66,0.00,0.19,0.99,-0.01
0.3154297,0.0018964605,4.741922E-5,0.006221945,0.19,0.99,-0.01,22733,9969.10,0,0,0,0.91,-2.66,0.56,0.19,0.99,-0.01
-0.5839844,0.00389646,-9.525791E-4,0.010221943,0.19,0.99,-0.01,22740,9968.20,0,0,165,1.05,-2.73,0.84,0.19,0.99,-0.01
0.3154297,-1.0353979E-4,4.741922E-5,0.004221944,0.2,0.99,-0.01,22755,9969.10,0,0,0,0.77,-2.66,0.42,0.20,0.99,-0.01
0.7158203,-0.00110354,4.741922E-5,-0.0047780555,0.2,0.99,-0.01,22770,9969.50,0,0,165,0.70,-2.66,-0.21,0.20,0.99,-0.01
-0.2841797,-0.0031035393,0.0010474212,-0.012778056,0.19,0.99,-0.01,22779,9968.50,0,0,0,0.56,-2.59,-0.77,0.19,0.99,-0.01
0.7158203,-0.0041035395,0.0010474212,-0.019778054,0.19,0.99,-0.01,22794,9969.50,0,0,165,0.49,-2.59,-1.26,0.19,0.99,-0.01
0.3154297,-0.0031035393,0.0010474212,-0.0107780555,0.19,1.0,-0.01,22808,9969.10,0,0,0,0.56,-2.59,-0.63,0.19,1.00,-0.01
-0.5839844,0.0018964605,4.741922E-5,0.004221944,0.19,0.99,-0.01,22816,9968.20,0,0,165,0.91,-2.66,0.42,0.19,0.99,-0.01
0.015625,0.005896461,-0.0019525774,0.016221944,0.19,0.99,-0.01,22831,9968.80,0,0,0,1.19,-2.80,1.26,0.19,0.99,-0.01
0.7158203,0.004896461,-0.0029525757,0.021221945,0.2,0.99,-0.01,22846,9969.50,0,0,165,1.12,-2.87,1.61,0.20,0.99,-0.01
-0.5839844,0.004896461,-9.525791E-4,0.013221944,0.2,0.98,-0.01,22854,9968.20,0,0,0,1.12,-2.73,1.05,0.20,0.98,-0.01
0.015625,-0.00110354,-9.525791E-4,-0.0057780556,0.2,0.99,-0.01,22868,9968.80,0,0,165,0.70,-2.73,-0.28,0.20,0.99,-0.01
-0.5839844,-0.00510354,0.0020474233,-0.019778054,0.2,0.99,-0.01,22884,9968.20,0,0,0,0.42,-2.52,-1.26,0.20,0.99,-0.01
0.7158203,-0.00510354,0.0010474212,-0.024778055,0.19,0.99,-0.01,22890,9969.50,0,0,165,0.42,-2.59,-1.61,0.19,0.99,-0.01
0.015625,-0.0041035395,0.0010474212,-0.016778056,0.19,0.99,-0.01,22905,9968.80,0,0,0,0.49,-2.59,-1.05,0.19,0.99,-0.01
-0.5839844,0.0018964605,0.0010474212,-0.0017780556,0.19,1.0,-0.01,22920,9968.20,0,0,165,0.91,-2.59,0.00,0.19,1.00,-0.01
-0.2841797,0.00389646,4.741922E-5,0.016221944,0.19,0.99,-0.01,22928,9968.50,0,0,0,1.05,-2.66,1.26,0.19,0.99,-0.01
-0.2841797,0.004896461,-0.0019525774,0.019221945,0.2,0.99,-0.0,22943,9968.50,0,0,165,1.12,-2.80,1.47,0.20,0.99,-0.00
-0.5839844,0.004896461,-9.525791E-4,0.010221943,0.2,0.99,-0.01,22958,9968.20,0,0,0,1.12,-2.73,0.84,0.20,0.99,-0.01
-0.2841797,8.9645945E-4,-9.525791E-4,-0.0037780558,0.19,0.98,-0.01,22968,9968.50,0,0,165,0.84,-2.73,-0.14,0.19,0.98,-0.01
0.7158203,-0.00210354,0.0020474233,-0.016778056,0.2,0.99,-0.02,22981,9969.50,0,0,0,0.63,-2.52,-1.05,0.20,0.99,-0.02
0.3154297,-0.0041035395,4.741922E-5,-0.019778054,0.19,0.99,-0.01,22996,9969.10,0,0,165,0.49,-2.66,-1.26,0.19,0.99,-0.01
0.7158203,-0.0031035393,4.741922E-5,-0.015778055,0.19,1.0,-0.01,23004,9969.50,0,0,0,0.56,-2.66,-0.98,0.19,1.00,-0.01
-0.5839844,-0.00110354,4.741922E-5,-0.0047780555,0.19,0.99,-0.01,23019,9968.20,0,0,165,0.70,-2.66,-0.21,0.19,0.99,-0.01
0.7158203,-1.0353979E-4,4.741922E-5,0.006221945,0.19,0.99,-0.01,23033,9969.50,0,0,0,0.77,-2.66,0.56,0.19,0.99,-0.01
-0.5839844,0.0018964605,-0.0019525774,0.008221944,0.2,0.99,-0.0,23040,9968.20,0,0,165,0.91,-2.80,0.70,0.20,0.99,-0.00
1.3154297,0.0018964605,-0.0019525774,0.005221945,0.19,0.99,-0.0,23055,9970.10,0,0,0,0.91,-2.80,0.49,0.19,0.99,-0.00
0.015625,-1.0353979E-4,0.0010474212,-0.0017780556,0.19,0.99,-0.01,23071,9968.80,0,0,165,0.77,-2.59,0.00,0.19,0.99,-0.01
-0.2841797,8.9645945E-4,4.741922E-5,-0.0057780556,0.19,0.99,-0.01,23078,9968.50,0,0,0,0.84,-2.66,-0.28,0.19,0.99,-0.01
-0.2841797,-0.00210354,4.741922E-5,-0.0047780555,0.19,0.99,-0.01,23093,9968.50,0,0,165,0.63,-2.66,-0.21,0.19,0.99,-0.01
0.3154297,0.0018964605,0.0010474212,2.2194453E-4,0.19,0.99,-0.01,23108,9969.10,0,0,0,0.91,-2.59,0.14,0.19,0.99,-0.01
-0.2841797,8.9645945E-4,4.741922E-5,0.004221944,0.19,0.99,-0.01,23116,9968.50,0,0,165,0.84,-2.66,0.42,0.19,0.99,-0.01
-0.2841797,8.9645945E-4,-9.525791E-4,0.005221945,0.19,0.99,-0.01,23131,9968.50,0,0,0,0.84,-2.73,0.49,0.19,0.99,-0.01
0.7158203,-0.00110354,-9.525791E-4,0.0012219442,0.2,0.99,-0.01,23146,9969.50,0,0,165,0.70,-2.73,0.21,0.20,0.99,-0.01
0.7158203,-0.00110354,0.0020474233,-0.0047780555,0.19,0.99,-0.01,23153,9969.50,0,0,0,0.70,-2.52,-0.21,0.19,0.99,-0.01
-0.2841797,-0.00110354,4.741922E-5,-0.008778056,0.19,0.99,-0.01,23170,9968.50,0,0,165,0.70,-2.66,-0.49,0.19,0.99,-0.01
-0.2841797,-0.00110354,-9.525791E-4,-0.0067780553,0.19,0.99,-0.01,23188,9968.50,0,0,0,0.70,-2.73,-0.35,0.19,0.99,-0.01
0.3154297,8.9645945E-4,-9.525791E-4,-0.0017780556,0.19,0.99,-0.01,23191,9969.10,0,0,165,0.84,-2.73,0.00,0.19,0.99,-0.01
-0.2841797,0.0028964607,4.741922E-5,0.007221944,0.19,0.99,-0.01,23205,9968.50,0,0,0,0.98,-2.66,0.63,0.19,0.99,-0.01
-0.5839844,0.0018964605,-9.525791E-4,0.007221944,0.19,0.99,-0.01,23220,9968.20,0,0,165,0.91,-2.73,0.63,0.19,0.99,-0.01
-0.5839844,8.9645945E-4,-0.0019525774,0.004221944,0.2,0.99,-0.01,23228,9968.20,0,0,0,0.84,-2.80,0.42,0.20,0.99,-0.01
-0.5839844,8.9645945E-4,4.741922E-5,-7.780555E-4,0.2,0.99,-0.01,23243,9968.20,0,0,165,0.84,-2.66,0.07,0.20,0.99,-0.01
0.3154297,-0.00210354,0.0010474212,-0.008778056,0.19,0.99,-0.01,23258,9969.10,0,0,0,0.63,-2.59,-0.49,0.19,0.99,-0.01
-0.5839844,-0.00210354,0.0020474233,-0.012778056,0.19,0.99,-0.01,23266,9968.20,0,0,165,0.63,-2.52,-0.77,0.19,0.99,-0.01
-0.5839844,-1.0353979E-4,4.741922E-5,-0.011778056,0.19,0.99,-0.01,23281,9968.20,0,0,0,0.77,-2.66,-0.70,0.19,0.99,-0.01
-0.2841797,-1.0353979E-4,4.741922E-5,-0.0037780558,0.19,0.99,-0.01,23295,9968.50,0,0,165,0.77,-2.66,-0.14,0.19,0.99,-0.01
-0.5839844,0.0028964607,4.741922E-5,0.006221945,0.19,0.99,-0.01,23303,9968.20,0,0,0,0.98,-2.66,0.56,0.19,0.99,-0.01
-0.5839844,0.005896461,-9.525791E-4,0.013221944,0.19,0.99,-0.01,23319,9968.20,0,0,165,1.19,-2.73,1.05,0.19,0.99,-0.01
1.6162109,0.00389646,4.741922E-5,0.010221943,0.19,0.99,-0.01,23334,9970.40,0,0,0,1.05,-2.66,0.84,0.19,0.99,-0.01
0.7158203,0.0028964607,0.0010474212,0.004221944,0.2,0.99,-0.01,23341,9969.50,0,0,165,0.98,-2.59,0.42,0.20,0.99,-0.01
0.7158203,-1.0353979E-4,4.741922E-5,-0.0057780556,0.2,0.99,-0.01,23356,9969.50,0,0,0,0.77,-2.66,-0.28,0.20,0.99,-0.01
-0.5839844,-0.00210354,0.0020474233,-0.013778055,0.2,0.99,-0.01,23371,9968.20,0,0,165,0.63,-2.52,-0.84,0.20,0.99,-0.01
-0.5839844,-0.0031035393,0.0010474212,-0.016778056,0.19,0.99,-0.01,23378,9968.20,0,0,0,0.56,-2.59,-1.05,0.19,0.99,-0.01
-0.5839844,-0.00110354,0.0020474233,-0.008778056,0.19,1.0,-0.01,23393,9968.20,0,0,165,0.70,-2.52,-0.49,0.19,1.00,-0.01
0.3154297,-1.0353979E-4,-9.525791E-4,0.0032219444,0.19,0.99,-0.01,23408,9969.10,0,0,0,0.77,-2.73,0.35,0.19,0.99,-0.01
-1.5839844,0.004896461,4.741922E-5,0.008221944,0.19,1.0,-0.01,23416,9967.20,0,0,165,1.12,-2.66,0.70,0.19,1.00,-0.01
-0.2841797,0.0028964607,-9.525791E-4,0.011221944,0.19,0.99,-0.01,23431,9968.50,0,0,0,0.98,-2.73,0.91,0.19,0.99,-0.01
-0.2841797,0.0028964607,-9.525791E-4,0.006221945,0.19,0.99,-0.01,23446,9968.50,0,0,165,0.98,-2.73,0.56,0.19,0.99,-0.01
-0.2841797,-1.0353979E-4,-9.525791E-4,-0.0037780558,0.19,0.99,-0.01,23454,9968.50,0,0,0,0.77,-2.73,-0.14,0.19,0.99,-0.01
-1.2841797,-0.00210354,4.741922E-5,-0.009778056,0.19,0.99,-0.01,23469,9967.50,0,0,165,0.63,-2.66,-0.56,0.19,0.99,-0.01
-0.2841797,-0.00210354,0.0010474212,-0.012778056,0.19,0.99,-0.01,23483,9968.50,0,0,0,0.63,-2.59,-0.77,0.19,0.99,-0.01
0.3154297,-0.0031035393,-9.525791E-4,-0.0067780553,0.19,0.99,-0.01,23491,9969.10,0,0,165,0.56,-2.73,-0.35,0.19,0.99,-0.01
-0.2841797,-1.0353979E-4,-9.525791E-4,-7.780555E-4,0.19,0.99,-0.01,23506,9968.50,0,0,0,0.77,-2.73,0.07,0.19,0.99,-0.01
0.3154297,8.9645945E-4,4.741922E-5,0.0032219444,0.19,0.99,-0.01,23520,9969.10,0,0,165,0.84,-2.66,0.35,0.19,0.99,-0.01
-0.2841797,8.9645945E-4,-9.525791E-4,0.0032219444,0.2,0.99,-0.01,23529,9968.50,0,0,0,0.84,-2.73,0.35,0.20,0.99,-0.01
-0.2841797,0.0018964605,4.741922E-5,0.0012219442,0.19,0.99,-0.01,23551,9968.50,0,0,165,0.91,-2.66,0.21,0.19,0.99,-0.01
-0.2841797,-0.00110354,4.741922E-5,-0.0017780556,0.19,0.99,-0.01,23558,9968.50,0,0,0,0.70,-2.66,0.00,0.19,0.99,-0.01
-0.2841797,8.9645945E-4,-9.525791E-4,-7.780555E-4,0.19,0.99,-0.01,23566,9968.50,0,0,165,0.84,-2.73,0.07,0.19,0.99,-0.01
0.3154297,8.9645945E-4,4.741922E-5,-0.0017780556,0.19,0.99,-0.01,23581,9969.10,0,0,0,0.84,-2.66,0.00,0.19,0.99,-0.01
-0.5839844,-1.0353979E-4,-0.0019525774,0.0022219447,0.19,0.99,-0.01,23595,9968.20,0,0,165,0.77,-2.80,0.28,0.19,0.99,-0.01
0.3154297,-1.0353979E-4,-9.525791E-4,0.0032219444,0.19,0.99,-0.01,23604,9969.10,0,0,0,0.77,-2.73,0.35,0.19,0.99,-0.01
0.7158203,-1.0353979E-4,-9.525791E-4,-7.780555E-4,0.19,0.99,-0.01,23625,9969.50,0,0,165,0.77,-2.73,0.07,0.19,0.99,-0.01
-0.2841797,8.9645945E-4,0.0010474212,-0.007778055,0.19,0.99,-0.01,23633,9968.50,0,0,0,0.84,-2.59,-0.42,0.19,0.99,-0.01
0.3154297,-0.00210354,4.741922E-5,-0.009778056,0.19,0.99,-0.01,23641,9969.10,0,0,165,0.63,-2.66,-0.56,0.19,0.99,-0.01
-0.2841797,-0.0031035393,4.741922E-5,-0.008778056,0.19,0.99,-0.01,23656,9968.50,0,0,0,0.56,-2.66,-0.49,0.19,0.99,-0.01
-0.2841797,-0.00110354,0.0010474212,-7.780555E-4,0.19,0.99,-0.01,23670,9968.50,0,0,165,0.70,-2.59,0.07,0.19,0.99,-0.01
0.7158203,8.9645945E-4,4.741922E-5,0.0022219447,0.19,0.99,-0.01,23678,9969.50,0,0,0,0.84,-2.66,0.28,0.19,0.99,-0.01
-0.2841797,0.00389646,4.741922E-5,0.006221945,0.19,0.99,-0.01,23693,9968.50,0,0,165,1.05,-2.66,0.56,0.19,0.99,-0.01
0.7158203,8.9645945E-4,-9.525791E-4,0.005221945,0.19,0.99,-0.01,23709,9969.50,0,0,0,0.84,-2.73,0.49,0.19,0.99,-0.01
0.7158203,8.9645945E-4,4.741922E-5,0.004221944,0.2,0.99,-0.01,23716,9969.50,0,0,165,0.84,-2.66,0.42,0.20,0.99,-0.01
-0.2841797,0.0018964605,4.741922E-5,-7.780555E-4,0.2,0.99,-0.01,23730,9968.50,0,0,0,0.91,-2.66,0.07,0.20,0.99,-0.01
-0.5839844,-0.00110354,4.741922E-5,-0.0067780553,0.19,0.99,-0.01,23745,9968.20,0,0,165,0.70,-2.66,-0.35,0.19,0.99,-0.01
0.7158203,-0.00110354,0.0010474212,-0.009778056,0.19,0.99,-0.01,23753,9969.50,0,0,0,0.70,-2.59,-0.56,0.19,0.99,-0.01
-1.2841797,-0.00210354,4.741922E-5,-0.008778056,0.19,0.99,-0.01,23768,9967.50,0,0,165,0.63,-2.66,-0.49,0.19,0.99,-0.01
-0.5839844,-1.0353979E-4,4.741922E-5,-0.0027780556,0.19,0.99,-0.01,23783,9968.20,0,0,0,0.77,-2.66,-0.07,0.19,0.99,-0.01
0.3154297,-1.0353979E-4,0.0010474212,0.0022219447,0.19,0.99,-0.01,23791,9969.10,0,0,165,0.77,-2.59,0.28,0.19,0.99,-0.01
0.7158203,0.0028964607,4.741922E-5,0.005221945,0.19,0.99,-0.01,23806,9969.50,0,0,0,0.98,-2.66,0.49,0.19,0.99,-0.01
-1.2841797,0.0028964607,4.741922E-5,0.004221944,0.2,0.99,-0.01,23821,9967.50,0,0,165,0.98,-2.66,0.42,0.20,0.99,-0.01
0.7158203,0.0018964605,-9.525791E-4,0.0022219447,0.2,0.99,-0.01,23828,9969.50,0,0,0,0.91,-2.73,0.28,0.20,0.99,-0.01
-0.2841797,0.0018964605,-0.0019525774,0.006221945,0.21,0.99,-0.01,23843,9968.50,0,0,165,0.91,-2.80,0.56,0.21,0.99,-0.01
-0.5839844,-1.0353979E-4,-0.0039525777,0.009221944,0.22,0.99,-0.01,23858,9968.20,0,0,0,0.77,-2.94,0.77,0.22,0.99,-0.01
-0.2841797,-0.0031035393,-9.525791E-4,-0.022778055,0.2,0.98,-0.0,23866,9968.50,0,0,165,0.56,-2.73,-1.47,0.20,0.98,-0.00
-0.2841797,-0.01710354,0.00604742,-0.073778056,0.15,0.99,0.0,23880,9968.50,0,0,0,-0.42,-2.24,-5.04,0.15,0.99,0.00
-0.2841797,-0.01910354,0.0070474204,-0.07977806,0.14,1.0,-0.01,23897,9968.50,0,0,165,-0.56,-2.17,-5.46,0.14,1.00,-0.01
-0.5839844,-0.01010354,0.005047422,-0.044778056,0.15,1.01,-0.03,23903,9968.20,0,0,0,0.07,-2.31,-3.01,0.15,1.01,-0.03
0.3154297,0.00989646,0.0010474212,0.056221943,0.2,1.02,-0.03,23918,9969.10,0,0,165,1.47,-2.59,4.06,0.20,1.02,-0.03
-0.2841797,0.03189646,-0.010952581,0.13722195,0.24,1.0,-0.01,23934,9968.50,0,0,0,3.01,-3.43,9.73,0.24,1.00,-0.01
-0.2841797,0.030896459,-0.012952577,0.12522195,0.25,0.96,0.01,23941,9968.50,0,0,165,2.94,-3.57,8.89,0.25,0.96,0.01
-0.5839844,0.0068964595,-0.0039525777,0.025221946,0.23,0.95,0.03,23956,9968.20,0,0,0,1.26,-2.94,1.89,0.23,0.95,0.03
0.7158203,-0.021103539,0.008047422,-0.09977806,0.18,0.96,0.02,23971,9969.50,0,0,165,-0.70,-2.10,-6.86,0.18,0.96,0.02
-0.2841797,-0.03710354,0.014047423,-0.16977805,0.15,0.99,-0.02,23978,9968.50,0,0,0,-1.82,-1.68,-11.76,0.15,0.99,-0.02
-1.2841797,-0.035103537,0.010047421,-0.13877806,0.14,1.02,-0.05,23994,9967.50,0,0,165,-1.68,-1.96,-9.59,0.14,1.02,-0.05
-0.5839844,-0.014103539,0.00404742,-0.035778057,0.16,1.02,-0.05,24009,9968.20,0,0,0,-0.21,-2.38,-2.38,0.16,1.02,-0.05
0.7158203,0.01089646,-0.005952578,0.06822194,0.19,1.02,-0.03,24016,9969.50,0,0,165,1.54,-3.08,4.90,0.19,1.02,-0.03
0.7158203,0.02189646,-0.010952581,0.11322194,0.22,0.98,0.02,24031,9969.50,0,0,0,2.31,-3.43,8.05,0.22,0.98,0.02
0.7158203,0.014896461,-0.005952578,0.066221945,0.23,0.96,0.04,24047,9969.50,0,0,165,1.82,-3.08,4.76,0.23,0.96,0.04
0.7158203,8.9645945E-4,0.0030474216,-0.028778056,0.22,0.96,0.04,24053,9969.50,0,0,0,0.84,-2.45,-1.89,0.22,0.96,0.04
0.015625,-0.02010354,0.0070474204,-0.08977806,0.2,0.98,-0.01,24076,9968.80,0,0,165,-0.63,-2.17,-6.16,0.20,0.98,-0.01
0.015625,-0.021103539,0.010047421,-0.09677806,0.17,1.0,-0.04,24084,9968.80,0,0,0,-0.70,-1.96,-6.65,0.17,1.00,-0.04
-0.5839844,-0.01610354,0.0030474216,-0.046778057,0.15,1.01,-0.05,24091,9968.20,0,0,165,-0.35,-2.45,-3.15,0.15,1.01,-0.05
-0.5839844,0.0028964607,-0.0049525797,0.029221946,0.16,1.02,-0.03,24106,9968.20,0,0,0,0.98,-3.01,2.17,0.16,1.02,-0.03
-0.2841797,0.015896462,-0.009952575,0.085221946,0.18,0.88,0.0,24121,9968.50,0,0,165,1.89,-3.36,6.09,0.18,0.88,0.00
-0.2841797,0.02189646,-0.00695258,0.08622194,0.21,0.98,0.03,24127,9968.50,0,0,0,2.31,-3.15,6.16,0.21,0.98,0.03
-0.5839844,0.012896459,-9.525791E-4,0.045221943,0.23,0.97,0.03,24143,9968.20,0,0,165,1.68,-2.73,3.29,0.23,0.97,0.03
-0.2841797,0.0028964607,0.00404742,-0.019778054,0.22,0.97,-0.0,24158,9968.50,0,0,0,0.98,-2.38,-1.26,0.22,0.97,-0.00
-1.2841797,-0.01310354,0.005047422,-0.054778054,0.19,0.99,-0.03,24167,9967.50,0,0,165,-0.14,-2.31,-3.71,0.19,0.99,-0.03
0.7158203,-0.015103539,0.00404742,-0.061778054,0.17,1.0,-0.03,24187,9969.50,0,0,0,-0.28,-2.38,-4.20,0.17,1.00,-0.03
-0.2841797,-0.01110354,0.0010474212,-0.039778057,0.16,1.0,-0.03,24195,9968.50,0,0,165,0.00,-2.59,-2.66,0.16,1.00,-0.03
0.7158203,-0.00110354,4.741922E-5,0.0012219442,0.16,1.01,-0.0,24203,9969.50,0,0,0,0.70,-2.66,0.21,0.16,1.01,-0.00
-1.2841797,0.005896461,-0.0039525777,0.038221944,0.19,1.0,0.01,24218,9967.50,0,0,165,1.19,-2.94,2.80,0.19,1.00,0.01
-0.2841797,0.015896462,-0.0049525797,0.057221945,0.21,0.99,0.01,24233,9968.50,0,0,0,1.89,-3.01,4.13,0.21,0.99,0.01
-0.5839844,0.01689646,-0.0019525774,0.047221947,0.22,0.98,0.0,24240,9968.20,0,0,165,1.96,-2.80,3.43,0.22,0.98,0.00
0.7158203,0.005896461,-9.525791E-4,0.015221945,0.21,0.98,-0.01,24256,9969.50,0,0,0,1.19,-2.73,1.19,0.21,0.98,-0.01
-0.984375,-0.00810354,0.0030474216,-0.029778056,0.19,0.98,-0.02,24271,9967.80,0,0,165,0.21,-2.45,-1.96,0.19,0.98,-0.02
-0.2841797,-0.01810354,0.00604742,-0.07777806,0.16,0.99,-0.01,24279,9968.50,0,0,0,-0.49,-2.24,-5.32,0.16,0.99,-0.01
-0.2841797,-0.02010354,0.00404742,-0.07977806,0.16,1.0,-0.01,24293,9968.50,0,0,165,-0.63,-2.38,-5.46,0.16,1.00,-0.01
-0.2841797,-0.01010354,0.0020474233,-0.022778055,0.17,1.01,-0.0,24309,9968.50,0,0,0,0.07,-2.52,-1.47,0.17,1.01,-0.00
-0.2841797,0.0078964615,-0.0029525757,0.045221943,0.2,1.01,-0.0,24315,9968.50,0,0,165,1.33,-2.87,3.29,0.20,1.01,-0.00
-0.2841797,0.02189646,-0.005952578,0.09022194,0.22,0.99,-0.0,24331,9968.50,0,0,0,2.31,-3.08,6.44,0.22,0.99,-0.00
0.7158203,0.019896463,-0.0049525797,0.073221944,0.22,0.97,-0.0,24346,9969.50,0,0,165,2.17,-3.01,5.25,0.22,0.97,-0.00
0.7158203,0.0028964607,-0.0019525774,0.016221944,0.2,0.97,-0.01,24353,9969.50,0,0,0,0.98,-2.80,1.26,0.20,0.97,-0.01
0.7158203,-0.014103539,0.00604742,-0.06977806,0.18,0.97,-0.01,24369,9969.50,0,0,165,-0.21,-2.24,-4.76,0.18,0.97,-0.01
-0.5839844,-0.02410354,0.008047422,-0.10477806,0.17,1.0,-0.02,24384,9968.20,0,0,0,-0.91,-2.10,-7.21,0.17,1.00,-0.02
-1.8837891,-0.01910354,0.005047422,-0.07777806,0.17,1.01,-0.02,24390,9966.90,0,0,165,-0.56,-2.31,-5.32,0.17,1.01,-0.02
0.7158203,-0.0041035395,-9.525791E-4,0.006221945,0.18,1.02,-0.01,24406,9969.50,0,0,0,0.49,-2.73,0.56,0.18,1.02,-0.01
0.7158203,0.013896461,-0.0049525797,0.066221945,0.2,1.01,-0.0,24421,9969.50,0,0,165,1.75,-3.01,4.76,0.20,1.01,-0.00
-0.2841797,0.02389646,-0.005952578,0.09122194,0.21,0.99,0.01,24428,9968.50,0,0,0,2.45,-3.08,6.51,0.21,0.99,0.01
-0.2841797,0.017896459,-0.0029525757,0.055221945,0.21,0.97,0.0,24443,9968.50,0,0,165,2.03,-2.87,3.99,0.21,0.97,0.00
0.7158203,-1.0353979E-4,0.0020474233,-0.009778056,0.2,0.97,-0.01,24458,9969.50,0,0,0,0.77,-2.52,-0.56,0.20,0.97,-0.01
0.7158203,-0.015103539,0.005047422,-0.06777806,0.19,0.98,-0.02,24466,9969.50,0,0,165,-0.28,-2.31,-4.62,0.19,0.98,-0.02
0.7158203,-0.02010354,0.005047422,-0.07877806,0.18,1.0,-0.03,24480,9969.50,0,0,0,-0.63,-2.31,-5.39,0.18,1.00,-0.03
-0.2841797,-0.01210354,0.00404742,-0.041778054,0.18,1.01,-0.02,24496,9968.50,0,0,165,-0.07,-2.38,-2.80,0.18,1.01,-0.02
0.3154297,8.9645945E-4,-0.0029525757,0.013221944,0.18,1.01,-0.01,24503,9969.10,0,0,0,0.84,-2.87,1.05,0.18,1.01,-0.01
-0.2841797,0.013896461,-0.0039525777,0.057221945,0.2,1.0,0.0,24519,9968.50,0,0,165,1.75,-2.94,4.13,0.20,1.00,0.00
-0.2841797,0.019896463,-0.0039525777,0.06522194,0.2,0.99,0.01,24533,9968.50,0,0,0,2.17,-2.94,4.69,0.20,0.99,0.01
0.7158203,0.01189646,-9.525791E-4,0.036221948,0.2,0.97,-0.0,24540,9969.50,0,0,165,1.61,-2.73,2.66,0.20,0.97,-0.00
-0.5839844,-1.0353979E-4,0.0010474212,-0.018778056,0.19,0.98,-0.02,24555,9968.20,0,0,0,0.77,-2.59,-1.19,0.19,0.98,-0.02
0.7158203,-0.01010354,0.005047422,-0.053778056,0.19,0.99,-0.02,24570,9969.50,0,0,165,0.07,-2.31,-3.64,0.19,0.99,-0.02
-1.2841797,-0.01310354,0.0030474216,-0.054778054,0.18,1.0,-0.02,24578,9967.50,0,0,0,-0.14,-2.45,-3.71,0.18,1.00,-0.02
0.015625,-0.00810354,0.0020474233,-0.031778056,0.18,1.0,-0.01,24593,9968.80,0,0,165,0.21,-2.52,-2.10,0.18,1.00,-0.01
0.7158203,8.9645945E-4,-9.525791E-4,0.017221946,0.19,1.0,-0.0,24608,9969.50,0,0,0,0.84,-2.73,1.33,0.19,1.00,-0.00
-0.2841797,0.012896459,-0.0019525774,0.045221943,0.2,1.0,0.0,24616,9968.50,0,0,165,1.68,-2.80,3.29,0.20,1.00,0.00
-0.2841797,0.012896459,-0.0029525757,0.047221947,0.2,0.98,-0.0,24631,9968.50,0,0,0,1.68,-2.87,3.43,0.20,0.98,-0.00
-1.2841797,0.00389646,-9.525791E-4,0.016221944,0.2,0.98,-0.01,24646,9967.50,0,0,165,1.05,-2.73,1.26,0.20,0.98,-0.01
-0.2841797,-0.00610354,0.0020474233,-0.034778055,0.19,0.98,-0.01,24653,9968.50,0,0,0,0.35,-2.52,-2.31,0.19,0.98,-0.01
-0.2841797,-0.015103539,0.00404742,-0.059778053,0.18,0.99,-0.01,24669,9968.50,0,0,165,-0.28,-2.38,-4.06,0.18,0.99,-0.01
-0.5839844,-0.014103539,0.00404742,-0.054778054,0.18,1.0,-0.01,24684,9968.20,0,0,0,-0.21,-2.38,-3.71,0.18,1.00,-0.01
-0.2841797,-0.00610354,0.0010474212,-0.022778055,0.18,1.0,-0.01,24691,9968.50,0,0,165,0.35,-2.59,-1.47,0.18,1.00,-0.01
-0.2841797,0.00889646,-0.0019525774,0.033221945,0.2,1.0,-0.01,24706,9968.50,0,0,0,1.40,-2.80,2.45,0.20,1.00,-0.01
-0.5839844,0.017896459,-0.0049525797,0.06522194,0.2,0.99,-0.01,24720,9968.20,0,0,165,2.03,-3.01,4.69,0.20,0.99,-0.01
-0.2841797,0.013896461,-0.0029525757,0.056221943,0.2,0.98,-0.01,24728,9968.50,0,0,0,1.75,-2.87,4.06,0.20,0.98,-0.01
0.3154297,0.00389646,-9.525791E-4,0.005221945,0.19,0.98,-0.01,24743,9969.10,0,0,165,1.05,-2.73,0.49,0.19,0.98,-0.01
-0.2841797,-0.009103539,0.0030474216,-0.043778054,0.19,0.98,-0.01,24758,9968.50,0,0,0,0.14,-2.45,-2.94,0.19,0.98,-0.01
-0.2841797,-0.01610354,0.005047422,-0.06477806,0.18,0.99,-0.01,24768,9968.50,0,0,165,-0.35,-2.31,-4.41,0.18,0.99,-0.01
-0.2841797,-0.01310354,0.00404742,-0.044778056,0.18,1.0,-0.01,24781,9968.50,0,0,0,-0.14,-2.38,-3.01,0.18,1.00,-0.01
-0.2841797,-0.00110354,0.0010474212,0.24822195,0.19,1.01,-0.01,24796,9968.50,0,0,165,0.70,-2.59,17.50,0.19,1.01,-0.01
-1.2841797,0.01089646,-0.0029525757,0.045221943,0.19,1.0,-0.0,24803,9967.50,0,0,0,1.54,-2.87,3.29,0.19,1.00,-0.00
-1.5839844,0.015896462,-0.0029525757,0.058221944,0.2,0.99,-0.01,24818,9967.20,0,0,165,1.89,-2.87,4.20,0.20,0.99,-0.01
0.7158203,0.01089646,-0.0019525774,0.031221945,0.2,0.98,-0.0,24833,9969.50,0,0,0,1.54,-2.80,2.31,0.20,0.98,-0.00
-0.2841797,-0.00110354,0.0010474212,-0.012778056,0.19,0.98,-0.01,24841,9968.50,0,0,165,0.70,-2.59,-0.77,0.19,0.98,-0.01
-0.2841797,-0.01010354,0.005047422,-0.050778057,0.19,0.99,-0.01,24855,9968.50,0,0,0,0.07,-2.31,-3.43,0.19,0.99,-0.01
-0.2841797,-0.015103539,0.005047422,-0.058778055,0.18,1.0,-0.01,24870,9968.50,0,0,165,-0.28,-2.31,-3.99,0.18,1.00,-0.01
-1.5839844,-0.01010354,0.0020474233,-0.028778056,0.19,1.0,-0.01,24878,9967.20,0,0,0,0.07,-2.52,-1.89,0.19,1.00,-0.01
0.015625,8.9645945E-4,4.741922E-5,0.009221944,0.19,1.0,-0.01,24893,9968.80,0,0,165,0.84,-2.66,0.77,0.19,1.00,-0.01
-1.5839844,0.01089646,-0.0019525774,0.043221947,0.19,1.0,-0.0,24908,9967.20,0,0,0,1.54,-2.80,3.15,0.19,1.00,-0.00
-0.5839844,0.012896459,-0.0039525777,0.048221946,0.2,0.99,-0.0,24916,9968.20,0,0,165,1.68,-2.94,3.50,0.20,0.99,-0.00
0.7158203,0.0068964595,-9.525791E-4,0.020221945,0.2,0.98,-0.01,24931,9969.50,0,0,0,1.26,-2.73,1.54,0.20,0.98,-0.01
-0.2841797,-0.00110354,0.0020474233,-0.015778055,0.19,0.98,-0.01,24946,9968.50,0,0,165,0.70,-2.52,-0.98,0.19,0.98,-0.01
-0.2841797,-0.009103539,0.0020474233,-0.039778057,0.19,0.99,-0.01,24953,9968.50,0,0,0,0.14,-2.52,-2.66,0.19,0.99,-0.01
-0.2841797,-0.01010354,0.0030474216,-0.041778054,0.18,1.0,-0.01,24968,9968.50,0,0,165,0.07,-2.45,-2.80,0.18,1.00,-0.01
-0.2841797,-0.00510354,4.741922E-5,-0.021778055,0.19,1.0,-0.01,24983,9968.50,0,0,0,0.42,-2.66,-1.40,0.19,1.00,-0.01
-0.2841797,8.9645945E-4,-0.0019525774,0.015221945,0.19,1.0,-0.01,24990,9968.50,0,0,165,0.84,-2.80,1.19,0.19,1.00,-0.01
-0.2841797,0.00989646,-9.525791E-4,0.038221944,0.19,0.99,-0.0,25005,9968.50,0,0,0,1.47,-2.73,2.80,0.19,0.99,-0.00
-0.2841797,0.00889646,-0.0019525774,0.030221947,0.2,0.99,-0.0,25021,9968.50,0,0,165,1.40,-2.80,2.24,0.20,0.99,-0.00
-1.2841797,0.0018964605,-0.0019525774,0.007221944,0.19,0.98,-0.01,25028,9967.50,0,0,0,0.91,-2.80,0.63,0.19,0.98,-0.01
0.7158203,-0.00510354,0.0010474212,-0.026778055,0.19,0.98,-0.01,25043,9969.50,0,0,165,0.42,-2.59,-1.75,0.19,0.98,-0.01
-0.2841797,-0.00810354,0.0030474216,-0.041778054,0.19,0.99,-0.01,25058,9968.50,0,0,0,0.21,-2.45,-2.80,0.19,0.99,-0.01
-0.2841797,-0.009103539,0.0020474233,-0.033778057,0.19,1.0,-0.01,25066,9968.50,0,0,165,0.14,-2.52,-2.24,0.19,1.00,-0.01
-0.2841797,-1.0353979E-4,-9.525791E-4,-0.0027780556,0.19,1.0,-0.01,25080,9968.50,0,0,0,0.77,-2.73,-0.07,0.19,1.00,-0.01
-0.2841797,0.005896461,-9.525791E-4,0.028221944,0.19,1.0,-0.01,25095,9968.50,0,0,165,1.19,-2.73,2.10,0.19,1.00,-0.01
-0.2841797,0.00989646,-0.0019525774,0.040221944,0.2,0.99,-0.01,25103,9968.50,0,0,0,1.47,-2.80,2.94,0.20,0.99,-0.01
0.7158203,0.0068964595,-0.0029525757,0.025221946,0.2,0.98,-0.01,25118,9969.50,0,0,165,1.26,-2.87,1.89,0.20,0.98,-0.01
-0.2841797,-1.0353979E-4,4.741922E-5,-0.0037780558,0.19,0.98,-0.01,25133,9968.50,0,0,0,0.77,-2.66,-0.14,0.19,0.98,-0.01
0.7158203,-0.00510354,0.0020474233,-0.029778056,0.19,0.99,-0.01,25140,9969.50,0,0,165,0.42,-2.52,-1.96,0.19,0.99,-0.01
-0.5839844,-0.01010354,0.0030474216,-0.038778055,0.18,0.99,-0.01,25156,9968.20,0,0,0,0.07,-2.45,-2.59,0.18,0.99,-0.01
-0.2841797,-0.00510354,4.741922E-5,-0.020778056,0.18,1.0,-0.01,25171,9968.50,0,0,165,0.42,-2.66,-1.33,0.18,1.00,-0.01
-0.2841797,0.0018964605,4.741922E-5,0.011221944,0.19,1.0,-0.01,25178,9968.50,0,0,0,0.91,-2.66,0.91,0.19,1.00,-0.01
-1.2841797,0.00889646,-0.0019525774,0.034221943,0.19,0.99,-0.01,25193,9967.50,0,0,165,1.40,-2.80,2.52,0.19,0.99,-0.01
-0.2841797,0.00989646,-0.0029525757,0.035221945,0.19,0.98,-0.01,25208,9968.50,0,0,0,1.47,-2.87,2.59,0.19,0.98,-0.01
-0.2841797,0.004896461,-0.0019525774,0.008221944,0.2,0.98,-0.01,25218,9968.50,0,0,165,1.12,-2.80,0.70,0.20,0.98,-0.01
0.7158203,-0.00210354,0.0010474212,-0.019778054,0.19,0.98,-0.01,25233,9969.50,0,0,0,0.63,-2.59,-1.26,0.19,0.98,-0.01
-1.2841797,-0.01110354,0.0030474216,-0.038778055,0.19,0.99,-0.01,25245,9967.50,0,0,165,0.00,-2.45,-2.59,0.19,0.99,-0.01
-0.2841797,-0.00810354,0.0020474233,-0.036778055,0.19,1.0,-0.01,25253,9968.50,0,0,0,0.21,-2.52,-2.45,0.19,1.00,-0.01
-1.2841797,-0.0041035395,0.0010474212,-0.014778056,0.19,1.0,-0.01,25268,9967.50,0,0,165,0.49,-2.59,-0.91,0.19,1.00,-0.01
-0.2841797,0.00389646,-9.525791E-4,0.017221946,0.19,1.0,-0.01,25283,9968.50,0,0,0,1.05,-2.73,1.33,0.19,1.00,-0.01
-0.2841797,0.00889646,-0.0029525757,0.035221945,0.19,0.99,-0.01,25291,9968.50,0,0,165,1.40,-2.87,2.59,0.19,0.99,-0.01
-0.2841797,0.00889646,-0.0019525774,0.031221945,0.2,0.99,-0.01,25306,9968.50,0,0,0,1.40,-2.80,2.31,0.20,0.99,-0.01
-0.2841797,0.0018964605,4.741922E-5,0.009221944,0.19,0.98,-0.01,25320,9968.50,0,0,165,0.91,-2.66,0.77,0.19,0.98,-0.01
-1.2841797,-0.0041035395,0.0010474212,-0.019778054,0.19,0.99,-0.01,25328,9967.50,0,0,0,0.49,-2.59,-1.26,0.19,0.99,-0.01
-0.2841797,-0.0071035395,0.0020474233,-0.030778054,0.19,0.99,-0.01,25343,9968.50,0,0,165,0.28,-2.52,-2.03,0.19,0.99,-0.01
-1.2841797,-0.0071035395,0.0010474212,-0.024778055,0.19,0.99,-0.01,25359,9967.50,0,0,0,0.28,-2.59,-1.61,0.19,0.99,-0.01
-0.2841797,-0.00110354,-9.525791E-4,-0.0027780556,0.19,1.0,-0.01,25366,9968.50,0,0,165,0.70,-2.73,-0.07,0.19,1.00,-0.01
0.7158203,0.005896461,-9.525791E-4,0.016221944,0.19,1.0,-0.01,25381,9969.50,0,0,0,1.19,-2.73,1.26,0.19,1.00,-0.01
0.7158203,0.005896461,-0.0029525757,0.024221946,0.19,0.99,-0.01,25396,9969.50,0,0,165,1.19,-2.87,1.82,0.19,0.99,-0.01
-0.2841797,0.00389646,4.741922E-5,0.014221945,0.19,0.98,-0.01,25403,9968.50,0,0,0,1.05,-2.66,1.12,0.19,0.98,-0.01
0.7158203,-1.0353979E-4,0.0020474233,-0.0037780558,0.19,0.99,-0.01,25418,9969.50,0,0,165,0.77,-2.52,-0.14,0.19,0.99,-0.01
0.7158203,-0.00610354,0.0010474212,-0.026778055,0.19,0.99,-0.01,25433,9969.50,0,0,0,0.35,-2.59,-1.75,0.19,0.99,-0.01
-0.2841797,-0.00810354,0.0020474233,-0.027778056,0.19,0.99,-0.01,25440,9968.50,0,0,165,0.21,-2.52,-1.82,0.19,0.99,-0.01
-0.2841797,-0.0041035395,0.0020474233,-0.015778055,0.19,1.0,-0.01,25456,9968.50,0,0,0,0.49,-2.52,-0.98,0.19,1.00,-0.01
-0.2841797,0.0028964607,-9.525791E-4,0.006221945,0.19,1.0,-0.01,25471,9968.50,0,0,165,0.98,-2.73,0.56,0.19,1.00,-0.01
-0.2841797,0.004896461,-0.0019525774,0.021221945,0.19,0.99,-0.01,25478,9968.50,0,0,0,1.12,-2.80,1.61,0.19,0.99,-0.01
-1.2841797,0.005896461,-0.0019525774,0.022221943,0.19,0.99,-0.0,25493,9967.50,0,0,165,1.19,-2.80,1.68,0.19,0.99,-0.00
-1.2841797,0.00389646,4.741922E-5,0.009221944,0.19,0.99,-0.01,25508,9967.50,0,0,0,1.05,-2.66,0.77,0.19,0.99,-0.01
-0.2841797,-0.00110354,4.741922E-5,-0.009778056,0.19,0.99,-0.01,25516,9968.50,0,0,165,0.70,-2.66,-0.56,0.19,0.99,-0.01
-0.2841797,-0.00510354,0.0010474212,-0.021778055,0.19,0.99,-0.01,25531,9968.50,0,0,0,0.42,-2.59,-1.40,0.19,0.99,-0.01
0.7158203,-0.0041035395,0.0020474233,-0.020778056,0.19,1.0,-0.01,25546,9969.50,0,0,165,0.49,-2.52,-1.33,0.19,1.00,-0.01
-0.2841797,-0.00110354,0.0010474212,-0.007778055,0.19,1.0,-0.01,25553,9968.50,0,0,0,0.70,-2.59,-0.42,0.19,1.00,-0.01
-0.2841797,0.0018964605,4.741922E-5,0.011221944,0.19,1.0,-0.01,25569,9968.50,0,0,165,0.91,-2.66,0.91,0.19,1.00,-0.01
0.7158203,0.004896461,-9.525791E-4,0.018221945,0.19,0.99,-0.01,25583,9969.50,0,0,0,1.12,-2.73,1.40,0.19,0.99,-0.01
-0.2841797,0.00389646,-0.0019525774,0.015221945,0.19,0.99,-0.01,25591,9968.50,0,0,165,1.05,-2.80,1.19,0.19,0.99,-0.01
-0.2841797,8.9645945E-4,4.741922E-5,-0.0037780558,0.19,0.99,-0.01,25606,9968.50,0,0,0,0.84,-2.66,-0.14,0.19,0.99,-0.01
0.7158203,-0.0031035393,4.741922E-5,-0.019778054,0.19,0.99,-0.01,25621,9969.50,0,0,165,0.56,-2.66,-1.26,0.19,0.99,-0.01
-0.2841797,-0.00610354,0.0020474233,-0.023778055,0.19,0.99,-0.01,25628,9968.50,0,0,0,0.35,-2.52,-1.54,0.19,0.99,-0.01
0.7158203,-0.0031035393,4.741922E-5,-0.017778056,0.19,1.0,-0.01,25643,9969.50,0,0,165,0.56,-2.66,-1.12,0.19,1.00,-0.01
-0.2841797,-1.0353979E-4,-9.525791E-4,0.0012219442,0.19,0.99,-0.01,25658,9968.50,0,0,0,0.77,-2.73,0.21,0.19,0.99,-0.01
-0.2841797,0.00389646,-9.525791E-4,0.015221945,0.19,1.0,-0.01,25666,9968.50,0,0,165,1.05,-2.73,1.19,0.19,1.00,-0.01
-0.2841797,0.005896461,-0.0019525774,0.019221945,0.19,0.99,-0.01,25680,9968.50,0,0,0,1.19,-2.80,1.47,0.19,0.99,-0.01
0.015625,0.00389646,4.741922E-5,0.010221943,0.19,0.99,-0.01,25696,9968.80,0,0,165,1.05,-2.66,0.84,0.19,0.99,-0.01
-0.2841797,-0.00210354,4.741922E-5,-0.0057780556,0.19,0.99,-0.01,25703,9968.50,0,0,0,0.63,-2.66,-0.28,0.19,0.99,-0.01
-0.2841797,-0.00610354,0.0010474212,-0.018778056,0.19,0.99,-0.01,25718,9968.50,0,0,165,0.35,-2.59,-1.19,0.19,0.99,-0.01
-0.2841797,-0.00510354,0.0010474212,-0.019778054,0.19,0.99,-0.01,25734,9968.50,0,0,0,0.42,-2.59,-1.26,0.19,0.99,-0.01
-0.2841797,-0.0031035393,4.741922E-5,-0.012778056,0.19,1.0,-0.01,25741,9968.50,0,0,165,0.56,-2.66,-0.77,0.19,1.00,-0.01
0.015625,8.9645945E-4,4.741922E-5,0.007221944,0.19,0.99,-0.01,25756,9968.80,0,0,0,0.84,-2.66,0.63,0.19,0.99,-0.01
0.41601562,0.00389646,-0.0019525774,0.017221946,0.19,0.99,-0.01,25771,9969.20,0,0,165,1.05,-2.80,1.33,0.19,0.99,-0.01
0.7158203,0.004896461,-0.0019525774,0.016221944,0.19,0.99,-0.01,25778,9969.50,0,0,0,1.12,-2.80,1.26,0.19,0.99,-0.01
-1.5839844,8.9645945E-4,4.741922E-5,0.005221945,0.19,0.99,-0.01,25793,9967.20,0,0,165,0.84,-2.66,0.49,0.19,0.99,-0.01
-1.2841797,-0.00110354,4.741922E-5,-0.008778056,0.19,0.99,-0.01,25808,9967.50,0,0,0,0.70,-2.66,-0.49,0.19,0.99,-0.01
0.7158203,-0.00510354,0.0020474233,-0.018778056,0.19,0.99,-0.01,25816,9969.50,0,0,165,0.42,-2.52,-1.19,0.19,0.99,-0.01
0.7158203,-0.00510354,0.0010474212,-0.016778056,0.19,0.99,-0.01,25831,9969.50,0,0,0,0.42,-2.59,-1.05,0.19,0.99,-0.01
-0.2841797,-0.00210354,4.741922E-5,-0.0067780553,0.19,0.99,-0.01,25845,9968.50,0,0,165,0.63,-2.66,-0.35,0.19,0.99,-0.01
-0.2841797,0.0018964605,-9.525791E-4,0.007221944,0.19,1.0,-0.01,25853,9968.50,0,0,0,0.91,-2.73,0.63,0.19,1.00,-0.01
0.7158203,8.9645945E-4,-9.525791E-4,0.011221944,0.19,0.99,-0.01,25869,9969.50,0,0,165,0.84,-2.73,0.91,0.19,0.99,-0.01
-0.2841797,0.00389646,4.741922E-5,0.008221944,0.19,0.99,-0.01,25884,9968.50,0,0,0,1.05,-2.66,0.70,0.19,0.99,-0.01
-0.2841797,8.9645945E-4,-9.525791E-4,-0.0037780558,0.19,0.99,-0.01,25891,9968.50,0,0,165,0.84,-2.73,-0.14,0.19,0.99,-0.01
-0.2841797,-0.00110354,4.741922E-5,-0.0107780555,0.19,0.99,-0.01,25906,9968.50,0,0,0,0.70,-2.66,-0.63,0.19,0.99,-0.01
0.7158203,-0.0031035393,4.741922E-5,-0.014778056,0.19,0.99,-0.01,25921,9969.50,0,0,165,0.56,-2.66,-0.91,0.19,0.99,-0.01
-0.88378906,-0.00110354,0.0010474212,-0.0067780553,0.19,0.99,-0.01,25929,9967.90,0,0,0,0.70,-2.59,-0.35,0.19,0.99,-0.01
-0.2841797,8.9645945E-4,4.741922E-5,0.0032219444,0.19,1.0,-0.01,25944,9968.50,0,0,165,0.84,-2.66,0.35,0.19,1.00,-0.01
-0.2841797,0.0028964607,4.741922E-5,0.011221944,0.19,0.99,-0.01,25958,9968.50,0,0,0,0.98,-2.66,0.91,0.19,0.99,-0.01
0.7158203,0.00389646,-9.525791E-4,0.010221943,0.19,0.99,-0.01,25966,9969.50,0,0,165,1.05,-2.73,0.84,0.19,0.99,-0.01
0.7158203,-1.0353979E-4,4.741922E-5,0.004221944,0.19,0.99,-0.01,25981,9969.50,0,0,0,0.77,-2.66,0.42,0.19,0.99,-0.01
0.015625,-0.0031035393,0.0010474212,-0.0057780556,0.19,0.99,-0.01,25996,9968.80,0,0,165,0.56,-2.59,-0.28,0.19,0.99,-0.01
0.7158203,-0.0041035395,0.0010474212,-0.013778055,0.19,0.99,-0.01,26003,9969.50,0,0,0,0.49,-2.59,-0.84,0.19,0.99,-0.01
-0.2841797,-0.00210354,4.741922E-5,-0.014778056,0.19,0.99,-0.01,26018,9968.50,0,0,165,0.63,-2.66,-0.91,0.19,0.99,-0.01
0.7158203,-0.00210354,0.0010474212,-0.008778056,0.19,0.99,-0.01,26034,9969.50,0,0,0,0.63,-2.59,-0.49,0.19,0.99,-0.01
1.015625,8.9645945E-4,4.741922E-5,0.0022219447,0.19,0.99,-0.01,26041,9969.80,0,0,165,0.84,-2.66,0.28,0.19,0.99,-0.01
0.7158203,0.0028964607,4.741922E-5,0.008221944,0.19,0.99,-0.01,26056,9969.50,0,0,0,0.98,-2.66,0.70,0.19,0.99,-0.01
0.7158203,0.00389646,4.741922E-5,0.007221944,0.19,0.99,-0.01,26071,9969.50,0,0,165,1.05,-2.66,0.63,0.19,0.99,-0.01
0.7158203,0.0018964605,4.741922E-5,0.0012219442,0.19,0.99,-0.01,26078,9969.50,0,0,0,0.91,-2.66,0.21,0.19,0.99,-0.01
0.7158203,-1.0353979E-4,4.741922E-5,-0.0057780556,0.19,0.99,-0.01,26093,9969.50,0,0,165,0.77,-2.66,-0.28,0.19,0.99,-0.01
1.015625,-0.0031035393,4.741922E-5,-0.008778056,0.19,0.99,-0.01,26108,9969.80,0,0,0,0.56,-2.66,-0.49,0.19,0.99,-0.01
-0.2841797,-0.00110354,0.0020474233,-0.0067780553,0.19,1.0,-0.01,26115,9968.50,0,0,165,0.70,-2.52,-0.35,0.19,1.00,-0.01
0.7158203,-0.00110354,-9.525791E-4,0.0022219447,0.19,0.99,-0.01,26131,9969.50,0,0,0,0.70,-2.73,0.28,0.19,0.99,-0.01
-0.2841797,0.0028964607,0.0010474212,0.008221944,0.19,0.99,-0.01,26146,9968.50,0,0,165,0.98,-2.59,0.70,0.19,0.99,-0.01
-0.2841797,0.00389646,4.741922E-5,0.010221943,0.19,0.99,-0.01,26153,9968.50,0,0,0,1.05,-2.66,0.84,0.19,0.99,-0.01
0.015625,0.0028964607,0.0010474212,0.004221944,0.19,0.99,-0.01,26168,9968.80,0,0,165,0.98,-2.59,0.42,0.19,0.99,-0.01
0.7158203,-1.0353979E-4,4.741922E-5,-0.0037780558,0.19,0.99,-0.01,26185,9969.50,0,0,0,0.77,-2.66,-0.14,0.19,0.99,-0.01
0.7158203,-0.00210354,4.741922E-5,-0.009778056,0.19,0.99,-0.01,26191,9969.50,0,0,165,0.63,-2.66,-0.56,0.19,0.99,-0.01
-0.2841797,-0.0031035393,0.0020474233,-0.012778056,0.19,0.99,-0.01,26206,9968.50,0,0,0,0.56,-2.52,-0.77,0.19,0.99,-0.01
0.7158203,-0.00110354,0.0010474212,-0.007778055,0.19,0.99,-0.01,26221,9969.50,0,0,165,0.70,-2.59,-0.42,0.19,0.99,-0.01
0.7158203,-1.0353979E-4,-9.525791E-4,-0.0027780556,0.19,1.0,-0.01,26228,9969.50,0,0,0,0.77,-2.73,-0.07,0.19,1.00,-0.01
-0.2841797,8.9645945E-4,-0.0019525774,0.006221945,0.19,0.99,-0.01,26243,9968.50,0,0,165,0.84,-2.80,0.56,0.19,0.99,-0.01
-0.2841797,0.0018964605,-9.525791E-4,0.008221944,0.19,0.99,-0.0,26258,9968.50,0,0,0,0.91,-2.73,0.70,0.19,0.99,-0.00
-0.2841797,0.0018964605,-9.525791E-4,0.0022219447,0.19,0.99,-0.01,26266,9968.50,0,0,165,0.91,-2.73,0.28,0.19,0.99,-0.01
0.7158203,-0.00110354,4.741922E-5,-0.0037780558,0.19,0.99,-0.01,26280,9969.50,0,0,0,0.70,-2.66,-0.14,0.19,0.99,-0.01
0.7158203,-0.00110354,0.0010474212,-0.0057780556,0.19,0.99,-0.01,26295,9969.50,0,0,165,0.70,-2.59,-0.28,0.19,0.99,-0.01
1.6162109,-0.00110354,0.0010474212,-0.0037780558,0.19,0.99,-0.01,26303,9970.40,0,0,0,0.70,-2.59,-0.14,0.19,0.99,-0.01
-0.2841797,-0.00110354,0.0010474212,-0.0017780556,0.19,0.99,-0.01,26319,9968.50,0,0,165,0.70,-2.59,0.00,0.19,0.99,-0.01
0.015625,8.9645945E-4,-9.525791E-4,0.0032219444,0.19,0.99,-0.01,26333,9968.80,0,0,0,0.84,-2.73,0.35,0.19,0.99,-0.01
-0.88378906,0.0028964607,4.741922E-5,0.006221945,0.19,0.99,-0.01,26341,9967.90,0,0,165,0.98,-2.66,0.56,0.19,0.99,-0.01
-0.2841797,8.9645945E-4,4.741922E-5,0.0032219444,0.19,0.99,-0.01,26356,9968.50,0,0,0,0.84,-2.66,0.35,0.19,0.99,-0.01
-0.2841797,-1.0353979E-4,4.741922E-5,-0.0017780556,0.19,0.99,-0.01,26371,9968.50,0,0,165,0.77,-2.66,0.00,0.19,0.99,-0.01
0.015625,-0.00110354,4.741922E-5,-0.0067780553,0.19,0.99,-0.01,26378,9968.80,0,0,0,0.70,-2.66,-0.35,0.19,0.99,-0.01
1.015625,-1.0353979E-4,0.0010474212,-0.007778055,0.19,0.99,-0.01,26393,9969.80,0,0,165,0.77,-2.59,-0.42,0.19,0.99,-0.01
-0.2841797,-0.00110354,-0.0019525774,-0.0067780553,0.19,0.99,-0.01,26408,9968.50,0,0,0,0.70,-2.80,-0.35,0.19,0.99,-0.01
0.015625,8.9645945E-4,4.741922E-5,-0.0027780556,0.19,0.99,-0.01,26416,9968.80,0,0,165,0.84,-2.66,-0.07,0.19,0.99,-0.01
0.7158203,-1.0353979E-4,4.741922E-5,0.0022219447,0.19,0.99,-0.01,26430,9969.50,0,0,0,0.77,-2.66,0.28,0.19,0.99,-0.01
0.015625,0.0018964605,0.0010474212,0.004221944,0.19,0.99,-0.01,26446,9968.80,0,0,165,0.91,-2.59,0.42,0.19,0.99,-0.01
0.015625,8.9645945E-4,-9.525791E-4,0.0012219442,0.19,0.99,-0.01,26453,9968.80,0,0,0,0.84,-2.73,0.21,0.19,0.99,-0.01
-1.2841797,-0.00110354,-9.525791E-4,-0.0057780556,0.19,0.99,-0.01,26469,9967.50,0,0,165,0.70,-2.73,-0.28,0.19,0.99,-0.01
0.015625,8.9645945E-4,0.0010474212,-0.0057780556,0.19,0.99,-0.01,26484,9968.80,0,0,0,0.84,-2.59,-0.28,0.19,0.99,-0.01
-1.2841797,-1.0353979E-4,4.741922E-5,-0.0067780553,0.19,0.99,-0.01,26491,9967.50,0,0,165,0.77,-2.66,-0.35,0.19,0.99,-0.01
0.7158203,8.9645945E-4,0.0010474212,-0.0037780558,0.19,0.99,-0.01,26506,9969.50,0,0,0,0.84,-2.59,-0.14,0.19,0.99,-0.01
-0.2841797,0.0018964605,4.741922E-5,0.0012219442,0.19,0.99,-0.01,26521,9968.50,0,0,165,0.91,-2.66,0.21,0.19,0.99,-0.01
-0.2841797,0.0018964605,4.741922E-5,0.004221944,0.19,0.99,-0.01,26528,9968.50,0,0,0,0.91,-2.66,0.42,0.19,0.99,-0.01
-0.2841797,0.0018964605,-9.525791E-4,0.004221944,0.19,0.99,-0.01,26543,9968.50,0,0,165,0.91,-2.73,0.42,0.19,0.99,-0.01
-0.2841797,-1.0353979E-4,4.741922E-5,2.2194453E-4,0.19,0.99,-0.01,26558,9968.50,0,0,0,0.77,-2.66,0.14,0.19,0.99,-0.01
1.015625,8.9645945E-4,-9.525791E-4,-0.0047780555,0.19,0.99,-0.01,26566,9969.80,0,0,165,0.84,-2.73,-0.21,0.19,0.99,-0.01
0.015625,-0.0031035393,4.741922E-5,-0.007778055,0.19,0.99,-0.01,26581,9968.80,0,0,0,0.56,-2.66,-0.42,0.19,0.99,-0.01
-0.2841797,-0.00110354,-9.525791E-4,-0.007778055,0.19,0.99,-0.01,26596,9968.50,0,0,165,0.70,-2.73,-0.42,0.19,0.99,-0.01
-0.2841797,-0.00110354,-9.525791E-4,-0.0037780558,0.19,0.99,-0.01,26603,9968.50,0,0,0,0.70,-2.73,-0.14,0.19,0.99,-0.01
0.7158203,8.9645945E-4,-0.0019525774,-7.780555E-4,0.19,0.99,-0.01,26618,9969.50,0,0,165,0.84,-2.80,0.07,0.19,0.99,-0.01
-0.2841797,0.0018964605,0.0010474212,0.0032219444,0.19,0.99,-0.01,26634,9968.50,0,0,0,0.91,-2.59,0.35,0.19,0.99,-0.01
0.015625,8.9645945E-4,4.741922E-5,0.0032219444,0.19,0.99,-0.01,26640,9968.80,0,0,165,0.84,-2.66,0.35,0.19,0.99,-0.01
-0.2841797,-0.00110354,0.0010474212,2.2194453E-4,0.19,0.99,-0.01,26656,9968.50,0,0,0,0.70,-2.59,0.14,0.19,0.99,-0.01
-1.2841797,-0.00210354,4.741922E-5,-0.0047780555,0.19,0.99,-0.01,26670,9967.50,0,0,165,0.63,-2.66,-0.21,0.19,0.99,-0.01
0.7158203,8.9645945E-4,0.0010474212,-0.0037780558,0.19,0.99,-0.01,26678,9969.50,0,0,0,0.84,-2.59,-0.14,0.19,0.99,-0.01
-1.2841797,-1.0353979E-4,-9.525791E-4,-0.0027780556,0.19,0.99,-0.01,26693,9967.50,0,0,165,0.77,-2.73,-0.07,0.19,0.99,-0.01
-0.2841797,-0.00110354,4.741922E-5,-0.0017780556,0.19,0.99,-0.01,26708,9968.50,0,0,0,0.70,-2.66,0.00,0.19,0.99,-0.01
0.015625,0.0018964605,-9.525791E-4,0.0022219447,0.19,0.99,-0.01,26716,9968.80,0,0,165,0.91,-2.73,0.28,0.19,0.99,-0.01
-1.2841797,8.9645945E-4,4.741922E-5,0.0032219444,0.19,0.99,-0.01,26730,9967.50,0,0,0,0.84,-2.66,0.35,0.19,0.99,-0.01
-0.2841797,8.9645945E-4,0.0010474212,0.0022219447,0.19,0.99,-0.01,26746,9968.50,0,0,165,0.84,-2.59,0.28,0.19,0.99,-0.01
-0.2841797,-1.0353979E-4,0.0010474212,0.0012219442,0.19,0.99,-0.01,26753,9968.50,0,0,0,0.77,-2.59,0.21,0.19,0.99,-0.01
-0.2841797,-1.0353979E-4,4.741922E-5,-0.0017780556,0.19,0.99,-0.01,26768,9968.50,0,0,165,0.77,-2.66,0.00,0.19,0.99,-0.01
1.015625,-1.0353979E-4,0.0010474212,-0.0067780553,0.19,0.99,-0.01,26784,9969.80,0,0,0,0.77,-2.59,-0.35,0.19,0.99,-0.01
-0.2841797,-0.00110354,4.741922E-5,-0.0037780558,0.19,0.99,-0.01,26791,9968.50,0,0,165,0.70,-2.66,-0.14,0.19,0.99,-0.01
-0.2841797,-0.00110354,4.741922E-5,-0.0017780556,0.19,0.99,-0.01,26806,9968.50,0,0,0,0.70,-2.66,0.00,0.19,0.99,-0.01
-0.2841797,-1.0353979E-4,-9.525791E-4,-7.780555E-4,0.19,0.99,-0.01,26820,9968.50,0,0,165,0.77,-2.73,0.07,0.19,0.99,-0.01
1.015625,-1.0353979E-4,4.741922E-5,0.0022219447,0.19,0.99,-0.01,26828,9969.80,0,0,0,0.77,-2.66,0.28,0.19,0.99,-0.01
0.7158203,0.0018964605,4.741922E-5,0.0022219447,0.19,0.99,-0.01,26843,9969.50,0,0,165,0.91,-2.66,0.28,0.19,0.99,-0.01
-1.2841797,8.9645945E-4,4.741922E-5,-0.0027780556,0.19,0.99,-0.01,26858,9967.50,0,0,0,0.84,-2.66,-0.07,0.19,0.99,-0.01
0.7158203,-0.00110354,4.741922E-5,-0.0037780558,0.19,0.99,-0.01,26866,9969.50,0,0,165,0.70,-2.66,-0.14,0.19,0.99,-0.01
-0.2841797,-1.0353979E-4,4.741922E-5,-0.0027780556,0.19,0.99,-0.01,26881,9968.50,0,0,0,0.77,-2.66,-0.07,0.19,0.99,-0.01
0.015625,0.0018964605,4.741922E-5,-7.780555E-4,0.19,0.99,-0.01,26895,9968.80,0,0,165,0.91,-2.66,0.07,0.19,0.99,-0.01
-0.2841797,8.9645945E-4,4.741922E-5,0.0022219447,0.19,0.99,-0.01,26903,9968.50,0,0,0,0.84,-2.66,0.28,0.19,0.99,-0.01
1.015625,-1.0353979E-4,4.741922E-5,0.0022219447,0.19,0.99,-0.01,26919,9969.80,0,0,165,0.77,-2.66,0.28,0.19,0.99,-0.01
-0.2841797,-1.0353979E-4,4.741922E-5,0.0032219444,0.19,0.99,-0.01,26933,9968.50,0,0,0,0.77,-2.66,0.35,0.19,0.99,-0.01
1.015625,-1.0353979E-4,0.0010474212,-0.0017780556,0.19,0.99,-0.01,26940,9969.80,0,0,165,0.77,-2.59,0.00,0.19,0.99,-0.01
-1.2841797,-1.0353979E-4,-9.525791E-4,-0.0047780555,0.19,0.99,-0.01,26956,9967.50,0,0,0,0.77,-2.73,-0.21,0.19,0.99,-0.01
-0.2841797,-1.0353979E-4,0.0010474212,-0.0057780556,0.19,0.99,-0.01,26971,9968.50,0,0,165,0.77,-2.59,-0.28,0.19,0.99,-0.01
-0.2841797,-1.0353979E-4,4.741922E-5,-0.0047780555,0.19,0.99,-0.01,26978,9968.50,0,0,0,0.77,-2.66,-0.21,0.19,0.99,-0.01
-0.2841797,8.9645945E-4,4.741922E-5,-0.0017780556,0.19,0.99,-0.01,26993,9968.50,0,0,165,0.84,-2.66,0.00,0.19,0.99,-0.01
-1.2841797,0.0018964605,4.741922E-5,0.0022219447,0.19,0.99,-0.01,27016,9967.50,0,0,0,0.91,-2.66,0.28,0.19,0.99,-0.01
0.015625,8.9645945E-4,-0.0019525774,0.0032219444,0.19,0.99,-0.01,27017,9968.80,0,0,165,0.84,-2.80,0.35,0.19,0.99,-0.01
-0.2841797,8.9645945E-4,0.0010474212,2.2194453E-4,0.19,0.99,-0.01,27030,9968.50,0,0,0,0.84,-2.59,0.14,0.19,0.99,-0.01
0.015625,-1.0353979E-4,4.741922E-5,-0.0037780558,0.19,0.99,-0.01,27046,9968.80,0,0,165,0.77,-2.66,-0.14,0.19,0.99,-0.01
-0.2841797,-1.0353979E-4,0.0020474233,-0.0047780555,0.19,0.99,-0.01,27053,9968.50,0,0,0,0.77,-2.52,-0.21,0.19,0.99,-0.01
