Pressure_Rel,GyroX_Rel,GyroY_Rel,GyroZ_Rel,AccX_Rel,AccY_Rel,AccZ_Rel,Timestamp,Pressure_abs,HeartRate,Oxygen,Status,GyroX,GyroY,GyroZ,AccX,AccY,AccZ
0.0,0.0,0.0,0.0,0.0,0.0,0.0,1002,10119.00,0,0,165,181.51,-18.48,-225.96,0.12,0.86,0.30
0.0,0.0,0.0,0.0,0.0,0.0,0.0,1005,10117.70,0,0,0,192.29,-30.10,-248.29,0.07,0.81,0.31
0.0,0.0,0.0,0.0,0.0,0.0,0.0,1007,10118.70,0,0,165,204.12,-27.44,-250.60,0.07,0.90,0.37
0.0,0.0,0.0,0.0,0.0,0.0,0.0,1008,10119.00,0,0,0,220.50,-34.02,-256.97,0.05,0.74,0.44
0.0,0.0,0.0,0.0,0.0,0.0,0.0,1010,10118.00,0,0,165,212.03,-46.13,-260.54,0.04,0.69,0.46
-0.2705078,0.018801529,0.023496125,-0.02296183,-0.31,0.95,-0.14,6712,10117.40,0,0,0,0.49,-2.94,0.00,-0.31,0.95,-0.14
0.62890625,0.01980153,0.024496127,-0.02196183,-0.31,0.95,-0.14,6727,10118.30,0,0,165,0.56,-2.87,0.07,-0.31,0.95,-0.14
-0.2705078,0.018801529,0.024496127,-0.02396183,-0.31,0.95,-0.14,6735,10117.40,0,0,0,0.49,-2.87,-0.07,-0.31,0.95,-0.14
0.62890625,0.01980153,0.024496127,-0.02296183,-0.31,0.95,-0.14,6750,10118.30,0,0,165,0.56,-2.87,0.00,-0.31,0.95,-0.14
0.62890625,0.018801529,0.023496125,-0.02196183,-0.31,0.95,-0.14,6765,10118.30,0,0,0,0.49,-2.94,0.07,-0.31,0.95,-0.14
-0.2705078,0.017801529,0.025496125,-0.02096183,-0.31,0.95,-0.14,6773,10117.40,0,0,165,0.42,-2.80,0.14,-0.31,0.95,-0.14
0.62890625,0.02080153,0.023496125,-0.02296183,-0.31,0.95,-0.14,6787,10118.30,0,0,0,0.63,-2.94,0.00,-0.31,0.95,-0.14
0.62890625,0.018801529,0.023496125,-0.02096183,-0.31,0.95,-0.14,6802,10118.30,0,0,165,0.49,-2.94,0.14,-0.31,0.95,-0.14
-0.2705078,0.01980153,0.023496125,-0.02196183,-0.31,0.95,-0.14,6810,10117.40,0,0,0,0.56,-2.94,0.07,-0.31,0.95,-0.14
-0.2705078,0.018801529,0.023496125,-0.024961831,-0.31,0.95,-0.14,6825,10117.40,0,0,165,0.49,-2.94,-0.14,-0.31,0.95,-0.14
0.62890625,0.017801529,0.023496125,-0.02396183,-0.32,0.95,-0.14,6843,10118.30,0,0,0,0.42,-2.94,-0.07,-0.32,0.95,-0.14
-0.2705078,0.01980153,0.023496125,-0.024961831,-0.31,0.95,-0.14,6855,10117.40,0,0,165,0.56,-2.94,-0.14,-0.31,0.95,-0.14
-0.2705078,0.011801529,0.024496127,-0.02396183,-0.31,0.95,-0.14,6862,10117.40,0,0,0,0.00,-2.87,-0.07,-0.31,0.95,-0.14
-0.2705078,0.016801529,0.024496127,-0.02296183,-0.31,0.95,-0.14,6879,10117.40,0,0,165,0.35,-2.87,0.00,-0.31,0.95,-0.14
-0.2705078,0.02280153,0.024496127,-0.02096183,-0.32,0.95,-0.14,6885,10117.40,0,0,0,0.77,-2.87,0.14,-0.32,0.95,-0.14
0.62890625,0.02080153,0.024496127,-0.02396183,-0.31,0.95,-0.14,6900,10118.30,0,0,165,0.63,-2.87,-0.07,-0.31,0.95,-0.14
-1.2705078,0.021801528,0.024496127,-0.02296183,-0.31,0.95,-0.14,6915,10116.40,0,0,0,0.70,-2.87,0.00,-0.31,0.95,-0.14
0.62890625,0.02080153,0.023496125,-0.02096183,-0.32,0.95,-0.14,6922,10118.30,0,0,165,0.63,-2.94,0.14,-0.32,0.95,-0.14
-0.2705078,0.016801529,0.023496125,-0.02396183,-0.31,0.95,-0.14,6938,10117.40,0,0,0,0.35,-2.94,-0.07,-0.31,0.95,-0.14
0.62890625,0.02080153,0.023496125,-0.02096183,-0.31,0.95,-0.14,6952,10118.30,0,0,165,0.63,-2.94,0.14,-0.31,0.95,-0.14
-0.2705078,0.017801529,0.023496125,-0.02296183,-0.31,0.95,-0.14,6961,10117.40,0,0,0,0.42,-2.94,0.00,-0.31,0.95,-0.14
0.62890625,0.02080153,0.024496127,-0.024961831,-0.31,0.95,-0.14,6976,10118.30,0,0,165,0.63,-2.87,-0.14,-0.31,0.95,-0.14
-0.2705078,0.017801529,0.024496127,-0.02296183,-0.31,0.95,-0.14,6992,10117.40,0,0,0,0.42,-2.87,0.00,-0.31,0.95,-0.14
0.62890625,0.016801529,0.023496125,-0.02396183,-0.31,0.95,-0.14,6998,10118.30,0,0,165,0.35,-2.94,-0.07,-0.31,0.95,-0.14
0.62890625,0.021801528,0.025496125,-0.02196183,-0.32,0.95,-0.14,7013,10118.30,0,0,0,0.70,-2.80,0.07,-0.32,0.95,-0.14
-0.2705078,0.017801529,0.023496125,-0.02196183,-0.31,0.95,-0.14,7028,10117.40,0,0,165,0.42,-2.94,0.07,-0.31,0.95,-0.14
-0.2705078,0.01980153,0.025496125,-0.02196183,-0.31,0.95,-0.14,7035,10117.40,0,0,0,0.56,-2.80,0.07,-0.31,0.95,-0.14
0.62890625,0.02080153,0.023496125,-0.02196183,-0.31,0.95,-0.14,7050,10118.30,0,0,165,0.63,-2.94,0.07,-0.31,0.95,-0.14
-0.2705078,0.018801529,0.024496127,-0.02296183,-0.31,0.95,-0.14,7065,10117.40,0,0,0,0.49,-2.87,0.00,-0.31,0.95,-0.14
-0.2705078,0.02080153,0.024496127,-0.02296183,-0.31,0.95,-0.14,7075,10117.40,0,0,165,0.63,-2.87,0.00,-0.31,0.95,-0.14
-0.2705078,0.018801529,0.024496127,-0.02296183,-0.31,0.95,-0.14,7087,10117.40,0,0,0,0.49,-2.87,0.00,-0.31,0.95,-0.14
-0.2705078,0.018801529,0.024496127,-0.02296183,-0.32,0.95,-0.14,7095,10117.40,0,0,165,0.49,-2.87,0.00,-0.32,0.95,-0.14
0.62890625,0.02080153,0.023496125,-0.02396183,-0.32,0.95,-0.14,7110,10118.30,0,0,0,0.63,-2.94,-0.07,-0.32,0.95,-0.14
-0.2705078,0.018801529,0.024496127,-0.02396183,-0.31,0.95,-0.14,7125,10117.40,0,0,165,0.49,-2.87,-0.07,-0.31,0.95,-0.14
1.6289062,0.018801529,0.024496127,-0.02196183,-0.32,0.95,-0.14,7134,10119.30,0,0,0,0.49,-2.87,0.07,-0.32,0.95,-0.14
-0.2705078,0.01980153,0.023496125,-0.02196183,-0.31,0.95,-0.14,7147,10117.40,0,0,165,0.56,-2.94,0.07,-0.31,0.95,-0.14
-0.2705078,0.016801529,0.025496125,-0.02396183,-0.32,0.95,-0.14,7163,10117.40,0,0,0,0.35,-2.80,-0.07,-0.32,0.95,-0.14
-0.2705078,0.018801529,0.023496125,-0.024961831,-0.31,0.95,-0.14,7171,10117.40,0,0,165,0.49,-2.94,-0.14,-0.31,0.95,-0.14
1.6289062,0.01980153,0.024496127,-0.02196183,-0.31,0.95,-0.14,7185,10119.30,0,0,0,0.56,-2.87,0.07,-0.31,0.95,-0.14
0.62890625,0.02080153,0.024496127,-0.02296183,-0.31,0.95,-0.14,7200,10118.30,0,0,165,0.63,-2.87,0.00,-0.31,0.95,-0.14
1.0292969,0.02080153,0.024496127,-0.02196183,-0.31,0.95,-0.14,7208,10118.70,0,0,0,0.63,-2.87,0.07,-0.31,0.95,-0.14
0.62890625,0.02080153,0.025496125,-0.02296183,-0.31,0.95,-0.14,7225,10118.30,0,0,165,0.63,-2.80,0.00,-0.31,0.95,-0.14
-0.2705078,0.01980153,0.025496125,-0.02296183,-0.32,0.95,-0.14,7238,10117.40,0,0,0,0.56,-2.80,0.00,-0.32,0.95,-0.14
-0.2705078,0.017801529,0.023496125,-0.02396183,-0.31,0.95,-0.14,7245,10117.40,0,0,165,0.42,-2.94,-0.07,-0.31,0.95,-0.14
0.62890625,0.01980153,0.023496125,-0.02396183,-0.31,0.95,-0.14,7260,10118.30,0,0,0,0.56,-2.94,-0.07,-0.31,0.95,-0.14
0.62890625,0.01980153,0.022496123,-0.02096183,-0.31,0.95,-0.14,7275,10118.30,0,0,165,0.56,-3.01,0.14,-0.31,0.95,-0.14
0.62890625,0.017801529,0.023496125,-0.02196183,-0.31,0.95,-0.14,7282,10118.30,0,0,0,0.42,-2.94,0.07,-0.31,0.95,-0.14
0.62890625,0.01980153,0.024496127,-0.02196183,-0.32,0.95,-0.14,7298,10118.30,0,0,165,0.56,-2.87,0.07,-0.32,0.95,-0.14
-0.2705078,0.017801529,0.024496127,-0.02196183,-0.32,0.95,-0.14,7312,10117.40,0,0,0,0.42,-2.87,0.07,-0.32,0.95,-0.14
1.0292969,0.018801529,0.024496127,-0.02196183,-0.31,0.95,-0.14,7320,10118.70,0,0,165,0.49,-2.87,0.07,-0.31,0.95,-0.14
0.62890625,0.01980153,0.024496127,-0.02296183,-0.31,0.95,-0.14,7335,10118.30,0,0,0,0.56,-2.87,0.00,-0.31,0.95,-0.14
0.62890625,0.018801529,0.024496127,-0.02196183,-0.31,0.95,-0.14,7350,10118.30,0,0,165,0.49,-2.87,0.07,-0.31,0.95,-0.14
-0.2705078,0.018801529,0.024496127,-0.02296183,-0.31,0.95,-0.14,7358,10117.40,0,0,0,0.49,-2.87,0.00,-0.31,0.95,-0.14
0.62890625,0.02080153,0.023496125,-0.02196183,-0.31,0.95,-0.14,7373,10118.30,0,0,165,0.63,-2.94,0.07,-0.31,0.95,-0.14
1.6289062,0.01980153,0.024496127,-0.02296183,-0.31,0.95,-0.14,7387,10119.30,0,0,0,0.56,-2.87,0.00,-0.31,0.95,-0.14
0.62890625,0.017801529,0.022496123,-0.02296183,-0.31,0.95,-0.14,7394,10118.30,0,0,165,0.42,-3.01,0.00,-0.31,0.95,-0.14
0.62890625,0.01980153,0.024496127,-0.02196183,-0.31,0.95,-0.14,7410,10118.30,0,0,0,0.56,-2.87,0.07,-0.31,0.95,-0.14
0.62890625,0.016801529,0.023496125,-0.02096183,-0.31,0.95,-0.14,7426,10118.30,0,0,165,0.35,-2.94,0.14,-0.31,0.95,-0.14
-0.2705078,0.01980153,0.024496127,-0.02196183,-0.31,0.95,-0.14,7432,10117.40,0,0,0,0.56,-2.87,0.07,-0.31,0.95,-0.14
-0.2705078,0.01980153,0.024496127,-0.02096183,-0.31,0.95,-0.14,7449,10117.40,0,0,165,0.56,-2.87,0.14,-0.31,0.95,-0.14
-0.2705078,0.017801529,0.023496125,-0.27896184,-0.31,0.95,-0.14,7463,10117.40,0,0,0,0.42,-2.94,-17.92,-0.31,0.95,-0.14
0.62890625,0.02080153,0.024496127,-0.02096183,-0.31,0.95,-0.14,7470,10118.30,0,0,165,0.63,-2.87,0.14,-0.31,0.95,-0.14
0.62890625,0.017801529,0.023496125,-0.02396183,-0.31,0.95,-0.14,7485,10118.30,0,0,0,0.42,-2.94,-0.07,-0.31,0.95,-0.14
0.62890625,0.017801529,0.024496127,-0.02296183,-0.31,0.95,-0.14,7500,10118.30,0,0,165,0.42,-2.87,0.00,-0.31,0.95,-0.14
-0.2705078,0.021801528,0.024496127,-0.02296183,-0.31,0.95,-0.14,7508,10117.40,0,0,0,0.70,-2.87,0.00,-0.31,0.95,-0.14
0.62890625,0.017801529,0.024496127,-0.02296183,-0.31,0.95,-0.14,7522,10118.30,0,0,165,0.42,-2.87,0.00,-0.31,0.95,-0.14
-0.2705078,0.018801529,0.023496125,-0.02396183,-0.31,0.95,-0.14,7537,10117.40,0,0,0,0.49,-2.94,-0.07,-0.31,0.95,-0.14
0.62890625,0.018801529,0.023496125,-0.02296183,-0.31,0.95,-0.14,7545,10118.30,0,0,165,0.49,-2.94,0.00,-0.31,0.95,-0.14
0.62890625,0.017801529,0.024496127,-0.02196183,-0.31,0.95,-0.14,7560,10118.30,0,0,0,0.42,-2.87,0.07,-0.31,0.95,-0.14
-0.67089844,0.01980153,0.024496127,-0.02196183,-0.32,0.95,-0.14,7576,10117.00,0,0,165,0.56,-2.87,0.07,-0.32,0.95,-0.14
0.62890625,0.018801529,0.024496127,-0.02296183,-0.31,0.95,-0.14,7583,10118.30,0,0,0,0.49,-2.87,0.00,-0.31,0.95,-0.14
0.62890625,0.02080153,0.025496125,-0.02296183,-0.31,0.95,-0.14,7598,10118.30,0,0,165,0.63,-2.80,0.00,-0.31,0.95,-0.14
-0.2705078,0.01980153,0.024496127,-0.02196183,-0.31,0.95,-0.14,7613,10117.40,0,0,0,0.56,-2.87,0.07,-0.31,0.95,-0.14
-0.2705078,0.01980153,0.024496127,-0.02296183,-0.31,0.95,-0.14,7620,10117.40,0,0,165,0.56,-2.87,0.00,-0.31,0.95,-0.14
0.62890625,0.01980153,0.023496125,-0.02296183,-0.31,0.95,-0.14,7635,10118.30,0,0,0,0.56,-2.94,0.00,-0.31,0.95,-0.14
0.62890625,0.02080153,0.024496127,-0.02296183,-0.31,0.95,-0.14,7651,10118.30,0,0,165,0.63,-2.87,0.00,-0.31,0.95,-0.14
0.62890625,0.017801529,0.023496125,-0.02296183,-0.31,0.95,-0.14,7658,10118.30,0,0,0,0.42,-2.94,0.00,-0.31,0.95,-0.14
0.62890625,0.02080153,0.024496127,-0.02196183,-0.31,0.95,-0.14,7673,10118.30,0,0,165,0.63,-2.87,0.07,-0.31,0.95,-0.14
-0.2705078,0.018801529,0.024496127,-0.02296183,-0.31,0.95,-0.14,7687,10117.40,0,0,0,0.49,-2.87,0.00,-0.31,0.95,-0.14
0.62890625,0.018801529,0.023496125,-0.02196183,-0.31,0.95,-0.14,7695,10118.30,0,0,165,0.49,-2.94,0.07,-0.31,0.95,-0.14
1.6289062,0.01980153,0.023496125,-0.02296183,-0.31,0.95,-0.14,7710,10119.30,0,0,0,0.56,-2.94,0.00,-0.31,0.95,-0.14
0.32910156,0.01980153,0.024496127,-0.02096183,-0.31,0.95,-0.14,7725,10118.00,0,0,165,0.56,-2.87,0.14,-0.31,0.95,-0.14
0.62890625,0.02080153,0.024496127,-0.02296183,-0.31,0.95,-0.14,7732,10118.30,0,0,0,0.63,-2.87,0.00,-0.31,0.95,-0.14
-0.2705078,0.017801529,0.024496127,-0.02196183,-0.31,0.95,-0.14,7747,10117.40,0,0,165,0.42,-2.87,0.07,-0.31,0.95,-0.14
0.62890625,0.01980153,0.024496127,-0.02396183,-0.31,0.95,-0.14,7763,10118.30,0,0,0,0.56,-2.87,-0.07,-0.31,0.95,-0.14
1.6289062,0.01980153,0.023496125,-0.02396183,-0.31,0.95,-0.14,7770,10119.30,0,0,165,0.56,-2.94,-0.07,-0.31,0.95,-0.14
-0.2705078,0.018801529,0.023496125,-0.024961831,-0.31,0.95,-0.14,7785,10117.40,0,0,0,0.49,-2.94,-0.14,-0.31,0.95,-0.14
0.62890625,0.021801528,0.023496125,-0.02296183,-0.31,0.95,-0.14,7800,10118.30,0,0,165,0.70,-2.94,0.00,-0.31,0.95,-0.14
0.62890625,0.018801529,0.022496123,-0.02296183,-0.31,0.95,-0.14,7810,10118.30,0,0,0,0.49,-3.01,0.00,-0.31,0.95,-0.14
0.62890625,0.016801529,0.023496125,-0.02196183,-0.31,0.95,-0.14,7825,10118.30,0,0,165,0.35,-2.94,0.07,-0.31,0.95,-0.14
0.62890625,0.02080153,0.025496125,-0.02296183,-0.31,0.95,-0.14,7838,10118.30,0,0,0,0.63,-2.80,0.00,-0.31,0.95,-0.14
-0.67089844,0.017801529,0.024496127,-0.02396183,-0.31,0.95,-0.14,7845,10117.00,0,0,165,0.42,-2.87,-0.07,-0.31,0.95,-0.14
-0.2705078,0.01980153,0.024496127,-0.02096183,-0.31,0.95,-0.14,7861,10117.40,0,0,0,0.56,-2.87,0.14,-0.31,0.95,-0.14
0.62890625,0.01980153,0.024496127,-0.02096183,-0.31,0.95,-0.14,7868,10118.30,0,0,165,0.56,-2.87,0.14,-0.31,0.95,-0.14
0.62890625,0.018801529,0.024496127,-0.02196183,-0.31,0.95,-0.14,7883,10118.30,0,0,0,0.49,-2.87,0.07,-0.31,0.95,-0.14
0.62890625,0.01980153,0.023496125,-0.02296183,-0.31,0.95,-0.14,7898,10118.30,0,0,165,0.56,-2.94,0.00,-0.31,0.95,-0.14
-0.2705078,0.01980153,0.024496127,-0.02396183,-0.31,0.95,-0.14,7906,10117.40,0,0,0,0.56,-2.87,-0.07,-0.31,0.95,-0.14
0.62890625,0.018801529,0.023496125,-0.02296183,-0.31,0.95,-0.14,7920,10118.30,0,0,165,0.49,-2.94,0.00,-0.31,0.95,-0.14
0.62890625,0.017801529,0.023496125,-0.02396183,-0.31,0.95,-0.14,7935,10118.30,0,0,0,0.42,-2.94,-0.07,-0.31,0.95,-0.14
-0.2705078,0.018801529,0.023496125,0.23103818,-0.32,0.95,-0.14,7943,10117.40,0,0,165,0.49,-2.94,17.78,-0.32,0.95,-0.14
0.32910156,0.018801529,0.023496125,-0.02396183,-0.31,0.95,-0.14,7958,10118.00,0,0,0,0.49,-2.94,-0.07,-0.31,0.95,-0.14
0.62890625,0.01980153,0.022496123,-0.02196183,-0.31,0.95,-0.14,7973,10118.30,0,0,165,0.56,-3.01,0.07,-0.31,0.95,-0.14
0.62890625,0.01980153,0.024496127,-0.02196183,-0.31,0.95,-0.14,7981,10118.30,0,0,0,0.56,-2.87,0.07,-0.31,0.95,-0.14
-1.6708984,0.018801529,0.024496127,-0.02196183,-0.31,0.95,-0.14,7995,10116.00,0,0,165,0.49,-2.87,0.07,-0.31,0.95,-0.14
0.62890625,0.01980153,0.023496125,-0.02196183,-0.31,0.95,-0.14,8010,10118.30,0,0,0,0.56,-2.94,0.07,-0.31,0.95,-0.14
0.62890625,0.01980153,0.024496127,-0.02196183,-0.31,0.95,-0.14,8017,10118.30,0,0,165,0.56,-2.87,0.07,-0.31,0.95,-0.14
0.32910156,0.02080153,0.023496125,-0.02296183,-0.31,0.95,-0.14,8032,10118.00,0,0,0,0.63,-2.94,0.00,-0.31,0.95,-0.14
-0.2705078,0.018801529,0.023496125,-0.02296183,-0.31,0.95,-0.14,8047,10117.40,0,0,165,0.49,-2.94,0.00,-0.31,0.95,-0.14
-0.2705078,0.01980153,0.023496125,-0.02396183,-0.31,0.95,-0.14,8055,10117.40,0,0,0,0.56,-2.94,-0.07,-0.31,0.95,-0.14
1.6289062,0.02080153,0.023496125,-0.024961831,-0.31,0.95,-0.14,8069,10119.30,0,0,165,0.63,-2.94,-0.14,-0.31,0.95,-0.14
-0.2705078,0.01980153,0.024496127,0.23203817,-0.31,0.95,-0.14,8085,10117.40,0,0,0,0.56,-2.87,17.85,-0.31,0.95,-0.14
0.62890625,0.017801529,0.024496127,-0.27796182,-0.31,0.95,-0.14,8092,10118.30,0,0,165,0.42,-2.87,-17.85,-0.31,0.95,-0.14
0.62890625,0.017801529,0.024496127,-0.02196183,-0.31,0.95,-0.14,8107,10118.30,0,0,0,0.42,-2.87,0.07,-0.31,0.95,-0.14
-0.2705078,0.01980153,0.024496127,-0.02096183,-0.31,0.95,-0.14,8123,10117.40,0,0,165,0.56,-2.87,0.14,-0.31,0.95,-0.14
0.62890625,0.01980153,0.024496127,-0.02196183,-0.31,0.95,-0.14,8130,10118.30,0,0,0,0.56,-2.87,0.07,-0.31,0.95,-0.14
0.62890625,0.01980153,0.024496127,-0.02196183,-0.31,0.95,-0.14,8144,10118.30,0,0,165,0.56,-2.87,0.07,-0.31,0.95,-0.14
0.62890625,0.018801529,0.024496127,-0.02296183,-0.31,0.95,-0.14,8159,10118.30,0,0,0,0.49,-2.87,0.00,-0.31,0.95,-0.14
0.32910156,0.01980153,0.024496127,-0.02296183,-0.31,0.95,-0.14,8168,10118.00,0,0,165,0.56,-2.87,0.00,-0.31,0.95,-0.14
0.62890625,0.017801529,0.023496125,-0.02296183,-0.31,0.95,-0.14,8182,10118.30,0,0,0,0.42,-2.94,0.00,-0.31,0.95,-0.14
0.62890625,0.017801529,0.023496125,-0.02396183,-0.31,0.95,-0.14,8197,10118.30,0,0,165,0.42,-2.94,-0.07,-0.31,0.95,-0.14
0.62890625,0.01980153,0.023496125,-0.02296183,-0.31,0.95,-0.14,8205,10118.30,0,0,0,0.56,-2.94,0.00,-0.31,0.95,-0.14
0.62890625,0.01980153,0.024496127,-0.02396183,-0.31,0.95,-0.14,8220,10118.30,0,0,165,0.56,-2.87,-0.07,-0.31,0.95,-0.14
0.62890625,0.02080153,0.024496127,-0.02296183,-0.31,0.95,-0.14,8234,10118.30,0,0,0,0.63,-2.87,0.00,-0.31,0.95,-0.14
0.62890625,0.018801529,0.023496125,-0.024961831,-0.31,0.95,-0.14,8242,10118.30,0,0,165,0.49,-2.94,-0.14,-0.31,0.95,-0.14
0.62890625,0.018801529,0.024496127,-0.02196183,-0.31,0.95,-0.14,8258,10118.30,0,0,0,0.49,-2.87,0.07,-0.31,0.95,-0.14
-0.2705078,0.01980153,0.022496123,-0.02296183,-0.31,0.95,-0.14,8265,10117.40,0,0,165,0.56,-3.01,0.00,-0.31,0.95,-0.14
0.62890625,0.018801529,0.024496127,-0.02196183,-0.31,0.95,-0.14,8280,10118.30,0,0,0,0.49,-2.87,0.07,-0.31,0.95,-0.14
0.62890625,0.01980153,0.023496125,-0.02196183,-0.31,0.95,-0.14,8295,10118.30,0,0,165,0.56,-2.94,0.07,-0.31,0.95,-0.14
0.62890625,0.018801529,0.024496127,-0.02196183,-0.31,0.95,-0.14,8302,10118.30,0,0,0,0.49,-2.87,0.07,-0.31,0.95,-0.14
0.62890625,0.02080153,0.024496127,-0.02296183,-0.31,0.95,-0.14,8316,10118.30,0,0,165,0.63,-2.87,0.00,-0.31,0.95,-0.14
0.32910156,0.018801529,0.023496125,-0.02396183,-0.31,0.95,-0.14,8332,10118.00,0,0,0,0.49,-2.94,-0.07,-0.31,0.95,-0.14
0.62890625,0.01980153,0.023496125,-0.02396183,-0.31,0.95,-0.14,8340,10118.30,0,0,165,0.56,-2.94,-0.07,-0.31,0.95,-0.14
0.62890625,0.01980153,0.024496127,-0.02196183,-0.31,0.95,-0.14,8355,10118.30,0,0,0,0.56,-2.87,0.07,-0.31,0.95,-0.14
0.62890625,0.01980153,0.022496123,-0.02296183,-0.31,0.95,-0.14,8370,10118.30,0,0,165,0.56,-3.01,0.00,-0.31,0.95,-0.14
0.62890625,0.018801529,0.024496127,-0.02096183,-0.31,0.95,-0.14,8377,10118.30,0,0,0,0.49,-2.87,0.14,-0.31,0.95,-0.14
0.62890625,0.017801529,0.024496127,-0.02296183,-0.31,0.95,-0.14,8393,10118.30,0,0,165,0.42,-2.87,0.00,-0.31,0.95,-0.14
0.62890625,0.018801529,0.024496127,-0.02196183,-0.31,0.95,-0.14,8409,10118.30,0,0,0,0.49,-2.87,0.07,-0.31,0.95,-0.14
0.62890625,0.01980153,0.024496127,-0.02196183,-0.31,0.95,-0.14,8415,10118.30,0,0,165,0.56,-2.87,0.07,-0.31,0.95,-0.14
0.32910156,0.02080153,0.024496127,-0.02196183,-0.31,0.95,-0.14,8430,10118.00,0,0,0,0.63,-2.87,0.07,-0.31,0.95,-0.14
0.62890625,0.02080153,0.023496125,-0.02196183,-0.31,0.95,-0.14,8445,10118.30,0,0,165,0.63,-2.94,0.07,-0.31,0.95,-0.14
-0.2705078,0.018801529,0.024496127,-0.02096183,-0.31,0.95,-0.14,8452,10117.40,0,0,0,0.49,-2.87,0.14,-0.31,0.95,-0.14
0.32910156,0.018801529,0.023496125,-0.02296183,-0.31,0.95,-0.14,8467,10118.00,0,0,165,0.49,-2.94,0.00,-0.31,0.95,-0.14
0.62890625,0.018801529,0.023496125,-0.02296183,-0.31,0.95,-0.14,8483,10118.30,0,0,0,0.49,-2.94,0.00,-0.31,0.95,-0.14
0.62890625,0.01980153,0.024496127,-0.02396183,-0.31,0.95,-0.14,8490,10118.30,0,0,165,0.56,-2.87,-0.07,-0.31,0.95,-0.14
0.32910156,0.01980153,0.023496125,-0.02396183,-0.31,0.95,-0.14,8505,10118.00,0,0,0,0.56,-2.94,-0.07,-0.31,0.95,-0.14
0.62890625,0.01980153,0.025496125,-0.02396183,-0.32,0.95,-0.14,8520,10118.30,0,0,165,0.56,-2.80,-0.07,-0.32,0.95,-0.14
0.62890625,0.017801529,0.024496127,-0.02296183,-0.31,0.95,-0.14,8527,10118.30,0,0,0,0.42,-2.87,0.00,-0.31,0.95,-0.14
0.32910156,0.02080153,0.024496127,-0.02296183,-0.31,0.95,-0.14,8542,10118.00,0,0,165,0.63,-2.87,0.00,-0.31,0.95,-0.14
0.62890625,0.018801529,0.024496127,-0.02196183,-0.31,0.95,-0.14,8557,10118.30,0,0,0,0.49,-2.87,0.07,-0.31,0.95,-0.14
-0.2705078,0.02080153,0.024496127,-0.02096183,-0.31,0.95,-0.14,8565,10117.40,0,0,165,0.63,-2.87,0.14,-0.31,0.95,-0.14
0.32910156,0.02080153,0.024496127,-0.02196183,-0.31,0.95,-0.14,8580,10118.00,0,0,0,0.63,-2.87,0.07,-0.31,0.95,-0.14
0.62890625,0.01980153,0.023496125,-0.02296183,-0.31,0.95,-0.14,8594,10118.30,0,0,165,0.56,-2.94,0.00,-0.31,0.95,-0.14
1.3291016,0.017801529,0.024496127,-0.02396183,-0.31,0.95,-0.14,8602,10119.00,0,0,0,0.42,-2.87,-0.07,-0.31,0.95,-0.14
0.62890625,0.018801529,0.024496127,-0.02296183,-0.31,0.95,-0.14,8617,10118.30,0,0,165,0.49,-2.87,0.00,-0.31,0.95,-0.14
0.62890625,0.01980153,0.024496127,-0.02296183,-0.31,0.95,-0.14,8632,10118.30,0,0,0,0.56,-2.87,0.00,-0.31,0.95,-0.14
0.62890625,0.02080153,0.023496125,-0.024961831,-0.31,0.95,-0.14,8640,10118.30,0,0,165,0.63,-2.94,-0.14,-0.31,0.95,-0.14
1.6289062,0.017801529,0.023496125,-0.02196183,-0.31,0.95,-0.14,8655,10119.30,0,0,0,0.42,-2.94,0.07,-0.31,0.95,-0.14
0.62890625,0.01980153,0.024496127,-0.02296183,-0.32,0.95,-0.14,8670,10118.30,0,0,165,0.56,-2.87,0.00,-0.32,0.95,-0.14
0.62890625,0.02080153,0.023496125,-0.02096183,-0.31,0.95,-0.14,8677,10118.30,0,0,0,0.63,-2.94,0.14,-0.31,0.95,-0.14
0.62890625,0.018801529,0.024496127,-0.02296183,-0.32,0.95,-0.14,8693,10118.30,0,0,165,0.49,-2.87,0.00,-0.32,0.95,-0.14
0.62890625,0.02080153,0.024496127,-0.02096183,-0.31,0.95,-0.14,8708,10118.30,0,0,0,0.63,-2.87,0.14,-0.31,0.95,-0.14
0.62890625,0.01980153,0.023496125,-0.02096183,-0.31,0.95,-0.14,8715,10118.30,0,0,165,0.56,-2.94,0.14,-0.31,0.95,-0.14
0.62890625,0.016801529,0.024496127,-0.02096183,-0.31,0.95,-0.14,8730,10118.30,0,0,0,0.35,-2.87,0.14,-0.31,0.95,-0.14
0.62890625,0.01980153,0.021496125,-0.02096183,-0.31,0.95,-0.14,8745,10118.30,0,0,165,0.56,-3.08,0.14,-0.31,0.95,-0.14
1.3291016,0.02280153,0.024496127,-0.02396183,-0.31,0.95,-0.14,8752,10119.00,0,0,0,0.77,-2.87,-0.07,-0.31,0.95,-0.14
0.62890625,0.02280153,0.023496125,-0.026961831,-0.31,0.95,-0.15,8767,10118.30,0,0,165,0.77,-2.94,-0.28,-0.31,0.95,-0.15
1.6289062,0.01980153,0.023496125,-0.02896183,-0.32,0.95,-0.14,8782,10119.30,0,0,0,0.56,-2.94,-0.42,-0.32,0.95,-0.14
-0.2705078,0.018801529,0.023496125,-0.024961831,-0.32,0.94,-0.14,8790,10117.40,0,0,165,0.49,-2.94,-0.14,-0.32,0.94,-0.14
0.32910156,0.015801528,0.024496127,-0.02196183,-0.32,0.95,-0.14,8805,10118.00,0,0,0,0.28,-2.87,0.07,-0.32,0.95,-0.14
1.6289062,0.018801529,0.026496124,-0.01796183,-0.32,0.95,-0.14,8820,10119.30,0,0,165,0.49,-2.73,0.35,-0.32,0.95,-0.14
0.62890625,0.015801528,0.023496125,-0.016961832,-0.31,0.95,-0.14,8827,10118.30,0,0,0,0.28,-2.94,0.42,-0.31,0.95,-0.14
0.32910156,0.02080153,0.023496125,-0.01896183,-0.31,0.95,-0.14,8843,10118.00,0,0,165,0.63,-2.94,0.28,-0.31,0.95,-0.14
0.62890625,0.02280153,0.023496125,0.23203817,-0.31,0.95,-0.14,8860,10118.30,0,0,0,0.77,-2.94,17.85,-0.31,0.95,-0.14
0.62890625,0.02080153,0.024496127,-0.027961832,-0.31,0.95,-0.14,8865,10118.30,0,0,165,0.63,-2.87,-0.35,-0.31,0.95,-0.14
1.6289062,0.02280153,0.025496125,-0.024961831,-0.31,0.95,-0.14,8880,10119.30,0,0,0,0.77,-2.80,-0.14,-0.31,0.95,-0.14
0.32910156,0.014801528,0.024496127,-0.02396183,-0.31,0.95,-0.14,8895,10118.00,0,0,165,0.21,-2.87,-0.07,-0.31,0.95,-0.14
0.62890625,0.015801528,0.023496125,-0.02096183,-0.31,0.95,-0.14,8902,10118.30,0,0,0,0.28,-2.94,0.14,-0.31,0.95,-0.14
-0.2705078,0.017801529,0.023496125,-0.01896183,-0.31,0.95,-0.14,8917,10117.40,0,0,165,0.42,-2.94,0.28,-0.31,0.95,-0.14
0.62890625,0.015801528,0.023496125,-0.02196183,-0.32,0.95,-0.14,8933,10118.30,0,0,0,0.28,-2.94,0.07,-0.32,0.95,-0.14
0.62890625,0.023801528,0.024496127,-0.02296183,-0.32,0.95,-0.14,8940,10118.30,0,0,165,0.84,-2.87,0.00,-0.32,0.95,-0.14
0.62890625,0.02280153,0.024496127,-0.026961831,-0.31,0.95,-0.14,8955,10118.30,0,0,0,0.77,-2.87,-0.28,-0.31,0.95,-0.14
0.62890625,0.02080153,0.024496127,-0.025961831,-0.32,0.95,-0.14,8970,10118.30,0,0,165,0.63,-2.87,-0.21,-0.32,0.95,-0.14
0.62890625,0.02080153,0.024496127,-0.02096183,-0.31,0.95,-0.14,8977,10118.30,0,0,0,0.63,-2.87,0.14,-0.31,0.95,-0.14
0.62890625,0.015801528,0.022496123,-0.02096183,-0.31,0.95,-0.14,8992,10118.30,0,0,165,0.28,-3.01,0.14,-0.31,0.95,-0.14
0.62890625,0.016801529,0.024496127,-0.01796183,-0.31,0.95,-0.14,9007,10118.30,0,0,0,0.35,-2.87,0.35,-0.31,0.95,-0.14
0.62890625,0.01980153,0.023496125,-0.02196183,-0.31,0.95,-0.14,9014,10118.30,0,0,165,0.56,-2.94,0.07,-0.31,0.95,-0.14
2.6289062,0.01980153,0.023496125,-0.02396183,-0.31,0.95,-0.14,9029,10120.30,0,0,0,0.56,-2.94,-0.07,-0.31,0.95,-0.14
0.62890625,0.02280153,0.024496127,-0.024961831,-0.31,0.95,-0.14,9045,10118.30,0,0,165,0.77,-2.87,-0.14,-0.31,0.95,-0.14
0.62890625,0.021801528,0.024496127,-0.02396183,-0.31,0.95,-0.14,9052,10118.30,0,0,0,0.70,-2.87,-0.07,-0.31,0.95,-0.14
1.6289062,0.016801529,0.026496124,-0.02396183,-0.31,0.95,-0.14,9067,10119.30,0,0,165,0.35,-2.73,-0.07,-0.31,0.95,-0.14
0.62890625,0.012801529,0.028496124,-0.02196183,-0.31,0.95,-0.14,9082,10118.30,0,0,0,0.07,-2.59,0.07,-0.31,0.95,-0.14
0.62890625,0.026801528,0.025496125,-0.01796183,-0.31,0.96,-0.14,9090,10118.30,0,0,165,1.05,-2.80,0.35,-0.31,0.96,-0.14
0.62890625,0.04880153,0.018496126,-0.01796183,-0.31,0.95,-0.14,9105,10118.30,0,0,0,2.59,-3.29,0.35,-0.31,0.95,-0.14
0.62890625,-0.06219847,0.054496124,-0.04096183,-0.3,0.96,-0.17,9119,10118.30,0,0,165,-5.18,-0.77,-1.26,-0.30,0.96,-0.17
0.62890625,-0.050198473,0.059496123,-0.044961832,-0.32,0.94,-0.14,9127,10118.30,0,0,0,-4.34,-0.42,-1.54,-0.32,0.94,-0.14
-0.2705078,-0.02819847,0.025496125,-0.029961832,-0.32,0.96,-0.13,9142,10117.40,0,0,165,-2.80,-2.80,-0.49,-0.32,0.96,-0.13
0.32910156,0.05680153,0.03449612,-0.007961831,-0.32,0.96,-0.14,9158,10118.00,0,0,0,3.15,-2.17,1.05,-0.32,0.96,-0.14
0.62890625,0.013801529,0.024496127,-0.033961833,-0.31,0.95,-0.14,9164,10118.30,0,0,165,0.14,-2.87,-0.77,-0.31,0.95,-0.14
0.32910156,0.006801529,0.028496124,-0.02296183,-0.32,0.95,-0.14,9180,10118.00,0,0,0,-0.35,-2.59,0.00,-0.32,0.95,-0.14
0.62890625,0.010801529,0.023496125,-0.013961831,-0.31,0.95,-0.15,9195,10118.30,0,0,165,-0.07,-2.94,0.63,-0.31,0.95,-0.15
-0.2705078,-0.01219847,0.020496123,-0.02396183,-0.31,0.96,-0.13,9204,10117.40,0,0,0,-1.68,-3.15,-0.07,-0.31,0.96,-0.13
2.6289062,0.04580153,0.029496126,-0.02096183,-0.32,0.95,-0.14,9219,10120.30,0,0,165,2.38,-2.52,0.14,-0.32,0.95,-0.14
1.6289062,0.032801528,0.027496122,-0.029961832,-0.31,0.94,-0.15,9236,10119.30,0,0,0,1.47,-2.66,-0.49,-0.31,0.94,-0.15
1.6289062,0.0028015291,0.022496123,-0.024961831,-0.32,0.95,-0.14,9243,10119.30,0,0,165,-0.63,-3.01,-0.14,-0.32,0.95,-0.14
0.62890625,0.013801529,0.021496125,-0.01496183,-0.31,0.95,-0.14,9255,10118.30,0,0,0,0.14,-3.08,0.56,-0.31,0.95,-0.14
1.3291016,0.015801528,0.024496127,-0.024961831,-0.31,0.95,-0.14,9270,10119.00,0,0,165,0.28,-2.87,-0.14,-0.31,0.95,-0.14
0.62890625,0.029801529,0.025496125,0.23103818,-0.31,0.95,-0.14,9277,10118.30,0,0,0,1.26,-2.80,17.78,-0.31,0.95,-0.14
0.32910156,0.02280153,0.024496127,-0.02096183,-0.31,0.95,-0.14,9296,10118.00,0,0,165,0.77,-2.87,0.14,-0.31,0.95,-0.14
0.62890625,0.005801529,0.021496125,-0.02296183,-0.31,0.95,-0.14,9308,10118.30,0,0,0,-0.42,-3.08,0.00,-0.31,0.95,-0.14
0.62890625,0.02080153,0.024496127,-0.02096183,-0.31,0.95,-0.14,9315,10118.30,0,0,165,0.63,-2.87,0.14,-0.31,0.95,-0.14
0.32910156,0.025801528,0.026496124,-0.025961831,-0.31,0.95,-0.14,9329,10118.00,0,0,0,0.98,-2.73,-0.21,-0.31,0.95,-0.14
0.62890625,0.023801528,0.025496125,-0.02196183,-0.32,0.94,-0.14,9344,10118.30,0,0,165,0.84,-2.80,0.07,-0.32,0.94,-0.14
0.62890625,0.017801529,0.024496127,-0.01796183,-0.32,0.95,-0.14,9352,10118.30,0,0,0,0.42,-2.87,0.35,-0.32,0.95,-0.14
1.6289062,0.015801528,0.024496127,-0.02196183,-0.31,0.95,-0.14,9367,10119.30,0,0,165,0.28,-2.87,0.07,-0.31,0.95,-0.14
0.32910156,0.02280153,0.024496127,-0.02296183,-0.31,0.95,-0.14,9382,10118.00,0,0,0,0.77,-2.87,0.00,-0.31,0.95,-0.14
0.62890625,0.02280153,0.022496123,-0.024961831,-0.31,0.95,-0.14,9390,10118.30,0,0,165,0.77,-3.01,-0.14,-0.31,0.95,-0.14
1.6289062,0.015801528,0.022496123,-0.02396183,-0.31,0.95,-0.14,9404,10119.30,0,0,0,0.28,-3.01,-0.07,-0.31,0.95,-0.14
0.62890625,0.014801528,0.022496123,-0.02196183,-0.31,0.95,-0.14,9419,10118.30,0,0,165,0.21,-3.01,0.07,-0.31,0.95,-0.14
0.32910156,0.017801529,0.023496125,-0.02196183,-0.31,0.95,-0.14,9427,10118.00,0,0,0,0.42,-2.94,0.07,-0.31,0.95,-0.14
0.62890625,0.01980153,0.024496127,-0.02196183,-0.31,0.95,-0.14,9442,10118.30,0,0,165,0.56,-2.87,0.07,-0.31,0.95,-0.14
1.6289062,0.017801529,0.023496125,-0.01996183,-0.31,0.95,-0.14,9458,10119.30,0,0,0,0.42,-2.94,0.21,-0.31,0.95,-0.14
0.62890625,0.017801529,0.022496123,-0.02096183,-0.31,0.95,-0.14,9464,10118.30,0,0,165,0.42,-3.01,0.14,-0.31,0.95,-0.14
0.62890625,0.023801528,0.026496124,-0.024961831,-0.32,0.95,-0.14,9480,10118.30,0,0,0,0.84,-2.73,-0.14,-0.32,0.95,-0.14
0.62890625,0.02280153,0.025496125,-0.025961831,-0.32,0.95,-0.14,9494,10118.30,0,0,165,0.77,-2.80,-0.21,-0.32,0.95,-0.14
0.62890625,0.02080153,0.024496127,-0.02296183,-0.31,0.95,-0.14,9502,10118.30,0,0,0,0.63,-2.87,0.00,-0.31,0.95,-0.14
0.62890625,0.016801529,0.023496125,-0.02296183,-0.31,0.95,-0.14,9518,10118.30,0,0,165,0.35,-2.94,0.00,-0.31,0.95,-0.14
-0.2705078,0.017801529,0.022496123,-0.02096183,-0.32,0.95,-0.14,9533,10117.40,0,0,0,0.42,-3.01,0.14,-0.32,0.95,-0.14
1.6289062,0.016801529,0.022496123,-0.02196183,-0.31,0.95,-0.14,9540,10119.30,0,0,165,0.35,-3.01,0.07,-0.31,0.95,-0.14
0.62890625,0.02080153,0.023496125,-0.02396183,-0.31,0.95,-0.14,9555,10118.30,0,0,0,0.63,-2.94,-0.07,-0.31,0.95,-0.14
0.62890625,0.01980153,0.024496127,-0.02396183,-0.32,0.95,-0.14,9570,10118.30,0,0,165,0.56,-2.87,-0.07,-0.32,0.95,-0.14
0.32910156,0.02080153,0.024496127,-0.02296183,-0.32,0.95,-0.14,9578,10118.00,0,0,0,0.63,-2.87,0.00,-0.32,0.95,-0.14
1.6289062,0.02080153,0.024496127,-0.02296183,-0.32,0.95,-0.14,9592,10119.30,0,0,165,0.63,-2.87,0.00,-0.32,0.95,-0.14
0.62890625,0.025801528,0.028496124,-0.02196183,-0.32,0.95,-0.14,9607,10118.30,0,0,0,0.98,-2.59,0.07,-0.32,0.95,-0.14
0.32910156,0.012801529,0.023496125,-0.01996183,-0.32,0.95,-0.14,9614,10118.00,0,0,165,0.07,-2.94,0.21,-0.32,0.95,-0.14
1.6289062,0.02080153,0.025496125,-0.02096183,-0.32,0.95,-0.14,9629,10119.30,0,0,0,0.63,-2.80,0.14,-0.32,0.95,-0.14
0.62890625,0.02280153,0.024496127,-0.02396183,-0.31,0.95,-0.14,9645,10118.30,0,0,165,0.77,-2.87,-0.07,-0.31,0.95,-0.14
0.32910156,0.017801529,0.025496125,-0.025961831,-0.31,0.95,-0.14,9652,10118.00,0,0,0,0.42,-2.80,-0.21,-0.31,0.95,-0.14
1.6289062,0.021801528,0.023496125,-0.02396183,-0.31,0.95,-0.14,9675,10119.30,0,0,165,0.70,-2.94,-0.07,-0.31,0.95,-0.14
0.62890625,0.016801529,0.022496123,-0.02396183,-0.31,0.95,-0.14,9682,10118.30,0,0,0,0.35,-3.01,-0.07,-0.31,0.95,-0.14
-0.2705078,0.018801529,0.024496127,-0.01996183,-0.31,0.95,-0.14,9690,10117.40,0,0,165,0.49,-2.87,0.21,-0.31,0.95,-0.14
1.6289062,0.017801529,0.022496123,-0.02296183,-0.31,0.95,-0.14,9705,10119.30,0,0,0,0.42,-3.01,0.00,-0.31,0.95,-0.14
0.62890625,0.017801529,0.024496127,-0.02296183,-0.31,0.95,-0.14,9719,10118.30,0,0,165,0.42,-2.87,0.00,-0.31,0.95,-0.14
0.62890625,0.01980153,0.023496125,-0.02196183,-0.31,0.95,-0.14,9727,10118.30,0,0,0,0.56,-2.94,0.07,-0.31,0.95,-0.14
0.62890625,0.02080153,0.024496127,-0.024961831,-0.31,0.95,-0.14,9742,10118.30,0,0,165,0.63,-2.87,-0.14,-0.31,0.95,-0.14
0.32910156,0.021801528,0.024496127,-0.02396183,-0.31,0.95,-0.14,9757,10118.00,0,0,0,0.70,-2.87,-0.07,-0.31,0.95,-0.14
0.62890625,0.016801529,0.024496127,-0.02396183,-0.31,0.95,-0.14,9764,10118.30,0,0,165,0.35,-2.87,-0.07,-0.31,0.95,-0.14
0.62890625,0.017801529,0.022496123,-0.02296183,-0.31,0.95,-0.14,9779,10118.30,0,0,0,0.42,-3.01,0.00,-0.31,0.95,-0.14
0.62890625,0.017801529,0.023496125,-0.02196183,-0.31,0.95,-0.14,9795,10118.30,0,0,165,0.42,-2.94,0.07,-0.31,0.95,-0.14
0.62890625,0.018801529,0.022496123,-0.02296183,-0.31,0.95,-0.14,9802,10118.30,0,0,0,0.49,-3.01,0.00,-0.31,0.95,-0.14
1.3291016,0.02080153,0.024496127,-0.02196183,-0.32,0.95,-0.14,9817,10119.00,0,0,165,0.63,-2.87,0.07,-0.32,0.95,-0.14
1.6289062,0.02080153,0.024496127,-0.27896184,-0.32,0.95,-0.14,9832,10119.30,0,0,0,0.63,-2.87,-17.92,-0.32,0.95,-0.14
0.62890625,0.021801528,0.025496125,-0.024961831,-0.32,0.95,-0.14,9840,10118.30,0,0,165,0.70,-2.80,-0.14,-0.32,0.95,-0.14
0.32910156,0.023801528,0.026496124,-0.02196183,-0.32,0.95,-0.14,9854,10118.00,0,0,0,0.84,-2.73,0.07,-0.32,0.95,-0.14
1.6289062,0.017801529,0.025496125,-0.02196183,-0.31,0.95,-0.14,9869,10119.30,0,0,165,0.42,-2.80,0.07,-0.31,0.95,-0.14
1.3291016,0.016801529,0.023496125,-0.01996183,-0.31,0.95,-0.14,9877,10119.00,0,0,0,0.35,-2.94,0.21,-0.31,0.95,-0.14
0.32910156,0.01980153,0.024496127,-0.02096183,-0.31,0.95,-0.14,9893,10118.00,0,0,165,0.56,-2.87,0.14,-0.31,0.95,-0.14
0.32910156,0.01980153,0.024496127,-0.02296183,-0.31,0.95,-0.14,9908,10118.00,0,0,0,0.56,-2.87,0.00,-0.31,0.95,-0.14
0.62890625,0.018801529,0.022496123,-0.02196183,-0.31,0.95,-0.14,9915,10118.30,0,0,165,0.49,-3.01,0.07,-0.31,0.95,-0.14
0.32910156,0.017801529,0.023496125,-0.024961831,-0.31,0.95,-0.14,9930,10118.00,0,0,0,0.42,-2.94,-0.14,-0.31,0.95,-0.14
1.6289062,0.01980153,0.023496125,-0.02296183,-0.31,0.95,-0.14,9945,10119.30,0,0,165,0.56,-2.94,0.00,-0.31,0.95,-0.14
0.62890625,0.01980153,0.022496123,-0.02096183,-0.31,0.95,-0.14,9952,10118.30,0,0,0,0.56,-3.01,0.14,-0.31,0.95,-0.14
1.6289062,0.016801529,0.023496125,-0.02296183,-0.31,0.95,-0.14,9968,10119.30,0,0,165,0.35,-2.94,0.00,-0.31,0.95,-0.14
1.6289062,0.02080153,0.023496125,-0.02096183,-0.32,0.95,-0.14,9983,10119.30,0,0,0,0.63,-2.94,0.14,-0.32,0.95,-0.14
1.3291016,0.01980153,0.024496127,-0.024961831,-0.32,0.95,-0.14,9990,10119.00,0,0,165,0.56,-2.87,-0.14,-0.32,0.95,-0.14
0.62890625,0.021801528,0.025496125,-0.02396183,-0.32,0.95,-0.14,10005,10118.30,0,0,0,0.70,-2.80,-0.07,-0.32,0.95,-0.14
0.32910156,0.023801528,0.023496125,-0.02296183,-0.32,0.95,-0.14,10020,10118.00,0,0,165,0.84,-2.94,0.00,-0.32,0.95,-0.14
0.32910156,0.018801529,0.023496125,-0.024961831,-0.32,0.95,-0.14,10028,10118.00,0,0,0,0.49,-2.94,-0.14,-0.32,0.95,-0.14
1.6289062,0.01980153,0.024496127,-0.02296183,-0.32,0.95,-0.14,10043,10119.30,0,0,165,0.56,-2.87,0.00,-0.32,0.95,-0.14
-0.67089844,0.016801529,0.024496127,-0.01996183,-0.31,0.95,-0.14,10058,10117.00,0,0,0,0.35,-2.87,0.21,-0.31,0.95,-0.14
1.3291016,0.014801528,0.024496127,-0.01896183,-0.31,0.95,-0.14,10065,10119.00,0,0,165,0.21,-2.87,0.28,-0.31,0.95,-0.14
1.3291016,0.01980153,0.024496127,-0.01996183,-0.31,0.95,-0.14,10080,10119.00,0,0,0,0.56,-2.87,0.21,-0.31,0.95,-0.14
0.62890625,0.017801529,0.025496125,-0.02396183,-0.31,0.95,-0.14,10094,10118.30,0,0,165,0.42,-2.80,-0.07,-0.31,0.95,-0.14
1.6289062,0.02280153,0.025496125,-0.024961831,-0.31,0.95,-0.14,10102,10119.30,0,0,0,0.77,-2.80,-0.14,-0.31,0.95,-0.14
0.32910156,0.021801528,0.026496124,-0.024961831,-0.31,0.95,-0.14,10117,10118.00,0,0,165,0.70,-2.73,-0.14,-0.31,0.95,-0.14
-0.2705078,0.017801529,0.024496127,-0.024961831,-0.31,0.95,-0.14,10132,10117.40,0,0,0,0.42,-2.87,-0.14,-0.31,0.95,-0.14
0.62890625,0.018801529,0.025496125,-0.02096183,-0.32,0.95,-0.14,10140,10118.30,0,0,165,0.49,-2.80,0.14,-0.32,0.95,-0.14
0.62890625,0.017801529,0.025496125,-0.02196183,-0.32,0.95,-0.14,10154,10118.30,0,0,0,0.42,-2.80,0.07,-0.32,0.95,-0.14
1.6289062,0.02080153,0.023496125,-0.02296183,-0.32,0.95,-0.14,10170,10119.30,0,0,165,0.63,-2.94,0.00,-0.32,0.95,-0.14
1.3291016,0.02080153,0.023496125,-0.02396183,-0.31,0.95,-0.14,10177,10119.00,0,0,0,0.63,-2.94,-0.07,-0.31,0.95,-0.14
0.62890625,0.021801528,0.023496125,-0.02396183,-0.31,0.95,-0.14,10192,10118.30,0,0,165,0.70,-2.94,-0.07,-0.31,0.95,-0.14
0.32910156,0.018801529,0.025496125,-0.02296183,-0.31,0.95,-0.14,10208,10118.00,0,0,0,0.49,-2.80,0.00,-0.31,0.95,-0.14
1.6289062,0.017801529,0.024496127,-0.02296183,-0.31,0.95,-0.14,10215,10119.30,0,0,165,0.42,-2.87,0.00,-0.31,0.95,-0.14
0.62890625,0.016801529,0.025496125,-0.01996183,-0.31,0.95,-0.14,10230,10118.30,0,0,0,0.35,-2.80,0.21,-0.31,0.95,-0.14
1.3291016,0.015801528,0.023496125,-0.02096183,-0.31,0.95,-0.13,10245,10119.00,0,0,165,0.28,-2.94,0.14,-0.31,0.95,-0.13
0.62890625,0.02080153,0.023496125,-0.02196183,-0.31,0.95,-0.14,10252,10118.30,0,0,0,0.63,-2.94,0.07,-0.31,0.95,-0.14
0.62890625,0.021801528,0.023496125,-0.024961831,-0.31,0.95,-0.14,10278,10118.30,0,0,165,0.70,-2.94,-0.14,-0.31,0.95,-0.14
1.3291016,0.02280153,0.024496127,-0.024961831,-0.32,0.95,-0.14,10286,10119.00,0,0,0,0.77,-2.87,-0.14,-0.32,0.95,-0.14
0.62890625,0.023801528,0.024496127,-0.02396183,-0.31,0.95,-0.14,10294,10118.30,0,0,165,0.84,-2.87,-0.07,-0.31,0.95,-0.14
0.62890625,0.02080153,0.025496125,-0.02396183,-0.31,0.95,-0.14,10306,10118.30,0,0,0,0.63,-2.80,-0.07,-0.31,0.95,-0.14
1.3291016,0.017801529,0.023496125,-0.024961831,-0.32,0.95,-0.14,10320,10119.00,0,0,165,0.42,-2.94,-0.14,-0.32,0.95,-0.14
1.6289062,0.017801529,0.024496127,-0.02096183,-0.32,0.95,-0.14,10327,10119.30,0,0,0,0.42,-2.87,0.14,-0.32,0.95,-0.14
1.6289062,0.018801529,0.024496127,-0.02196183,-0.32,0.95,-0.14,10342,10119.30,0,0,165,0.49,-2.87,0.07,-0.32,0.95,-0.14
0.32910156,0.018801529,0.023496125,-0.02296183,-0.32,0.95,-0.14,10358,10118.00,0,0,0,0.49,-2.94,0.00,-0.32,0.95,-0.14
1.3291016,0.018801529,0.024496127,-0.02296183,-0.31,0.95,-0.14,10365,10119.00,0,0,165,0.49,-2.87,0.00,-0.31,0.95,-0.14
0.32910156,0.018801529,0.024496127,-0.02196183,-0.31,0.95,-0.14,10379,10118.00,0,0,0,0.49,-2.87,0.07,-0.31,0.95,-0.14
1.6289062,0.016801529,0.023496125,-0.02096183,-0.31,0.95,-0.14,10394,10119.30,0,0,165,0.35,-2.94,0.14,-0.31,0.95,-0.14
1.3291016,0.016801529,0.024496127,-0.02096183,-0.31,0.95,-0.13,10402,10119.00,0,0,0,0.35,-2.87,0.14,-0.31,0.95,-0.13
1.6289062,0.021801528,0.023496125,-0.02196183,-0.31,0.95,-0.14,10417,10119.30,0,0,165,0.70,-2.94,0.07,-0.31,0.95,-0.14
0.62890625,0.021801528,0.024496127,-0.024961831,-0.31,0.95,-0.14,10432,10118.30,0,0,0,0.70,-2.87,-0.14,-0.31,0.95,-0.14
0.62890625,0.021801528,0.025496125,-0.024961831,-0.31,0.95,-0.14,10440,10118.30,0,0,165,0.70,-2.80,-0.14,-0.31,0.95,-0.14
1.3291016,0.02280153,0.025496125,-0.024961831,-0.31,0.95,-0.14,10455,10119.00,0,0,0,0.77,-2.80,-0.14,-0.31,0.95,-0.14
0.32910156,0.018801529,0.024496127,-0.02396183,-0.31,0.95,-0.14,10470,10118.00,0,0,165,0.49,-2.87,-0.07,-0.31,0.95,-0.14
0.32910156,0.01980153,0.023496125,-0.02196183,-0.32,0.95,-0.14,10477,10118.00,0,0,0,0.56,-2.94,0.07,-0.32,0.95,-0.14
0.32910156,0.015801528,0.024496127,-0.02096183,-0.32,0.95,-0.14,10492,10118.00,0,0,165,0.28,-2.87,0.14,-0.32,0.95,-0.14
-0.2705078,0.018801529,0.023496125,-0.02096183,-0.32,0.95,-0.14,10507,10117.40,0,0,0,0.49,-2.94,0.14,-0.32,0.95,-0.14
0.32910156,0.02080153,0.024496127,-0.02196183,-0.32,0.95,-0.14,10514,10118.00,0,0,165,0.63,-2.87,0.07,-0.32,0.95,-0.14
1.3291016,0.02080153,0.023496125,-0.02196183,-0.31,0.95,-0.14,10529,10119.00,0,0,0,0.63,-2.94,0.07,-0.31,0.95,-0.14
0.32910156,0.02080153,0.024496127,-0.02196183,-0.31,0.95,-0.14,10544,10118.00,0,0,165,0.63,-2.87,0.07,-0.31,0.95,-0.14
1.3291016,0.016801529,0.024496127,-0.02096183,-0.31,0.95,-0.14,10552,10119.00,0,0,0,0.35,-2.87,0.14,-0.31,0.95,-0.14
-0.2705078,0.015801528,0.023496125,-0.02096183,-0.31,0.95,-0.13,10567,10117.40,0,0,165,0.28,-2.94,0.14,-0.31,0.95,-0.13
1.6289062,0.02080153,0.024496127,-0.02196183,-0.31,0.95,-0.14,10582,10119.30,0,0,0,0.63,-2.87,0.07,-0.31,0.95,-0.14
1.3291016,0.02280153,0.025496125,-0.02396183,-0.31,0.95,-0.14,10590,10119.00,0,0,165,0.77,-2.80,-0.07,-0.31,0.95,-0.14
-0.67089844,0.021801528,0.023496125,-0.024961831,-0.31,0.95,-0.14,10604,10117.00,0,0,0,0.70,-2.94,-0.14,-0.31,0.95,-0.14
1.6289062,0.014801528,0.024496127,-0.02396183,-0.31,0.95,-0.14,10619,10119.30,0,0,165,0.21,-2.87,-0.07,-0.31,0.95,-0.14
0.62890625,0.02480153,0.025496125,-0.02196183,-0.31,0.95,-0.14,10627,10118.30,0,0,0,0.91,-2.80,0.07,-0.31,0.95,-0.14
0.62890625,0.016801529,0.026496124,-0.02396183,-0.32,0.95,-0.14,10642,10118.30,0,0,165,0.35,-2.73,-0.07,-0.32,0.95,-0.14
1.3291016,0.011801529,0.026496124,-0.02096183,-0.31,0.95,-0.14,10659,10119.00,0,0,0,0.00,-2.73,0.14,-0.31,0.95,-0.14
1.6289062,0.013801529,0.024496127,-0.01896183,-0.31,0.95,-0.14,10665,10119.30,0,0,165,0.14,-2.87,0.28,-0.31,0.95,-0.14
0.32910156,0.016801529,0.024496127,-0.02096183,-0.31,0.95,-0.14,10680,10118.00,0,0,0,0.35,-2.87,0.14,-0.31,0.95,-0.14
0.62890625,0.01980153,0.024496127,-0.02396183,-0.31,0.95,-0.14,10695,10118.30,0,0,165,0.56,-2.87,-0.07,-0.31,0.95,-0.14
1.3291016,0.023801528,0.024496127,-0.02296183,-0.31,0.95,-0.14,10703,10119.00,0,0,0,0.84,-2.87,0.00,-0.31,0.95,-0.14
2.3291016,0.018801529,0.022496123,-0.02296183,-0.31,0.95,-0.14,10717,10120.00,0,0,165,0.49,-3.01,0.00,-0.31,0.95,-0.14
1.3291016,0.018801529,0.024496127,-0.02296183,-0.31,0.95,-0.14,10732,10119.00,0,0,0,0.49,-2.87,0.00,-0.31,0.95,-0.14
1.3291016,0.018801529,0.023496125,-0.02296183,-0.31,0.95,-0.14,10740,10119.00,0,0,165,0.49,-2.94,0.00,-0.31,0.95,-0.14
2.6289062,0.018801529,0.023496125,-0.024961831,-0.31,0.95,-0.14,10755,10120.30,0,0,0,0.49,-2.94,-0.14,-0.31,0.95,-0.14
1.3291016,0.01980153,0.024496127,-0.02196183,-0.31,0.95,-0.14,10770,10119.00,0,0,165,0.56,-2.87,0.07,-0.31,0.95,-0.14
0.32910156,0.02280153,0.021496125,-0.02196183,-0.31,0.95,-0.14,10777,10118.00,0,0,0,0.77,-3.08,0.07,-0.31,0.95,-0.14
2.3291016,0.02480153,0.023496125,-0.02396183,-0.32,0.95,-0.14,10792,10120.00,0,0,165,0.91,-2.94,-0.07,-0.32,0.95,-0.14
1.6289062,0.01980153,0.023496125,-0.02396183,-0.31,0.95,-0.14,10807,10119.30,0,0,0,0.56,-2.94,-0.07,-0.31,0.95,-0.14
1.3291016,0.015801528,0.022496123,-0.024961831,-0.31,0.95,-0.14,10815,10119.00,0,0,165,0.28,-3.01,-0.14,-0.31,0.95,-0.14
1.3291016,0.021801528,0.024496127,-0.01996183,-0.32,0.95,-0.14,10829,10119.00,0,0,0,0.70,-2.87,0.21,-0.32,0.95,-0.14
1.6289062,0.014801528,0.022496123,-0.02296183,-0.31,0.95,-0.14,10845,10119.30,0,0,165,0.21,-3.01,0.00,-0.31,0.95,-0.14
1.3291016,0.02280153,0.024496127,-0.02196183,-0.31,0.95,-0.14,10853,10119.00,0,0,0,0.77,-2.87,0.07,-0.31,0.95,-0.14
0.62890625,0.02480153,0.023496125,-0.02196183,-0.31,0.95,-0.14,10867,10118.30,0,0,165,0.91,-2.94,0.07,-0.31,0.95,-0.14
-1.2705078,0.02480153,0.024496127,-0.024961831,-0.31,0.95,-0.14,10882,10116.40,0,0,0,0.91,-2.87,-0.14,-0.31,0.95,-0.14
0.32910156,0.02880153,0.025496125,-0.02296183,-0.32,0.95,-0.14,10889,10118.00,0,0,165,1.19,-2.80,0.00,-0.32,0.95,-0.14
2.3291016,0.013801529,0.023496125,-0.02296183,-0.31,0.95,-0.14,10905,10120.00,0,0,0,0.14,-2.94,0.00,-0.31,0.95,-0.14
0.32910156,0.017801529,0.024496127,-0.01996183,-0.31,0.95,-0.14,10927,10118.00,0,0,165,0.42,-2.87,0.21,-0.31,0.95,-0.14
0.62890625,0.01980153,0.023496125,-0.02196183,-0.31,0.95,-0.14,10928,10118.30,0,0,0,0.56,-2.94,0.07,-0.31,0.95,-0.14
0.32910156,0.023801528,0.025496125,-0.02296183,-0.32,0.95,-0.14,10942,10118.00,0,0,165,0.84,-2.80,0.00,-0.32,0.95,-0.14
1.3291016,0.02080153,0.023496125,-0.02296183,-0.31,0.95,-0.14,10957,10119.00,0,0,0,0.63,-2.94,0.00,-0.31,0.95,-0.14
1.6289062,0.02280153,0.022496123,-0.02296183,-0.31,0.95,-0.14,10964,10119.30,0,0,165,0.77,-3.01,0.00,-0.31,0.95,-0.14
0.62890625,0.016801529,0.024496127,-0.025961831,-0.31,0.95,-0.14,10979,10118.30,0,0,0,0.35,-2.87,-0.21,-0.31,0.95,-0.14
1.6289062,0.02080153,0.023496125,-0.02196183,-0.31,0.95,-0.14,10996,10119.30,0,0,165,0.63,-2.94,0.07,-0.31,0.95,-0.14
1.3291016,0.01980153,0.024496127,-0.02096183,-0.31,0.95,-0.14,11003,10119.00,0,0,0,0.56,-2.87,0.14,-0.31,0.95,-0.14
0.32910156,0.012801529,0.024496127,-0.01996183,-0.31,0.95,-0.14,11017,10118.00,0,0,165,0.07,-2.87,0.21,-0.31,0.95,-0.14
0.62890625,0.016801529,0.023496125,-0.02396183,-0.31,0.95,-0.14,11032,10118.30,0,0,0,0.35,-2.94,-0.07,-0.31,0.95,-0.14
0.32910156,0.01980153,0.025496125,-0.02396183,-0.31,0.95,-0.14,11040,10118.00,0,0,165,0.56,-2.80,-0.07,-0.31,0.95,-0.14
1.3291016,0.017801529,0.022496123,-0.025961831,-0.31,0.95,-0.14,11055,10119.00,0,0,0,0.42,-3.01,-0.21,-0.31,0.95,-0.14
1.3291016,0.017801529,0.023496125,-0.02296183,-0.32,0.95,-0.14,11070,10119.00,0,0,165,0.42,-2.94,0.00,-0.32,0.95,-0.14
0.32910156,0.017801529,0.022496123,-0.02396183,-0.32,0.95,-0.14,11077,10118.00,0,0,0,0.42,-3.01,-0.07,-0.32,0.95,-0.14
2.3291016,0.017801529,0.023496125,-0.02196183,-0.32,0.95,-0.14,11093,10120.00,0,0,165,0.42,-2.94,0.07,-0.32,0.95,-0.14
1.6289062,0.02280153,0.024496127,-0.01996183,-0.31,0.95,-0.14,11108,10119.30,0,0,0,0.77,-2.87,0.21,-0.31,0.95,-0.14
0.32910156,0.015801528,0.023496125,-0.02096183,-0.31,0.95,-0.14,11115,10118.00,0,0,165,0.28,-2.94,0.14,-0.31,0.95,-0.14
1.6289062,0.023801528,0.025496125,-0.024961831,-0.31,0.95,-0.14,11130,10119.30,0,0,0,0.84,-2.80,-0.14,-0.31,0.95,-0.14
0.62890625,0.02280153,0.024496127,-0.27896184,-0.31,0.95,-0.14,11145,10118.30,0,0,165,0.77,-2.87,-17.92,-0.31,0.95,-0.14
0.32910156,0.018801529,0.024496127,-0.024961831,-0.31,0.95,-0.14,11152,10118.00,0,0,0,0.49,-2.87,-0.14,-0.31,0.95,-0.14
1.3291016,0.02080153,0.025496125,-0.02196183,-0.31,0.95,-0.14,11168,10119.00,0,0,165,0.63,-2.80,0.07,-0.31,0.95,-0.14
1.6289062,0.016801529,0.024496127,-0.02096183,-0.31,0.95,-0.14,11182,10119.30,0,0,0,0.35,-2.87,0.14,-0.31,0.95,-0.14
1.3291016,0.015801528,0.023496125,-0.02296183,-0.31,0.95,-0.14,11190,10119.00,0,0,165,0.28,-2.94,0.00,-0.31,0.95,-0.14
1.3291016,0.018801529,0.025496125,-0.02196183,-0.31,0.95,-0.14,11205,10119.00,0,0,0,0.49,-2.80,0.07,-0.31,0.95,-0.14
1.6289062,0.015801528,0.025496125,-0.024961831,-0.31,0.95,-0.14,11219,10119.30,0,0,165,0.28,-2.80,-0.14,-0.31,0.95,-0.14
1.3291016,0.01980153,0.023496125,-0.02396183,-0.31,0.95,-0.14,11227,10119.00,0,0,0,0.56,-2.94,-0.07,-0.31,0.95,-0.14
1.3291016,0.017801529,0.024496127,-0.025961831,-0.32,0.95,-0.14,11242,10119.00,0,0,165,0.42,-2.87,-0.21,-0.32,0.95,-0.14
-0.67089844,0.016801529,0.023496125,-0.02396183,-0.32,0.95,-0.14,11258,10117.00,0,0,0,0.35,-2.94,-0.07,-0.32,0.95,-0.14
0.32910156,0.01980153,0.024496127,-0.02396183,-0.32,0.95,-0.14,11265,10118.00,0,0,165,0.56,-2.87,-0.07,-0.32,0.95,-0.14
0.62890625,0.026801528,0.016496122,-0.01596183,-0.32,0.94,-0.13,11282,10118.30,0,0,0,1.05,-3.43,0.49,-0.32,0.94,-0.13
1.3291016,-0.029198468,4.9611926E-4,-0.01896183,-0.33,0.96,-0.08,11297,10119.00,0,0,165,-2.87,-4.55,0.28,-0.33,0.96,-0.08
0.62890625,0.047801528,0.036496125,-0.02296183,-0.3,0.95,-0.16,11303,10118.30,0,0,0,2.52,-2.03,0.00,-0.30,0.95,-0.16
0.32910156,-0.03819847,0.030496124,-0.03796183,-0.31,0.95,-0.13,11322,10118.00,0,0,165,-3.50,-2.45,-1.05,-0.31,0.95,-0.13
1.3291016,0.052801527,0.026496124,-0.00596183,-0.32,0.94,-0.15,11333,10119.00,0,0,0,2.87,-2.73,1.19,-0.32,0.94,-0.15
1.3291016,-0.003198471,0.022496123,-0.024961831,-0.3,0.95,-0.15,11344,10119.00,0,0,165,-1.05,-3.01,-0.14,-0.30,0.95,-0.15
1.3291016,0.010801529,0.025496125,-0.02396183,-0.31,0.96,-0.13,11357,10119.00,0,0,0,-0.07,-2.80,-0.07,-0.31,0.96,-0.13
2.3291016,0.03180153,0.024496127,-0.02196183,-0.31,0.95,-0.14,11370,10120.00,0,0,165,1.40,-2.87,0.07,-0.31,0.95,-0.14
0.62890625,-0.003198471,0.019496124,-0.025961831,-0.31,0.95,-0.14,11377,10118.30,0,0,0,-1.05,-3.22,-0.21,-0.31,0.95,-0.14
0.32910156,0.015801528,0.026496124,-0.016961832,-0.31,0.95,-0.14,11393,10118.00,0,0,165,0.28,-2.73,0.42,-0.31,0.95,-0.14
1.6289062,0.0048015285,0.022496123,-0.025961831,-0.31,0.95,-0.14,11408,10119.30,0,0,0,-0.49,-3.01,-0.21,-0.31,0.95,-0.14
1.3291016,0.02080153,0.023496125,-0.025961831,-0.31,0.95,-0.13,11415,10119.00,0,0,165,0.63,-2.94,-0.21,-0.31,0.95,-0.13
1.3291016,0.034801528,0.025496125,-0.02096183,-0.32,0.95,-0.13,11430,10119.00,0,0,0,1.61,-2.80,0.14,-0.32,0.95,-0.13
0.32910156,0.03380153,0.024496127,-0.02196183,-0.31,0.94,-0.14,11445,10118.00,0,0,165,1.54,-2.87,0.07,-0.31,0.94,-0.14
0.32910156,0.009801528,0.023496125,-0.025961831,-0.32,0.95,-0.14,11453,10118.00,0,0,0,-0.14,-2.94,-0.21,-0.32,0.95,-0.14
2.3291016,0.015801528,0.023496125,-0.016961832,-0.31,0.95,-0.14,11467,10120.00,0,0,165,0.28,-2.94,0.42,-0.31,0.95,-0.14
1.3291016,0.0028015291,0.027496122,-0.02196183,-0.31,0.96,-0.14,11483,10119.00,0,0,0,-0.63,-2.66,0.07,-0.31,0.96,-0.14
-0.67089844,0.03080153,0.025496125,-0.01796183,-0.31,0.95,-0.14,11490,10117.00,0,0,165,1.33,-2.80,0.35,-0.31,0.95,-0.14
0.32910156,-0.01219847,0.024496127,-0.02896183,-0.32,0.96,-0.13,11505,10118.00,0,0,0,-1.68,-2.87,-0.42,-0.32,0.96,-0.13
1.3291016,0.017801529,0.024496127,-0.01796183,-0.31,0.96,-0.14,11520,10119.00,0,0,165,0.42,-2.87,0.35,-0.31,0.96,-0.14
0.32910156,0.006801529,0.014496125,-0.03296183,-0.34,0.95,-0.12,11528,10118.00,0,0,0,-0.35,-3.57,-0.70,-0.34,0.95,-0.12
0.62890625,0.03880153,0.022496123,-0.01496183,-0.31,0.96,-0.12,11542,10118.30,0,0,165,1.89,-3.01,0.56,-0.31,0.96,-0.12
0.32910156,0.05780153,0.031496122,-0.27896184,-0.31,0.95,-0.14,11557,10118.00,0,0,0,3.22,-2.38,-17.92,-0.31,0.95,-0.14
1.3291016,0.008801529,0.026496124,-0.026961831,-0.31,0.94,-0.16,11564,10119.00,0,0,165,-0.21,-2.73,-0.28,-0.31,0.94,-0.16
0.32910156,0.02280153,0.021496125,-0.03096183,-0.36,0.95,-0.11,11580,10118.00,0,0,0,0.77,-3.08,-0.56,-0.36,0.95,-0.11
0.32910156,0.005801529,0.023496125,-0.01496183,-0.31,0.95,-0.13,11595,10118.00,0,0,165,-0.42,-2.94,0.56,-0.31,0.95,-0.13
0.62890625,0.03680153,0.024496127,-0.016961832,-0.3,0.96,-0.14,11602,10118.30,0,0,0,1.75,-2.87,0.42,-0.30,0.96,-0.14
1.3291016,0.027801529,0.021496125,-0.02896183,-0.33,0.94,-0.13,11617,10119.00,0,0,165,1.12,-3.08,-0.42,-0.33,0.94,-0.13
0.32910156,0.03880153,0.027496122,-0.01996183,-0.32,0.95,-0.14,11632,10118.00,0,0,0,1.89,-2.66,0.21,-0.32,0.95,-0.14
1.3291016,0.009801528,0.022496123,-0.024961831,-0.31,0.94,-0.15,11640,10119.00,0,0,165,-0.14,-3.01,-0.14,-0.31,0.94,-0.15
0.32910156,0.001801529,0.021496125,-0.01896183,-0.31,0.96,-0.13,11655,10118.00,0,0,0,-0.70,-3.08,0.28,-0.31,0.96,-0.13
1.6289062,0.03680153,0.025496125,-0.01796183,-0.31,0.95,-0.14,11670,10119.30,0,0,165,1.75,-2.80,0.35,-0.31,0.95,-0.14
1.6289062,0.011801529,0.023496125,-0.027961832,-0.31,0.95,-0.14,11677,10119.30,0,0,0,0.00,-2.94,-0.35,-0.31,0.95,-0.14
1.3291016,0.02480153,0.019496124,-0.02196183,-0.32,0.95,-0.13,11693,10119.00,0,0,165,0.91,-3.22,0.07,-0.32,0.95,-0.13
0.32910156,0.03080153,0.023496125,-0.01796183,-0.31,0.95,-0.14,11709,10118.00,0,0,0,1.33,-2.94,0.35,-0.31,0.95,-0.14
1.3291016,0.023801528,0.024496127,-0.027961832,-0.31,0.95,-0.14,11715,10119.00,0,0,165,0.84,-2.87,-0.35,-0.31,0.95,-0.14
1.6289062,0.029801529,0.021496125,-0.02396183,-0.32,0.94,-0.14,11729,10119.30,0,0,0,1.26,-3.08,-0.07,-0.32,0.94,-0.14
2.6289062,0.014801528,0.023496125,-0.02096183,-0.31,0.95,-0.14,11744,10120.30,0,0,165,0.21,-2.94,0.14,-0.31,0.95,-0.14
1.3291016,0.02280153,0.022496123,-0.02196183,-0.31,0.95,-0.14,11752,10119.00,0,0,0,0.77,-3.01,0.07,-0.31,0.95,-0.14
0.32910156,0.014801528,0.023496125,-0.02296183,-0.32,0.95,-0.14,11767,10118.00,0,0,165,0.21,-2.94,0.00,-0.32,0.95,-0.14
1.3291016,0.026801528,0.024496127,-0.01996183,-0.31,0.95,-0.14,11782,10119.00,0,0,0,1.05,-2.87,0.21,-0.31,0.95,-0.14
1.3291016,0.012801529,0.024496127,-0.024961831,-0.31,0.95,-0.14,11790,10119.00,0,0,165,0.07,-2.87,-0.14,-0.31,0.95,-0.14
1.3291016,0.023801528,0.024496127,-0.02096183,-0.31,0.95,-0.14,11805,10119.00,0,0,0,0.84,-2.87,0.14,-0.31,0.95,-0.14
0.62890625,0.01980153,0.025496125,-0.025961831,-0.31,0.95,-0.14,11820,10118.30,0,0,165,0.56,-2.80,-0.21,-0.31,0.95,-0.14
1.3291016,0.018801529,0.024496127,-0.02296183,-0.31,0.95,-0.14,11827,10119.00,0,0,0,0.49,-2.87,0.00,-0.31,0.95,-0.14
1.3291016,0.02080153,0.023496125,-0.02296183,-0.31,0.94,-0.14,11843,10119.00,0,0,165,0.63,-2.94,0.00,-0.31,0.94,-0.14
2.3291016,-0.31719846,0.033496123,-0.13696183,-0.33,0.95,-0.06,11858,10120.00,0,0,0,-23.03,-2.24,-7.98,-0.33,0.95,-0.06
0.32910156,-0.10119847,0.095496126,-0.101961836,-0.31,0.98,-0.13,11865,10118.00,0,0,165,-7.91,2.10,-5.53,-0.31,0.98,-0.13
1.3291016,0.26980153,0.07949612,-0.056961834,-0.31,0.97,-0.1,11880,10119.00,0,0,0,18.06,0.98,-2.38,-0.31,0.97,-0.10
1.3291016,0.50680155,0.08149613,0.02003817,-0.32,0.92,-0.15,11895,10119.00,0,0,165,34.65,1.12,3.01,-0.32,0.92,-0.15
0.32910156,0.35080153,0.027496122,0.08703817,-0.28,0.85,-0.21,11902,10118.00,0,0,0,23.73,-2.66,7.70,-0.28,0.85,-0.21
1.6289062,-0.09419847,-0.044503875,0.115038164,-0.34,0.9,-0.15,11918,10119.30,0,0,165,-7.42,-7.70,9.66,-0.34,0.90,-0.15
1.3291016,-0.2481985,-0.022503875,0.10003816,-0.31,0.98,-0.15,11933,10119.00,0,0,0,-18.20,-6.16,8.61,-0.31,0.98,-0.15
0.32910156,-0.30319846,-0.025503874,-0.04096183,-0.3,1.01,-0.11,11940,10118.00,0,0,165,-22.05,-6.37,-1.26,-0.30,1.01,-0.11
0.32910156,-0.08319847,0.026496124,-0.012961831,-0.32,0.91,-0.14,11955,10118.00,0,0,0,-6.65,-2.73,0.70,-0.32,0.91,-0.14
0.32910156,-0.103198476,0.0014961213,0.13903818,-0.32,0.93,-0.15,11970,10118.00,0,0,165,-8.05,-4.48,11.34,-0.32,0.93,-0.15
1.3291016,-0.21319847,-0.019503877,0.08103817,-0.3,0.98,-0.14,11978,10119.00,0,0,0,-15.75,-5.95,7.28,-0.30,0.98,-0.14
1.3291016,-0.19119847,-0.01650387,0.071038164,-0.31,0.96,-0.11,11993,10119.00,0,0,165,-14.21,-5.74,6.58,-0.31,0.96,-0.11
0.32910156,-0.07519848,4.9611926E-4,0.13203818,-0.3,0.93,-0.13,12008,10118.00,0,0,0,-6.09,-4.55,10.85,-0.30,0.93,-0.13
0.32910156,-0.13219847,4.9611926E-4,0.15303817,-0.29,0.95,-0.13,12015,10118.00,0,0,165,-10.08,-4.55,12.32,-0.29,0.95,-0.13
0.32910156,-0.121198475,-0.003503874,0.15403818,-0.3,0.96,-0.13,12030,10118.00,0,0,0,-9.31,-4.83,12.39,-0.30,0.96,-0.13
0.32910156,-0.13919847,-0.014503874,0.20103818,-0.29,0.92,-0.13,12045,10118.00,0,0,165,-10.57,-5.60,15.68,-0.29,0.92,-0.13
1.3291016,0.33580154,-0.05750387,0.5080381,-0.35,1.02,-0.12,12053,10119.00,0,0,0,22.68,-8.61,37.17,-0.35,1.02,-0.12
0.32910156,0.32280156,4.9611926E-4,0.38403818,-0.3,0.98,-0.06,12067,10118.00,0,0,165,21.77,-4.55,28.49,-0.30,0.98,-0.06
0.62890625,0.41880155,0.008496124,0.33403817,-0.29,0.97,-0.18,12082,10118.30,0,0,0,28.49,-3.99,24.99,-0.29,0.97,-0.18
1.3291016,-0.20619848,0.050496124,0.35903817,-0.3,0.88,-0.09,12094,10119.00,0,0,165,-15.26,-1.05,26.74,-0.30,0.88,-0.09
1.3291016,-0.07919847,-0.059503876,0.53203815,-0.22,1.11,-0.14,12105,10119.00,0,0,0,-6.37,-8.75,38.85,-0.22,1.11,-0.14
0.32910156,0.07380153,-0.010503881,0.27603817,-0.28,1.08,-0.12,12120,10118.00,0,0,165,4.34,-5.32,20.93,-0.28,1.08,-0.12
0.32910156,0.29380155,-0.045503877,-0.04096183,-0.36,1.15,-0.11,12127,10118.00,0,0,0,19.74,-7.77,-1.26,-0.36,1.15,-0.11
0.62890625,0.5658015,-0.033503875,-0.20096183,-0.28,1.03,-0.14,12142,10118.30,0,0,165,38.78,-6.93,-12.46,-0.28,1.03,-0.14
0.32910156,0.42580155,-0.026503876,0.017038168,-0.32,0.95,-0.2,12157,10118.00,0,0,0,28.98,-6.44,2.80,-0.32,0.95,-0.20
0.32910156,0.15180153,0.08649612,-0.17496184,-0.36,0.9,-0.17,12165,10118.00,0,0,165,9.80,1.47,-10.64,-0.36,0.90,-0.17
0.32910156,-0.08319847,0.24349612,-0.26096183,-0.27,1.07,-0.2,12180,10118.00,0,0,0,-6.65,12.46,-16.66,-0.27,1.07,-0.20
0.32910156,-0.04819847,0.39649612,-0.28596184,-0.28,1.12,-0.22,12194,10118.00,0,0,165,-4.20,23.17,-18.41,-0.28,1.12,-0.22
0.32910156,-0.21319847,0.4294961,-0.24796182,-0.32,1.11,-0.22,12202,10118.00,0,0,0,-15.75,25.48,-15.75,-0.32,1.11,-0.22
0.32910156,-0.48119843,0.4434961,-0.17496184,-0.33,1.12,-0.28,12217,10118.00,0,0,165,-34.51,26.46,-10.64,-0.33,1.12,-0.28
0.32910156,-0.5061984,0.58849615,-0.06296183,-0.27,1.16,-0.29,12232,10118.00,0,0,0,-36.26,36.61,-2.80,-0.27,1.16,-0.29
-0.67089844,-0.76819843,0.55749613,0.39703816,-0.36,1.06,-0.31,12240,10117.00,0,0,165,-54.60,34.44,29.40,-0.36,1.06,-0.31
0.32910156,-0.69619846,0.55949616,0.3440382,-0.28,1.09,-0.31,12263,10118.00,0,0,0,-49.56,34.58,25.69,-0.28,1.09,-0.31
0.32910156,-0.5951985,0.6964961,0.55503815,-0.31,1.03,-0.29,12277,10118.00,0,0,165,-42.49,44.17,40.46,-0.31,1.03,-0.29
0.32910156,-0.96119845,0.94849616,0.7520381,-0.26,1.13,-0.29,12278,10118.00,0,0,0,-68.11,61.81,54.25,-0.26,1.13,-0.29
1.3291016,-1.3881985,1.3104961,0.86103815,-0.27,1.08,-0.31,12292,10119.00,0,0,165,-98.00,87.15,61.88,-0.27,1.08,-0.31
0.029296875,-1.5691985,1.4184961,0.9980382,-0.32,1.22,-0.22,12309,10117.70,0,0,0,-110.67,94.71,71.47,-0.32,1.22,-0.22
1.3291016,-1.4201984,1.2854961,1.0290382,-0.4,1.06,-0.17,12315,10119.00,0,0,165,-100.24,85.40,73.64,-0.40,1.06,-0.17
1.3291016,-0.9751984,1.023496,1.1270381,-0.34,1.05,-0.16,12330,10119.00,0,0,0,-69.09,67.06,80.50,-0.34,1.05,-0.16
1.3291016,-0.58519846,0.84849614,1.1870381,-0.28,0.91,-0.17,12345,10119.00,0,0,165,-41.79,54.81,84.70,-0.28,0.91,-0.17
1.3291016,-0.69719845,1.0024961,1.1010381,-0.26,0.91,-0.15,12352,10119.00,0,0,0,-49.63,65.59,78.68,-0.26,0.91,-0.15
1.6289062,-0.8111985,1.4224961,1.1930382,-0.06,1.07,-0.16,12367,10119.30,0,0,165,-57.61,94.99,85.12,-0.06,1.07,-0.16
0.62890625,-0.98819846,1.8864961,1.3500382,0.13,1.27,-0.16,12382,10118.30,0,0,0,-70.00,127.47,96.11,0.13,1.27,-0.16
1.3291016,-1.1601986,1.8084961,1.5240382,0.02,1.17,-0.19,12390,10119.00,0,0,165,-82.04,122.01,108.29,0.02,1.17,-0.19
1.3291016,-0.76519847,1.345496,1.7520381,-0.22,1.02,-0.09,12406,10119.00,0,0,0,-54.39,89.60,124.25,-0.22,1.02,-0.09
1.3291016,-0.44219846,1.026496,1.7410382,-0.22,0.9,-0.03,12420,10119.00,0,0,165,-31.78,67.27,123.48,-0.22,0.90,-0.03
1.3291016,-0.28519848,0.98749614,1.5970381,-0.18,0.78,-0.06,12428,10119.00,0,0,0,-20.79,64.54,113.40,-0.18,0.78,-0.06
1.3291016,-0.36019847,1.1844962,1.4560381,-0.06,0.8,-0.08,12443,10119.00,0,0,165,-26.04,78.33,103.53,-0.06,0.80,-0.08
0.32910156,-0.33219847,1.396496,1.3320382,0.07,0.91,-0.07,12458,10118.00,0,0,0,-24.08,93.17,94.85,0.07,0.91,-0.07
1.3291016,-0.22419848,1.6244961,1.2040381,0.16,1.04,-0.02,12465,10119.00,0,0,165,-16.52,109.13,85.89,0.16,1.04,-0.02
1.3291016,-0.32919848,1.7804961,1.1950382,0.23,1.19,0.04,12480,10119.00,0,0,0,-23.87,120.05,85.26,0.23,1.19,0.04
1.3291016,-0.015198472,1.4124961,1.4320381,0.19,1.13,0.0,12495,10119.00,0,0,165,-1.89,94.29,101.85,0.19,1.13,0.00
1.3291016,0.049801532,0.70549613,1.8670381,0.08,0.99,0.09,12502,10119.00,0,0,0,2.66,44.80,132.30,0.08,0.99,0.09
1.3291016,0.12980153,0.6184961,1.7440382,0.02,0.82,0.04,12517,10119.00,0,0,165,8.26,38.71,123.69,0.02,0.82,0.04
1.3291016,-0.09519847,0.8324961,1.2720382,0.13,0.8,0.02,12532,10119.00,0,0,0,-7.49,53.69,90.65,0.13,0.80,0.02
1.6289062,-0.21019848,0.9004962,1.0010382,0.26,0.9,0.05,12539,10119.30,0,0,165,-15.54,58.45,71.68,0.26,0.90,0.05
1.3291016,-0.38219845,1.1174961,0.94903815,0.24,0.94,0.12,12554,10119.00,0,0,0,-27.58,73.64,68.04,0.24,0.94,0.12
0.32910156,-0.56719846,1.4254961,1.0100381,0.58,1.04,-0.06,12569,10118.00,0,0,165,-40.53,95.20,72.31,0.58,1.04,-0.06
1.3291016,-0.33319846,1.2864962,1.4670382,0.42,0.98,0.12,12577,10119.00,0,0,0,-24.15,85.47,104.30,0.42,0.98,0.12
1.3291016,-0.25919846,1.352496,1.7090381,0.25,0.88,0.17,12592,10119.00,0,0,165,-18.97,90.09,121.24,0.25,0.88,0.17
1.3291016,-0.5141985,1.3684961,1.6210382,0.17,0.89,0.25,12607,10119.00,0,0,0,-36.82,91.21,115.08,0.17,0.89,0.25
-0.67089844,-0.8231985,1.321496,1.4930382,0.23,1.0,0.28,12615,10117.00,0,0,165,-58.45,87.92,106.12,0.23,1.00,0.28
0.32910156,-0.7371985,1.0134962,1.2550381,0.26,1.02,0.33,12630,10118.00,0,0,0,-52.43,66.36,89.46,0.26,1.02,0.33
1.3291016,-0.28219846,0.7484962,1.2820381,0.36,0.97,0.3,12645,10119.00,0,0,165,-20.58,47.81,91.35,0.36,0.97,0.30
1.3291016,-0.10719847,0.70349616,1.0730382,0.5,0.86,0.21,12652,10119.00,0,0,0,-8.33,44.66,76.72,0.50,0.86,0.21
0.62890625,-0.22219846,0.96949613,0.72803813,0.57,0.86,0.2,12667,10118.30,0,0,165,-16.38,63.28,52.57,0.57,0.86,0.20
0.32910156,-0.22219846,1.1444961,0.6080381,0.58,1.01,0.34,12682,10118.00,0,0,0,-16.38,75.53,44.17,0.58,1.01,0.34
0.32910156,-0.20219846,0.89749616,0.77803814,0.43,0.91,0.33,12689,10118.00,0,0,165,-14.98,58.24,56.07,0.43,0.91,0.33
1.6289062,-0.114198476,0.71949613,0.6000382,0.12,0.76,0.35,12705,10119.30,0,0,0,-8.82,45.78,43.61,0.12,0.76,0.35
0.32910156,0.04380153,0.62949616,0.15503818,0.11,0.77,0.4,12719,10118.00,0,0,165,2.24,39.48,12.46,0.11,0.77,0.40
1.3291016,0.16480152,0.6964961,-0.24696183,0.26,0.76,0.31,12727,10119.00,0,0,0,10.71,44.17,-15.68,0.26,0.76,0.31
0.32910156,0.15680152,0.62449616,-0.50896186,0.31,0.95,0.35,12742,10118.00,0,0,165,10.15,39.13,-34.02,0.31,0.95,0.35
0.32910156,0.117801525,0.59849614,-0.27796182,0.39,1.04,0.36,12758,10118.00,0,0,0,7.42,37.31,-17.85,0.39,1.04,0.36
0.62890625,0.12980153,0.52449614,0.06303817,0.5,1.09,0.35,12764,10118.30,0,0,165,8.26,32.13,6.02,0.50,1.09,0.35
1.3291016,0.47280154,0.37049612,0.61503816,0.45,1.07,0.29,12780,10119.00,0,0,0,32.27,21.35,44.66,0.45,1.07,0.29
0.32910156,0.6768015,0.2074961,0.81103814,0.42,0.97,0.26,12795,10118.00,0,0,165,46.55,9.94,58.38,0.42,0.97,0.26
1.3291016,0.69680154,0.19849613,0.7580381,0.23,0.87,0.23,12802,10119.00,0,0,0,47.95,9.31,54.67,0.23,0.87,0.23
1.3291016,0.77180153,0.030496124,0.77903813,0.19,0.76,0.26,12817,10119.00,0,0,165,53.20,-2.45,56.14,0.19,0.76,0.26
0.32910156,0.75180155,0.031496122,0.79103816,0.18,0.72,0.26,12832,10118.00,0,0,0,51.80,-2.38,56.98,0.18,0.72,0.26
1.3291016,0.75980157,0.19149613,0.70503813,0.16,0.63,0.26,12848,10119.00,0,0,165,52.36,8.82,50.96,0.16,0.63,0.26
1.6289062,0.8278015,0.33149612,0.4620382,0.3,0.77,0.17,12855,10119.30,0,0,0,57.12,18.62,33.95,0.30,0.77,0.17
1.3291016,0.75680155,0.28449613,0.36003816,0.26,0.78,0.24,12870,10119.00,0,0,165,52.15,15.33,26.81,0.26,0.78,0.24
1.3291016,0.53980154,0.19549614,0.18103817,0.12,0.65,0.14,12878,10119.00,0,0,0,36.96,9.10,14.28,0.12,0.65,0.14
1.3291016,0.31880155,-0.06550387,-0.17996182,0.2,0.68,0.2,12892,10119.00,0,0,165,21.49,-9.17,-10.99,0.20,0.68,0.20
1.3291016,0.36380154,-0.08050387,-0.26796183,0.15,0.69,0.2,12908,10119.00,0,0,0,24.64,-10.22,-17.15,0.15,0.69,0.20
1.3291016,0.59480155,-0.066503875,-0.36996183,0.16,0.72,0.19,12914,10119.00,0,0,165,40.81,-9.24,-24.29,0.16,0.72,0.19
0.62890625,0.56280154,0.084496126,-0.5259618,0.28,0.84,0.19,12929,10118.30,0,0,0,38.57,1.33,-35.21,0.28,0.84,0.19
1.3291016,0.31080154,0.18349612,-0.4569618,0.3,0.86,0.2,12944,10119.00,0,0,165,20.93,8.26,-30.38,0.30,0.86,0.20
1.3291016,0.05180153,0.113496125,-0.40096182,0.3,0.96,0.19,12952,10119.00,0,0,0,2.80,3.36,-26.46,0.30,0.96,0.19
0.32910156,0.17880152,0.08249612,-0.34996182,0.36,1.1,0.22,12966,10118.00,0,0,165,11.69,1.19,-22.89,0.36,1.10,0.22
1.3291016,-0.03019847,0.08149613,-0.25496182,0.36,1.05,0.18,12982,10119.00,0,0,0,-2.94,1.12,-16.24,0.36,1.05,0.18
1.3291016,-0.27019846,0.14549613,-0.24196182,0.38,1.1,0.16,12989,10119.00,0,0,165,-19.74,5.60,-15.33,0.38,1.10,0.16
1.3291016,-0.15319848,-0.071503885,-0.01996183,0.36,1.11,0.14,13005,10119.00,0,0,0,-11.55,-9.59,0.21,0.36,1.11,0.14
1.3291016,0.041801527,-0.31650388,0.098038174,0.35,1.06,0.15,13020,10119.00,0,0,165,2.10,-26.74,8.47,0.35,1.06,0.15
2.3291016,-0.04019847,-0.33650386,0.23403817,0.43,1.14,0.16,13027,10120.00,0,0,0,-3.64,-28.14,17.99,0.43,1.14,0.16
2.3291016,-0.20719847,-0.16850385,0.39803818,0.48,1.08,0.09,13042,10120.00,0,0,165,-15.33,-16.38,29.47,0.48,1.08,0.09
1.6289062,-0.18219848,0.016496122,0.3510382,0.47,1.06,0.1,13057,10119.30,0,0,0,-13.58,-3.43,26.18,0.47,1.06,0.10
1.3291016,-0.16319847,0.102496125,0.26603818,0.47,1.03,0.1,13064,10119.00,0,0,165,-12.25,2.59,20.23,0.47,1.03,0.10
0.32910156,-0.10919848,0.109496124,0.37903816,0.48,1.03,0.1,13080,10118.00,0,0,0,-8.47,3.08,28.14,0.48,1.03,0.10
1.3291016,-0.13919847,-0.018503875,0.59203815,0.6,1.05,0.1,13094,10119.00,0,0,165,-10.57,-5.88,43.05,0.60,1.05,0.10
1.3291016,-0.09719848,-0.004503876,0.6600382,0.49,1.04,0.12,13102,10119.00,0,0,0,-7.63,-4.90,47.81,0.49,1.04,0.12
1.3291016,-0.07919847,0.073496126,0.59803814,0.55,1.02,0.11,13117,10119.00,0,0,165,-6.37,0.56,43.47,0.55,1.02,0.11
0.32910156,-0.38019848,0.19649613,0.5080381,0.67,1.03,0.11,13132,10118.00,0,0,0,-27.44,9.17,37.17,0.67,1.03,0.11
1.3291016,-0.5221985,0.28749612,0.50003815,0.66,1.03,0.12,13140,10119.00,0,0,165,-37.38,15.54,36.61,0.66,1.03,0.12
1.3291016,-0.48119843,0.37349612,0.6090382,0.65,0.97,0.15,13155,10119.00,0,0,0,-34.51,21.56,44.24,0.65,0.97,0.15
2.3291016,-0.47419846,0.43749613,0.73203814,0.62,0.96,0.2,13169,10120.00,0,0,165,-34.02,26.04,52.85,0.62,0.96,0.20
1.3291016,-0.5221985,0.49049613,0.83003813,0.57,0.84,0.23,13177,10119.00,0,0,0,-37.38,29.75,59.71,0.57,0.84,0.23
1.3291016,-0.7361985,0.4924961,0.7380381,0.53,0.77,0.21,13192,10119.00,0,0,165,-52.36,29.89,53.27,0.53,0.77,0.21
1.3291016,-0.64319843,0.32949612,0.57503814,0.54,0.7,0.19,13208,10119.00,0,0,0,-45.85,18.48,41.86,0.54,0.70,0.19
2.3291016,-0.43919846,0.27049613,0.3990382,0.6,0.66,0.2,13214,10120.00,0,0,165,-31.57,14.35,29.54,0.60,0.66,0.20
1.3291016,-0.17519848,0.27449614,0.25003818,0.61,0.7,0.22,13229,10119.00,0,0,0,-13.09,14.63,19.11,0.61,0.70,0.22
1.3291016,0.04280153,0.28949612,0.21003817,0.62,0.73,0.24,13244,10119.00,0,0,165,2.17,15.68,16.31,0.62,0.73,0.24
2.3291016,0.11280153,0.33149612,0.27503818,0.66,0.75,0.26,13252,10120.00,0,0,0,7.07,18.62,20.86,0.66,0.75,0.26
1.3291016,0.05580153,0.37049612,0.26203817,0.59,0.68,0.26,13268,10119.00,0,0,165,3.08,21.35,19.95,0.59,0.68,0.26
1.3291016,-0.026198473,0.36949614,0.16103818,0.56,0.67,0.27,13282,10119.00,0,0,0,-2.66,21.28,12.88,0.56,0.67,0.27
2.3291016,0.16580153,0.3044961,0.16903816,0.56,0.58,0.24,13293,10120.00,0,0,165,10.78,16.73,13.44,0.56,0.58,0.24
2.3291016,0.33180153,0.32149613,0.059038162,0.5,0.44,0.23,13304,10120.00,0,0,0,22.40,17.92,5.74,0.50,0.44,0.23
2.3291016,0.33480155,0.20949611,-0.20096183,0.58,0.46,0.22,13319,10120.00,0,0,165,22.61,10.08,-12.46,0.58,0.46,0.22
2.3291016,0.36980152,0.26849613,-0.37296182,0.57,0.46,0.23,13327,10120.00,0,0,0,25.06,14.21,-24.50,0.57,0.46,0.23
1.3291016,0.44280154,0.33949614,-0.39996183,0.55,0.52,0.25,13343,10119.00,0,0,165,30.17,19.18,-26.39,0.55,0.52,0.25
2.3291016,0.40280154,0.3674961,-0.38696182,0.48,0.54,0.26,13361,10120.00,0,0,0,27.37,21.14,-25.48,0.48,0.54,0.26
2.3291016,0.31680155,0.3424961,-0.4659618,0.46,0.62,0.28,13365,10120.00,0,0,165,21.35,19.39,-31.01,0.46,0.62,0.28
2.3291016,0.37380153,0.22349614,-0.38396183,0.45,0.72,0.33,13379,10120.00,0,0,0,25.34,11.06,-25.27,0.45,0.72,0.33
2.3291016,0.40680152,0.07949612,-0.27296183,0.42,0.7,0.33,13395,10120.00,0,0,165,27.65,0.98,-17.50,0.42,0.70,0.33
2.3291016,0.32980153,0.031496122,-0.20796183,0.39,0.69,0.31,13402,10120.00,0,0,0,22.26,-2.38,-12.95,0.39,0.69,0.31
3.2294922,0.10780152,4.9611926E-4,-0.25696182,0.41,0.78,0.26,13417,10120.90,0,0,165,6.72,-4.55,-16.38,0.41,0.78,0.26
1.3291016,0.15380152,-0.017503873,-0.3479618,0.4,0.77,0.21,13433,10119.00,0,0,0,9.94,-5.81,-22.75,0.40,0.77,0.21
1.3291016,0.15480153,-0.06150388,-0.43096182,0.38,0.84,0.19,13440,10119.00,0,0,165,10.01,-8.89,-28.56,0.38,0.84,0.19
2.3291016,0.25280154,-0.14750388,-0.4619618,0.41,0.87,0.11,13455,10120.00,0,0,0,16.87,-14.91,-30.73,0.41,0.87,0.11
1.3291016,0.21980153,-0.13350388,-0.5349619,0.38,0.83,0.1,13470,10119.00,0,0,165,14.56,-13.93,-35.84,0.38,0.83,0.10
1.9287109,0.25880155,-0.10650388,-0.5129618,0.39,1.02,0.13,13477,10119.60,0,0,0,17.29,-12.04,-34.30,0.39,1.02,0.13
1.3291016,0.20480153,-0.044503875,-0.46496183,0.42,1.12,0.16,13493,10119.00,0,0,165,13.51,-7.70,-30.94,0.42,1.12,0.16
2.3291016,0.13080153,-0.07750388,-0.15796182,0.42,1.25,0.18,13507,10120.00,0,0,0,8.33,-10.01,-9.45,0.42,1.25,0.18
1.3291016,0.05180153,-0.12850389,-0.03496183,0.45,1.23,0.14,13514,10119.00,0,0,165,2.80,-13.58,-0.84,0.45,1.23,0.14
1.3291016,0.08680153,-0.18750387,0.09503817,0.47,1.2,0.12,13530,10119.00,0,0,0,5.25,-17.71,8.26,0.47,1.20,0.12
1.3291016,0.106801525,-0.2565039,0.30103818,0.44,1.08,0.11,13545,10119.00,0,0,165,6.65,-22.54,22.68,0.44,1.08,0.11
3.2294922,0.21280152,-0.2945039,0.44003817,0.48,1.02,0.09,13552,10120.90,0,0,0,14.07,-25.20,32.41,0.48,1.02,0.09
2.3291016,0.43780154,-0.18950388,0.37503818,0.47,0.65,0.06,13567,10120.00,0,0,165,29.82,-17.85,27.86,0.47,0.65,0.06
1.3291016,0.20980152,0.069496125,0.113038175,0.43,0.66,0.08,13582,10119.00,0,0,0,13.86,0.28,9.52,0.43,0.66,0.08
2.3291016,0.21280152,0.17549613,-0.001961831,0.53,0.79,0.09,13590,10120.00,0,0,165,14.07,7.70,1.47,0.53,0.79,0.09
2.3291016,0.37780157,0.25949612,-0.25096184,0.43,0.81,0.15,13605,10120.00,0,0,0,25.62,13.58,-15.96,0.43,0.81,0.15
2.3291016,0.27580154,0.26149613,-0.28696182,0.42,0.89,0.18,13620,10120.00,0,0,165,18.48,13.72,-18.48,0.42,0.89,0.18
1.3291016,0.08580153,0.22849613,-0.3259618,0.32,0.98,0.26,13627,10119.00,0,0,0,5.18,11.41,-21.21,0.32,0.98,0.26
2.3291016,0.077801526,0.15449613,-0.28396183,0.35,1.0,0.27,13643,10120.00,0,0,165,4.62,6.23,-18.27,0.35,1.00,0.27
1.3291016,-0.16619848,0.007496126,-0.25796184,0.33,1.03,0.25,13665,10119.00,0,0,0,-12.46,-4.06,-16.45,0.33,1.03,0.25
1.3291016,-0.23719847,-0.07850387,-0.22996183,0.38,0.97,0.18,13666,10119.00,0,0,165,-17.43,-10.08,-14.49,0.38,0.97,0.18
2.3291016,-0.17819847,-0.096503876,-0.12896183,0.43,0.99,0.15,13680,10120.00,0,0,0,-13.30,-11.34,-7.42,0.43,0.99,0.15
2.3291016,-0.010198471,-0.103503875,-0.053961832,0.48,0.88,0.13,13687,10120.00,0,0,165,-1.54,-11.83,-2.17,0.48,0.88,0.13
3.2294922,0.02080153,-0.052503876,-0.11396183,0.46,0.85,0.11,13703,10120.90,0,0,0,0.63,-8.26,-6.37,0.46,0.85,0.11
2.3291016,0.18780152,-0.047503874,-0.056961834,0.45,0.87,0.14,13718,10120.00,0,0,165,12.32,-7.91,-2.38,0.45,0.87,0.14
3.2294922,0.31580156,-0.05850388,0.03403817,0.41,0.85,0.17,13726,10120.90,0,0,0,21.28,-8.68,3.99,0.41,0.85,0.17
1.9287109,0.31580156,-0.069503866,0.02703817,0.4,0.84,0.2,13743,10119.60,0,0,165,21.28,-9.45,3.50,0.40,0.84,0.20
2.3291016,0.23580153,-0.08750387,-0.00596183,0.4,0.83,0.18,13759,10120.00,0,0,0,15.68,-10.71,1.19,0.40,0.83,0.18
2.3291016,0.11980153,-0.15150386,-0.08496183,0.42,0.84,0.17,13763,10120.00,0,0,165,7.56,-15.19,-4.34,0.42,0.84,0.17
3.2294922,0.09480152,-0.17950386,-0.09696183,0.47,0.86,0.12,13778,10120.90,0,0,0,5.81,-17.15,-5.18,0.47,0.86,0.12
2.3291016,0.062801525,-0.12950388,-0.08096183,0.55,0.88,0.09,13793,10120.00,0,0,165,3.57,-13.65,-4.06,0.55,0.88,0.09
2.3291016,0.05580153,-0.064503886,3.8169324E-5,0.54,0.91,0.1,13800,10120.00,0,0,0,3.08,-9.10,1.61,0.54,0.91,0.10
3.2294922,0.15080152,0.037496123,0.19703817,0.56,0.94,0.12,13815,10120.90,0,0,165,9.73,-1.96,15.40,0.56,0.94,0.12
1.3291016,0.17580152,0.22049612,0.35003817,0.69,0.91,0.13,13829,10119.00,0,0,0,11.48,10.85,26.11,0.69,0.91,0.13
2.3291016,0.11580153,0.3414961,0.30303818,0.52,0.88,0.19,13837,10120.00,0,0,165,7.28,19.32,22.82,0.52,0.88,0.19
1.3291016,-0.40719846,0.6464961,0.54103816,0.59,0.98,0.15,13852,10119.00,0,0,0,-29.33,40.67,39.48,0.59,0.98,0.15
2.3291016,-0.6611985,0.67549616,0.6410381,0.58,0.93,0.15,13867,10120.00,0,0,165,-47.11,42.70,46.48,0.58,0.93,0.15
2.3291016,-0.51319844,0.4734961,0.6360382,0.38,0.88,0.13,13876,10120.00,0,0,0,-36.75,28.56,46.13,0.38,0.88,0.13
3.2294922,0.035801526,0.19349614,0.5830381,0.47,0.79,0.2,13889,10120.90,0,0,165,1.68,8.96,42.42,0.47,0.79,0.20
3.2294922,0.021801528,0.21849611,0.53803813,0.63,0.76,0.17,13913,10120.90,0,0,0,0.70,10.71,39.27,0.63,0.76,0.17
2.3291016,0.15780152,0.3364961,0.3740382,0.62,0.72,0.15,13915,10120.00,0,0,165,10.22,18.97,27.79,0.62,0.72,0.15
3.2294922,0.34180155,0.3044961,0.08003817,0.59,0.76,0.2,13928,10120.90,0,0,0,23.10,16.73,7.21,0.59,0.76,0.20
2.3291016,0.32780156,0.33749613,-0.09096184,0.63,0.81,0.2,13942,10120.00,0,0,165,22.12,19.04,-4.76,0.63,0.81,0.20
2.3291016,0.32980153,0.3744961,-0.10996184,0.62,0.85,0.15,13949,10120.00,0,0,0,22.26,21.63,-6.09,0.62,0.85,0.15
3.2294922,0.5298015,0.4044961,-0.09496183,0.64,0.84,0.12,13964,10120.90,0,0,165,36.26,23.73,-5.04,0.64,0.84,0.12
3.2294922,0.4798015,0.5124962,-0.15496182,0.63,0.83,0.12,13979,10120.90,0,0,0,32.76,31.29,-9.24,0.63,0.83,0.12
2.3291016,0.31880155,0.5684961,-0.18196182,0.63,0.92,0.12,13986,10120.00,0,0,165,21.49,35.21,-11.13,0.63,0.92,0.12
2.928711,0.3148015,0.5584961,-0.11096183,0.54,0.95,0.16,14002,10120.60,0,0,0,21.21,34.51,-6.16,0.54,0.95,0.16
2.928711,0.21380153,0.49549612,-0.08196183,0.44,0.91,0.22,14018,10120.60,0,0,165,14.14,30.10,-4.13,0.44,0.91,0.22
2.3291016,0.11980153,0.35149613,-0.15996183,0.33,0.86,0.24,14025,10120.00,0,0,0,7.56,20.02,-9.59,0.33,0.86,0.24
1.0292969,0.16980153,0.084496126,-0.23096183,0.21,0.79,0.25,14040,10118.70,0,0,165,11.06,1.33,-14.56,0.21,0.79,0.25
3.2294922,0.24180153,-0.108503886,-0.46496183,0.32,0.87,0.22,14054,10120.90,0,0,0,16.10,-12.18,-30.94,0.32,0.87,0.22
2.3291016,0.36880153,-0.0065038726,-0.67096186,0.51,1.02,0.17,14062,10120.00,0,0,165,24.99,-5.04,-45.36,0.51,1.02,0.17
2.3291016,0.44480154,0.046496123,-0.5429619,0.4,0.96,0.12,14077,10120.00,0,0,0,30.31,-1.33,-36.40,0.40,0.96,0.12
2.3291016,0.37780157,0.015496124,-0.43896183,0.43,0.99,0.11,14093,10120.00,0,0,165,25.62,-3.50,-29.12,0.43,0.99,0.11
1.9287109,0.27880156,0.040496126,-0.19096182,0.42,1.01,0.12,14099,10119.60,0,0,0,18.69,-1.75,-11.76,0.42,1.01,0.12
2.3291016,0.34580153,0.009496123,0.13503818,0.37,0.95,0.12,14115,10120.00,0,0,165,23.38,-3.92,11.06,0.37,0.95,0.12
2.3291016,0.29580152,-0.047503874,0.2440382,0.35,0.9,0.15,14130,10120.00,0,0,0,19.88,-7.91,18.69,0.35,0.90,0.15
2.3291016,0.17080152,-0.15550387,0.28603816,0.32,0.9,0.17,14137,10120.00,0,0,165,11.13,-15.47,21.63,0.32,0.90,0.17
3.2294922,0.18580154,-0.3525039,0.26903817,0.36,0.87,0.16,14152,10120.90,0,0,0,12.18,-29.26,20.44,0.36,0.87,0.16
2.3291016,0.40580153,-0.41450387,0.16303818,0.43,0.88,0.13,14167,10120.00,0,0,165,27.58,-33.60,13.02,0.43,0.88,0.13
2.3291016,0.39780155,-0.36550388,0.082038164,0.53,0.91,0.1,14175,10120.00,0,0,0,27.02,-30.17,7.35,0.53,0.91,0.10
2.3291016,0.29580152,-0.29850388,0.05103817,0.67,0.94,0.06,14189,10120.00,0,0,165,19.88,-25.48,5.18,0.67,0.94,0.06
2.3291016,0.09680153,-0.27350387,0.15903817,0.64,0.91,0.07,14205,10120.00,0,0,0,5.95,-23.73,12.74,0.64,0.91,0.07
2.3291016,0.34480155,-0.2345039,0.3580382,0.65,0.86,0.1,14212,10120.00,0,0,165,23.31,-21.00,26.67,0.65,0.86,0.10
2.3291016,0.25880155,-0.14250389,0.43303818,0.6,0.83,0.17,14228,10120.00,0,0,0,17.29,-14.56,31.92,0.60,0.83,0.17
3.2294922,0.17680153,-0.07250387,0.43703818,0.6,0.85,0.12,14243,10120.90,0,0,165,11.55,-9.66,32.20,0.60,0.85,0.12
2.3291016,0.19380152,-0.030503869,0.4600382,0.65,0.82,0.11,14249,10120.00,0,0,0,12.74,-6.72,33.81,0.65,0.82,0.11
3.2294922,0.18180153,-0.004503876,0.3880382,0.68,0.8,0.1,14265,10120.90,0,0,165,11.90,-4.90,28.77,0.68,0.80,0.10
3.2294922,0.19880153,0.029496126,0.20603819,0.72,0.74,0.07,14279,10120.90,0,0,0,13.09,-2.52,16.03,0.72,0.74,0.07
1.9287109,0.15480153,0.23249611,0.00503817,0.71,0.76,0.09,14286,10119.60,0,0,165,10.01,11.69,1.96,0.71,0.76,0.09
2.3291016,0.05080153,0.31049612,-9.6183084E-4,0.71,0.82,0.08,14302,10120.00,0,0,0,2.73,17.15,1.54,0.71,0.82,0.08
3.2294922,-0.06419848,0.41949612,-0.05896183,0.74,0.87,0.12,14317,10120.90,0,0,165,-5.32,24.78,-2.52,0.74,0.87,0.12
2.3291016,-0.04319847,0.5854962,-0.03296183,0.73,0.95,0.11,14326,10120.00,0,0,0,-3.85,36.40,-0.70,0.73,0.95,0.11
2.3291016,-0.03419847,0.7074961,0.01403817,0.69,0.9,0.13,14340,10120.00,0,0,165,-3.22,44.94,2.59,0.69,0.90,0.13
2.3291016,-0.17219847,0.7764962,0.071038164,0.59,0.9,0.2,14355,10120.00,0,0,0,-12.88,49.77,6.58,0.59,0.90,0.20
1.3291016,-0.008198471,0.7904962,0.08803817,0.62,0.82,0.14,14366,10119.00,0,0,165,-1.40,50.75,7.77,0.62,0.82,0.14
2.3291016,0.05680153,0.7904962,-0.15396182,0.57,0.81,0.07,14377,10120.00,0,0,0,3.15,50.75,-9.17,0.57,0.81,0.07
3.2294922,0.33780155,0.7524961,-0.34296182,0.51,0.82,0.05,14393,10120.90,0,0,165,22.82,48.09,-22.40,0.51,0.82,0.05
2.928711,0.46980157,0.74149615,-0.49996182,0.38,0.83,0.1,14409,10120.60,0,0,0,32.06,47.32,-33.39,0.38,0.83,0.10
2.3291016,0.35880154,0.7764962,-0.5489619,0.51,0.88,0.05,14414,10120.00,0,0,165,24.29,49.77,-36.82,0.51,0.88,0.05
2.3291016,0.23880152,0.85249615,-0.53296185,0.54,0.95,0.09,14429,10120.00,0,0,0,15.89,55.09,-35.70,0.54,0.95,0.09
1.3291016,-0.014198472,0.86049616,-0.40296182,0.57,1.1,0.1,14437,10119.00,0,0,165,-1.82,55.65,-26.60,0.57,1.10,0.10
1.3291016,-0.121198475,0.7994962,-0.06696183,0.49,1.1,0.15,14452,10119.00,0,0,0,-9.31,51.38,-3.08,0.49,1.10,0.15
1.3291016,-0.15419847,0.75349617,0.18703817,0.45,0.93,0.16,14467,10119.00,0,0,165,-11.62,48.16,14.70,0.45,0.93,0.16
2.3291016,-0.39919847,0.7984962,0.09403816,0.29,0.71,0.17,14476,10120.00,0,0,0,-28.77,51.31,8.19,0.29,0.71,0.17
2.3291016,-0.56819844,0.8174961,-0.26296183,0.34,0.86,0.15,14490,10120.00,0,0,165,-40.60,52.64,-16.80,0.34,0.86,0.15
2.3291016,-0.65019846,0.8364962,-0.30596182,0.4,0.91,0.12,14505,10120.00,0,0,0,-46.34,53.97,-19.81,0.40,0.91,0.12
3.2294922,-0.28619847,0.78749615,-0.15996183,0.44,0.92,0.07,14512,10120.90,0,0,165,-20.86,50.54,-9.59,0.44,0.92,0.07
2.3291016,-0.04819847,0.77849615,-0.024961831,0.42,0.91,0.07,14527,10120.00,0,0,0,-4.20,49.91,-0.14,0.42,0.91,0.07
2.3291016,0.07180153,0.81149614,0.08703817,0.46,0.82,0.1,14542,10120.00,0,0,165,4.20,52.22,7.70,0.46,0.82,0.10
2.928711,-0.17719847,0.84749615,0.061038166,0.38,0.81,0.17,14549,10120.60,0,0,0,-13.23,54.74,5.88,0.38,0.81,0.17
2.3291016,-0.029198468,0.6934961,0.08803817,0.28,0.85,0.23,14564,10120.00,0,0,165,-2.87,43.96,7.77,0.28,0.85,0.23
2.3291016,0.20980152,0.5584961,0.026038172,0.26,0.86,0.26,14579,10120.00,0,0,0,13.86,34.51,3.43,0.26,0.86,0.26
2.928711,0.22380152,0.4604961,-0.18196182,0.32,0.91,0.28,14587,10120.60,0,0,165,14.84,27.65,-11.13,0.32,0.91,0.28
2.3291016,0.106801525,0.32649612,-0.24896182,0.37,0.91,0.25,14601,10120.00,0,0,0,6.65,18.27,-15.82,0.37,0.91,0.25
1.3291016,0.18780152,0.3744961,-0.30096182,0.37,0.99,0.25,14617,10119.00,0,0,165,12.32,21.63,-19.46,0.37,0.99,0.25
2.3291016,0.18280153,0.29249611,-0.21196182,0.45,0.9,0.18,14625,10120.00,0,0,0,11.97,15.89,-13.23,0.45,0.90,0.18
2.3291016,0.07980153,0.28949612,-0.14296183,0.43,0.9,0.21,14640,10120.00,0,0,165,4.76,15.68,-8.40,0.43,0.90,0.21
3.2294922,0.11680152,0.31949612,-0.10396183,0.38,0.9,0.22,14654,10120.90,0,0,0,7.35,17.78,-5.67,0.38,0.90,0.22
2.3291016,0.113801524,0.27549613,-0.119961835,0.25,0.86,0.26,14662,10120.00,0,0,165,7.14,14.70,-6.79,0.25,0.86,0.26
2.3291016,0.12080153,0.18049613,-0.12196183,0.31,0.92,0.25,14677,10120.00,0,0,0,7.63,8.05,-6.93,0.31,0.92,0.25
1.9287109,0.05680153,0.10149612,-0.17996182,0.34,0.88,0.24,14692,10119.60,0,0,165,3.15,2.52,-10.99,0.34,0.88,0.24
1.9287109,0.13480152,0.11149612,-0.21496181,0.39,0.91,0.2,14700,10119.60,0,0,0,8.61,3.22,-13.44,0.39,0.91,0.20
2.3291016,0.21980153,0.22249612,-0.26596183,0.42,0.97,0.16,14714,10120.00,0,0,165,14.56,10.99,-17.01,0.42,0.97,0.16
1.3291016,0.28080153,0.23049614,-0.20196182,0.44,0.99,0.24,14729,10119.00,0,0,0,18.83,11.55,-12.53,0.44,0.99,0.24
2.3291016,0.08280152,0.11649612,0.16803817,0.42,1.06,0.25,14737,10120.00,0,0,165,4.97,3.57,13.37,0.42,1.06,0.25
2.3291016,0.049801532,0.0034961216,0.3070382,0.32,0.81,0.15,14752,10120.00,0,0,0,2.66,-4.34,23.10,0.32,0.81,0.15
1.3291016,0.092801526,0.065496124,0.053038172,0.3,0.74,0.2,14767,10119.00,0,0,165,5.67,0.00,5.32,0.30,0.74,0.20
1.9287109,0.106801525,0.053496126,-0.15896183,0.37,0.77,0.2,14775,10119.60,0,0,0,6.65,-0.84,-9.52,0.37,0.77,0.20
2.3291016,-0.091198474,0.07049613,-0.3319618,0.48,0.99,0.21,14791,10120.00,0,0,165,-7.21,0.35,-21.63,0.48,0.99,0.21
2.3291016,-0.33119845,0.117496125,-0.36596182,0.56,1.0,0.21,14805,10120.00,0,0,0,-24.01,3.64,-24.01,0.56,1.00,0.21
1.3291016,-0.26419845,0.12349612,-0.02896183,0.58,1.07,0.22,14812,10119.00,0,0,165,-19.32,4.06,-0.42,0.58,1.07,0.22
2.3291016,-0.18919846,0.10349613,0.23103818,0.51,0.9,0.25,14827,10120.00,0,0,0,-14.07,2.66,17.78,0.51,0.90,0.25
1.3291016,-0.16019848,0.10849613,0.17203817,0.48,0.78,0.27,14858,10119.00,0,0,165,-12.04,3.01,13.65,0.48,0.78,0.27
2.3291016,-0.19219847,0.036496125,-0.01796183,0.4,0.82,0.36,14859,10120.00,0,0,0,-14.28,-2.03,0.35,0.40,0.82,0.36
1.3291016,-0.02119847,-0.13850388,-0.19396183,0.34,0.61,0.37,14864,10119.00,0,0,165,-2.31,-14.28,-11.97,0.34,0.61,0.37
1.3291016,0.032801528,-0.28550386,-0.30896184,0.48,0.82,0.31,14880,10119.00,0,0,0,1.47,-24.57,-20.02,0.48,0.82,0.31
1.0292969,0.41680154,-0.26850387,-0.36496183,0.49,0.83,0.28,14887,10118.70,0,0,165,28.35,-23.38,-23.94,0.49,0.83,0.28
1.3291016,0.28180152,-0.13250387,-0.22596182,0.66,1.09,0.24,14902,10119.00,0,0,0,18.90,-13.86,-14.21,0.66,1.09,0.24
0.32910156,0.5148015,-0.06350387,0.16803817,0.43,1.04,0.21,14917,10118.00,0,0,165,35.21,-9.03,13.37,0.43,1.04,0.21
0.029296875,0.37780157,0.0054961257,0.4620382,0.3,0.93,0.25,14933,10117.70,0,0,0,25.62,-4.20,33.95,0.30,0.93,0.25
0.32910156,-0.14319848,-0.09050388,0.29103816,0.25,1.0,0.16,14939,10118.00,0,0,165,-10.85,-10.92,21.98,0.25,1.00,0.16
1.3291016,-0.16919847,-0.17250386,0.12203816,0.32,0.97,0.07,14954,10119.00,0,0,0,-12.67,-16.66,10.15,0.32,0.97,0.07
-0.67089844,-0.22319849,-0.05750387,-0.013961831,0.31,1.11,0.13,14962,10117.00,0,0,165,-16.45,-8.61,0.63,0.31,1.11,0.13
0.32910156,-0.16319847,0.026496124,0.2510382,0.35,0.92,0.12,14977,10118.00,0,0,0,-12.25,-2.73,19.18,0.35,0.92,0.12
-0.67089844,-0.15919848,0.12349612,0.45703816,0.31,0.89,0.14,14993,10117.00,0,0,165,-11.97,4.06,33.60,0.31,0.89,0.14
0.029296875,-0.18319847,0.16949612,0.49203816,0.39,0.85,0.19,14999,10117.70,0,0,0,-13.65,7.28,36.05,0.39,0.85,0.19
0.32910156,-0.19019848,0.14749612,0.4360382,0.28,0.34,0.31,15015,10118.00,0,0,165,-14.14,5.74,32.13,0.28,0.34,0.31
1.3291016,-1.2621986,0.28049612,-0.35896182,0.33,0.82,0.37,15029,10119.00,0,0,0,-89.18,15.05,-23.52,0.33,0.82,0.37
0.32910156,-0.40919846,-0.0055038705,0.3690382,0.38,1.15,0.89,15037,10118.00,0,0,165,-29.47,-4.97,27.44,0.38,1.15,0.89
1.3291016,-1.4071985,0.015496124,-0.25796184,0.64,1.12,0.27,15052,10119.00,0,0,0,-99.33,-3.50,-16.45,0.64,1.12,0.27
0.32910156,-0.87719846,-0.029503874,-0.17996182,0.62,0.93,0.09,15067,10118.00,0,0,165,-62.23,-6.65,-10.99,0.62,0.93,0.09
0.029296875,-0.46419844,0.15649612,0.093038164,0.59,1.09,0.25,15075,10117.70,0,0,0,-33.32,6.37,8.12,0.59,1.09,0.25
0.32910156,-0.11619848,0.12849613,0.41703817,0.42,0.82,0.2,15090,10118.00,0,0,165,-8.96,4.41,30.80,0.42,0.82,0.20
0.32910156,-0.5741985,0.23449612,0.08103817,0.48,0.77,0.22,15105,10118.00,0,0,0,-41.02,11.83,7.28,0.48,0.77,0.22
1.3291016,0.66980153,-0.08250388,0.14703818,0.67,0.43,0.61,15112,10119.00,0,0,165,46.06,-10.36,11.90,0.67,0.43,0.61
1.3291016,0.13580154,-0.52750385,-0.03296183,0.28,0.92,0.55,15127,10119.00,0,0,0,8.68,-41.51,-0.70,0.28,0.92,0.55
0.029296875,0.6538015,-0.75450385,0.35003817,0.54,0.89,0.38,15142,10117.70,0,0,165,44.94,-57.40,26.11,0.54,0.89,0.38
0.32910156,0.42980155,-0.64750385,0.30603817,0.45,0.74,0.23,15149,10118.00,0,0,0,29.26,-49.91,23.03,0.45,0.74,0.23
0.32910156,0.19780153,-0.4385039,0.26603818,0.44,0.87,0.1,15165,10118.00,0,0,165,13.02,-35.28,20.23,0.44,0.87,0.10
0.029296875,-0.16919847,-0.008503877,0.08903817,0.32,0.7,-0.01,15179,10117.70,0,0,0,-12.67,-5.18,7.84,0.32,0.70,-0.01
0.32910156,-0.52019846,0.07849613,0.08703817,0.5,0.73,0.39,15187,10118.00,0,0,165,-37.24,0.91,7.70,0.50,0.73,0.39
0.32910156,-0.9491984,0.13149613,-0.100961834,0.37,0.82,0.21,15202,10118.00,0,0,0,-67.27,4.62,-5.46,0.37,0.82,0.21
0.32910156,-1.0021986,0.20549613,-0.029961832,0.44,0.85,0.33,15217,10118.00,0,0,165,-70.98,9.80,-0.49,0.44,0.85,0.33
0.029296875,-0.74219847,0.15549612,0.05603817,0.62,0.93,0.15,15225,10117.70,0,0,0,-52.78,6.30,5.53,0.62,0.93,0.15
0.32910156,0.049801532,0.008496124,0.2510382,0.52,0.8,0.32,15239,10118.00,0,0,165,2.66,-3.99,19.18,0.52,0.80,0.32
0.32910156,0.17380153,0.087496124,0.19903818,0.44,0.86,0.33,15255,10118.00,0,0,0,11.34,1.54,15.54,0.44,0.86,0.33
0.32910156,0.36580154,0.23849612,0.18303818,0.4,0.91,0.34,15261,10118.00,0,0,165,24.78,12.11,14.42,0.40,0.91,0.34
0.32910156,0.49180153,0.28249612,0.18403818,0.39,1.01,0.32,15278,10118.00,0,0,0,33.60,15.19,14.49,0.39,1.01,0.32
-0.9707031,0.49180153,0.24749613,-0.03796183,0.58,0.84,0.31,15293,10116.70,0,0,165,33.60,12.74,-1.05,0.58,0.84,0.31
0.32910156,0.57480156,0.09349613,-0.03296183,0.51,0.75,0.38,15299,10118.00,0,0,0,39.41,1.96,-0.70,0.51,0.75,0.38
0.32910156,0.22280154,0.010496125,-0.026961831,0.46,0.78,0.39,15315,10118.00,0,0,165,14.77,-3.85,-0.28,0.46,0.78,0.39
-0.9707031,0.22280154,-0.071503885,-0.13996182,0.44,0.75,0.32,15330,10116.70,0,0,0,14.77,-9.59,-8.19,0.44,0.75,0.32
0.32910156,0.3148015,-0.10750387,-0.17696182,0.45,0.84,0.27,15339,10118.00,0,0,165,21.21,-12.11,-10.78,0.45,0.84,0.27
1.0292969,0.30580154,-0.06250388,-0.10696183,0.51,0.8,0.27,15352,10118.70,0,0,0,20.58,-8.96,-5.88,0.51,0.80,0.27
0.029296875,0.33980152,0.011496123,-0.03696183,0.53,0.81,0.22,15367,10117.70,0,0,165,22.96,-3.78,-0.98,0.53,0.81,0.22
1.3291016,0.28480154,0.017496128,-0.00896183,0.54,0.86,0.24,15375,10119.00,0,0,0,19.11,-3.36,0.98,0.54,0.86,0.24
0.029296875,0.15680152,-0.022503875,0.010038169,0.47,0.8,0.26,15389,10117.70,0,0,165,10.15,-6.16,2.31,0.47,0.80,0.26
1.3291016,-0.055198472,-0.036503874,-0.016961832,0.44,0.82,0.31,15404,10119.00,0,0,0,-4.69,-7.14,0.42,0.44,0.82,0.31
0.32910156,-0.46019846,-0.02450388,-0.048961833,0.46,0.86,0.29,15412,10118.00,0,0,165,-33.04,-6.30,-1.82,0.46,0.86,0.29
0.32910156,-0.38319844,-0.049503878,0.012038169,0.47,0.88,0.32,15427,10118.00,0,0,0,-27.65,-8.05,2.45,0.47,0.88,0.32
0.32910156,-0.43719846,-0.004503876,-0.01796183,0.46,0.88,0.33,15442,10118.00,0,0,165,-31.43,-4.90,0.35,0.46,0.88,0.33
-0.67089844,-0.081198476,0.052496124,0.057038166,0.47,0.96,0.31,15450,10117.00,0,0,0,-6.51,-0.91,5.60,0.47,0.96,0.31
1.0292969,0.09080153,0.09649613,0.15703818,0.5,0.86,0.32,15464,10118.70,0,0,165,5.53,2.17,12.60,0.50,0.86,0.32
1.3291016,0.18680152,0.19149613,0.3070382,0.49,0.81,0.3,15479,10119.00,0,0,0,12.25,8.82,23.10,0.49,0.81,0.30
0.32910156,0.20080152,0.16349614,0.16003819,0.46,0.83,0.3,15487,10118.00,0,0,165,13.23,6.86,12.81,0.46,0.83,0.30
0.029296875,0.13580154,-5.038753E-4,-0.11096183,0.5,0.85,0.28,15502,10117.70,0,0,0,8.68,-4.62,-6.16,0.50,0.85,0.28
1.3291016,0.10780152,-0.048503876,-0.18896182,0.49,0.85,0.29,15517,10119.00,0,0,165,6.72,-7.98,-11.62,0.49,0.85,0.29
0.029296875,0.08680153,-0.044503875,-0.3249618,0.43,0.85,0.31,15532,10117.70,0,0,0,5.25,-7.70,-21.14,0.43,0.85,0.31
1.3291016,0.005801529,0.10449612,-0.26096183,0.35,0.91,0.33,15539,10119.00,0,0,165,-0.42,2.73,-16.66,0.35,0.91,0.33
1.0292969,0.03780153,0.29549614,-0.29096183,0.43,0.82,0.31,15554,10118.70,0,0,0,1.82,16.10,-18.76,0.43,0.82,0.31
1.3291016,0.20880152,0.3044961,-0.31396183,0.48,0.77,0.31,15561,10119.00,0,0,165,13.79,16.73,-20.37,0.48,0.77,0.31
1.0292969,0.22680153,0.18749613,-0.36096182,0.48,0.85,0.3,15577,10118.70,0,0,0,15.05,8.54,-23.66,0.48,0.85,0.30
1.0292969,0.19880153,0.106496125,-0.41896182,0.46,0.87,0.31,15593,10118.70,0,0,165,13.09,2.87,-27.72,0.46,0.87,0.31
-0.67089844,0.19580153,0.13649613,-0.3739618,0.46,0.84,0.3,15600,10117.00,0,0,0,12.88,4.97,-24.57,0.46,0.84,0.30
0.32910156,0.21880153,0.099496126,-0.27896184,0.49,0.82,0.27,15614,10118.00,0,0,165,14.49,2.38,-17.92,0.49,0.82,0.27
1.9287109,0.18580154,0.11149612,-0.13896182,0.48,0.88,0.25,15629,10119.60,0,0,0,12.18,3.22,-8.12,0.48,0.88,0.25
1.3291016,0.22380152,0.14149612,-0.100961834,0.49,0.87,0.24,15637,10119.00,0,0,165,14.84,5.32,-5.46,0.49,0.87,0.24
1.3291016,0.15780152,0.16249612,-0.01896183,0.49,0.83,0.25,15652,10119.00,0,0,0,10.22,6.79,0.28,0.49,0.83,0.25
0.32910156,0.049801532,0.117496125,0.05503817,0.47,0.88,0.27,15667,10118.00,0,0,165,2.66,3.64,5.46,0.47,0.88,0.27
1.3291016,0.069801524,0.023496125,0.04503817,0.45,0.89,0.29,15682,10119.00,0,0,0,4.06,-2.94,4.76,0.45,0.89,0.29
1.0292969,0.19680153,0.073496126,0.035038166,0.42,0.95,0.3,15689,10118.70,0,0,165,12.95,0.56,4.06,0.42,0.95,0.30
2.3291016,0.33880153,0.14049613,-0.13596183,0.45,0.9,0.3,15705,10120.00,0,0,0,22.89,5.25,-7.91,0.45,0.90,0.30
1.3291016,0.39880154,0.20549613,-0.24596182,0.45,0.86,0.31,15712,10119.00,0,0,165,27.09,9.80,-15.61,0.45,0.86,0.31
0.029296875,0.41680154,0.19649613,-0.35196182,0.46,0.89,0.3,15727,10117.70,0,0,0,28.35,9.17,-23.03,0.46,0.89,0.30
1.9287109,0.34680155,0.19849613,-0.44396183,0.46,0.88,0.28,15744,10119.60,0,0,165,23.45,9.31,-29.47,0.46,0.88,0.28
1.0292969,0.124801524,0.34449613,-0.45896184,0.44,0.88,0.27,15749,10118.70,0,0,0,7.91,19.53,-30.52,0.44,0.88,0.27
2.3291016,-0.04019847,0.2694961,-0.41996184,0.41,0.92,0.25,15765,10120.00,0,0,165,-3.64,14.28,-27.79,0.41,0.92,0.25
2.3291016,-0.05119847,0.13249612,-0.37196183,0.39,0.86,0.29,15780,10120.00,0,0,0,-4.41,4.69,-24.43,0.39,0.86,0.29
1.3291016,-0.06719848,0.13749611,-0.22396182,0.39,0.88,0.27,15786,10119.00,0,0,165,-5.53,5.04,-14.07,0.39,0.88,0.27
1.0292969,0.0078015286,0.19249612,-0.23496182,0.43,1.0,0.26,15802,10118.70,0,0,0,-0.28,8.89,-14.84,0.43,1.00,0.26
1.3291016,0.01980153,0.24249613,-0.31196183,0.42,0.93,0.28,15817,10119.00,0,0,165,0.56,12.39,-20.23,0.42,0.93,0.28
1.0292969,-0.01719847,0.29249611,-0.34896183,0.41,0.97,0.28,15824,10118.70,0,0,0,-2.03,15.89,-22.82,0.41,0.97,0.28
2.3291016,-0.011198471,0.31349614,-0.37196183,0.4,0.96,0.29,15840,10120.00,0,0,165,-1.61,17.36,-24.43,0.40,0.96,0.29
2.3291016,0.06480153,0.31449613,-0.43996182,0.4,0.93,0.28,15854,10120.00,0,0,0,3.71,17.43,-29.19,0.40,0.93,0.28
1.3291016,0.17780152,0.29449615,-0.4499618,0.4,0.93,0.29,15862,10119.00,0,0,165,11.62,16.03,-29.89,0.40,0.93,0.29
2.3291016,0.28380156,0.34549612,-0.4619618,0.39,0.83,0.29,15877,10120.00,0,0,0,19.04,19.60,-30.73,0.39,0.83,0.29
2.3291016,0.20580153,0.3304961,-0.20396182,0.4,0.89,0.29,15892,10120.00,0,0,165,13.58,18.55,-12.67,0.40,0.89,0.29
2.3291016,0.03680153,0.30949613,-0.17296183,0.4,0.89,0.29,15900,10120.00,0,0,0,1.75,17.08,-10.50,0.40,0.89,0.29
2.3291016,0.0048015285,0.26749614,-0.12696183,0.4,0.86,0.28,15915,10120.00,0,0,165,-0.49,14.14,-7.28,0.40,0.86,0.28
3.2294922,0.114801526,0.22549611,-0.09696183,0.38,0.88,0.29,15930,10120.90,0,0,0,7.21,11.20,-5.18,0.38,0.88,0.29
3.2294922,0.18580154,0.21749613,-0.08796184,0.38,0.88,0.29,15937,10120.90,0,0,165,12.18,10.64,-4.55,0.38,0.88,0.29
3.2294922,0.16480152,0.18349612,-0.044961832,0.37,0.88,0.28,15952,10120.90,0,0,0,10.71,8.26,-1.54,0.37,0.88,0.28
2.928711,0.16180153,0.17049612,-0.04796183,0.38,0.88,0.28,15976,10120.60,0,0,165,10.50,7.35,-1.75,0.38,0.88,0.28
3.2294922,0.15680152,0.16049612,-0.01996183,0.37,0.88,0.29,15977,10120.90,0,0,0,10.15,6.65,0.21,0.37,0.88,0.29
2.928711,0.17480153,0.15749612,-0.01496183,0.36,0.87,0.31,15989,10120.60,0,0,165,11.41,6.44,0.56,0.36,0.87,0.31
3.928711,0.17880152,0.15249613,-0.00696183,0.35,0.89,0.32,16005,10121.60,0,0,0,11.69,6.09,1.12,0.35,0.89,0.32
2.928711,0.13980153,0.14849612,0.0030381698,0.34,0.87,0.35,16012,10120.60,0,0,165,8.96,5.81,1.82,0.34,0.87,0.35
3.928711,0.11180153,0.09649613,0.036038168,0.34,0.87,0.35,16027,10121.60,0,0,0,7.00,2.17,4.13,0.34,0.87,0.35
4.229492,0.04280153,0.18549612,0.025038166,0.35,0.86,0.34,16042,10121.90,0,0,165,2.17,8.40,3.36,0.35,0.86,0.34
4.229492,-0.04819847,0.19049612,0.08403816,0.37,0.89,0.31,16050,10121.90,0,0,0,-4.20,8.75,7.49,0.37,0.89,0.31
4.229492,-0.04719847,0.21349612,0.14403817,0.37,0.91,0.3,16065,10121.90,0,0,165,-4.13,10.36,11.69,0.37,0.91,0.30
3.2294922,-0.003198471,0.23749614,0.16003819,0.36,0.93,0.28,16080,10120.90,0,0,0,-1.05,12.04,12.81,0.36,0.93,0.28
4.229492,0.04080153,0.24649611,0.14103816,0.36,0.93,0.27,16087,10121.90,0,0,165,2.03,12.67,11.48,0.36,0.93,0.27
4.229492,0.047801528,0.23249611,0.19003817,0.38,0.92,0.25,16102,10121.90,0,0,0,2.52,11.69,14.91,0.38,0.92,0.25
4.229492,0.047801528,0.10749613,0.31903818,0.45,0.94,0.23,16116,10121.90,0,0,165,2.52,2.94,23.94,0.45,0.94,0.23
4.229492,-0.010198471,-0.088503875,0.43003815,0.39,0.97,0.15,16125,10121.90,0,0,0,-1.54,-10.78,31.71,0.39,0.97,0.15
5.229492,0.43280154,-0.12350387,0.37503818,0.39,0.9,0.16,16140,10122.90,0,0,165,29.47,-13.23,27.86,0.39,0.90,0.16
5.229492,0.43380156,-0.27350387,0.5760381,0.46,0.86,0.2,16154,10122.90,0,0,0,29.54,-23.73,41.93,0.46,0.86,0.20
4.928711,0.42980155,-0.076503865,0.65703815,0.35,0.91,0.23,16162,10122.60,0,0,165,29.26,-9.94,47.60,0.35,0.91,0.23
5.229492,0.066801526,0.06649613,0.6700381,0.41,0.87,0.28,16177,10122.90,0,0,0,3.85,0.07,48.51,0.41,0.87,0.28
5.229492,-0.011198471,0.017496128,0.52803814,0.36,0.86,0.26,16192,10122.90,0,0,165,-1.61,-3.36,38.57,0.36,0.86,0.26
5.8291016,-0.014198472,-0.019503877,0.33103818,0.35,0.87,0.26,16199,10123.50,0,0,0,-1.82,-5.95,24.78,0.35,0.87,0.26
5.229492,-0.0011984715,0.029496126,0.21603817,0.38,0.88,0.27,16214,10122.90,0,0,165,-0.91,-2.52,16.73,0.38,0.88,0.27
6.229492,-0.080198474,0.14649612,0.18803819,0.4,0.87,0.32,16229,10123.90,0,0,0,-6.44,5.67,14.77,0.40,0.87,0.32
5.8291016,-0.19319847,0.25049612,0.16903816,0.4,0.85,0.36,16237,10123.50,0,0,165,-14.35,12.95,13.44,0.40,0.85,0.36
6.8291016,-0.031198472,0.15749612,0.16803817,0.4,0.91,0.32,16252,10124.50,0,0,0,-3.01,6.44,13.37,0.40,0.91,0.32
6.8291016,0.11980153,0.08249612,0.14003818,0.41,0.93,0.27,16267,10124.50,0,0,165,7.56,1.19,11.41,0.41,0.93,0.27
7.1289062,0.15680152,0.11649612,0.11703817,0.44,0.92,0.24,16275,10124.80,0,0,0,10.15,3.57,9.80,0.44,0.92,0.24
8.128906,0.14180154,0.14149612,0.090038165,0.45,0.92,0.23,16289,10125.80,0,0,165,9.10,5.32,7.91,0.45,0.92,0.23
6.8291016,0.10480153,0.15249613,0.058038168,0.46,0.89,0.24,16312,10124.50,0,0,0,6.51,6.09,5.67,0.46,0.89,0.24
8.128906,0.07380153,0.16149612,0.03803817,0.45,0.86,0.26,16313,10125.80,0,0,165,4.34,6.72,4.27,0.45,0.86,0.26
7.8291016,-1.9847043E-4,0.21449614,0.082038164,0.44,0.85,0.3,16327,10125.50,0,0,0,-0.84,10.43,7.35,0.44,0.85,0.30
8.128906,-0.02819847,0.25649613,0.11103817,0.43,0.84,0.32,16343,10125.80,0,0,165,-2.80,13.37,9.38,0.43,0.84,0.32
9.128906,0.010801529,0.25449613,0.16003819,0.42,0.85,0.33,16349,10126.80,0,0,0,-0.07,13.23,12.81,0.42,0.85,0.33
9.729492,0.07080153,0.27449614,0.20903817,0.39,0.9,0.3,16364,10127.40,0,0,165,4.13,14.63,16.24,0.39,0.90,0.30
10.128906,0.14780153,0.31249613,0.21203819,0.39,0.93,0.29,16380,10127.80,0,0,0,9.52,17.29,16.45,0.39,0.93,0.29
10.128906,0.24780153,0.32649612,0.20903817,0.4,0.93,0.29,16394,10127.80,0,0,165,16.52,18.27,16.24,0.40,0.93,0.29
10.128906,0.33280152,0.3644961,0.19703817,0.4,0.92,0.31,16402,10127.80,0,0,0,22.47,20.93,15.40,0.40,0.92,0.31
10.128906,0.34580153,0.4604961,0.20903817,0.4,0.9,0.35,16417,10127.80,0,0,165,23.38,27.65,16.24,0.40,0.90,0.35
10.128906,0.32680154,0.5464961,0.26503816,0.39,0.88,0.36,16425,10127.80,0,0,0,22.05,33.67,20.16,0.39,0.88,0.36
9.428711,0.38580155,0.5724962,0.31203818,0.38,0.88,0.36,16439,10127.10,0,0,165,26.18,35.49,23.45,0.38,0.88,0.36
11.128906,0.42580155,0.65449613,0.3690382,0.37,0.88,0.34,16454,10128.80,0,0,0,28.98,41.23,27.44,0.37,0.88,0.34
10.128906,0.52380157,0.68949616,0.3810382,0.38,0.94,0.28,16466,10127.80,0,0,165,35.84,43.68,28.28,0.38,0.94,0.28
9.729492,0.7538015,0.6184961,0.30503815,0.42,0.93,0.23,16477,10127.40,0,0,0,51.94,38.71,22.96,0.42,0.93,0.23
9.128906,0.82480156,0.63149613,0.3210382,0.47,0.89,0.2,16492,10126.80,0,0,165,56.91,39.62,24.08,0.47,0.89,0.20
10.128906,0.7768015,0.6144962,0.25703818,0.54,0.87,0.19,16499,10127.80,0,0,0,53.55,38.43,19.60,0.54,0.87,0.19
10.128906,0.6808016,0.55249614,0.15503818,0.57,0.81,0.2,16515,10127.80,0,0,165,46.83,34.09,12.46,0.57,0.81,0.20
11.128906,0.53980154,0.4454961,0.13503818,0.6,0.79,0.18,16530,10128.80,0,0,0,36.96,26.60,11.06,0.60,0.79,0.18
11.128906,0.42180154,0.3974961,0.12403817,0.59,0.86,0.18,16537,10128.80,0,0,165,28.70,23.24,10.29,0.59,0.86,0.18
9.729492,0.31280154,0.3804961,0.072038166,0.6,0.9,0.16,16552,10127.40,0,0,0,21.07,22.05,6.65,0.60,0.90,0.16
11.128906,0.28180152,0.3364961,0.01603817,0.61,0.9,0.15,16567,10128.80,0,0,165,18.90,18.97,2.73,0.61,0.90,0.15
11.128906,0.23580153,0.30749613,-0.03996183,0.62,0.89,0.16,16575,10128.80,0,0,0,15.68,16.94,-1.19,0.62,0.89,0.16
10.729492,0.16980153,0.28949612,-0.07596183,0.61,0.87,0.18,16591,10128.40,0,0,165,11.06,15.68,-3.71,0.61,0.87,0.18
11.128906,0.08980153,0.24949613,-0.13096184,0.59,0.88,0.2,16604,10128.80,0,0,0,5.46,12.88,-7.56,0.59,0.88,0.20
11.128906,-0.03819847,0.2074961,-0.20696183,0.55,0.92,0.21,16612,10128.80,0,0,165,-3.50,9.94,-12.88,0.55,0.92,0.21
11.128906,-0.11919847,0.14849612,-0.30096182,0.49,0.91,0.23,16627,10128.80,0,0,0,-9.17,5.81,-19.46,0.49,0.91,0.23
10.128906,-0.18819848,0.099496126,-0.4059618,0.44,0.89,0.25,16642,10127.80,0,0,165,-14.00,2.38,-26.81,0.44,0.89,0.25
9.128906,-0.26719847,0.061496124,-0.48796183,0.41,0.85,0.3,16649,10126.80,0,0,0,-19.53,-0.28,-32.55,0.41,0.85,0.30
10.128906,-0.30919844,0.033496123,-0.52296185,0.41,0.82,0.33,16665,10127.80,0,0,165,-22.47,-2.24,-35.00,0.41,0.82,0.33
10.128906,-0.31319845,0.008496124,-0.50796187,0.43,0.81,0.34,16680,10127.80,0,0,0,-22.75,-3.99,-33.95,0.43,0.81,0.34
10.128906,-0.27219844,0.008496124,-0.44696182,0.41,0.83,0.34,16687,10127.80,0,0,165,-19.88,-3.99,-29.68,0.41,0.83,0.34
10.128906,-0.19619848,0.062496126,-0.37796184,0.38,0.87,0.37,16701,10127.80,0,0,0,-14.56,-0.21,-24.85,0.38,0.87,0.37
9.128906,-0.03019847,0.08949612,-0.36496183,0.37,0.86,0.39,16717,10126.80,0,0,165,-2.94,1.68,-23.94,0.37,0.86,0.39
9.128906,0.02880153,0.19149613,-0.30096182,0.41,0.84,0.39,16725,10126.80,0,0,0,1.19,8.82,-19.46,0.41,0.84,0.39
9.128906,0.10580152,0.28449613,-0.23396184,0.45,0.85,0.36,16740,10126.80,0,0,165,6.58,15.33,-14.77,0.45,0.85,0.36
8.829102,0.16180153,0.3464961,-0.16296183,0.47,0.86,0.33,16755,10126.50,0,0,0,10.50,19.67,-9.80,0.47,0.86,0.33
9.128906,0.20780154,0.3794961,-0.10596183,0.49,0.88,0.29,16762,10126.80,0,0,165,13.72,21.98,-5.81,0.49,0.88,0.29
9.128906,0.24380152,0.37749612,-0.063961826,0.52,0.88,0.25,16776,10126.80,0,0,0,16.24,21.84,-2.87,0.52,0.88,0.25
7.8291016,0.24180153,0.35249612,-0.06896183,0.52,0.91,0.22,16792,10125.50,0,0,165,16.10,20.09,-3.22,0.52,0.91,0.22
9.128906,0.24280153,0.31549612,-0.09596183,0.51,0.95,0.19,16800,10126.80,0,0,0,16.17,17.50,-5.11,0.51,0.95,0.19
8.128906,0.24480152,0.27649614,-0.15496182,0.51,0.95,0.17,16814,10125.80,0,0,165,16.31,14.77,-9.24,0.51,0.95,0.17
8.128906,0.23880152,0.23749614,-0.23096183,0.5,0.93,0.18,16829,10125.80,0,0,0,15.89,12.04,-14.56,0.50,0.93,0.18
8.829102,0.20380151,0.20949611,-0.28696182,0.5,0.91,0.19,16837,10126.50,0,0,165,13.44,10.08,-18.48,0.50,0.91,0.19
8.128906,0.15080152,0.17249611,-0.33396184,0.49,0.88,0.19,16852,10125.80,0,0,0,9.73,7.49,-21.77,0.49,0.88,0.19
9.128906,0.09380152,0.14849612,-0.33296183,0.5,0.87,0.17,16867,10126.80,0,0,165,5.74,5.81,-21.70,0.50,0.87,0.17
9.128906,0.03780153,0.059496123,-0.3689618,0.48,0.92,0.14,16874,10126.80,0,0,0,1.82,-0.42,-24.22,0.48,0.92,0.14
9.128906,0.013801529,-0.054503873,-0.45496184,0.44,0.91,0.14,16890,10126.80,0,0,165,0.14,-8.40,-30.24,0.44,0.91,0.14
10.128906,0.04580153,-0.19850388,-0.53796184,0.42,0.94,0.13,16905,10127.80,0,0,0,2.38,-18.48,-36.05,0.42,0.94,0.13
9.128906,0.07180153,-0.26550388,-0.5249618,0.4,0.93,0.16,16912,10126.80,0,0,165,4.20,-23.17,-35.14,0.40,0.93,0.16
10.128906,0.084801525,-0.3155039,-0.5569619,0.33,0.93,0.2,16927,10127.80,0,0,0,5.11,-26.67,-37.38,0.33,0.93,0.20
10.128906,0.09880153,-0.2785039,-0.46796182,0.27,0.92,0.23,16942,10127.80,0,0,165,6.09,-24.08,-31.15,0.27,0.92,0.23
10.128906,0.103801526,-0.15150386,-0.37896183,0.21,0.91,0.26,16950,10127.80,0,0,0,6.44,-15.19,-24.92,0.21,0.91,0.26
10.729492,0.08280152,-0.06850388,-0.38296184,0.17,0.91,0.27,16964,10128.40,0,0,165,4.97,-9.38,-25.20,0.17,0.91,0.27
10.128906,0.03680153,-0.003503874,-0.39796183,0.19,0.9,0.25,16979,10127.80,0,0,0,1.75,-4.83,-26.25,0.19,0.90,0.25
10.128906,0.017801529,0.0024961233,-0.36796182,0.24,0.88,0.21,16986,10127.80,0,0,165,0.42,-4.41,-24.15,0.24,0.88,0.21
10.128906,0.035801526,-0.039503872,-0.29196182,0.3,0.86,0.18,17002,10127.80,0,0,0,1.68,-7.35,-18.83,0.30,0.86,0.18
9.729492,0.05080153,-0.10050387,-0.20596184,0.31,0.87,0.18,17017,10127.40,0,0,165,2.73,-11.62,-12.81,0.31,0.87,0.18
10.128906,0.052801527,-0.14750388,-0.12696183,0.27,0.89,0.21,17025,10127.80,0,0,0,2.87,-14.91,-7.28,0.27,0.89,0.21
11.128906,0.047801528,-0.15650389,-0.08596183,0.26,0.91,0.24,17039,10128.80,0,0,165,2.52,-15.54,-4.41,0.26,0.91,0.24
11.128906,0.041801527,-0.14950389,-0.04696183,0.28,0.89,0.27,17054,10128.80,0,0,0,2.10,-15.05,-1.68,0.28,0.89,0.27
10.128906,-0.24419849,-0.09050388,-0.024961831,0.3,0.88,0.28,17062,10127.80,0,0,165,-17.92,-10.92,-0.14,0.30,0.88,0.28
10.128906,-0.03419847,-0.06250388,0.02003817,0.3,0.91,0.24,17077,10127.80,0,0,0,-3.22,-8.96,3.01,0.30,0.91,0.24
10.128906,-0.03519847,-0.07750388,0.05203817,0.31,0.94,0.21,17092,10127.80,0,0,165,-3.29,-10.01,5.25,0.31,0.94,0.21
11.128906,-0.0021984717,-0.076503865,0.06203817,0.27,0.97,0.23,17100,10128.80,0,0,0,-0.98,-9.94,5.95,0.27,0.97,0.23
10.128906,0.02280153,-0.048503876,0.02003817,0.21,1.0,0.27,17114,10127.80,0,0,165,0.77,-7.98,3.01,0.21,1.00,0.27
9.128906,0.023801528,0.024496127,-0.05196183,0.19,0.99,0.29,17129,10126.80,0,0,0,0.84,-2.87,-2.03,0.19,0.99,0.29
11.128906,0.016801529,0.11549613,-0.12596183,0.22,0.97,0.31,17136,10128.80,0,0,165,0.35,3.50,-7.21,0.22,0.97,0.31
11.729492,-1.9847043E-4,0.18649614,-0.15596183,0.26,0.94,0.29,17151,10129.40,0,0,0,-0.84,8.47,-9.31,0.26,0.94,0.29
11.128906,-0.015198472,0.22749612,-0.13896182,0.3,0.9,0.28,17167,10128.80,0,0,165,-1.89,11.34,-8.12,0.30,0.90,0.28
10.128906,-0.04319847,0.25149614,-0.078961834,0.33,0.91,0.23,17174,10127.80,0,0,0,-3.85,13.02,-3.92,0.33,0.91,0.23
11.128906,-0.05719847,0.23949614,-0.063961826,0.35,0.94,0.22,17189,10128.80,0,0,165,-4.83,12.18,-2.87,0.35,0.94,0.22
10.128906,-0.05819847,0.19849613,-0.04796183,0.34,0.95,0.23,17204,10127.80,0,0,0,-4.90,9.31,-1.75,0.34,0.95,0.23
9.729492,-0.04819847,0.16449612,-0.05096183,0.3,0.96,0.24,17212,10127.40,0,0,165,-4.20,6.93,-1.96,0.30,0.96,0.24
11.128906,-0.016198471,0.14449613,-0.070961826,0.24,0.98,0.26,17227,10128.80,0,0,0,-1.96,5.53,-3.36,0.24,0.98,0.26
11.128906,0.016801529,0.16149612,-0.09696183,0.21,1.01,0.26,17242,10128.80,0,0,165,0.35,6.72,-5.18,0.21,1.01,0.26
11.128906,0.05380153,0.19249612,-0.16196182,0.22,0.97,0.28,17249,10128.80,0,0,0,2.94,8.89,-9.73,0.22,0.97,0.28
10.128906,0.06780153,0.2444961,-0.17496184,0.24,0.96,0.28,17264,10127.80,0,0,165,3.92,12.53,-10.64,0.24,0.96,0.28
11.128906,0.066801526,0.26449612,-0.18696181,0.26,0.95,0.26,17279,10128.80,0,0,0,3.85,13.93,-11.48,0.26,0.95,0.26
10.729492,0.066801526,0.2554961,-0.17796183,0.29,0.94,0.24,17287,10128.40,0,0,165,3.85,13.30,-10.85,0.29,0.94,0.24
12.029297,0.060801532,0.21649611,-0.15096183,0.29,0.93,0.23,17302,10129.70,0,0,0,3.43,10.57,-8.96,0.29,0.93,0.23
12.428711,0.052801527,0.18349612,-0.13996182,0.28,0.93,0.22,17317,10130.10,0,0,165,2.87,8.26,-8.19,0.28,0.93,0.22
12.029297,0.049801532,0.16349614,-0.11796183,0.25,0.93,0.24,17324,10129.70,0,0,0,2.66,6.86,-6.65,0.25,0.93,0.24
12.029297,0.04580153,0.15249613,-0.12796183,0.21,0.94,0.27,17339,10129.70,0,0,165,2.38,6.09,-7.35,0.21,0.94,0.27
12.029297,0.008801529,0.23149613,-0.12696183,0.22,0.95,0.29,17354,10129.70,0,0,0,-0.21,11.62,-7.28,0.22,0.95,0.29
12.029297,-0.009198471,0.26849613,-0.115961835,0.25,0.96,0.28,17362,10129.70,0,0,165,-1.47,14.21,-6.51,0.25,0.96,0.28
12.029297,-0.005198472,0.25849614,-0.13196184,0.28,0.95,0.26,17377,10129.70,0,0,0,-1.19,13.51,-7.63,0.28,0.95,0.26
11.128906,-0.009198471,0.24049613,-0.118961826,0.3,0.94,0.26,17392,10128.80,0,0,165,-1.47,12.25,-6.72,0.30,0.94,0.26
11.128906,0.006801529,0.21049613,-0.11496183,0.29,0.94,0.26,17399,10128.80,0,0,0,-0.35,10.15,-6.44,0.29,0.94,0.26
12.029297,0.018801529,0.19649613,-0.118961826,0.28,0.94,0.26,17414,10129.70,0,0,165,0.49,9.17,-6.72,0.28,0.94,0.26
11.128906,0.041801527,0.19649613,-0.10396183,0.28,0.93,0.27,17429,10128.80,0,0,0,2.10,9.17,-5.67,0.28,0.93,0.27
12.029297,0.052801527,0.19249612,-0.09596183,0.26,0.94,0.28,17437,10129.70,0,0,165,2.87,8.89,-5.11,0.26,0.94,0.28
11.128906,0.012801529,0.19249612,-0.097961836,0.24,0.95,0.27,17452,10128.80,0,0,0,0.07,8.89,-5.25,0.24,0.95,0.27
11.729492,-0.0021984717,0.17849612,-0.119961835,0.25,0.96,0.25,17467,10129.40,0,0,165,-0.98,7.91,-6.79,0.25,0.96,0.25
12.029297,-0.0011984715,0.18249612,-0.14596182,0.26,0.97,0.24,17475,10129.70,0,0,0,-0.91,8.19,-8.61,0.26,0.97,0.24
11.128906,0.025801528,0.16949612,-0.18996182,0.26,0.96,0.25,17490,10128.80,0,0,165,0.98,7.28,-11.69,0.26,0.96,0.25
11.128906,0.04080153,0.16249612,-0.21396182,0.26,0.96,0.25,17505,10128.80,0,0,0,2.03,6.79,-13.37,0.26,0.96,0.25
12.029297,0.032801528,0.15249613,-0.22696182,0.27,0.93,0.25,17512,10129.70,0,0,165,1.47,6.09,-14.28,0.27,0.93,0.25
11.729492,0.017801529,0.10349613,-0.21396182,0.3,0.88,0.27,17526,10129.40,0,0,0,0.42,2.66,-13.37,0.30,0.88,0.27
11.128906,-0.04019847,0.048496123,-0.16696182,0.28,0.89,0.27,17541,10128.80,0,0,165,-3.64,-1.19,-10.08,0.28,0.89,0.27
12.029297,-0.07419848,0.031496122,-0.12996182,0.23,0.91,0.28,17549,10129.70,0,0,0,-6.02,-2.38,-7.49,0.23,0.91,0.28
12.029297,-0.106198475,0.043496124,-0.10296183,0.2,0.94,0.28,17565,10129.70,0,0,165,-8.26,-1.54,-5.60,0.20,0.94,0.28
12.428711,-0.099198475,0.088496126,-0.12796183,0.18,0.96,0.29,17579,10130.10,0,0,0,-7.77,1.61,-7.35,0.18,0.96,0.29
12.428711,-0.103198476,0.12949613,-0.14796183,0.21,0.93,0.3,17587,10130.10,0,0,165,-8.05,4.48,-8.75,0.21,0.93,0.30
12.029297,-0.105198465,0.13549612,-0.12596183,0.26,0.9,0.29,17602,10129.70,0,0,0,-8.19,4.90,-7.21,0.26,0.90,0.29
12.029297,-0.10919848,0.10049613,-0.063961826,0.28,0.89,0.27,17617,10129.70,0,0,165,-8.47,2.45,-2.87,0.28,0.89,0.27
12.029297,-0.11719847,0.07449612,0.02303817,0.27,0.92,0.26,17624,10129.70,0,0,0,-9.03,0.63,3.22,0.27,0.92,0.26
12.428711,-0.113198474,0.069496125,0.10603816,0.25,0.93,0.28,17639,10130.10,0,0,165,-8.75,0.28,9.03,0.25,0.93,0.28
13.029297,-0.114198476,0.09249613,0.13803819,0.22,0.96,0.29,17654,10130.70,0,0,0,-8.82,1.89,11.27,0.22,0.96,0.29
12.029297,-0.12619847,0.09249613,0.123038165,0.23,0.99,0.28,17662,10129.70,0,0,165,-9.66,1.89,10.22,0.23,0.99,0.28
12.029297,-0.12019847,0.09649613,0.036038168,0.24,1.0,0.29,17676,10129.70,0,0,0,-9.24,2.17,4.13,0.24,1.00,0.29
13.329102,-0.08219847,0.13449612,-0.03296183,0.26,0.99,0.3,17691,10131.00,0,0,165,-6.58,4.83,-0.70,0.26,0.99,0.30
12.029297,-0.02119847,0.16049612,-0.05296183,0.29,0.93,0.31,17699,10129.70,0,0,0,-2.31,6.65,-2.10,0.29,0.93,0.31
13.029297,-0.033198472,0.11849612,-0.03596183,0.32,0.9,0.3,17715,10130.70,0,0,165,-3.15,3.71,-0.91,0.32,0.90,0.30
13.329102,-0.07619847,0.040496126,0.03303817,0.31,0.91,0.28,17729,10131.00,0,0,0,-6.16,-1.75,3.92,0.31,0.91,0.28
13.029297,-0.10419847,-0.050503872,0.10403817,0.26,0.97,0.27,17736,10130.70,0,0,165,-8.12,-8.12,8.89,0.26,0.97,0.27
13.029297,-0.08919848,-0.09350387,0.10703818,0.23,1.02,0.26,17752,10130.70,0,0,0,-7.07,-11.13,9.10,0.23,1.02,0.26
13.029297,-0.033198472,-0.08450388,0.048038162,0.22,1.03,0.28,17767,10130.70,0,0,165,-3.15,-10.50,4.97,0.22,1.03,0.28
12.029297,0.04680153,-0.029503874,-0.03296183,0.22,1.01,0.3,17775,10129.70,0,0,0,2.45,-6.65,-0.70,0.22,1.01,0.30
12.029297,0.103801526,0.052496124,-0.06996183,0.27,0.92,0.34,17789,10129.70,0,0,165,6.44,-0.91,-3.29,0.27,0.92,0.34
13.329102,0.10080153,0.056496125,-0.06196183,0.31,0.86,0.32,17804,10131.00,0,0,0,6.23,-0.63,-2.73,0.31,0.86,0.32
13.029297,0.05580153,-0.02450388,0.0060381684,0.33,0.84,0.29,17812,10130.70,0,0,165,3.08,-6.30,2.03,0.33,0.84,0.29
13.029297,0.0048015285,-0.096503876,0.10403817,0.29,0.84,0.28,17826,10130.70,0,0,0,-0.49,-11.34,8.89,0.29,0.84,0.28
13.029297,-0.053198475,-0.12750387,0.15403818,0.26,0.85,0.3,17841,10130.70,0,0,165,-4.55,-13.51,12.39,0.26,0.85,0.30
12.029297,-0.10119847,-0.10150387,0.16803817,0.27,0.86,0.29,17849,10129.70,0,0,0,-7.91,-11.69,13.37,0.27,0.86,0.29
13.329102,-0.15819848,-0.012503877,0.16303818,0.26,0.89,0.29,17865,10131.00,0,0,165,-11.90,-5.46,13.02,0.26,0.89,0.29
13.029297,-0.23519848,0.059496123,0.19503818,0.29,0.9,0.28,17879,10130.70,0,0,0,-17.29,-0.42,15.26,0.29,0.90,0.28
12.428711,-0.39519846,0.13449612,0.23603815,0.28,0.95,0.27,17886,10130.10,0,0,165,-28.49,4.83,18.13,0.28,0.95,0.27
13.029297,-0.33419845,0.0034961216,0.24603817,0.25,0.95,0.29,17902,10130.70,0,0,0,-24.22,-4.34,18.83,0.25,0.95,0.29
12.428711,-0.33319846,-0.08550387,0.22003818,0.22,0.93,0.33,17917,10130.10,0,0,165,-24.15,-10.57,17.01,0.22,0.93,0.33
12.428711,-0.36619845,-0.11750389,0.18903817,0.25,0.98,0.32,17925,10130.10,0,0,0,-26.46,-12.81,14.84,0.25,0.98,0.32
12.428711,-0.17619847,-0.1695039,0.25003818,0.27,0.95,0.32,17939,10130.10,0,0,165,-13.16,-16.45,19.11,0.27,0.95,0.32
11.428711,-0.092198476,-0.19650388,0.28303817,0.29,0.95,0.33,17954,10129.10,0,0,0,-7.28,-18.34,21.42,0.29,0.95,0.33
12.428711,-0.04719847,-0.20350388,0.30803818,0.3,0.94,0.32,17962,10130.10,0,0,165,-4.13,-18.83,23.17,0.30,0.94,0.32
11.128906,-0.026198473,-0.22650388,0.32903817,0.31,0.95,0.3,17976,10128.80,0,0,0,-2.66,-20.44,24.64,0.31,0.95,0.30
11.428711,-0.0011984715,-0.23950389,0.31203818,0.27,0.96,0.31,17991,10129.10,0,0,165,-0.91,-21.35,23.45,0.27,0.96,0.31
11.428711,0.032801528,-0.23350388,0.25803816,0.23,0.99,0.32,17999,10129.10,0,0,0,1.47,-20.93,19.67,0.23,0.99,0.32
11.428711,0.07480153,-0.20050389,0.16603817,0.22,1.0,0.32,18014,10129.10,0,0,165,4.41,-18.62,13.23,0.22,1.00,0.32
11.428711,0.11980153,-0.14550388,0.097038165,0.25,0.96,0.34,18029,10129.10,0,0,0,7.56,-14.77,8.40,0.25,0.96,0.34
10.428711,0.12680154,-0.09450387,0.071038164,0.28,0.91,0.36,18036,10128.10,0,0,165,8.05,-11.20,6.58,0.28,0.91,0.36
10.428711,0.13180153,-0.08050387,0.07303816,0.3,0.87,0.36,18052,10128.10,0,0,0,8.40,-10.22,6.72,0.30,0.87,0.36
10.428711,0.05480153,-0.025503874,0.08403816,0.32,0.86,0.33,18067,10128.10,0,0,165,3.01,-6.37,7.49,0.32,0.86,0.33
10.428711,-1.9847043E-4,-0.014503874,0.11403818,0.36,0.86,0.29,18074,10128.10,0,0,0,-0.84,-5.60,9.59,0.36,0.86,0.29
9.428711,-0.07019847,-0.033503875,0.14203818,0.37,0.88,0.27,18089,10127.10,0,0,165,-5.74,-6.93,11.55,0.37,0.88,0.27
10.428711,-0.12519848,-0.06550387,0.14003818,0.37,0.92,0.25,18104,10128.10,0,0,0,-9.59,-9.17,11.41,0.37,0.92,0.25
9.428711,-0.07419848,-0.16350389,0.14403817,0.35,0.95,0.26,18112,10127.10,0,0,165,-6.02,-16.03,11.69,0.35,0.95,0.26
9.428711,-0.06519847,-0.1975039,0.10203817,0.34,0.96,0.27,18127,10127.10,0,0,0,-5.39,-18.41,8.75,0.34,0.96,0.27
8.529297,-0.059198465,-0.2205039,0.049038164,0.33,0.98,0.29,18142,10126.20,0,0,165,-4.97,-20.02,5.04,0.33,0.98,0.29
8.529297,-0.0061984705,-0.21050388,0.00403817,0.32,0.95,0.33,18149,10126.20,0,0,0,-1.26,-19.32,1.89,0.32,0.95,0.33
7.529297,0.03180153,-0.17550388,-0.00896183,0.32,0.92,0.36,18165,10125.20,0,0,165,1.40,-16.87,0.98,0.32,0.92,0.36
7.529297,0.03780153,-0.13150388,0.0010381676,0.33,0.9,0.37,18179,10125.20,0,0,0,1.82,-13.79,1.68,0.33,0.90,0.37
7.529297,0.021801528,-0.08750387,0.022038171,0.36,0.88,0.36,18186,10125.20,0,0,165,0.70,-10.71,3.15,0.36,0.88,0.36
6.229492,0.0038015284,-0.088503875,0.054038167,0.38,0.89,0.32,18202,10123.90,0,0,0,-0.56,-10.78,5.39,0.38,0.89,0.32
7.529297,-0.008198471,-0.113503866,0.060038164,0.38,0.92,0.29,18217,10125.20,0,0,165,-1.40,-12.53,5.81,0.38,0.92,0.29
5.529297,0.023801528,-0.15050387,0.04003817,0.36,0.96,0.28,18224,10123.20,0,0,0,0.84,-15.12,4.41,0.36,0.96,0.28
5.529297,0.06780153,-0.18550387,-0.00896183,0.34,0.98,0.29,18239,10123.20,0,0,165,3.92,-17.57,0.98,0.34,0.98,0.29
5.8291016,0.124801524,-0.19150388,-0.060961835,0.33,0.96,0.31,18255,10123.50,0,0,0,7.91,-17.99,-2.66,0.33,0.96,0.31
5.529297,0.13980153,-0.17150387,-0.097961836,0.33,0.93,0.32,18262,10123.20,0,0,165,8.96,-16.59,-5.25,0.33,0.93,0.32
3.2294922,0.14880154,-0.13750386,-0.10696183,0.35,0.9,0.33,18277,10120.90,0,0,0,9.59,-14.21,-5.88,0.35,0.90,0.33
4.529297,0.13980153,-0.12150388,-0.09096184,0.36,0.89,0.31,18292,10122.20,0,0,165,8.96,-13.09,-4.76,0.36,0.89,0.31
4.928711,0.12380153,-0.11650387,-0.07296183,0.36,0.88,0.3,18308,10122.60,0,0,0,7.84,-12.74,-3.50,0.36,0.88,0.30
3.928711,0.110801525,-0.12050388,-0.056961834,0.35,0.88,0.28,18315,10121.60,0,0,165,6.93,-13.02,-2.38,0.35,0.88,0.28
2.6289062,0.09480152,-0.12950388,-0.04696183,0.34,0.9,0.26,18330,10120.30,0,0,0,5.81,-13.65,-1.68,0.34,0.90,0.26
1.9287109,0.08380152,-0.13550386,-0.044961832,0.34,0.9,0.26,18337,10119.60,0,0,165,5.04,-14.07,-1.54,0.34,0.90,0.26
2.6289062,0.07180153,-0.13350388,-0.04096183,0.33,0.9,0.26,18352,10120.30,0,0,0,4.20,-13.93,-1.26,0.33,0.90,0.26
1.9287109,0.069801524,-0.12550387,-0.03896183,0.33,0.91,0.27,18367,10119.60,0,0,165,4.06,-13.37,-1.12,0.33,0.91,0.27
1.9287109,0.066801526,-0.10750387,-0.029961832,0.33,0.91,0.28,18375,10119.60,0,0,0,3.85,-12.11,-0.49,0.33,0.91,0.28
1.9287109,0.05080153,-0.08550387,-0.02296183,0.34,0.9,0.29,18389,10119.60,0,0,165,2.73,-10.57,0.00,0.34,0.90,0.29
2.928711,0.026801528,-0.07250387,-0.00996183,0.36,0.9,0.28,18404,10120.60,0,0,0,1.05,-9.66,0.91,0.36,0.90,0.28
0.62890625,-1.9847043E-4,-0.06150388,-0.0029618312,0.37,0.91,0.28,18412,10118.30,0,0,165,-0.84,-8.89,1.40,0.37,0.91,0.28
0.62890625,-0.010198471,-0.073503874,0.0060381684,0.38,0.91,0.27,18427,10118.30,0,0,0,-1.54,-9.73,2.03,0.38,0.91,0.27
1.0292969,-0.0061984705,-0.09750388,0.015038172,0.39,0.92,0.26,18442,10118.70,0,0,165,-1.26,-11.41,2.66,0.39,0.92,0.26
1.0292969,-1.9847043E-4,-0.12950388,0.02003817,0.4,0.92,0.26,18449,10118.70,0,0,0,-0.84,-13.65,3.01,0.40,0.92,0.26
1.0292969,0.013801529,-0.1695039,0.018038167,0.41,0.94,0.25,18464,10118.70,0,0,165,0.14,-16.45,2.87,0.41,0.94,0.25
-0.2705078,0.047801528,-0.22850388,-9.6183084E-4,0.41,0.97,0.24,18480,10117.40,0,0,0,2.52,-20.58,1.54,0.41,0.97,0.24
0.029296875,0.077801526,-0.27250388,-0.024961831,0.42,0.97,0.25,18487,10117.70,0,0,165,4.62,-23.66,-0.14,0.42,0.97,0.25
0.029296875,0.114801526,-0.31850386,-0.06996183,0.42,0.99,0.27,18502,10117.70,0,0,0,7.21,-26.88,-3.29,0.42,0.99,0.27
1.0292969,0.14080152,-0.34250388,-0.13296182,0.43,1.0,0.28,18517,10118.70,0,0,165,9.03,-28.56,-7.70,0.43,1.00,0.28
0.029296875,0.16480152,-0.34350386,-0.19896182,0.43,1.0,0.3,18525,10117.70,0,0,0,10.71,-28.63,-12.32,0.43,1.00,0.30
0.029296875,0.18580154,-0.33950388,-0.24596182,0.44,0.99,0.31,18539,10117.70,0,0,165,12.18,-28.35,-15.61,0.44,0.99,0.31
0.029296875,0.24480152,-0.33750388,-0.26096183,0.44,0.98,0.31,18554,10117.70,0,0,0,16.31,-28.21,-16.66,0.44,0.98,0.31
0.029296875,0.23580153,-0.29150388,-0.29496184,0.43,0.99,0.29,18561,10117.70,0,0,165,15.68,-24.99,-19.04,0.43,0.99,0.29
0.029296875,0.2708015,-0.26550388,-0.36596182,0.42,1.01,0.26,18577,10117.70,0,0,0,18.13,-23.17,-24.01,0.42,1.01,0.26
0.029296875,0.30480155,-0.2415039,-0.44196182,0.42,1.0,0.24,18592,10117.70,0,0,165,20.51,-21.49,-29.33,0.42,1.00,0.24
1.0292969,0.34880155,-0.21550387,-0.49996182,0.41,1.0,0.22,18599,10118.70,0,0,0,23.59,-19.67,-33.39,0.41,1.00,0.22
0.029296875,0.37780157,-0.17950386,-0.57296187,0.39,0.99,0.21,18622,10117.70,0,0,165,25.62,-17.15,-38.50,0.39,0.99,0.21
1.0292969,0.42080152,-0.15850389,-0.6459619,0.38,0.97,0.19,18629,10118.70,0,0,0,28.63,-15.68,-43.61,0.38,0.97,0.19
1.9287109,0.46580154,-0.14550388,-0.7159618,0.37,0.98,0.17,18637,10119.60,0,0,165,31.78,-14.77,-48.51,0.37,0.98,0.17
1.9287109,0.5148015,-0.13350388,-0.80596185,0.37,0.97,0.16,18652,10119.60,0,0,0,35.21,-13.93,-54.81,0.37,0.97,0.16
2.928711,0.54680157,-0.11950388,-0.85196185,0.38,0.94,0.16,18668,10120.60,0,0,165,37.45,-12.95,-58.03,0.38,0.94,0.16
1.9287109,0.5518015,-0.12250387,-0.8769618,0.35,0.97,0.14,18674,10119.60,0,0,0,37.80,-13.16,-59.78,0.35,0.97,0.14
1.9287109,0.58380157,-0.12450387,-0.91296184,0.34,0.99,0.13,18697,10119.60,0,0,165,40.04,-13.30,-62.30,0.34,0.99,0.13
2.928711,0.61180156,-0.13850388,-0.97196186,0.32,0.97,0.14,18704,10120.60,0,0,0,42.00,-14.28,-66.43,0.32,0.97,0.14
1.9287109,0.62280154,-0.1305039,-0.99596184,0.31,0.96,0.15,18712,10119.60,0,0,165,42.77,-13.72,-68.11,0.31,0.96,0.15
2.6289062,0.63180155,-0.15250388,-1.0249618,0.29,0.96,0.16,18727,10120.30,0,0,0,43.40,-15.26,-70.14,0.29,0.96,0.16
1.9287109,0.62580156,-0.15850389,-1.0369619,0.26,0.94,0.17,18742,10119.60,0,0,165,42.98,-15.68,-70.98,0.26,0.94,0.17
2.928711,0.6198016,-0.15750387,-1.0119618,0.24,0.93,0.17,18749,10120.60,0,0,0,42.56,-15.61,-69.23,0.24,0.93,0.17
2.928711,0.60480154,-0.13950387,-0.9639619,0.21,0.92,0.17,18764,10120.60,0,0,165,41.51,-14.35,-65.87,0.21,0.92,0.17
3.928711,0.5798015,-0.12650385,-0.9169619,0.2,0.91,0.16,18779,10121.60,0,0,0,39.76,-13.44,-62.58,0.20,0.91,0.16
2.928711,0.5458016,-0.10450388,-0.8579619,0.18,0.91,0.16,18787,10120.60,0,0,165,37.38,-11.90,-58.45,0.18,0.91,0.16
2.928711,0.5048015,-0.08450388,-0.78396183,0.18,0.9,0.15,18802,10120.60,0,0,0,34.51,-10.50,-53.27,0.18,0.90,0.15
2.928711,0.46080154,-0.066503875,-0.72796184,0.19,0.89,0.14,18825,10120.60,0,0,165,31.43,-9.24,-49.35,0.19,0.89,0.14
3.928711,0.40380156,-0.055503882,-0.65396184,0.19,0.88,0.14,18826,10121.60,0,0,0,27.44,-8.47,-44.17,0.19,0.88,0.14
2.928711,0.36580154,-0.05850388,-0.55496186,0.18,0.89,0.12,18840,10120.60,0,0,165,24.78,-8.68,-37.24,0.18,0.89,0.12
2.928711,0.34280154,-0.04350388,-0.4729618,0.17,0.91,0.11,18854,10120.60,0,0,0,23.17,-7.63,-31.50,0.17,0.91,0.11
2.928711,0.30780154,-0.03150388,-0.40896183,0.17,0.92,0.1,18862,10120.60,0,0,165,20.72,-6.79,-27.02,0.17,0.92,0.10
4.229492,0.26280153,-0.014503874,-0.35396183,0.16,0.94,0.08,18876,10121.90,0,0,0,17.57,-5.60,-23.17,0.16,0.94,0.08
3.2294922,0.22680153,-0.010503881,-0.3249618,0.16,0.96,0.06,18892,10120.90,0,0,165,15.05,-5.32,-21.14,0.16,0.96,0.06
2.3291016,0.18980153,-0.011503875,-0.32296184,0.15,0.96,0.05,18900,10120.00,0,0,0,12.46,-5.39,-21.00,0.15,0.96,0.05
3.928711,0.14180154,-0.003503874,-0.3109618,0.14,0.96,0.04,18915,10121.60,0,0,165,9.10,-4.83,-20.16,0.14,0.96,0.04
3.928711,0.09880153,0.0024961233,-0.29196182,0.14,0.96,0.03,18929,10121.60,0,0,0,6.09,-4.41,-18.83,0.14,0.96,0.03
1.9287109,0.05480153,-0.0055038705,-0.2739618,0.12,0.98,0.02,18945,10119.60,0,0,165,3.01,-4.97,-17.57,0.12,0.98,0.02
1.9287109,0.0028015291,-0.012503877,-0.28596184,0.11,0.99,0.0,18952,10119.60,0,0,0,-0.63,-5.46,-18.41,0.11,0.99,0.00
2.928711,-0.04519847,-0.010503881,-0.31496182,0.1,0.98,0.0,18967,10120.60,0,0,165,-3.99,-5.32,-20.44,0.10,0.98,0.00
1.3291016,-0.091198474,-0.027503878,-0.35996184,0.1,0.98,0.01,18974,10119.00,0,0,0,-7.21,-6.51,-23.59,0.10,0.98,0.01
1.3291016,-0.12719847,-0.05850388,-0.41096184,0.1,0.97,0.01,19005,10119.00,0,0,165,-9.73,-8.68,-27.16,0.10,0.97,0.01
2.3291016,-0.15919848,-0.08350388,-0.44796184,0.09,0.97,0.02,19006,10120.00,0,0,0,-11.97,-10.43,-29.75,0.09,0.97,0.02
1.3291016,-0.18419848,-0.10950387,-0.47196183,0.09,0.97,0.03,19012,10119.00,0,0,165,-13.72,-12.25,-31.43,0.09,0.97,0.03
2.3291016,-0.22919849,-0.13650388,-0.48296183,0.07,0.96,0.05,19027,10120.00,0,0,0,-16.87,-14.14,-32.20,0.07,0.96,0.05
1.0292969,-0.27119845,-0.14750388,-0.4759618,0.06,0.97,0.08,19042,10118.70,0,0,165,-19.81,-14.91,-31.71,0.06,0.97,0.08
2.3291016,-0.28819847,-0.16650388,-0.46396184,0.04,0.98,0.09,19050,10120.00,0,0,0,-21.00,-16.24,-30.87,0.04,0.98,0.09
2.3291016,-0.27919847,-0.18250388,-0.48396182,0.01,1.01,0.1,19065,10120.00,0,0,165,-20.37,-17.36,-32.27,0.01,1.01,0.10
3.2294922,-0.23919846,-0.19250387,-0.48096186,-0.01,1.01,0.12,19080,10120.90,0,0,0,-17.57,-18.06,-32.06,-0.01,1.01,0.12
2.3291016,-0.20919847,-0.19850388,-0.47396183,-0.03,1.0,0.13,19102,10120.00,0,0,165,-15.47,-18.48,-31.57,-0.03,1.00,0.13
2.3291016,-0.20019847,-0.1945039,-0.47496182,-0.04,1.0,0.15,19103,10120.00,0,0,0,-14.84,-18.20,-31.64,-0.04,1.00,0.15
2.3291016,-0.17619847,-0.2085039,-0.4799618,-0.05,0.99,0.16,19125,10120.00,0,0,165,-13.16,-19.18,-31.99,-0.05,0.99,0.16
2.3291016,-0.17019847,-0.21250388,-0.46096182,-0.07,0.98,0.18,19126,10120.00,0,0,0,-12.74,-19.46,-30.66,-0.07,0.98,0.18
2.928711,-0.16319847,-0.20950389,-0.40196183,-0.08,0.97,0.2,19147,10120.60,0,0,165,-12.25,-19.25,-26.53,-0.08,0.97,0.20
3.2294922,-0.15919848,-0.20450386,-0.3509618,-0.09,0.97,0.21,19155,10120.90,0,0,0,-11.97,-18.90,-22.96,-0.09,0.97,0.21
2.3291016,-0.14919849,-0.1945039,-0.29396182,-0.09,0.96,0.22,19162,10120.00,0,0,165,-11.27,-18.20,-18.97,-0.09,0.96,0.22
3.2294922,-0.12619847,-0.19250387,-0.23696181,-0.09,0.95,0.23,19177,10120.90,0,0,0,-9.66,-18.06,-14.98,-0.09,0.95,0.23
3.2294922,-0.14219847,-0.18550387,-0.18896182,-0.09,0.94,0.23,19192,10120.90,0,0,165,-10.78,-17.57,-11.62,-0.09,0.94,0.23
3.6289062,-0.12919848,-0.21050388,-0.15296184,-0.09,0.93,0.23,19199,10121.30,0,0,0,-9.87,-19.32,-9.10,-0.09,0.93,0.23
4.229492,-0.13619848,-0.20350388,-0.04696183,-0.08,0.93,0.22,19215,10121.90,0,0,165,-10.36,-18.83,-1.68,-0.08,0.93,0.22
4.229492,-0.13019846,-0.17750388,0.04503817,-0.08,0.96,0.2,19230,10121.90,0,0,0,-9.94,-17.01,4.76,-0.08,0.96,0.20
3.2294922,-0.10019848,-0.14350387,0.12803817,-0.09,0.97,0.19,19238,10120.90,0,0,165,-7.84,-14.63,10.57,-0.09,0.97,0.19
4.229492,-0.02319847,-0.10250387,0.20003816,-0.1,1.01,0.18,19260,10121.90,0,0,0,-2.45,-11.76,15.61,-0.10,1.01,0.18
4.229492,0.034801528,-0.069503866,0.20603819,-0.12,1.01,0.18,19267,10121.90,0,0,165,1.61,-9.45,16.03,-0.12,1.01,0.18
4.229492,0.04880153,-0.0025038794,0.21803819,-0.11,1.01,0.18,19275,10121.90,0,0,0,2.59,-4.76,16.87,-0.11,1.01,0.18
4.229492,0.059801526,0.03849612,0.21903819,-0.1,1.01,0.16,19290,10121.90,0,0,165,3.36,-1.89,16.94,-0.10,1.01,0.16
4.229492,0.05580153,0.045496125,0.18803819,-0.07,0.99,0.17,19304,10121.90,0,0,0,3.08,-1.40,14.77,-0.07,0.99,0.17
5.229492,0.05680153,0.022496123,0.16403818,-0.06,0.96,0.18,19312,10122.90,0,0,165,3.15,-3.01,13.09,-0.06,0.96,0.18
5.529297,0.023801528,0.009496123,0.17203817,-0.05,0.96,0.18,19327,10123.20,0,0,0,0.84,-3.92,13.65,-0.05,0.96,0.18
5.229492,-0.022198472,-0.003503874,0.18903817,-0.05,0.97,0.17,19342,10122.90,0,0,165,-2.38,-4.83,14.84,-0.05,0.97,0.17
5.229492,-0.05719847,-0.004503876,0.21003817,-0.04,1.0,0.16,19350,10122.90,0,0,0,-4.83,-4.90,16.31,-0.04,1.00,0.16
4.229492,-0.055198472,-0.03150388,0.24003819,-0.03,1.0,0.15,19364,10121.90,0,0,165,-4.69,-6.79,18.41,-0.03,1.00,0.15
6.229492,-0.07019847,-0.04650388,0.27903816,-0.03,1.01,0.15,19379,10123.90,0,0,0,-5.74,-7.84,21.14,-0.03,1.01,0.15
5.229492,-0.06419848,-0.08550387,0.31203818,-0.05,1.03,0.15,19387,10122.90,0,0,165,-5.32,-10.57,23.45,-0.05,1.03,0.15
5.229492,-0.08419847,-0.09350387,0.28203818,-0.05,1.02,0.15,19410,10122.90,0,0,0,-6.72,-11.13,21.35,-0.05,1.02,0.15
5.229492,-0.10719847,-0.08450388,0.27503818,-0.05,1.0,0.16,19417,10122.90,0,0,165,-8.33,-10.50,20.86,-0.05,1.00,0.16
4.229492,-0.13019846,-0.08550387,0.24803817,-0.04,0.99,0.15,19425,10121.90,0,0,0,-9.94,-10.57,18.97,-0.04,0.99,0.15
4.6289062,-0.15619847,-0.060503878,0.25903818,-0.02,0.98,0.16,19442,10122.30,0,0,165,-11.76,-8.82,19.74,-0.02,0.98,0.16
3.2294922,-0.15119848,-0.064503886,0.25203818,-0.02,0.97,0.16,19462,10120.90,0,0,0,-11.41,-9.10,19.25,-0.02,0.97,0.16
1.6289062,-0.16119847,-0.060503878,0.23803818,-0.02,0.96,0.17,19473,10119.30,0,0,165,-12.11,-8.82,18.27,-0.02,0.96,0.17
-0.67089844,-0.15719847,-0.066503875,0.22603817,-0.02,0.94,0.17,19485,10117.00,0,0,0,-11.83,-9.24,17.43,-0.02,0.94,0.17
-2.2705078,-0.15619847,-0.081503876,0.22103818,-0.04,0.95,0.17,19492,10115.40,0,0,165,-11.76,-10.29,17.08,-0.04,0.95,0.17
-4.571289,-0.16019848,-0.08750387,0.21403818,-0.04,0.96,0.16,19514,10113.10,0,0,0,-12.04,-10.71,16.59,-0.04,0.96,0.16
-5.1708984,-0.15319848,-0.10050387,0.20903817,-0.06,0.99,0.16,19516,10112.50,0,0,165,-11.55,-11.62,16.24,-0.06,0.99,0.16
-9.071289,-0.15619847,-0.11250388,0.20903817,-0.06,1.0,0.15,19530,10108.60,0,0,0,-11.76,-12.46,16.24,-0.06,1.00,0.15
