Pressure_Rel,GyroX_Rel,GyroY_Rel,GyroZ_Rel,AccX_Rel,AccY_Rel,AccZ_Rel,Timestamp,Pressure_abs,HeartRate,Oxygen,Status,GyroX,GyroY,GyroZ,AccX,AccY,AccZ
0.0,0.0,0.0,0.0,0.0,0.0,0.0,3714,9948.00,0,0,0,20.58,-4.27,-12.81,0.36,0.65,0.69
0.0,0.0,0.0,0.0,0.0,0.0,0.0,3722,9947.00,0,0,0,14.00,-8.05,-9.03,0.37,0.58,0.71
0.0,0.0,0.0,0.0,0.0,0.0,0.0,3738,9949.00,0,0,0,31.43,-7.98,-5.11,0.41,0.63,0.69
0.0,0.0,0.0,0.0,0.0,0.0,0.0,3753,9947.00,0,0,0,34.37,-19.46,7.35,0.39,0.66,0.65
0.0,0.0,0.0,0.0,0.0,0.0,0.0,3768,9946.70,0,0,0,6.93,-16.52,4.83,0.33,0.56,0.65
0.0,0.0,0.0,0.0,0.0,0.0,0.0,3790,9949.00,0,0,0,4.90,-13.72,6.23,0.34,0.69,0.68
0.0,0.0,0.0,0.0,0.0,0.0,0.0,3804,9948.00,0,0,0,12.11,-14.56,5.95,0.34,0.67,0.68
0.0,0.0,0.0,0.0,0.0,0.0,0.0,3820,9949.00,0,0,0,7.56,-9.31,8.89,0.38,0.66,0.66
0.0,0.0,0.0,0.0,0.0,0.0,0.0,3835,9948.00,0,0,0,3.22,-3.43,8.68,0.41,0.66,0.64
0.0,0.0,0.0,0.0,0.0,0.0,0.0,3850,9947.70,0,0,0,-0.14,-7.28,9.03,0.42,0.63,0.66
0.0,0.0,0.0,0.0,0.0,0.0,0.0,3873,9948.00,0,0,1,1.68,-12.53,12.88,0.39,0.62,0.67
0.0,0.0,0.0,0.0,0.0,0.0,0.0,3895,9948.30,0,0,1,-0.84,-12.39,18.83,0.39,0.63,0.67
0.0,0.0,0.0,0.0,0.0,0.0,0.0,3917,9950.30,0,0,1,1.05,-11.90,20.86,0.39,0.71,0.65
0.0,0.0,0.0,0.0,0.0,0.0,0.0,3932,9948.00,0,0,1,6.72,-10.92,18.90,0.39,0.68,0.67
0.0,0.0,0.0,0.0,0.0,0.0,0.0,3955,9949.00,0,0,1,3.92,-7.42,15.05,0.44,0.68,0.66
0.0,0.0,0.0,0.0,0.0,0.0,0.0,3978,9948.00,0,0,1,4.55,-13.51,24.57,0.43,0.67,0.66
0.0,0.0,0.0,0.0,0.0,0.0,0.0,3999,9949.00,0,0,1,6.93,-12.32,24.43,0.43,0.65,0.68
0.0,0.0,0.0,0.0,0.0,0.0,0.0,4015,9948.00,0,0,1,9.17,-7.21,18.20,0.40,0.63,0.67
0.0,0.0,0.0,0.0,0.0,0.0,0.0,4029,9950.00,0,0,1,1.19,1.68,14.49,0.43,0.63,0.65
0.0,0.0,0.0,0.0,0.0,0.0,0.0,4045,9953.00,0,0,1,-4.48,4.27,8.75,0.46,0.66,0.62
0.0,0.0,0.0,0.0,0.0,0.0,0.0,4068,9949.00,0,0,1,-6.09,2.31,7.98,0.47,0.65,0.63
0.0,0.0,0.0,0.0,0.0,0.0,0.0,4082,9949.00,0,0,1,-13.51,-0.07,10.29,0.48,0.64,0.65
0.0,0.0,0.0,0.0,0.0,0.0,0.0,4105,9951.00,0,0,1,-12.81,-7.49,11.06,0.49,0.64,0.63
0.0,0.0,0.0,0.0,0.0,0.0,0.0,4120,9950.00,0,0,1,-3.78,-14.35,13.93,0.48,0.61,0.65
0.0,0.0,0.0,0.0,0.0,0.0,0.0,4143,9950.30,0,0,1,-1.19,-12.04,15.19,0.49,0.59,0.66
0.0,0.0,0.0,0.0,0.0,0.0,0.0,4165,9951.00,0,0,1,-4.48,-12.32,9.94,0.46,0.66,0.61
0.0,0.0,0.0,0.0,0.0,0.0,0.0,4186,9952.00,0,0,1,-0.42,-8.40,4.55,0.47,0.67,0.63
0.0,0.0,0.0,0.0,0.0,0.0,0.0,4209,9950.00,0,0,1,9.10,-5.46,-6.51,0.47,0.61,0.64
0.0,0.0,0.0,0.0,0.0,0.0,0.0,4233,9952.30,0,0,1,-4.27,-5.39,-2.17,0.48,0.58,0.66
0.0,0.0,0.0,0.0,0.0,0.0,0.0,4248,9952.00,0,0,1,-6.86,0.42,5.25,0.45,0.59,0.67
0.0,0.0,0.0,0.0,0.0,0.0,0.0,4269,9952.30,0,0,1,-20.02,-3.01,9.73,0.43,0.62,0.66
0.0,0.0,0.0,0.0,0.0,0.0,0.0,4285,9953.30,0,0,1,-23.31,2.10,9.10,0.41,0.66,0.63
0.0,0.0,0.0,0.0,0.0,0.0,0.0,4300,9955.70,0,0,1,-20.93,14.14,3.71,0.43,0.64,0.65
0.0,0.0,0.0,0.0,0.0,0.0,0.0,4316,9954.30,0,0,1,-26.88,16.31,-2.52,0.46,0.60,0.67
0.0,0.0,0.0,0.0,0.0,0.0,0.0,4330,9953.00,0,0,1,-31.64,20.86,-5.18,0.48,0.63,0.69
0.0,0.0,0.0,0.0,0.0,0.0,0.0,4353,9953.30,0,0,1,-28.21,20.58,-8.61,0.46,0.64,0.68
0.0,0.0,0.0,0.0,0.0,0.0,0.0,4375,9954.30,0,0,1,-8.82,-0.63,-4.83,0.45,0.64,0.64
0.0,0.0,0.0,0.0,0.0,0.0,0.0,4397,9952.30,0,0,1,-0.14,4.97,-5.25,0.47,0.60,0.68
0.0,0.0,0.0,0.0,0.0,0.0,0.0,4414,9952.00,0,0,1,0.70,-3.64,-1.33,0.49,0.56,0.68
0.0,0.0,0.0,0.0,0.0,0.0,0.0,4435,9953.00,0,0,1,0.56,-9.24,-3.01,0.49,0.58,0.65
0.0,0.0,0.0,0.0,0.0,0.0,0.0,4458,9953.30,0,0,1,-1.54,-2.17,-4.55,0.49,0.58,0.64
0.0,0.0,0.0,0.0,0.0,0.0,0.0,4480,9952.30,0,0,1,-0.70,1.54,-5.11,0.47,0.59,0.66
0.0,0.0,0.0,0.0,0.0,0.0,0.0,4503,9952.30,0,0,1,-2.73,-6.30,-2.59,0.45,0.58,0.70
0.0,0.0,0.0,0.0,0.0,0.0,0.0,4518,9953.70,0,0,1,-3.57,-9.24,-0.56,0.42,0.60,0.71
0.0,0.0,0.0,0.0,0.0,0.0,0.0,4534,9952.30,0,0,1,-1.82,-11.55,1.40,0.42,0.65,0.71
0.0,0.0,0.0,0.0,0.0,0.0,0.0,4547,9953.30,0,0,1,21.63,-14.56,-1.68,0.43,0.73,0.72
0.0,0.0,0.0,0.0,0.0,0.0,0.0,4569,9953.30,0,0,1,43.19,-6.44,-5.04,0.45,0.62,0.68
0.0,0.0,0.0,0.0,0.0,0.0,0.0,4584,9954.30,0,0,1,41.51,3.99,-6.79,0.45,0.68,0.67
0.0,0.0,0.0,0.0,0.0,0.0,0.0,4600,9954.70,0,0,1,62.44,10.50,-5.25,0.47,0.54,0.67
0.0,0.0,0.0,0.0,0.0,0.0,0.0,4622,9955.30,0,0,1,60.83,0.77,5.32,0.47,0.64,0.66
0.0,0.0,0.0,0.0,0.0,0.0,0.0,4645,9957.00,0,0,1,45.36,-11.55,14.84,0.47,0.62,0.62
0.0,0.0,0.0,0.0,0.0,0.0,0.0,4668,9956.00,0,0,1,25.69,-13.02,17.57,0.48,0.68,0.63
0.0,0.0,0.0,0.0,0.0,0.0,0.0,4690,9957.30,0,0,1,19.25,-10.43,1.96,0.49,0.72,0.63
0.0,0.0,0.0,0.0,0.0,0.0,0.0,4714,9958.30,0,0,1,23.17,-6.79,-5.11,0.52,0.70,0.62
0.0,0.0,0.0,0.0,0.0,0.0,0.0,4728,9959.30,0,0,1,22.61,-5.81,-4.69,0.51,0.64,0.62
0.0,0.0,0.0,0.0,0.0,0.0,0.0,4749,9958.30,0,0,1,16.94,-7.21,-1.05,0.47,0.62,0.64
0.0,0.0,0.0,0.0,0.0,0.0,0.0,4765,9960.30,0,0,1,17.92,-9.80,0.77,0.47,0.67,0.61
0.0,0.0,0.0,0.0,0.0,0.0,0.0,4788,9959.00,0,0,1,20.02,-11.62,0.63,0.49,0.71,0.56
0.0,0.0,0.0,0.0,0.0,0.0,0.0,4802,9959.00,0,0,1,17.43,-13.02,-2.87,0.49,0.72,0.54
0.0,0.0,0.0,0.0,0.0,0.0,0.0,4817,9960.30,0,0,1,16.03,-13.79,-3.50,0.49,0.68,0.56
0.0,0.0,0.0,0.0,0.0,0.0,0.0,4833,9959.30,0,0,1,9.38,-12.53,-3.08,0.46,0.67,0.57
0.0,0.0,0.0,0.0,0.0,0.0,0.0,4854,9960.30,0,0,1,2.03,-8.33,-3.29,0.41,0.65,0.58
0.0,0.0,0.0,0.0,0.0,0.0,0.0,4877,9959.30,0,0,1,-0.77,-3.78,-4.69,0.39,0.70,0.53
0.0,0.0,0.0,0.0,0.0,0.0,0.0,4902,9959.70,0,0,1,2.38,-1.47,-9.80,0.40,0.75,0.54
0.0,0.0,0.0,0.0,0.0,0.0,0.0,4915,9959.30,0,0,1,9.38,1.47,-9.59,0.44,0.67,0.57
0.0,0.0,0.0,0.0,0.0,0.0,0.0,4938,9957.30,0,0,1,10.92,7.56,-4.55,0.44,0.67,0.56
0.0,0.0,0.0,0.0,0.0,0.0,0.0,4960,9955.30,0,0,1,13.65,10.78,-7.70,0.39,0.80,0.53
0.0,0.0,0.0,0.0,0.0,0.0,0.0,4982,9956.30,0,0,1,16.52,11.90,-15.47,0.44,0.79,0.58
0.0,0.0,0.0,0.0,0.0,0.0,0.0,5005,9955.70,0,0,1,21.49,10.22,-15.75,0.47,0.73,0.60
0.0,0.0,0.0,0.0,0.0,0.0,0.0,5021,9951.70,0,0,1,5.46,9.24,-16.45,0.45,0.76,0.58
0.0,0.0,0.0,0.0,0.0,0.0,0.0,5036,9955.70,0,0,1,5.04,9.31,-17.22,0.44,0.77,0.55
0.0,0.0,0.0,0.0,0.0,0.0,0.0,5050,9957.00,0,0,1,10.85,10.22,-16.80,0.42,0.72,0.55
0.0,0.0,0.0,0.0,0.0,0.0,0.0,5074,9952.30,0,0,1,12.39,12.04,-14.00,0.41,0.67,0.55
0.0,0.0,0.0,0.0,0.0,0.0,0.0,5087,9957.70,0,0,1,11.20,12.60,-8.61,0.42,0.64,0.52
0.0,0.0,0.0,0.0,0.0,0.0,0.0,5110,9957.00,0,0,1,7.84,10.50,17.36,0.43,0.62,0.50
0.0,0.0,0.0,0.0,0.0,0.0,0.0,5126,9957.70,0,0,1,6.37,7.00,3.50,0.36,0.72,0.48
0.0,0.0,0.0,0.0,0.0,0.0,0.0,5149,9959.70,0,0,1,6.37,1.75,2.03,0.39,0.70,0.53
0.0,0.0,0.0,0.0,0.0,0.0,0.0,5171,9958.70,0,0,1,-1.12,0.63,2.03,0.41,0.69,0.56
0.0,0.0,0.0,0.0,0.0,0.0,0.0,5193,9958.30,0,0,1,-2.38,1.68,-0.21,0.34,0.82,0.52
0.0,0.0,0.0,0.0,0.0,0.0,0.0,5216,9958.70,0,0,1,6.72,1.54,-4.41,0.40,0.80,0.54
0.0,0.0,0.0,0.0,0.0,0.0,0.0,5230,9957.70,0,0,1,5.60,3.71,-3.64,0.45,0.70,0.58
0.0,0.0,0.0,0.0,0.0,0.0,0.0,5253,9958.70,0,0,1,0.77,3.08,0.07,0.43,0.70,0.56
0.0,0.0,0.0,0.0,0.0,0.0,0.0,5267,9959.70,0,0,1,-4.34,1.40,0.84,0.39,0.77,0.54
0.0,0.0,0.0,0.0,0.0,0.0,0.0,5284,9960.00,0,0,1,-3.36,3.43,0.28,0.37,0.80,0.59
0.0,0.0,0.0,0.0,0.0,0.0,0.0,5298,9961.70,0,0,1,-2.38,9.31,-2.66,0.38,0.79,0.60
0.0,0.0,0.0,0.0,0.0,0.0,0.0,5313,9961.70,0,0,1,-3.71,12.04,-5.95,0.42,0.73,0.60
0.0,0.0,0.0,0.0,0.0,0.0,0.0,5328,9961.70,0,0,1,-5.11,13.30,-3.85,0.44,0.73,0.57
0.0,0.0,0.0,0.0,0.0,0.0,0.0,5350,9963.60,0,0,1,-3.92,9.73,3.64,0.41,0.72,0.58
0.0,0.0,0.0,0.0,0.0,0.0,0.0,5372,9962.70,0,0,1,-3.99,5.53,6.65,0.38,0.76,0.57
0.0,0.0,0.0,0.0,0.0,0.0,0.0,5395,9966.60,0,0,1,-14.00,2.38,15.47,0.43,0.78,0.56
0.0,0.0,0.0,0.0,0.0,0.0,0.0,5417,9963.60,0,0,1,-10.29,-1.61,6.16,0.46,0.75,0.57
0.0,0.0,0.0,0.0,0.0,0.0,0.0,5432,9965.00,0,0,1,-7.70,-1.82,1.19,0.43,0.74,0.57
0.0,0.0,0.0,0.0,0.0,0.0,0.0,5454,9964.60,0,0,1,-7.70,-1.54,3.64,0.39,0.70,0.58
0.0,0.0,0.0,0.0,0.0,0.0,0.0,5478,9964.60,0,0,1,-8.75,-2.03,6.58,0.39,0.69,0.58
0.0,0.0,0.0,0.0,0.0,0.0,0.0,5500,9966.60,0,0,1,-8.89,-2.94,6.93,0.41,0.72,0.57
0.0,0.0,0.0,0.0,0.0,0.0,0.0,5515,9965.60,0,0,1,-11.20,1.19,8.96,0.40,0.73,0.59
0.0,0.0,0.0,0.0,0.0,0.0,0.0,5530,9967.30,0,0,1,-9.66,3.36,5.25,0.39,0.71,0.61
0.0,0.0,0.0,0.0,0.0,0.0,0.0,5552,9964.60,0,0,1,-10.43,3.92,2.31,0.38,0.76,0.58
0.0,0.0,0.0,0.0,0.0,0.0,0.0,5567,9965.60,0,0,1,-5.25,2.59,-2.31,0.39,0.80,0.55
0.0,0.0,0.0,0.0,0.0,0.0,0.0,5582,9966.60,0,0,1,1.05,2.31,-5.25,0.44,0.77,0.56
0.0,0.0,0.0,0.0,0.0,0.0,0.0,5605,9966.60,0,0,1,4.76,-0.42,-4.83,0.44,0.73,0.59
0.0,0.0,0.0,0.0,0.0,0.0,0.0,5628,9968.60,0,0,1,3.43,-1.54,-2.10,0.42,0.68,0.64
0.0,0.0,0.0,0.0,0.0,0.0,0.0,5642,9967.60,0,0,1,1.05,1.40,-1.82,0.35,0.73,0.60
0.0,0.0,0.0,0.0,0.0,0.0,0.0,5665,9967.60,0,0,1,3.71,5.11,-6.02,0.36,0.75,0.57
0.0,0.0,0.0,0.0,0.0,0.0,0.0,5687,9968.00,0,0,1,6.44,5.25,-8.68,0.40,0.72,0.56
0.0,0.0,0.0,0.0,0.0,0.0,0.0,5709,9967.00,0,0,1,7.07,-8.68,-9.73,0.40,0.72,0.55
0.0,0.0,0.0,0.0,0.0,0.0,0.0,5732,9968.00,0,0,1,-0.28,-1.61,-11.55,0.38,0.74,0.53
0.0,0.0,0.0,0.0,0.0,0.0,0.0,5749,9968.00,0,0,1,2.52,0.77,-10.57,0.38,0.74,0.54
0.0,0.0,0.0,0.0,0.0,0.0,0.0,5771,9967.00,0,0,1,5.11,3.08,-8.75,0.37,0.71,0.55
0.0,0.0,0.0,0.0,0.0,0.0,0.0,5785,9967.60,0,0,1,9.03,2.73,-6.58,0.31,0.71,0.56
0.0,0.0,0.0,0.0,0.0,0.0,0.0,5800,9967.00,0,0,1,11.34,0.35,-4.83,0.30,0.75,0.58
0.0,0.0,0.0,0.0,0.0,0.0,0.0,5815,9967.00,0,0,1,10.08,3.85,-7.00,0.29,0.81,0.57
0.0,0.0,0.0,0.0,0.0,0.0,0.0,5830,9966.30,0,0,1,20.30,-0.28,-12.88,0.35,0.77,0.60
0.0,0.0,0.0,0.0,0.0,0.0,0.0,5852,9967.00,0,0,1,24.78,-1.12,-16.10,0.38,0.75,0.59
0.0,0.0,0.0,0.0,0.0,0.0,0.0,5875,9967.00,0,0,1,24.22,2.45,-7.00,0.39,0.77,0.56
0.0,0.0,0.0,0.0,0.0,0.0,0.0,5897,9963.30,0,0,1,14.42,0.56,-0.35,0.35,0.81,0.53
0.0,0.0,0.0,0.0,0.0,0.0,0.0,5912,9963.60,0,0,1,9.52,3.36,-4.97,0.33,0.82,0.53
0.0,0.0,0.0,0.0,0.0,0.0,0.0,5935,9963.00,0,0,1,9.03,2.24,-4.69,0.35,0.75,0.55
0.0,0.0,0.0,0.0,0.0,0.0,0.0,5957,9961.00,0,0,1,6.93,2.24,-2.10,0.39,0.72,0.54
0.0,0.0,0.0,0.0,0.0,0.0,0.0,5980,9961.00,0,0,1,3.64,3.92,4.76,0.35,0.65,0.56
0.0,0.0,0.0,0.0,0.0,0.0,0.0,6002,9962.00,0,0,1,-3.36,0.49,11.13,0.35,0.70,0.53
0.0,0.0,0.0,0.0,0.0,0.0,0.0,6017,9962.00,0,0,1,-3.08,-7.28,11.27,0.38,0.79,0.48
0.0,0.0,0.0,0.0,0.0,0.0,0.0,6033,9962.00,0,0,1,-1.61,-13.93,6.51,0.40,0.84,0.47
0.0,0.0,0.0,0.0,0.0,0.0,0.0,6048,9960.00,0,0,1,0.77,-17.92,0.91,0.42,0.84,0.50
0.0,0.0,0.0,0.0,0.0,0.0,0.0,6063,9962.30,0,0,1,3.85,-20.44,-3.50,0.40,0.84,0.54
0.0,0.0,0.0,0.0,0.0,0.0,0.0,6077,9962.60,0,0,1,0.28,-17.29,-6.30,0.36,0.80,0.59
0.0,0.0,0.0,0.0,0.0,0.0,0.0,6101,9961.00,0,0,1,-0.35,-10.43,-4.83,0.32,0.75,0.62
0.0,0.0,0.0,0.0,0.0,0.0,0.0,6123,9962.30,0,0,1,-0.70,-1.47,-3.01,0.29,0.76,0.58
0.0,0.0,0.0,0.0,0.0,0.0,0.0,6146,9964.30,0,0,1,2.80,1.47,-0.49,0.31,0.77,0.55
0.0,0.0,0.0,0.0,0.0,0.0,0.0,6167,9961.30,0,0,1,3.29,4.13,2.66,0.34,0.76,0.53
0.0,0.0,0.0,0.0,0.0,0.0,0.0,6182,9962.30,0,0,1,0.07,3.85,6.58,0.34,0.74,0.53
0.0,0.0,0.0,0.0,0.0,0.0,0.0,6205,9961.00,0,0,1,-10.99,1.82,4.76,0.34,0.77,0.53
0.0,0.0,0.0,0.0,0.0,0.0,0.0,6227,9962.30,0,0,1,-12.04,2.38,2.45,0.38,0.82,0.51
0.0,0.0,0.0,0.0,0.0,0.0,0.0,6257,9965.30,0,0,1,-5.60,1.26,-0.70,0.41,0.81,0.52
0.0,0.0,0.0,0.0,0.0,0.0,0.0,6264,9965.00,0,0,1,-7.63,-0.14,-4.06,0.38,0.78,0.55
0.0,0.0,0.0,0.0,0.0,0.0,0.0,6280,9965.60,0,0,1,-7.77,-0.70,-2.59,0.36,0.75,0.57
0.0,0.0,0.0,0.0,0.0,0.0,0.0,6295,9968.30,0,0,1,-6.37,-2.59,0.49,0.35,0.82,0.54
0.0,0.0,0.0,0.0,0.0,0.0,0.0,6317,9967.30,0,0,1,1.33,-7.98,-3.01,0.39,0.83,0.49
0.0,0.0,0.0,0.0,0.0,0.0,0.0,6332,9968.00,0,0,1,3.99,-11.83,-6.30,0.41,0.76,0.53
0.0,0.0,0.0,0.0,0.0,0.0,0.0,6363,9968.30,0,0,1,0.98,-7.91,-1.33,0.34,0.72,0.61
0.0,0.0,0.0,0.0,0.0,0.0,0.0,6369,9971.30,0,0,1,-0.84,2.38,5.18,0.30,0.79,0.60
0.0,0.0,0.0,0.0,0.0,0.0,0.0,6393,9970.30,0,0,1,4.20,4.55,-0.49,0.39,0.81,0.54
0.0,0.0,0.0,0.0,0.0,0.0,0.0,6415,9969.60,0,0,1,7.00,-0.84,-4.34,0.40,0.76,0.55
0.0,0.0,0.0,0.0,0.0,0.0,0.0,6438,9970.30,0,0,1,-1.19,4.62,-4.20,0.34,0.78,0.56
0.0,0.0,0.0,0.0,0.0,0.0,0.0,6459,9970.60,0,0,1,-0.21,6.72,-5.74,0.35,0.82,0.54
0.0,0.0,0.0,0.0,0.0,0.0,0.0,6483,9970.30,0,0,1,4.13,5.95,-12.11,0.37,0.79,0.53
0.0,0.0,0.0,0.0,0.0,0.0,0.0,6498,9971.60,0,0,1,0.98,7.28,-12.95,0.34,0.74,0.53
0.0,0.0,0.0,0.0,0.0,0.0,0.0,6519,9971.60,0,0,1,-1.33,7.98,-9.94,0.31,0.76,0.54
0.0,0.0,0.0,0.0,0.0,0.0,0.0,6535,9971.60,0,0,1,-0.98,9.66,-8.05,0.26,0.81,0.53
0.0,0.0,0.0,0.0,0.0,0.0,0.0,6551,9973.60,0,0,1,3.08,11.41,-11.48,0.29,0.83,0.52
0.0,0.0,0.0,0.0,0.0,0.0,0.0,6565,9971.60,0,0,1,5.95,10.71,-16.17,0.32,0.84,0.51
0.0,0.0,0.0,0.0,0.0,0.0,0.0,6581,9971.60,0,0,1,8.33,7.21,-21.07,0.37,0.87,0.50
0.0,0.0,0.0,0.0,0.0,0.0,0.0,6603,9973.00,0,0,1,13.30,3.78,-24.08,0.36,0.81,0.55
0.0,0.0,0.0,0.0,0.0,0.0,0.0,6626,9971.60,0,0,1,13.37,2.94,-24.01,0.34,0.79,0.51
0.0,0.0,0.0,0.0,0.0,0.0,0.0,6647,9971.30,0,0,1,18.76,-3.08,-23.45,0.28,0.87,0.49
0.0,0.0,0.0,0.0,0.0,0.0,0.0,6669,9970.60,0,0,1,30.52,-8.40,-29.96,0.30,0.85,0.55
0.0,0.0,0.0,0.0,0.0,0.0,0.0,6692,9970.60,0,0,1,41.44,-13.65,-32.62,0.30,0.84,0.54
0.0,0.0,0.0,0.0,0.0,0.0,0.0,6707,9969.60,0,0,1,38.01,-10.71,-26.95,0.27,0.85,0.53
0.0,0.0,0.0,0.0,0.0,0.0,0.0,6729,9968.00,0,0,1,41.37,-2.45,-13.02,0.28,0.83,0.51
0.0,0.0,0.0,0.0,0.0,0.0,0.0,6753,9965.00,0,0,1,10.64,14.00,-15.61,0.22,0.80,0.53
0.0,0.0,0.0,0.0,0.0,0.0,0.0,6767,9963.60,0,0,1,16.38,13.30,-8.61,0.20,0.75,0.51
0.0,0.0,0.0,0.0,0.0,0.0,0.0,6782,9964.00,0,0,1,9.10,8.96,17.22,0.21,0.73,0.49
0.0,0.0,0.0,0.0,0.0,0.0,0.0,6798,9963.60,0,0,1,6.02,8.47,8.26,0.25,0.72,0.45
0.0,0.0,0.0,0.0,0.0,0.0,0.0,6821,9965.00,0,0,1,0.42,5.39,13.02,0.24,0.79,0.39
0.0,0.0,0.0,0.0,0.0,0.0,0.0,6835,9965.00,0,0,1,-2.66,-1.47,14.63,0.25,0.79,0.41
0.0,0.0,0.0,0.0,0.0,0.0,0.0,6857,9965.00,0,0,1,-12.18,-5.95,14.28,0.26,0.81,0.46
0.0,0.0,0.0,0.0,0.0,0.0,0.0,6872,9967.00,0,0,1,-11.83,-5.04,12.74,0.26,0.85,0.46
0.0,0.0,0.0,0.0,0.0,0.0,0.0,6896,9968.00,0,0,1,-13.93,-7.98,5.60,0.28,0.87,0.48
0.0,0.0,0.0,0.0,0.0,0.0,0.0,6917,9969.00,0,0,1,-8.89,-8.68,4.90,0.27,0.86,0.50
0.0,0.0,0.0,0.0,0.0,0.0,0.0,6940,9968.00,0,0,1,-11.97,-1.54,2.87,0.21,0.85,0.53
0.0,0.0,0.0,0.0,0.0,0.0,0.0,6963,9970.00,0,0,1,-22.54,1.19,0.70,0.25,0.82,0.51
0.0,0.0,0.0,0.0,0.0,0.0,0.0,6985,9971.00,0,0,1,-20.09,-3.78,3.99,0.27,0.84,0.51
0.0,0.0,0.0,0.0,0.0,0.0,0.0,6999,9973.00,0,0,1,-14.49,-4.62,5.88,0.33,0.88,0.50
0.0,0.0,0.0,0.0,0.0,0.0,0.0,7022,9972.00,0,0,1,-4.97,-6.02,5.18,0.32,0.87,0.50
0.0,0.0,0.0,0.0,0.0,0.0,0.0,7037,9974.00,0,0,1,0.84,-5.74,2.73,0.27,0.84,0.52
0.0,0.0,0.0,0.0,0.0,0.0,0.0,7052,9973.00,0,0,1,-2.80,-4.83,1.26,0.26,0.81,0.50
0.0,0.0,0.0,0.0,0.0,0.0,0.0,7068,9974.00,0,0,1,-6.23,-5.39,1.75,0.26,0.82,0.48
0.0,0.0,0.0,0.0,0.0,0.0,0.0,7082,9974.00,0,0,1,-7.21,-7.91,1.33,0.24,0.84,0.47
0.0,0.0,0.0,0.0,0.0,0.0,0.0,7105,9973.00,0,0,1,-6.09,-8.19,-2.10,0.27,0.84,0.50
0.0,0.0,0.0,0.0,0.0,0.0,0.0,7127,9975.60,0,0,1,-6.86,-5.32,-2.73,0.27,0.80,0.56
0.0,0.0,0.0,0.0,0.0,0.0,0.0,7150,9976.00,0,0,1,-8.05,1.33,-3.50,0.24,0.82,0.56
0.0,0.0,0.0,0.0,0.0,0.0,0.0,7165,9974.30,0,0,1,-9.38,5.81,-5.39,0.24,0.83,0.54
0.0,0.0,0.0,0.0,0.0,0.0,0.0,7187,9976.30,0,0,1,-8.05,8.68,-6.09,0.27,0.83,0.49
0.0,0.0,0.0,0.0,0.0,0.0,0.0,7210,9975.60,0,0,1,-4.97,7.56,-10.22,0.23,0.93,0.46
0.0,0.0,0.0,0.0,0.0,0.0,0.0,7232,9975.30,0,0,1,0.35,7.14,-19.81,0.28,0.89,0.54
0.0,0.0,0.0,0.0,0.0,0.0,0.0,7248,9976.60,0,0,1,2.38,9.10,-24.57,0.29,0.83,0.56
0.0,0.0,0.0,0.0,0.0,0.0,0.0,7264,9976.00,0,0,1,2.66,13.02,-22.61,0.26,0.85,0.52
0.0,0.0,0.0,0.0,0.0,0.0,0.0,7278,9975.30,0,0,1,4.27,10.29,-19.39,0.24,0.88,0.51
0.0,0.0,0.0,0.0,0.0,0.0,0.0,7300,9975.00,0,0,1,9.03,3.29,-16.59,0.25,0.86,0.52
0.0,0.0,0.0,0.0,0.0,0.0,0.0,7315,9974.60,0,0,1,6.93,-0.35,-15.26,0.30,0.84,0.53
0.0,0.0,0.0,0.0,0.0,0.0,0.0,7330,9977.30,0,0,1,7.21,-0.42,-15.96,0.25,0.85,0.52
0.0,0.0,0.0,0.0,0.0,0.0,0.0,7352,9975.30,0,0,1,7.49,-0.35,-19.18,0.24,0.87,0.62
0.0,0.0,0.0,0.0,0.0,0.0,0.0,7375,9974.60,0,0,1,10.85,1.54,-20.30,0.22,0.86,0.51
0.0,0.0,0.0,0.0,0.0,0.0,0.0,7389,9977.60,0,0,1,8.26,-0.35,-18.06,0.21,0.80,0.53
0.0,0.0,0.0,0.0,0.0,0.0,0.0,7412,9976.30,0,0,1,5.95,-2.73,-16.59,0.20,0.81,0.53
0.0,0.0,0.0,0.0,0.0,0.0,0.0,7434,9974.60,0,0,1,3.71,-0.35,-13.72,0.18,0.82,0.53
0.0,0.0,0.0,0.0,0.0,0.0,0.0,7458,9974.30,0,0,1,4.13,5.11,-10.22,0.17,0.80,0.54
0.0,0.0,0.0,0.0,0.0,0.0,0.0,7479,9974.30,0,0,1,4.13,8.47,-3.08,0.19,0.77,0.56
0.0,0.0,0.0,0.0,0.0,0.0,0.0,7502,9974.60,0,0,1,3.01,6.30,2.45,0.18,0.85,0.55
0.0,0.0,0.0,0.0,0.0,0.0,0.0,7517,9974.30,0,0,1,7.42,3.36,6.02,0.16,0.88,0.55
0.0,0.0,0.0,0.0,0.0,0.0,0.0,7532,9974.00,0,0,1,13.37,0.07,8.75,0.15,0.91,0.54
0.0,0.0,0.0,0.0,0.0,0.0,0.0,7548,9975.60,0,0,1,13.93,5.88,6.44,0.18,0.91,0.52
0.0,0.0,0.0,0.0,0.0,0.0,0.0,7562,9972.60,0,0,1,16.24,12.18,-1.19,0.22,0.93,0.49
0.0,0.0,0.0,0.0,0.0,0.0,0.0,7577,9972.60,0,0,1,20.44,6.79,-0.56,0.24,0.92,0.46
0.0,0.0,0.0,0.0,0.0,0.0,0.0,7600,9974.00,0,0,1,23.38,-1.33,-9.38,0.21,0.89,0.47
0.0,0.0,0.0,0.0,0.0,0.0,0.0,7622,9973.60,0,0,1,22.26,-4.83,-13.23,0.13,0.84,0.49
0.0,0.0,0.0,0.0,0.0,0.0,0.0,7645,9972.60,0,0,1,19.88,-2.80,-15.12,0.12,0.86,0.50
0.0,0.0,0.0,0.0,0.0,0.0,0.0,7674,9971.30,0,0,1,19.18,1.12,-13.65,0.13,0.86,0.49
0.0,0.0,0.0,0.0,0.0,0.0,0.0,7683,9973.30,0,0,1,13.79,3.22,-12.39,0.21,0.83,0.45
0.0,0.0,0.0,0.0,0.0,0.0,0.0,7704,9974.00,0,0,1,14.91,-0.70,-8.89,0.19,0.82,0.43
0.0,0.0,0.0,0.0,0.0,0.0,0.0,7727,9972.60,0,0,1,14.77,-3.64,-6.51,0.12,0.86,0.43
0.0,0.0,0.0,0.0,0.0,0.0,0.0,7750,9974.00,0,0,1,17.22,-5.04,-4.90,0.14,0.91,0.39
0.0,0.0,0.0,0.0,0.0,0.0,0.0,7765,9974.60,0,0,1,15.89,-5.04,-4.20,0.14,0.89,0.43
0.0,0.0,0.0,0.0,0.0,0.0,0.0,7779,9973.00,0,0,1,10.43,-3.01,-2.52,0.15,0.87,0.46
0.0,0.0,0.0,0.0,0.0,0.0,0.0,7794,9975.00,0,0,1,9.17,-2.10,-1.96,0.14,0.88,0.45
0.0,0.0,0.0,0.0,0.0,0.0,0.0,7809,9975.00,0,0,1,10.15,-2.87,-2.03,0.15,0.90,0.41
0.0,0.0,0.0,0.0,0.0,0.0,0.0,7832,9972.30,0,0,1,10.71,-3.92,-1.26,0.17,0.88,0.43
0.0,0.0,0.0,0.0,0.0,0.0,0.0,7847,9975.00,0,0,1,10.57,-1.96,0.49,0.12,0.90,0.46
0.0,0.0,0.0,0.0,0.0,0.0,0.0,7869,9973.60,0,0,1,8.82,3.43,-0.28,0.09,0.94,0.43
0.0,0.0,0.0,0.0,0.0,0.0,0.0,7893,9975.00,0,0,1,8.40,5.18,-3.85,0.16,0.96,0.37
0.0,0.0,0.0,0.0,0.0,0.0,0.0,7922,9971.00,0,0,1,7.07,1.82,-7.35,0.18,0.94,0.37
0.0,0.0,0.0,0.0,0.0,0.0,0.0,7938,9978.90,0,0,1,6.79,-5.74,-9.80,0.20,0.95,0.39
0.0,0.0,0.0,0.0,0.0,0.0,0.0,7953,9975.60,0,0,1,11.41,-12.53,-12.46,0.22,0.94,0.41
0.0,0.0,0.0,0.0,0.0,0.0,0.0,7976,9975.00,0,0,1,15.54,-15.89,-8.12,0.18,0.91,0.43
0.0,0.0,0.0,0.0,0.0,0.0,0.0,7998,9975.00,0,0,1,20.30,-17.85,-6.86,0.06,0.96,0.41
0.0,0.0,0.0,0.0,0.0,0.0,0.0,8013,9974.30,0,0,1,24.57,-14.91,-9.87,0.05,0.96,0.45
0.0,0.0,0.0,0.0,0.0,0.0,0.0,8028,9976.00,0,0,1,25.62,-7.49,-13.37,0.04,0.94,0.44
0.0,0.0,0.0,0.0,0.0,0.0,0.0,8050,9977.30,0,0,1,25.83,0.14,-15.61,0.07,0.90,0.40
0.0,0.0,0.0,0.0,0.0,0.0,0.0,8066,9975.00,0,0,1,24.22,3.64,-15.82,0.11,0.89,0.35
0.0,0.0,0.0,0.0,0.0,0.0,0.0,8080,9975.00,0,0,1,20.09,1.47,-15.05,0.15,0.88,0.33
0.0,0.0,0.0,0.0,0.0,0.0,0.0,8103,9975.30,0,0,1,14.21,-3.43,-12.95,0.16,0.87,0.30
0.0,0.0,0.0,0.0,0.0,0.0,0.0,8125,9969.30,0,0,1,8.19,-9.52,-6.09,0.11,0.87,0.33
0.0,0.0,0.0,0.0,0.0,0.0,0.0,8147,9978.60,0,0,1,6.93,-13.37,-0.63,0.05,0.89,0.37
0.0,0.0,0.0,0.0,0.0,0.0,0.0,8162,9974.00,0,0,1,7.14,-9.31,4.41,0.05,0.92,0.36
0.0,0.0,0.0,0.0,0.0,0.0,0.0,8184,9972.60,0,0,1,1.89,4.41,1.89,0.06,0.94,0.35
0.0,0.0,0.0,0.0,0.0,0.0,0.0,8208,9971.30,0,0,1,0.42,8.12,0.98,0.10,0.94,0.33
0.0,0.0,0.0,0.0,0.0,0.0,0.0,8230,9970.30,0,0,1,4.20,-0.07,7.70,0.09,0.95,0.35
0.0,0.0,0.0,0.0,0.0,0.0,0.0,8253,9972.30,0,0,1,1.61,5.53,3.57,0.08,0.95,0.36
0.0,0.0,0.0,0.0,0.0,0.0,0.0,8267,9974.00,0,0,1,-0.98,10.36,1.61,0.10,0.91,0.36
0.0,0.0,0.0,0.0,0.0,0.0,0.0,8283,9974.00,0,0,1,1.68,10.71,2.31,0.11,0.88,0.37
0.0,0.0,0.0,0.0,0.0,0.0,0.0,8297,9974.60,0,0,1,-1.40,11.90,4.69,0.11,0.87,0.36
0.0,0.0,0.0,0.0,0.0,0.0,0.0,8313,9974.30,0,0,1,-5.11,11.62,8.54,0.10,0.86,0.36
0.0,0.0,0.0,0.0,0.0,0.0,0.0,8328,9973.30,0,0,1,-9.66,9.66,11.83,0.11,0.87,0.34
0.0,0.0,0.0,0.0,0.0,0.0,0.0,8350,9974.60,0,0,1,-16.66,4.90,15.12,0.14,0.89,0.34
0.0,0.0,0.0,0.0,0.0,0.0,0.0,8373,9974.60,0,0,1,-22.33,1.75,16.52,0.17,0.90,0.34
0.0,0.0,0.0,0.0,0.0,0.0,0.0,8394,9973.00,0,0,1,-25.27,2.38,20.02,0.10,1.01,0.32
0.0,0.0,0.0,0.0,0.0,0.0,0.0,8417,9974.60,0,0,1,-15.05,0.98,15.47,0.08,1.05,0.37
0.0,0.0,0.0,0.0,0.0,0.0,0.0,8440,9975.60,0,0,1,-9.73,2.59,7.77,0.14,0.98,0.41
0.0,0.0,0.0,0.0,0.0,0.0,0.0,8455,9975.60,0,0,1,-8.68,5.74,3.71,0.15,0.95,0.41
0.0,0.0,0.0,0.0,0.0,0.0,0.0,8477,9975.60,0,0,1,-9.38,3.22,3.64,0.14,0.92,0.41
0.0,0.0,0.0,0.0,0.0,0.0,0.0,8500,9974.60,0,0,1,-9.52,-6.30,8.19,0.16,0.90,0.36
0.0,0.0,0.0,0.0,0.0,0.0,0.0,8514,9975.60,0,0,1,-10.50,-11.34,13.93,0.17,0.91,0.34
0.0,0.0,0.0,0.0,0.0,0.0,0.0,8530,9975.30,0,0,1,-12.81,-13.23,17.08,0.17,0.90,0.35
0.0,0.0,0.0,0.0,0.0,0.0,0.0,8552,9976.00,0,0,1,-18.97,-14.70,16.24,0.19,0.90,0.37
0.0,0.0,0.0,0.0,0.0,0.0,0.0,8567,9975.60,0,0,1,-32.83,-15.89,13.58,0.17,0.72,0.39
0.0,0.0,0.0,0.0,0.0,0.0,0.0,8583,9977.30,0,0,1,-188.23,-8.12,30.87,0.16,1.28,0.49
0.0,0.0,0.0,0.0,0.0,0.0,0.0,8605,9975.00,0,0,1,-39.62,-17.36,23.52,0.22,0.69,0.48
0.0,0.0,0.0,0.0,0.0,0.0,0.0,8620,9971.60,0,0,1,-22.96,-16.80,7.28,0.16,0.90,0.48
0.0,0.0,0.0,0.0,0.0,0.0,0.0,8643,9974.00,0,0,1,-11.90,-10.08,-1.54,0.16,0.90,0.48
0.0,0.0,0.0,0.0,0.0,0.0,0.0,8665,9976.30,0,0,1,-3.01,-2.03,-1.33,0.15,0.87,0.48
0.0,0.0,0.0,0.0,0.0,0.0,0.0,8687,9976.00,0,0,1,-6.72,-2.24,-0.14,0.15,0.86,0.49
0.0,0.0,0.0,0.0,0.0,0.0,0.0,8710,9976.00,0,0,1,-7.42,-2.80,1.19,0.17,0.85,0.49
0.0,0.0,0.0,0.0,0.0,0.0,0.0,8733,9976.00,0,0,1,-5.95,-5.04,2.80,0.17,0.84,0.50
0.0,0.0,0.0,0.0,0.0,0.0,0.0,8748,9975.00,0,0,1,-5.88,-6.58,29.54,0.13,0.78,0.52
0.0,0.0,0.0,0.0,0.0,0.0,0.0,8778,9975.00,0,0,1,-22.68,9.45,20.51,0.18,0.81,0.52
0.0,0.0,0.0,0.0,0.0,0.0,0.0,8784,9975.30,0,0,1,-19.18,5.18,11.76,0.15,0.87,0.50
0.0,0.0,0.0,0.0,0.0,0.0,0.0,8799,9976.60,0,0,1,-8.19,0.77,-1.12,0.18,0.93,0.48
0.0,0.0,0.0,0.0,0.0,0.0,0.0,8823,9975.00,0,0,1,-10.36,7.00,-9.94,0.19,0.94,0.49
0.0,0.0,0.0,0.0,0.0,0.0,0.0,8830,9975.30,0,0,1,-10.29,8.12,-8.68,0.21,0.90,0.51
0.0,0.0,0.0,0.0,0.0,0.0,0.0,8852,9976.00,0,0,1,-13.72,7.98,-3.64,0.20,0.85,0.52
0.0,0.0,0.0,0.0,0.0,0.0,0.0,8875,9970.00,0,0,1,-27.44,20.65,-10.71,0.16,0.85,0.54
0.0,0.0,0.0,0.0,0.0,0.0,0.0,8897,9978.30,0,0,1,8.75,-10.22,-0.98,0.18,0.85,0.51
0.0,0.0,0.0,0.0,0.0,0.0,0.0,8912,9974.60,0,0,1,0.49,-3.36,-5.39,0.23,0.85,0.50
0.0,0.0,0.0,0.0,0.0,0.0,0.0,8934,9974.30,0,0,1,1.47,-11.48,-6.65,0.23,0.85,0.49
0.0,0.0,0.0,0.0,0.0,0.0,0.0,8957,9974.30,0,0,1,-3.64,-11.41,6.51,0.20,0.83,0.51
0.0,0.0,0.0,0.0,0.0,0.0,0.0,8979,9975.30,0,0,1,-9.31,-7.00,4.06,0.17,0.83,0.52
0.0,0.0,0.0,0.0,0.0,0.0,0.0,9002,9974.30,0,0,1,-10.92,-7.70,8.05,0.15,0.87,0.52
0.0,0.0,0.0,0.0,0.0,0.0,0.0,9017,9974.30,0,0,1,-7.28,-12.88,13.51,0.15,0.85,0.53
0.0,0.0,0.0,0.0,0.0,0.0,0.0,9040,9975.00,0,0,1,-3.71,-11.97,8.89,0.14,0.85,0.52
0.0,0.0,0.0,0.0,0.0,0.0,0.0,9047,9976.30,0,0,1,-5.25,-5.53,4.55,0.14,0.86,0.52
0.0,0.0,0.0,0.0,0.0,0.0,0.0,9062,9974.30,0,0,1,-12.88,3.92,6.09,0.14,0.84,0.55
0.0,0.0,0.0,0.0,0.0,0.0,0.0,9085,9975.30,0,0,1,-7.28,4.62,0.91,0.12,0.82,0.59
0.0,0.0,0.0,0.0,0.0,0.0,0.0,9100,9975.60,0,0,1,12.25,2.73,0.84,0.15,0.86,0.58
0.0,0.0,0.0,0.0,0.0,0.0,0.0,9130,9973.30,0,0,1,22.40,-1.19,9.94,0.17,0.84,0.53
0.0,0.0,0.0,0.0,0.0,0.0,0.0,9144,9980.60,0,0,1,11.97,0.49,19.81,0.18,0.87,0.48
0.0,0.0,0.0,0.0,0.0,0.0,0.0,9167,9976.30,0,0,1,12.67,-2.03,12.53,0.19,0.86,0.49
0.0,0.0,0.0,0.0,0.0,0.0,0.0,9189,9975.90,0,0,1,10.78,-1.40,-1.05,0.22,0.85,0.48
0.0,0.0,0.0,0.0,0.0,0.0,0.0,9204,9975.30,0,0,1,17.92,-7.42,-7.77,0.23,0.85,0.49
0.0,0.0,0.0,0.0,0.0,0.0,0.0,9227,9976.60,0,0,1,24.08,-11.97,-8.26,0.23,0.85,0.49
0.0,0.0,0.0,0.0,0.0,0.0,0.0,9249,9976.30,0,0,1,19.67,-11.48,-2.03,0.20,0.90,0.48
0.0,0.0,0.0,0.0,0.0,0.0,0.0,9264,9976.90,0,0,1,3.64,-5.11,4.69,0.19,0.88,0.49
0.0,0.0,0.0,0.0,0.0,0.0,0.0,9287,9977.60,0,0,1,-11.48,3.50,3.99,0.18,0.83,0.51
0.0,0.0,0.0,0.0,0.0,0.0,0.0,9302,9977.60,0,0,1,-12.46,4.69,0.77,0.18,0.81,0.52
0.0,0.0,0.0,0.0,0.0,0.0,0.0,9317,9977.60,0,0,1,-4.55,1.26,-1.05,0.17,0.83,0.50
0.0,0.0,0.0,0.0,0.0,0.0,0.0,9332,9978.60,0,0,1,-0.28,-1.54,-0.42,0.18,0.88,0.47
0.0,0.0,0.0,0.0,0.0,0.0,0.0,9355,9981.60,0,0,1,-2.03,-3.29,5.88,0.22,0.87,0.44
0.0,0.0,0.0,0.0,0.0,0.0,0.0,9377,9977.60,0,0,1,-10.22,-3.71,11.55,0.25,0.82,0.46
0.0,0.0,0.0,0.0,0.0,0.0,0.0,9399,9978.30,0,0,1,-34.86,0.63,9.17,0.24,0.80,0.49
0.0,0.0,0.0,0.0,0.0,0.0,0.0,9415,9978.60,0,0,1,-22.82,-5.25,3.57,0.19,0.86,0.50
0.0,0.0,0.0,0.0,0.0,0.0,0.0,9437,9978.60,0,0,1,-12.60,-0.84,0.91,0.14,0.90,0.52
0.0,0.0,0.0,0.0,0.0,0.0,0.0,9459,9977.60,0,0,1,-1.96,0.00,1.96,0.16,0.88,0.53
0.0,0.0,0.0,0.0,0.0,0.0,0.0,9481,9977.60,0,0,1,0.14,-4.76,8.96,0.24,0.80,0.52
0.0,0.0,0.0,0.0,0.0,0.0,0.0,9505,9979.90,0,0,1,-2.59,-12.11,15.54,0.26,0.81,0.49
0.0,0.0,0.0,0.0,0.0,0.0,0.0,9519,9977.90,0,0,1,-7.84,-14.91,22.96,0.24,0.82,0.49
0.0,0.0,0.0,0.0,0.0,0.0,0.0,9534,9978.90,0,0,1,-16.45,-7.84,13.09,0.18,0.88,0.49
0.0,0.0,0.0,0.0,0.0,0.0,0.0,9549,9979.30,0,0,1,-11.69,-3.22,4.06,0.16,0.89,0.52
0.0,0.0,0.0,0.0,0.0,0.0,0.0,9565,9980.90,0,0,1,-3.71,1.05,-2.52,0.17,0.88,0.54
0.0,0.0,0.0,0.0,0.0,0.0,0.0,9587,9980.90,0,0,1,0.14,3.71,-5.67,0.20,0.86,0.54
0.0,0.0,0.0,0.0,0.0,0.0,0.0,9603,9981.60,0,0,1,-3.99,9.73,-12.67,0.22,0.84,0.53
0.0,0.0,0.0,0.0,0.0,0.0,0.0,9625,9980.60,0,0,1,-6.72,7.28,-7.21,0.26,0.78,0.54
0.0,0.0,0.0,0.0,0.0,0.0,0.0,9647,9979.90,0,0,1,-14.42,4.41,-17.78,0.23,0.86,0.53
0.0,0.0,0.0,0.0,0.0,0.0,0.0,9671,9979.90,0,0,1,29.33,-2.24,-25.41,0.20,0.83,0.37
0.0,0.0,0.0,0.0,0.0,0.0,0.0,9692,9978.90,0,0,1,71.68,-9.80,-1.26,0.18,0.86,0.49
0.0,0.0,0.0,0.0,0.0,0.0,0.0,9715,9980.30,0,0,1,26.11,-3.64,-4.13,0.18,0.75,0.54
0.0,0.0,0.0,0.0,0.0,0.0,0.0,9730,9984.30,0,0,1,11.83,1.61,6.02,0.18,0.79,0.57
0.0,0.0,0.0,0.0,0.0,0.0,0.0,9753,9981.30,0,0,1,11.69,4.83,13.86,0.18,0.84,0.55
0.0,0.0,0.0,0.0,0.0,0.0,0.0,9768,9981.30,0,0,1,14.07,7.42,11.55,0.19,0.88,0.49
0.0,0.0,0.0,0.0,0.0,0.0,0.0,9782,9981.90,0,0,1,16.59,9.10,7.00,0.20,0.88,0.46
0.0,0.0,0.0,0.0,0.0,0.0,0.0,9797,9983.30,0,0,1,21.07,8.26,8.12,0.23,0.84,0.48
0.0,0.0,0.0,0.0,0.0,0.0,0.0,9812,9982.30,0,0,1,19.60,2.03,7.49,0.27,0.82,0.48
0.0,0.0,0.0,0.0,0.0,0.0,0.0,9827,9982.30,0,0,1,7.14,-3.92,10.22,0.29,0.85,0.46
0.0,0.0,0.0,0.0,0.0,0.0,0.0,9849,9981.90,0,0,1,2.52,-10.78,10.50,0.21,0.90,0.46
0.0,0.0,0.0,0.0,0.0,0.0,0.0,9872,9976.90,0,0,1,7.98,-8.54,4.48,0.18,0.91,0.47
0.0,0.0,0.0,0.0,0.0,0.0,0.0,9894,9987.60,0,0,1,14.42,-2.38,1.54,0.15,0.90,0.50
0.0,0.0,0.0,0.0,0.0,0.0,0.0,9916,9982.30,0,0,1,26.25,0.00,2.73,0.16,0.91,0.48
0.0,0.0,0.0,0.0,0.0,0.0,0.0,9940,9983.30,0,0,1,39.41,-1.75,4.13,0.27,0.85,0.46
0.0,0.0,0.0,0.0,0.0,0.0,0.0,9956,9983.60,0,0,1,34.02,-6.09,2.31,0.27,0.80,0.43
0.0,0.0,0.0,0.0,0.0,0.0,0.0,9977,9983.30,0,0,1,20.93,-4.97,4.62,0.20,0.89,0.41
0.0,0.0,0.0,0.0,0.0,0.0,0.0,10000,9984.60,0,0,1,5.95,0.49,-0.35,0.17,0.92,0.41
0.0,0.0,0.0,0.0,0.0,0.0,0.0,10016,9985.60,0,0,1,-1.54,4.34,-2.94,0.22,0.88,0.43
0.0,0.0,0.0,0.0,0.0,0.0,0.0,10030,9983.30,0,0,1,-4.48,7.63,-2.10,0.20,0.87,0.42
0.0,0.0,0.0,0.0,0.0,0.0,0.0,10052,9984.60,0,0,1,-6.86,7.70,-0.21,0.17,0.91,0.40
0.0,0.0,0.0,0.0,0.0,0.0,0.0,10068,9984.60,0,0,1,-7.14,5.88,-0.07,0.16,0.95,0.37
0.0,0.0,0.0,0.0,0.0,0.0,0.0,10082,9983.60,0,0,1,-0.77,3.36,-2.87,0.19,0.92,0.38
0.0,0.0,0.0,0.0,0.0,0.0,0.0,10106,9986.60,0,0,1,5.18,-0.49,-5.46,0.25,0.75,0.40
0.0,0.0,0.0,0.0,0.0,0.0,0.0,10120,9981.60,0,0,1,4.48,-2.24,-3.64,0.25,0.86,0.42
0.0,0.0,0.0,0.0,0.0,0.0,0.0,10142,9985.90,0,0,1,-1.61,-0.63,-6.37,0.20,0.90,0.44
0.0,0.0,0.0,0.0,0.0,0.0,0.0,10164,9985.60,0,0,1,-6.51,2.10,-8.68,0.16,0.91,0.44
0.0,0.0,0.0,0.0,0.0,0.0,0.0,10187,9985.60,0,0,1,-1.68,4.34,-8.75,0.13,0.94,0.45
0.0,0.0,0.0,0.0,0.0,0.0,0.0,10209,9985.30,0,0,1,10.36,3.22,-12.11,0.17,0.92,0.45
0.0,0.0,0.0,0.0,0.0,0.0,0.0,10225,9984.90,0,0,1,12.81,3.01,-13.58,0.20,0.90,0.46
0.0,0.0,0.0,0.0,0.0,0.0,0.0,10247,9985.90,0,0,1,13.86,1.75,-12.81,0.19,0.93,0.42
0.0,0.0,0.0,0.0,0.0,0.0,0.0,10269,9986.60,0,0,1,15.61,-0.14,-13.02,0.18,0.94,0.40
0.0,0.0,0.0,0.0,0.0,0.0,0.0,10284,9985.90,0,0,1,18.62,-2.52,-13.86,0.18,0.93,0.39
0.0,0.0,0.0,0.0,0.0,0.0,0.0,10300,9985.60,0,0,1,20.93,-5.04,-12.81,0.18,0.88,0.39
0.0,0.0,0.0,0.0,0.0,0.0,0.0,10315,9984.90,0,0,1,22.61,-4.48,-10.57,0.14,0.87,0.39
0.0,0.0,0.0,0.0,0.0,0.0,0.0,10331,9985.90,0,0,1,25.06,-2.80,-6.93,0.10,0.85,0.40
0.0,0.0,0.0,0.0,0.0,0.0,0.0,10352,9983.90,0,0,1,20.37,-0.14,-4.41,0.09,0.88,0.40
0.0,0.0,0.0,0.0,0.0,0.0,0.0,10374,9981.60,0,0,1,13.37,1.19,-3.85,0.10,0.86,0.42
0.0,0.0,0.0,0.0,0.0,0.0,0.0,10398,9982.90,0,0,1,7.56,3.08,-3.64,0.11,0.89,0.40
0.0,0.0,0.0,0.0,0.0,0.0,0.0,10419,9982.90,0,0,1,6.02,4.69,-4.20,0.12,0.93,0.37
0.0,0.0,0.0,0.0,0.0,0.0,0.0,10442,9985.30,0,0,1,9.03,4.06,-4.97,0.15,0.97,0.37
0.0,0.0,0.0,0.0,0.0,0.0,0.0,10458,9983.30,0,0,1,11.62,2.31,-5.95,0.17,0.97,0.37
0.0,0.0,0.0,0.0,0.0,0.0,0.0,10487,9982.90,0,0,1,12.46,-1.26,-8.40,0.18,0.96,0.36
0.0,0.0,0.0,0.0,0.0,0.0,0.0,10502,9983.90,0,0,1,13.58,-4.13,-10.08,0.16,0.95,0.35
0.0,0.0,0.0,0.0,0.0,0.0,0.0,10517,9990.30,0,0,1,14.42,-5.25,-11.13,0.13,0.95,0.34
0.0,0.0,0.0,0.0,0.0,0.0,0.0,10532,9983.90,0,0,1,16.10,-6.58,-12.88,0.12,0.95,0.33
0.0,0.0,0.0,0.0,0.0,0.0,0.0,10554,9984.30,0,0,1,15.68,-8.26,-14.49,0.13,0.92,0.35
0.0,0.0,0.0,0.0,0.0,0.0,0.0,10570,9981.30,0,0,1,12.81,-8.40,-14.35,0.13,0.90,0.36
0.0,0.0,0.0,0.0,0.0,0.0,0.0,10599,9984.30,0,0,1,8.96,-9.24,-12.39,0.14,0.87,0.37
0.0,0.0,0.0,0.0,0.0,0.0,0.0,10607,9984.30,0,0,1,0.63,-9.87,-8.54,0.13,0.84,0.37
0.0,0.0,0.0,0.0,0.0,0.0,0.0,10629,9984.30,0,0,1,-7.84,-11.69,-5.46,0.12,0.87,0.36
0.0,0.0,0.0,0.0,0.0,0.0,0.0,10660,9985.30,0,0,1,-13.65,-14.07,-2.87,0.11,0.88,0.36
0.0,0.0,0.0,0.0,0.0,0.0,0.0,10667,9984.30,0,0,1,-16.80,-14.35,1.75,0.11,0.89,0.36
0.0,0.0,0.0,0.0,0.0,0.0,0.0,10689,9983.90,0,0,1,-20.51,-13.65,7.00,0.11,0.87,0.36
0.0,0.0,0.0,0.0,0.0,0.0,0.0,10712,9985.30,0,0,1,-26.04,-15.54,11.90,0.11,0.86,0.35
0.0,0.0,0.0,0.0,0.0,0.0,0.0,10734,9984.30,0,0,1,-30.66,-18.27,15.47,0.11,0.88,0.33
0.0,0.0,0.0,0.0,0.0,0.0,0.0,10750,9984.60,0,0,1,-32.97,-23.17,15.40,0.10,0.90,0.32
0.0,0.0,0.0,0.0,0.0,0.0,0.0,10772,9983.30,0,0,1,-33.95,-27.30,13.44,0.11,0.92,0.32
0.0,0.0,0.0,0.0,0.0,0.0,0.0,10780,9984.60,0,0,1,-34.23,-30.03,10.99,0.10,0.92,0.33
0.0,0.0,0.0,0.0,0.0,0.0,0.0,10802,9984.60,0,0,1,-34.72,-31.64,9.38,0.11,0.93,0.34
0.0,0.0,0.0,0.0,0.0,0.0,0.0,10817,9985.60,0,0,1,-35.28,-32.62,9.38,0.14,0.93,0.34
0.0,0.0,0.0,0.0,0.0,0.0,0.0,10832,9984.30,0,0,1,-35.91,-33.60,9.52,0.16,0.90,0.35
0.0,0.0,0.0,0.0,0.0,0.0,0.0,10854,9984.60,0,0,1,-37.45,-34.23,12.53,0.18,0.87,0.36
0.0,0.0,0.0,0.0,0.0,0.0,0.0,10877,9984.60,0,0,1,-38.22,-35.77,16.45,0.18,0.87,0.35
0.0,0.0,0.0,0.0,0.0,0.0,0.0,10900,9985.60,0,0,1,-36.82,-36.54,17.29,0.17,0.92,0.36
0.0,0.0,0.0,0.0,0.0,0.0,0.0,10915,9985.60,0,0,1,-34.79,-35.77,14.35,0.21,0.95,0.39
0.0,0.0,0.0,0.0,0.0,0.0,0.0,10937,9985.60,0,0,1,-32.90,-32.97,14.70,0.27,0.91,0.44
0.0,0.0,0.0,0.0,0.0,0.0,0.0,10960,9984.60,0,0,1,-33.25,-28.14,18.62,0.31,0.87,0.45
0.0,0.0,0.0,0.0,0.0,0.0,0.0,10982,9985.90,0,0,1,-29.61,-25.41,22.96,0.27,0.93,0.44
0.0,0.0,0.0,0.0,0.0,0.0,0.0,11005,9987.30,0,0,1,-21.98,-19.11,21.91,0.27,0.92,0.46
0.0,0.0,0.0,0.0,0.0,0.0,0.0,11020,9987.30,0,0,1,-16.59,-12.11,19.04,0.28,0.91,0.47
0.0,0.0,0.0,0.0,0.0,0.0,0.0,11034,9986.90,0,0,1,-11.55,-4.41,16.59,0.28,0.90,0.45
0.0,0.0,0.0,0.0,0.0,0.0,0.0,11057,9986.90,0,0,1,-6.72,2.80,14.56,0.28,0.87,0.43
0.0,0.0,0.0,0.0,0.0,0.0,0.0,11072,9981.90,0,0,1,-1.89,6.23,13.93,0.27,0.87,0.42
0.0,0.0,0.0,0.0,0.0,0.0,0.0,11087,9985.90,0,0,1,2.24,9.03,14.00,0.27,0.85,0.42
0.0,0.0,0.0,0.0,0.0,0.0,0.0,11109,9985.90,0,0,1,5.81,12.25,14.98,0.27,0.82,0.41
0.0,0.0,0.0,0.0,0.0,0.0,0.0,11124,9985.90,0,0,1,7.98,13.44,16.73,0.24,0.85,0.42
0.0,0.0,0.0,0.0,0.0,0.0,0.0,11147,9986.90,0,0,1,9.24,12.74,17.71,0.23,0.89,0.43
0.0,0.0,0.0,0.0,0.0,0.0,0.0,11170,9985.90,0,0,1,11.06,13.79,22.05,0.23,0.88,0.44
0.0,0.0,0.0,0.0,0.0,0.0,0.0,11192,9985.90,0,0,1,12.46,14.91,24.71,0.24,0.87,0.47
0.0,0.0,0.0,0.0,0.0,0.0,0.0,11222,9989.30,0,0,1,10.78,13.72,24.71,0.24,0.88,0.49
0.0,0.0,0.0,0.0,0.0,0.0,0.0,11229,9989.30,0,0,1,9.66,14.00,24.71,0.28,0.86,0.48
0.0,0.0,0.0,0.0,0.0,0.0,0.0,11252,9985.90,0,0,1,11.62,14.42,23.87,0.26,0.88,0.48
0.0,0.0,0.0,0.0,0.0,0.0,0.0,11267,9985.90,0,0,1,13.93,13.86,19.74,0.27,0.86,0.50
0.0,0.0,0.0,0.0,0.0,0.0,0.0,11282,9987.60,0,0,1,14.91,13.86,13.37,0.28,0.84,0.51
0.0,0.0,0.0,0.0,0.0,0.0,0.0,11297,9988.30,0,0,1,14.63,14.00,6.86,0.29,0.81,0.52
0.0,0.0,0.0,0.0,0.0,0.0,0.0,11312,9986.30,0,0,1,13.37,13.79,1.61,0.29,0.80,0.52
0.0,0.0,0.0,0.0,0.0,0.0,0.0,11335,9985.60,0,0,1,12.18,13.51,-1.33,0.29,0.80,0.53
0.0,0.0,0.0,0.0,0.0,0.0,0.0,11349,9988.30,0,0,1,9.73,12.88,-1.68,0.32,0.79,0.55
0.0,0.0,0.0,0.0,0.0,0.0,0.0,11371,9981.30,0,0,1,6.30,13.72,1.82,0.37,0.74,0.56
0.0,0.0,0.0,0.0,0.0,0.0,0.0,11394,9987.30,0,0,1,3.50,14.07,9.24,0.39,0.76,0.55
0.0,0.0,0.0,0.0,0.0,0.0,0.0,11416,9986.30,0,0,1,3.01,13.37,15.12,0.38,0.79,0.55
0.0,0.0,0.0,0.0,0.0,0.0,0.0,11439,9987.60,0,0,1,4.20,13.51,17.64,0.37,0.81,0.53
0.0,0.0,0.0,0.0,0.0,0.0,0.0,11463,9987.60,0,0,1,6.51,15.82,16.87,0.36,0.82,0.51
0.0,0.0,0.0,0.0,0.0,0.0,0.0,11485,9986.60,0,0,1,9.80,17.43,14.84,0.35,0.82,0.49
0.0,0.0,0.0,0.0,0.0,0.0,0.0,11500,9987.60,0,0,1,10.99,17.29,11.90,0.35,0.79,0.48
0.0,0.0,0.0,0.0,0.0,0.0,0.0,11515,9986.60,0,0,1,10.29,16.03,9.38,0.35,0.75,0.49
0.0,0.0,0.0,0.0,0.0,0.0,0.0,11531,9987.60,0,0,1,8.47,14.14,7.63,0.34,0.75,0.49
0.0,0.0,0.0,0.0,0.0,0.0,0.0,11545,9986.60,0,0,1,4.90,11.13,5.81,0.34,0.75,0.52
0.0,0.0,0.0,0.0,0.0,0.0,0.0,11560,9986.30,0,0,1,1.68,8.33,3.01,0.33,0.77,0.54
0.0,0.0,0.0,0.0,0.0,0.0,0.0,11583,9983.60,0,0,1,-3.15,5.11,-0.28,0.33,0.79,0.56
0.0,0.0,0.0,0.0,0.0,0.0,0.0,11597,9985.60,0,0,1,-6.86,3.43,-1.68,0.33,0.80,0.57
0.0,0.0,0.0,0.0,0.0,0.0,0.0,11620,9986.60,0,0,1,-8.19,2.73,-0.21,0.31,0.83,0.56
0.0,0.0,0.0,0.0,0.0,0.0,0.0,11642,9987.60,0,0,1,-6.72,1.33,0.84,0.31,0.82,0.56
0.0,0.0,0.0,0.0,0.0,0.0,0.0,11664,9987.30,0,0,1,-4.90,1.26,2.31,0.32,0.79,0.55
0.0,0.0,0.0,0.0,0.0,0.0,0.0,11687,9987.60,0,0,1,-3.78,1.96,3.71,0.30,0.79,0.54
0.0,0.0,0.0,0.0,0.0,0.0,0.0,11702,9985.90,0,0,1,-3.22,1.82,2.52,0.30,0.80,0.53
0.0,0.0,0.0,0.0,0.0,0.0,0.0,11724,9985.60,0,0,1,-3.71,0.07,-0.42,0.29,0.80,0.53
0.0,0.0,0.0,0.0,0.0,0.0,0.0,11747,9986.60,0,0,1,-4.13,-2.87,-3.36,0.28,0.81,0.53
0.0,0.0,0.0,0.0,0.0,0.0,0.0,11762,9984.90,0,0,1,-4.90,-4.06,-3.78,0.27,0.82,0.53
0.0,0.0,0.0,0.0,0.0,0.0,0.0,11777,9986.90,0,0,1,-5.95,-4.76,-2.94,0.28,0.82,0.54
0.0,0.0,0.0,0.0,0.0,0.0,0.0,11792,9985.90,0,0,1,-7.56,-5.46,-1.75,0.27,0.84,0.55
0.0,0.0,0.0,0.0,0.0,0.0,0.0,11816,9985.90,0,0,1,-8.26,-5.53,0.49,0.27,0.85,0.55
0.0,0.0,0.0,0.0,0.0,0.0,0.0,11831,9981.90,0,0,1,-7.42,-3.50,3.01,0.28,0.86,0.53
0.0,0.0,0.0,0.0,0.0,0.0,0.0,11852,9984.90,0,0,1,-3.78,-2.52,5.67,0.28,0.87,0.51
0.0,0.0,0.0,0.0,0.0,0.0,0.0,11867,9986.90,0,0,1,-0.42,-2.10,5.81,0.27,0.86,0.49
0.0,0.0,0.0,0.0,0.0,0.0,0.0,11889,9986.90,0,0,1,2.59,-3.22,3.85,0.27,0.86,0.47
0.0,0.0,0.0,0.0,0.0,0.0,0.0,11912,9986.90,0,0,1,4.97,-4.34,2.38,0.27,0.84,0.45
0.0,0.0,0.0,0.0,0.0,0.0,0.0,11935,9985.90,0,0,1,5.81,-5.46,0.98,0.27,0.82,0.46
0.0,0.0,0.0,0.0,0.0,0.0,0.0,11957,9987.30,0,0,1,5.04,-6.30,1.82,0.27,0.82,0.46
0.0,0.0,0.0,0.0,0.0,0.0,0.0,11971,9986.90,0,0,1,3.01,-6.93,3.64,0.28,0.83,0.46
0.0,0.0,0.0,0.0,0.0,0.0,0.0,11994,9987.30,0,0,1,1.19,-7.21,5.11,0.29,0.84,0.46
0.0,0.0,0.0,0.0,0.0,0.0,0.0,12017,9987.30,0,0,1,0.14,-6.58,5.60,0.29,0.84,0.46
0.0,0.0,0.0,0.0,0.0,0.0,0.0,12024,9985.30,0,0,1,-0.84,-5.60,5.67,0.29,0.84,0.47
0.0,0.0,0.0,0.0,0.0,0.0,0.0,12047,9987.30,0,0,1,-1.68,-4.97,5.11,0.30,0.85,0.47
0.0,0.0,0.0,0.0,0.0,0.0,0.0,12062,9987.60,0,0,1,-2.10,-4.13,3.99,0.30,0.85,0.47
0.0,0.0,0.0,0.0,0.0,0.0,0.0,12077,9987.30,0,0,1,-2.38,-3.71,2.10,0.30,0.86,0.46
0.0,0.0,0.0,0.0,0.0,0.0,0.0,12100,9987.30,0,0,1,-2.17,-3.71,-0.28,0.30,0.86,0.46
0.0,0.0,0.0,0.0,0.0,0.0,0.0,12122,9987.30,0,0,1,-1.75,-3.43,-2.31,0.30,0.85,0.47
0.0,0.0,0.0,0.0,0.0,0.0,0.0,12137,9987.30,0,0,1,-1.47,-2.66,-2.45,0.29,0.84,0.46
0.0,0.0,0.0,0.0,0.0,0.0,0.0,12159,9988.30,0,0,1,-0.84,-1.82,-1.89,0.29,0.83,0.46
0.0,0.0,0.0,0.0,0.0,0.0,0.0,12181,9989.30,0,0,1,-1.05,-1.96,-1.12,0.30,0.82,0.46
0.0,0.0,0.0,0.0,0.0,0.0,0.0,12205,9986.30,0,0,1,-1.54,-2.45,1.19,0.31,0.83,0.46
0.0,0.0,0.0,0.0,0.0,0.0,0.0,12227,9990.30,0,0,1,-1.40,-3.01,1.96,0.31,0.83,0.46
0.0,0.0,0.0,0.0,0.0,0.0,0.0,12249,9987.90,0,0,1,-1.47,-3.50,2.59,0.30,0.83,0.47
0.0,0.0,0.0,0.0,0.0,0.0,0.0,12264,9987.30,0,0,1,-1.40,-3.15,2.66,0.30,0.84,0.47
0.0,0.0,0.0,0.0,0.0,0.0,0.0,12280,9982.60,0,0,1,-1.40,-2.59,2.31,0.30,0.83,0.47
0.0,0.0,0.0,0.0,0.0,0.0,0.0,12295,9988.60,0,0,1,-1.82,-2.45,1.54,0.31,0.83,0.47
0.0,0.0,0.0,0.0,0.0,0.0,0.0,12310,9987.30,0,0,1,-1.96,-2.80,0.98,0.31,0.84,0.46
0.0,0.0,0.0,0.0,0.0,0.0,0.0,12325,9986.60,0,0,1,-1.26,-2.59,1.05,0.31,0.83,0.47
0.0,0.0,0.0,0.0,0.0,0.0,0.0,12347,9988.60,0,0,1,-1.68,-2.38,1.12,0.31,0.83,0.47
0.0,0.0,0.0,0.0,0.0,0.0,0.0,12369,9987.60,0,0,1,-2.17,-2.73,1.19,0.32,0.83,0.47
0.0,0.0,0.0,0.0,0.0,0.0,0.0,12393,9987.60,0,0,1,-2.80,-3.43,0.77,0.32,0.83,0.47
0.0,0.0,0.0,0.0,0.0,0.0,0.0,12415,9988.60,0,0,1,-3.43,-3.57,1.26,0.32,0.83,0.47
0.0,0.0,0.0,0.0,0.0,0.0,0.0,12437,9988.60,0,0,1,-3.43,-3.85,1.61,0.32,0.83,0.47
0.0,0.0,0.0,0.0,0.0,0.0,0.0,12452,9987.60,0,0,1,-3.92,-4.20,1.47,0.31,0.82,0.48
0.0,0.0,0.0,0.0,0.0,0.0,0.0,12474,9987.60,0,0,1,-4.06,-4.34,1.12,0.31,0.83,0.48
0.0,0.0,0.0,0.0,0.0,0.0,0.0,12498,9987.60,0,0,1,-3.71,-3.99,0.98,0.31,0.83,0.48
0.0,0.0,0.0,0.0,0.0,0.0,0.0,12513,9987.60,0,0,1,-3.50,-3.57,0.63,0.31,0.82,0.48
0.0,0.0,0.0,0.0,0.0,0.0,0.0,12528,9987.60,0,0,1,-3.29,-3.36,0.77,0.32,0.83,0.49
0.0,0.0,0.0,0.0,0.0,0.0,0.0,12542,9988.90,0,0,1,-3.15,-3.64,0.84,0.32,0.83,0.49
0.0,0.0,0.0,0.0,0.0,0.0,0.0,12565,9988.60,0,0,1,-3.15,-3.99,1.19,0.33,0.83,0.49
0.0,0.0,0.0,0.0,0.0,0.0,0.0,12580,9991.90,0,0,1,-2.80,-4.06,1.89,0.32,0.82,0.49
0.0,0.0,0.0,0.0,0.0,0.0,0.0,12602,9987.90,0,0,1,-2.31,-3.85,1.54,0.31,0.83,0.49
0.0,0.0,0.0,0.0,0.0,0.0,0.0,12618,9988.90,0,0,1,-1.82,-3.85,0.63,0.31,0.83,0.50
0.0,0.0,0.0,0.0,0.0,0.0,0.0,12641,9989.60,0,0,1,-1.82,-3.15,0.00,0.32,0.83,0.50
0.0,0.0,0.0,0.0,0.0,0.0,0.0,12662,9990.30,0,0,1,-1.40,-3.43,0.21,0.32,0.82,0.49
0.0,0.0,0.0,0.0,0.0,0.0,0.0,12692,9988.90,0,0,1,-1.54,-3.50,0.91,0.31,0.81,0.49
0.0,0.0,0.0,0.0,0.0,0.0,0.0,12708,9988.90,0,0,1,-1.54,-3.36,1.05,0.31,0.82,0.49
0.0,0.0,0.0,0.0,0.0,0.0,0.0,12723,9987.90,0,0,1,-1.89,-2.94,0.91,0.31,0.82,0.49
0.0,0.0,0.0,0.0,0.0,0.0,0.0,12745,9989.60,0,0,1,-2.45,-3.08,0.70,0.32,0.82,0.49
0.0,0.0,0.0,0.0,0.0,0.0,0.0,12761,9987.60,0,0,1,-2.94,-3.57,0.91,0.33,0.81,0.49
0.0,0.0,0.0,0.0,0.0,0.0,0.0,12782,9989.30,0,0,1,-3.29,-4.34,1.75,0.33,0.81,0.50
0.0,0.0,0.0,0.0,0.0,0.0,0.0,12797,9989.30,0,0,1,-3.29,-4.76,2.66,0.32,0.82,0.50
0.0,0.0,0.0,0.0,0.0,0.0,0.0,12812,9989.30,0,0,1,-2.80,-4.69,2.45,0.31,0.83,0.50
0.0,0.0,0.0,0.0,0.0,0.0,0.0,12827,9991.30,0,0,1,-2.31,-4.20,1.82,0.32,0.82,0.50
0.0,0.0,0.0,0.0,0.0,0.0,0.0,12843,9989.30,0,0,1,-1.61,-3.71,1.26,0.32,0.82,0.50
0.0,0.0,0.0,0.0,0.0,0.0,0.0,12864,9987.60,0,0,1,-1.19,-3.78,1.19,0.32,0.82,0.50
0.0,0.0,0.0,0.0,0.0,0.0,0.0,12887,9988.60,0,0,1,-1.05,-3.71,1.54,0.32,0.81,0.51
0.0,0.0,0.0,0.0,0.0,0.0,0.0,12911,9990.60,0,0,1,-0.42,-3.08,1.82,0.31,0.82,0.50
0.0,0.0,0.0,0.0,0.0,0.0,0.0,12932,9990.30,0,0,1,-0.07,-1.96,1.40,0.31,0.82,0.49
0.0,0.0,0.0,0.0,0.0,0.0,0.0,12947,9989.30,0,0,1,-0.28,-2.03,0.84,0.32,0.81,0.50
0.0,0.0,0.0,0.0,0.0,0.0,0.0,12969,9989.30,0,0,1,-0.70,-2.24,1.47,0.32,0.81,0.50
0.0,0.0,0.0,0.0,0.0,0.0,0.0,12992,9989.30,0,0,1,-0.63,-2.03,2.38,0.32,0.82,0.50
0.0,0.0,0.0,0.0,0.0,0.0,0.0,13007,9988.60,0,0,1,-0.49,-1.89,2.24,0.32,0.81,0.50
0.0,0.0,0.0,0.0,0.0,0.0,0.0,13022,9989.30,0,0,1,-0.35,-1.26,1.96,0.32,0.81,0.50
0.0,0.0,0.0,0.0,0.0,0.0,0.0,13045,9989.60,0,0,1,-0.35,-0.91,2.17,0.32,0.81,0.50
0.0,0.0,0.0,0.0,0.0,0.0,0.0,13060,9990.60,0,0,1,-0.28,-1.26,1.54,0.32,0.81,0.50
0.0,0.0,0.0,0.0,0.0,0.0,0.0,13074,9990.60,0,0,1,-0.56,-1.54,1.26,0.32,0.82,0.50
0.0,0.0,0.0,0.0,0.0,0.0,0.0,13090,9990.30,0,0,1,-0.35,-1.33,1.12,0.33,0.82,0.50
0.0,0.0,0.0,0.0,0.0,0.0,0.0,13112,9990.60,0,0,1,-0.35,-0.91,1.12,0.32,0.81,0.50
0.0,0.0,0.0,0.0,0.0,0.0,0.0,13135,9990.60,0,0,1,-0.35,-0.77,1.12,0.32,0.82,0.50
0.0,0.0,0.0,0.0,0.0,0.0,0.0,13150,9987.60,0,0,1,-0.07,-0.98,1.26,0.32,0.82,0.50
0.0,0.0,0.0,0.0,0.0,0.0,0.0,13172,9991.60,0,0,1,-0.07,-0.98,0.91,0.32,0.81,0.51
0.0,0.0,0.0,0.0,0.0,0.0,0.0,13195,9990.60,0,0,1,-0.56,-0.42,1.12,0.32,0.81,0.51
0.0,0.0,0.0,0.0,0.0,0.0,0.0,13225,9989.90,0,0,2,-0.63,-0.35,1.61,0.32,0.81,0.50
0.0,0.0,0.0,0.0,0.0,0.0,0.0,13240,9989.90,0,0,2,-0.14,-0.28,1.33,0.32,0.82,0.50
0.0,0.0,0.0,0.0,0.0,0.0,0.0,13254,9990.60,0,0,2,-0.14,-0.56,0.98,0.32,0.81,0.50
0.0,0.0,0.0,0.0,0.0,0.0,0.0,13277,9991.60,0,0,2,-0.14,-0.42,0.98,0.32,0.81,0.50
0.0,0.0,0.0,0.0,0.0,0.0,0.0,13285,9989.60,0,0,2,-0.21,-0.49,0.98,0.32,0.81,0.51
0.0,0.0,0.0,0.0,0.0,0.0,0.0,13301,9990.90,0,0,2,-0.21,-0.63,0.77,0.32,0.81,0.51
0.0,0.0,0.0,0.0,0.0,0.0,0.0,13315,9987.90,0,0,2,-0.28,-0.77,0.77,0.32,0.81,0.51
0.0,0.0,0.0,0.0,0.0,0.0,0.0,13337,9990.60,0,0,2,-0.42,-0.84,0.35,0.33,0.81,0.51
9.34668,-0.009224581,-0.0026045758,0.029113239,0.26,0.85,0.49,23371,10008.90,0,0,3,-0.28,-1.96,2.52,0.26,0.85,0.49
9.34668,-0.0012245807,-0.0016045757,0.027113242,0.25,0.85,0.48,23393,10008.90,0,0,3,0.28,-1.89,2.38,0.25,0.85,0.48
7.3466797,-0.006224581,0.011395425,0.011113239,0.26,0.84,0.49,23416,10006.90,0,0,3,-0.07,-0.98,1.26,0.26,0.84,0.49
8.34668,-0.016224582,0.017395426,0.0051132394,0.26,0.84,0.48,23440,10007.90,0,0,3,-0.77,-0.56,0.84,0.26,0.84,0.48
8.045898,-0.01722458,0.017395426,0.01811324,0.26,0.85,0.48,23454,10007.60,0,0,3,-0.84,-0.56,1.75,0.26,0.85,0.48
6.6464844,-0.013224581,0.019395426,0.021113241,0.26,0.85,0.49,23476,10006.20,0,0,2,-0.56,-0.42,1.96,0.26,0.85,0.49
7.6464844,-0.006224581,0.022395425,0.017113239,0.26,0.85,0.49,23499,10007.20,0,0,2,-0.07,-0.21,1.68,0.26,0.85,0.49
6.3466797,-0.0042245807,0.029395426,0.01811324,0.26,0.85,0.49,23514,10005.90,0,0,2,0.07,0.28,1.75,0.26,0.85,0.49
7.6464844,-0.006224581,0.037395425,0.01311324,0.25,0.84,0.49,23537,10007.20,0,0,2,-0.07,0.84,1.40,0.25,0.84,0.49
9.646484,-0.005224581,0.040395424,0.0071132407,0.25,0.85,0.48,23551,10009.20,0,0,2,0.00,1.05,0.98,0.25,0.85,0.48
