Pressure_Rel,GyroX_Rel,GyroY_Rel,GyroZ_Rel,AccX_Rel,AccY_Rel,AccZ_Rel,Timestamp,Pressure_abs,HeartRate,Oxygen,Status,GyroX,GyroY,GyroZ,AccX,AccY,AccZ
0.0,0.0,0.0,0.0,0.0,0.0,0.0,6411,10157.30,0,0,0,1.19,-12.39,46.48,0.27,0.73,0.66
0.0,0.0,0.0,0.0,0.0,0.0,0.0,6427,10156.60,0,0,0,43.61,-105.70,-15.68,0.28,0.70,0.68
0.0,0.0,0.0,0.0,0.0,0.0,0.0,6441,10156.60,0,0,0,-1.05,-3.29,-0.14,0.27,0.73,0.68
0.0,0.0,0.0,0.0,0.0,0.0,0.0,6455,10157.60,0,0,0,0.77,-3.01,2.45,0.26,0.73,0.65
0.0,0.0,0.0,0.0,0.0,0.0,0.0,6470,10157.90,0,0,0,1.96,-1.05,2.94,0.27,0.71,0.64
0.0,0.0,0.0,0.0,0.0,0.0,0.0,6493,10157.60,0,0,0,-0.56,-0.84,0.84,0.27,0.72,0.65
0.0,0.0,0.0,0.0,0.0,0.0,0.0,6508,10157.60,0,0,0,-0.91,-1.05,1.47,0.27,0.73,0.65
0.0,0.0,0.0,0.0,0.0,0.0,0.0,6523,10157.60,0,0,0,2.17,-1.12,2.80,0.27,0.72,0.66
0.0,0.0,0.0,0.0,0.0,0.0,0.0,6539,10157.60,0,0,0,1.82,-1.47,2.24,0.26,0.72,0.66
0.0,0.0,0.0,0.0,0.0,0.0,0.0,6553,10156.60,0,0,0,1.47,-1.05,2.59,0.27,0.72,0.65
0.0,0.0,0.0,0.0,0.0,0.0,0.0,6568,10156.60,0,0,0,2.24,0.56,3.01,0.28,0.72,0.65
0.0,0.0,0.0,0.0,0.0,0.0,0.0,6591,10157.60,0,0,0,1.33,1.26,2.03,0.28,0.71,0.67
0.0,0.0,0.0,0.0,0.0,0.0,0.0,6606,10157.90,0,0,0,-0.28,0.56,1.26,0.28,0.72,0.66
0.0,0.0,0.0,0.0,0.0,0.0,0.0,6619,10157.60,0,0,0,1.12,1.54,1.61,0.28,0.72,0.67
0.0,0.0,0.0,0.0,0.0,0.0,0.0,6636,10157.90,0,0,0,1.05,0.56,1.12,0.29,0.71,0.70
0.0,0.0,0.0,0.0,0.0,0.0,0.0,6650,10156.30,0,0,0,-2.24,-3.85,0.14,0.28,0.73,0.69
0.0,0.0,0.0,0.0,0.0,0.0,0.0,6665,10154.60,0,0,0,2.45,-3.01,2.17,0.27,0.74,0.68
0.0,0.0,0.0,0.0,0.0,0.0,0.0,6680,10157.60,0,0,0,2.24,-3.43,2.45,0.28,0.71,0.67
0.0,0.0,0.0,0.0,0.0,0.0,0.0,6704,10157.60,0,0,0,-0.49,-4.27,0.91,0.28,0.71,0.65
0.0,0.0,0.0,0.0,0.0,0.0,0.0,6718,10157.90,0,0,0,-0.42,-3.15,1.68,0.28,0.73,0.63
0.0,0.0,0.0,0.0,0.0,0.0,0.0,6733,10156.30,0,0,0,1.61,-0.35,1.89,0.28,0.72,0.64
0.0,0.0,0.0,0.0,0.0,0.0,0.0,6748,10157.90,0,0,0,0.70,0.07,0.07,0.28,0.72,0.67
0.0,0.0,0.0,0.0,0.0,0.0,0.0,6763,10158.60,0,0,0,-0.14,-2.10,-0.28,0.28,0.71,0.68
0.0,0.0,0.0,0.0,0.0,0.0,0.0,6778,10157.90,0,0,0,-1.40,-4.27,0.07,0.28,0.73,0.65
0.0,0.0,0.0,0.0,0.0,0.0,0.0,6793,10156.90,0,0,0,-0.28,-3.50,0.77,0.28,0.71,0.64
0.0,0.0,0.0,0.0,0.0,0.0,0.0,6816,10155.90,0,0,0,-2.03,-2.10,-0.42,0.28,0.72,0.64
0.0,0.0,0.0,0.0,0.0,0.0,0.0,6831,10157.90,0,0,0,-0.98,-1.12,0.28,0.28,0.72,0.65
0.0,0.0,0.0,0.0,0.0,0.0,0.0,6846,10157.90,0,0,0,-2.17,-0.35,-1.19,0.28,0.71,0.66
0.0,0.0,0.0,0.0,0.0,0.0,0.0,6861,10156.90,0,0,0,-2.17,-0.56,-1.89,0.27,0.74,0.67
0.0,0.0,0.0,0.0,0.0,0.0,0.0,6876,10157.90,0,0,0,-3.29,-3.85,-1.47,0.28,0.72,0.69
0.0,0.0,0.0,0.0,0.0,0.0,0.0,6890,10156.90,0,0,0,-3.57,-4.69,-1.75,0.26,0.73,0.67
0.0,0.0,0.0,0.0,0.0,0.0,0.0,6913,10156.90,0,0,0,-1.82,-3.50,-0.42,0.27,0.73,0.67
0.0,0.0,0.0,0.0,0.0,0.0,0.0,6928,10157.90,0,0,0,-2.24,-3.43,-1.89,0.28,0.72,0.68
0.0,0.0,0.0,0.0,0.0,0.0,0.0,6944,10156.90,0,0,0,-3.22,-4.34,-1.47,0.27,0.74,0.67
0.0,0.0,0.0,0.0,0.0,0.0,0.0,6958,10157.30,0,0,0,-0.07,-4.06,0.42,0.27,0.73,0.67
0.0,0.0,0.0,0.0,0.0,0.0,0.0,6973,10157.90,0,0,0,0.63,-2.52,0.00,0.27,0.72,0.65
0.0,0.0,0.0,0.0,0.0,0.0,0.0,6988,10157.90,0,0,0,0.98,-0.77,-0.91,0.26,0.72,0.67
0.0,0.0,0.0,0.0,0.0,0.0,0.0,7010,10158.30,0,0,0,-0.98,-2.38,-1.54,0.28,0.72,0.68
0.0,0.0,0.0,0.0,0.0,0.0,0.0,7026,10157.90,0,0,0,-0.14,-3.08,-0.28,0.27,0.73,0.65
0.0,0.0,0.0,0.0,0.0,0.0,0.0,7041,10156.90,0,0,0,2.03,-0.63,-0.77,0.26,0.71,0.67
0.0,0.0,0.0,0.0,0.0,0.0,0.0,7056,10155.90,0,0,0,-2.66,-3.92,-1.96,0.28,0.71,0.68
0.0,0.0,0.0,0.0,0.0,0.0,0.0,7071,10156.60,0,0,0,-2.87,-4.41,-2.10,0.28,0.71,0.65
0.0,0.0,0.0,0.0,0.0,0.0,0.0,7086,10156.90,0,0,0,-2.24,-2.59,-2.87,0.27,0.72,0.66
0.0,0.0,0.0,0.0,0.0,0.0,0.0,7109,10157.90,0,0,0,0.84,-0.70,-1.40,0.26,0.74,0.66
0.0,0.0,0.0,0.0,0.0,0.0,0.0,7123,10158.30,0,0,0,2.31,-0.77,1.12,0.27,0.71,0.66
0.0,0.0,0.0,0.0,0.0,0.0,0.0,7139,10157.30,0,0,0,-2.94,-2.24,-1.68,0.26,0.70,0.66
0.0,0.0,0.0,0.0,0.0,0.0,0.0,7153,10155.90,0,0,0,-3.64,-1.75,-0.77,0.26,0.74,0.65
0.0,0.0,0.0,0.0,0.0,0.0,0.0,7168,10156.90,0,0,0,-0.21,-0.35,-0.07,0.27,0.71,0.69
0.0,0.0,0.0,0.0,0.0,0.0,0.0,7183,10157.30,0,0,0,-2.73,-2.38,-1.19,0.26,0.72,0.68
0.0,0.0,0.0,0.0,0.0,0.0,0.0,7206,10156.30,0,0,0,0.35,-1.54,1.33,0.25,0.74,0.66
0.0,0.0,0.0,0.0,0.0,0.0,0.0,7220,10156.90,0,0,0,2.38,-0.35,3.29,0.27,0.72,0.65
0.0,0.0,0.0,0.0,0.0,0.0,0.0,7235,10157.90,0,0,0,-17.29,-0.07,0.07,0.28,0.69,0.68
0.0,0.0,0.0,0.0,0.0,0.0,0.0,7251,10156.90,0,0,0,-5.18,-3.36,-1.82,0.28,0.73,0.68
0.0,0.0,0.0,0.0,0.0,0.0,0.0,7265,10156.30,0,0,0,-1.96,-2.38,-0.28,0.26,0.73,0.66
0.0,0.0,0.0,0.0,0.0,0.0,0.0,7281,10156.90,0,0,0,-1.33,-0.84,-0.63,0.28,0.72,0.66
0.0,0.0,0.0,0.0,0.0,0.0,0.0,7303,10158.30,0,0,0,0.07,-0.14,-0.07,0.28,0.73,0.68
0.0,0.0,0.0,0.0,0.0,0.0,0.0,7318,10156.90,0,0,0,0.91,-0.84,0.84,0.27,0.72,0.68
0.0,0.0,0.0,0.0,0.0,0.0,0.0,7333,10156.30,0,0,0,0.07,-1.47,0.21,0.28,0.72,0.67
0.0,0.0,0.0,0.0,0.0,0.0,0.0,7348,10157.30,0,0,0,0.77,-0.84,0.42,0.26,0.72,0.67
0.0,0.0,0.0,0.0,0.0,0.0,0.0,7363,10156.30,0,0,0,-2.38,-2.10,-1.47,0.27,0.71,0.67
0.0,0.0,0.0,0.0,0.0,0.0,0.0,7378,10155.90,0,0,0,-3.22,-4.27,-1.40,0.27,0.72,0.67
0.0,0.0,0.0,0.0,0.0,0.0,0.0,7401,10157.30,0,0,0,-2.94,-4.27,-1.26,0.26,0.72,0.65
0.0,0.0,0.0,0.0,0.0,0.0,0.0,7415,10157.30,0,0,0,-0.35,-0.77,-0.98,0.26,0.73,0.66
0.0,0.0,0.0,0.0,0.0,0.0,0.0,7430,10157.30,0,0,0,2.03,0.42,0.84,0.26,0.73,0.67
0.0,0.0,0.0,0.0,0.0,0.0,0.0,7445,10156.90,0,0,0,2.24,-0.14,1.33,0.27,0.72,0.67
0.0,0.0,0.0,0.0,0.0,0.0,0.0,7461,10157.30,0,0,0,-0.77,-2.10,0.14,0.26,0.71,0.68
0.0,0.0,0.0,0.0,0.0,0.0,0.0,7475,10157.30,0,0,0,-2.94,-2.80,-0.84,0.26,0.74,0.67
0.0,0.0,0.0,0.0,0.0,0.0,0.0,7490,10160.30,0,0,0,-0.84,-2.87,-0.77,0.27,0.72,0.68
0.0,0.0,0.0,0.0,0.0,0.0,0.0,7513,10157.90,0,0,0,-2.17,-3.78,-0.42,0.26,0.72,0.65
0.0,0.0,0.0,0.0,0.0,0.0,0.0,7528,10156.90,0,0,0,-1.68,-1.26,-0.77,0.26,0.73,0.65
0.0,0.0,0.0,0.0,0.0,0.0,0.0,7543,10155.90,0,0,0,-1.82,-0.28,-1.12,0.26,0.73,0.67
0.24609375,0.008574557,-0.019688608,-0.022899125,0.28,0.66,0.73,11563,10157.60,0,0,0,-0.70,-1.96,0.63,0.28,0.66,0.73
0.24609375,0.061574556,0.0023113932,0.011100877,0.29,0.64,0.74,11578,10157.60,0,0,0,3.01,-0.42,3.01,0.29,0.64,0.74
0.24609375,0.04457456,0.0023113932,1.00877136E-4,0.29,0.65,0.73,11600,10157.60,0,0,0,1.82,-0.42,2.24,0.29,0.65,0.73
0.24609375,0.05257456,0.0063113924,0.006100878,0.29,0.64,0.74,11615,10157.60,0,0,0,2.38,-0.14,2.66,0.29,0.64,0.74
0.24609375,0.0035745567,-0.02568861,-0.027899124,0.29,0.64,0.75,11638,10157.60,0,0,0,-1.05,-2.38,0.28,0.29,0.64,0.75
0.24609375,-0.013425445,-0.02968861,-0.029899124,0.29,0.66,0.73,11652,10157.60,0,0,0,-2.24,-2.66,0.14,0.29,0.66,0.73
-2.053711,0.029574556,0.0063113924,-0.020899124,0.29,0.65,0.74,11677,10155.30,0,0,0,0.77,-0.14,0.77,0.29,0.65,0.74
-0.75390625,0.022574557,-0.008688608,-0.006899124,0.29,0.66,0.74,11693,10156.60,0,0,0,0.28,-1.19,1.75,0.29,0.66,0.74
0.24609375,0.031574555,-0.007688608,-0.014899123,0.29,0.65,0.73,11712,10157.60,0,0,0,0.91,-1.12,1.19,0.29,0.65,0.73
-0.75390625,0.042574555,-0.0026886072,-0.0048991237,0.3,0.65,0.74,11728,10156.60,0,0,0,1.68,-0.77,1.89,0.30,0.65,0.74
-0.75390625,0.008574557,-0.039688602,-0.018899124,0.3,0.65,0.75,11750,10156.60,0,0,0,-0.70,-3.36,0.91,0.30,0.65,0.75
0.24609375,0.012574557,-0.063688606,-0.006899124,0.3,0.66,0.72,11765,10157.60,0,0,0,-0.42,-5.04,1.75,0.30,0.66,0.72
1.2460938,0.032574557,0.0013113925,-0.025899125,0.29,0.63,0.71,11787,10158.60,0,0,0,0.98,-0.49,0.42,0.29,0.63,0.71
0.24609375,0.027574556,0.017311392,-0.032899123,0.29,0.65,0.73,11802,10157.60,0,0,0,0.63,0.63,-0.07,0.29,0.65,0.73
-0.75390625,0.004574556,-0.030688608,-0.025899125,0.3,0.64,0.74,11827,10156.60,0,0,0,-0.98,-2.73,0.42,0.30,0.64,0.74
-1.7539062,0.008574557,-0.03568861,-0.018899124,0.29,0.66,0.72,11840,10155.60,0,0,0,-0.70,-3.08,0.91,0.29,0.66,0.72
-0.75390625,0.050574556,-0.006688607,0.0021008775,0.28,0.64,0.75,11863,10156.60,0,0,0,2.24,-1.05,2.38,0.28,0.64,0.75
-0.75390625,0.004574556,-0.037688605,-0.015899124,0.29,0.66,0.74,11878,10156.60,0,0,0,-0.98,-3.22,1.12,0.29,0.66,0.74
0.24609375,0.021574557,-0.028688608,-0.018899124,0.3,0.64,0.75,11893,10157.60,0,0,0,0.21,-2.59,0.91,0.30,0.64,0.75
0.6464844,-4.2544492E-4,-0.030688608,-0.040899124,0.3,0.65,0.73,11916,10158.00,0,0,0,-1.33,-2.73,-0.63,0.30,0.65,0.73
0.94628906,0.021574557,-0.011688607,-0.032899123,0.28,0.67,0.73,11930,10158.30,0,0,0,0.21,-1.40,-0.07,0.28,0.67,0.73
0.24609375,0.075574555,0.0013113925,-0.0048991237,0.3,0.65,0.74,11952,10157.60,0,0,0,3.99,-0.49,1.89,0.30,0.65,0.74
-0.75390625,0.026574556,-0.024688607,-0.029899124,0.3,0.65,0.73,11968,10156.60,0,0,0,0.56,-2.31,0.14,0.30,0.65,0.73
1.2460938,0.016574556,-0.04068861,-0.022899125,0.29,0.65,0.74,11990,10158.60,0,0,0,-0.14,-3.43,0.63,0.29,0.65,0.74
0.6464844,0.0035745567,-0.041688606,-0.033899125,0.3,0.65,0.73,12006,10158.00,0,0,0,-1.05,-3.50,-0.14,0.30,0.65,0.73
0.24609375,0.025574557,-0.023688609,-0.034899123,0.3,0.66,0.72,12028,10157.60,0,0,0,0.49,-2.24,-0.21,0.30,0.66,0.72
0.6464844,0.042574555,-0.0036886064,-0.032899123,0.29,0.65,0.74,12043,10158.00,0,0,0,1.68,-0.84,-0.07,0.29,0.65,0.74
0.24609375,0.027574556,-0.0026886072,-0.039899126,0.29,0.66,0.73,12065,10157.60,0,0,0,0.63,-0.77,-0.56,0.29,0.66,0.73
-0.75390625,0.043574557,-0.0036886064,-0.025899125,0.29,0.65,0.73,12080,10156.60,0,0,0,1.75,-0.84,0.42,0.29,0.65,0.73
-0.75390625,0.024574555,-0.017688608,-0.028899124,0.29,0.65,0.73,12095,10156.60,0,0,0,0.42,-1.82,0.21,0.29,0.65,0.73
-0.75390625,0.043574557,-0.007688608,-0.010899125,0.28,0.65,0.73,12117,10156.60,0,0,0,1.75,-1.12,1.47,0.28,0.65,0.73
0.24609375,5.745571E-4,-0.02568861,-0.033899125,0.3,0.65,0.74,12133,10157.60,0,0,0,-1.26,-2.38,-0.14,0.30,0.65,0.74
0.24609375,0.015574557,-0.041688606,-0.025899125,0.29,0.67,0.73,12155,10157.60,0,0,0,-0.21,-3.50,0.42,0.29,0.67,0.73
0.6464844,0.04457456,-0.02568861,-0.008899124,0.29,0.65,0.73,12170,10158.00,0,0,0,1.82,-2.38,1.61,0.29,0.65,0.73
-1.3535156,0.026574556,-0.0046886075,-0.031899124,0.29,0.65,0.71,12193,10156.00,0,0,0,0.56,-0.91,0.00,0.29,0.65,0.71
-0.75390625,0.019574556,0.0063113924,-0.023899123,0.29,0.66,0.71,12208,10156.60,0,0,0,0.07,-0.14,0.56,0.29,0.66,0.71
0.6464844,5.745571E-4,-0.013688607,-0.031899124,0.29,0.66,0.74,12230,10158.00,0,0,0,-1.26,-1.54,0.00,0.29,0.66,0.74
-0.35351562,0.018574556,-0.019688608,-0.017899124,0.29,0.67,0.72,12245,10157.00,0,0,0,0.00,-1.96,0.98,0.29,0.67,0.72
0.6464844,0.04457456,0.010311393,-0.010899125,0.29,0.65,0.72,12268,10158.00,0,0,0,1.82,0.14,1.47,0.29,0.65,0.72
-0.75390625,-0.012425445,-0.0046886075,-0.048899125,0.29,0.65,0.75,12283,10156.60,0,0,0,-2.17,-0.91,-1.19,0.29,0.65,0.75
-0.35351562,0.008574557,-0.028688608,-0.019899126,0.27,0.67,0.74,12306,10157.00,0,0,0,-0.70,-2.59,0.84,0.27,0.67,0.74
1.6464844,0.023574557,-0.0096886065,-0.0098991245,0.28,0.66,0.72,12321,10159.00,0,0,0,0.35,-1.26,1.54,0.28,0.66,0.72
0.6464844,0.0075745564,-0.012688607,-0.016899124,0.29,0.66,0.73,12343,10158.00,0,0,0,-0.77,-1.47,1.05,0.29,0.66,0.73
-8.353516,0.033574555,-0.011688607,-0.0098991245,0.3,0.66,0.73,12358,10149.00,0,0,0,1.05,-1.40,1.54,0.30,0.66,0.73
-1.3535156,0.039574556,-0.006688607,-0.010899125,0.3,0.67,0.72,12373,10156.00,0,0,0,1.47,-1.05,1.47,0.30,0.67,0.72
-1.7539062,0.059574552,0.018311393,-0.011899125,0.3,0.65,0.72,12396,10155.60,0,0,0,2.87,0.70,1.40,0.30,0.65,0.72
0.6464844,0.026574556,-6.886069E-4,-0.035899125,0.29,0.65,0.76,12410,10158.00,0,0,0,0.56,-0.63,-0.28,0.29,0.65,0.76
0.6464844,0.0025745556,-0.056688614,-0.036899123,0.29,0.67,0.72,12433,10158.00,0,0,0,-1.12,-4.55,-0.35,0.29,0.67,0.72
-0.75390625,0.020574557,-0.023688609,-0.031899124,0.28,0.65,0.69,12447,10156.60,0,0,0,0.14,-2.24,0.00,0.28,0.65,0.69
-0.35351562,0.030574556,0.027311394,-0.036899123,0.29,0.66,0.72,12470,10157.00,0,0,0,0.84,1.33,-0.35,0.29,0.66,0.72
-0.35351562,0.054574557,0.018311393,-0.016899124,0.29,0.66,0.74,12486,10157.00,0,0,0,2.52,0.70,1.05,0.29,0.66,0.74
-0.35351562,0.05257456,-0.007688608,-0.012899123,0.28,0.65,0.74,12508,10157.00,0,0,0,2.38,-1.12,1.33,0.28,0.65,0.74
-0.35351562,0.005574556,-0.027688606,-0.031899124,0.29,0.66,0.73,12523,10157.00,0,0,0,-0.91,-2.52,0.00,0.29,0.66,0.73
-1.3535156,0.024574555,-0.02568861,-0.029899124,0.29,0.65,0.73,12545,10156.00,0,0,0,0.42,-2.38,0.14,0.29,0.65,0.73
-0.35351562,0.025574557,-0.024688607,-0.017899124,0.28,0.66,0.72,12560,10157.00,0,0,0,0.49,-2.31,0.98,0.28,0.66,0.72
-0.35351562,0.027574556,-0.016688608,-0.013899125,0.28,0.65,0.71,12576,10157.00,0,0,0,0.63,-1.75,1.26,0.28,0.65,0.71
-0.35351562,0.012574557,-0.006688607,-0.021899125,0.28,0.66,0.71,12597,10157.00,0,0,0,-0.42,-1.05,0.70,0.28,0.66,0.71
-0.75390625,0.023574557,0.005311393,-0.013899125,0.28,0.66,0.73,12613,10156.60,0,0,0,0.35,-0.21,1.26,0.28,0.66,0.73
-0.35351562,0.035574555,3.1139236E-4,-0.012899123,0.29,0.66,0.74,12635,10157.00,0,0,0,1.19,-0.56,1.33,0.29,0.66,0.74
-0.35351562,0.026574556,-0.019688608,-0.014899123,0.29,0.67,0.73,12651,10157.00,0,0,0,0.56,-1.96,1.19,0.29,0.67,0.73
-0.35351562,0.035574555,-0.016688608,-0.011899125,0.29,0.65,0.72,12673,10157.00,0,0,0,1.19,-1.75,1.40,0.29,0.65,0.72
-0.053710938,-0.022425441,-0.033688605,-0.038899124,0.3,0.65,0.71,12688,10157.30,0,0,0,-2.87,-2.94,-0.49,0.30,0.65,0.71
-0.75390625,-0.03242544,-0.04668861,-0.022899125,0.29,0.68,0.7,12710,10156.60,0,0,0,-3.57,-3.85,0.63,0.29,0.68,0.70
0.6464844,0.025574557,-0.018688608,0.010100875,0.29,0.66,0.72,12725,10158.00,0,0,0,0.49,-1.89,2.94,0.29,0.66,0.72
-0.35351562,-0.033425443,-0.04068861,-0.033899125,0.3,0.65,0.75,12748,10157.00,0,0,0,-3.64,-3.43,-0.14,0.30,0.65,0.75
-1.3535156,-0.06942544,-0.110688604,-0.019899126,0.31,0.68,0.72,12762,10156.00,0,0,0,-6.16,-8.33,0.84,0.31,0.68,0.72
-0.35351562,-0.035425447,-0.13168861,-0.008899124,0.3,0.68,0.72,12785,10157.00,0,0,0,-3.78,-9.80,1.61,0.30,0.68,0.72
-0.35351562,-0.008425444,-0.107688606,-0.017899124,0.32,0.66,0.71,12800,10157.00,0,0,0,-1.89,-8.12,0.98,0.32,0.66,0.71
0.6464844,-0.07642544,-0.14768861,-0.053899124,0.34,0.67,0.71,12815,10158.00,0,0,0,-6.65,-10.92,-1.54,0.34,0.67,0.71
-0.053710938,-0.115425445,-0.2316886,-0.06289913,0.36,0.7,0.68,12838,10157.30,0,0,0,-9.38,-16.80,-2.17,0.36,0.70,0.68
-0.35351562,-0.13842544,-0.2726886,-0.07089913,0.4,0.72,0.68,12853,10157.00,0,0,0,-10.99,-19.67,-2.73,0.40,0.72,0.68
-0.35351562,-0.19342545,-0.36368862,-0.14489913,0.42,0.76,0.74,12875,10157.00,0,0,0,-14.84,-26.04,-7.91,0.42,0.76,0.74
-0.35351562,-0.15942545,-0.4066886,-0.18289912,0.44,0.77,0.8,12890,10157.00,0,0,0,-12.46,-29.05,-10.57,0.44,0.77,0.80
-0.35351562,-0.11642543,-0.4556886,-0.29489914,0.42,0.77,0.77,12912,10157.00,0,0,0,-9.45,-32.48,-18.41,0.42,0.77,0.77
-1.3535156,-0.02942544,-0.4336886,-0.35589913,0.4,0.79,0.73,12928,10156.00,0,0,0,-3.36,-30.94,-22.68,0.40,0.79,0.73
-1.3535156,0.032574557,-0.4306886,-0.45689914,0.36,0.74,0.71,12950,10156.00,0,0,0,0.98,-30.73,-29.75,0.36,0.74,0.71
-1.3535156,-0.03942544,-0.49868864,-0.51489913,0.33,0.76,0.67,12965,10156.00,0,0,0,-4.06,-35.49,-33.81,0.33,0.76,0.67
-0.053710938,-0.008425444,-0.5616886,-0.47589913,0.31,0.72,0.63,12988,10157.30,0,0,0,-1.89,-39.90,-31.08,0.31,0.72,0.63
-0.35351562,0.06357456,-0.51068866,-0.4268991,0.33,0.66,0.65,13003,10157.00,0,0,0,3.15,-36.33,-27.65,0.33,0.66,0.65
-1.3535156,0.071574554,-0.4366886,-0.4588991,0.36,0.64,0.78,13026,10156.00,0,0,0,3.71,-31.15,-29.89,0.36,0.64,0.78
-0.35351562,0.10257456,-0.4786886,-0.45089912,0.35,0.64,0.8,13043,10157.00,0,0,0,5.88,-34.09,-29.33,0.35,0.64,0.80
-0.35351562,0.17957456,-0.4426886,-0.42289913,0.32,0.64,0.73,13056,10157.00,0,0,0,11.27,-31.57,-27.37,0.32,0.64,0.73
-0.35351562,0.23357455,-0.32868862,-0.3938991,0.31,0.63,0.75,13070,10157.00,0,0,0,15.05,-23.59,-25.34,0.31,0.63,0.75
-1.0537109,0.23457456,-0.3296886,-0.34289914,0.34,0.6,0.78,13093,10156.30,0,0,0,15.12,-23.66,-21.77,0.34,0.60,0.78
-1.3535156,0.15657455,-0.3646886,-0.3498991,0.39,0.6,0.78,13109,10156.00,0,0,0,9.66,-26.11,-22.26,0.39,0.60,0.78
-1.3535156,0.18557455,-0.3346886,-0.37489912,0.41,0.61,0.8,13123,10156.00,0,0,0,11.69,-24.01,-24.01,0.41,0.61,0.80
-1.0537109,0.30057457,-0.2566886,-0.39589912,0.38,0.61,0.78,13138,10156.30,0,0,0,19.74,-18.55,-25.48,0.38,0.61,0.78
-0.35351562,0.32357457,-0.24768862,-0.39789915,0.35,0.61,0.8,13153,10157.00,0,0,0,21.35,-17.92,-25.62,0.35,0.61,0.80
-0.35351562,0.29057458,-0.3206886,-0.40289912,0.34,0.65,0.71,13175,10157.00,0,0,0,19.04,-23.03,-25.97,0.34,0.65,0.71
0.6464844,0.32857457,-0.23568861,-0.3848991,0.31,0.64,0.63,13190,10158.00,0,0,0,21.70,-17.08,-24.71,0.31,0.64,0.63
-0.35351562,0.30557457,-0.14168862,-0.41089913,0.33,0.65,0.65,13206,10157.00,0,0,0,20.09,-10.50,-26.53,0.33,0.65,0.65
-1.0537109,0.29057458,-0.1356886,-0.44389912,0.35,0.67,0.72,13220,10156.30,0,0,0,19.04,-10.08,-28.84,0.35,0.67,0.72
-1.3535156,0.16757455,-0.3016886,-0.49089915,0.34,0.69,0.75,13235,10156.00,0,0,0,10.43,-21.70,-32.13,0.34,0.69,0.75
-1.0537109,0.25257453,-0.3236886,-0.47689912,0.33,0.73,0.74,13250,10156.30,0,0,0,16.38,-23.24,-31.15,0.33,0.73,0.74
-1.3535156,0.55957454,-0.4036886,-0.17989913,0.31,0.83,0.76,13273,10156.00,0,0,0,37.87,-28.84,-10.36,0.31,0.83,0.76
-0.053710938,0.5945745,-0.5006886,-0.13489912,0.33,0.75,0.81,13288,10157.30,0,0,0,40.32,-35.63,-7.21,0.33,0.75,0.81
-1.0537109,0.66957456,-0.6716886,-0.032899123,0.38,0.7,0.78,13303,10156.30,0,0,0,45.57,-47.60,-0.07,0.38,0.70,0.78
1.6464844,0.52357453,-0.7136886,-0.32589912,0.38,0.68,0.75,13318,10159.00,0,0,0,35.35,-50.54,-20.58,0.38,0.68,0.75
-1.3535156,0.46057457,-0.7636886,-0.43889913,0.37,0.68,0.71,13333,10156.00,0,0,0,30.94,-54.04,-28.49,0.37,0.68,0.71
-0.053710938,0.18157455,-0.77668864,-0.7388991,0.34,0.67,0.74,13348,10157.30,0,0,0,11.41,-54.95,-49.49,0.34,0.67,0.74
-1.3535156,0.18657455,-0.6836886,-0.7198992,0.25,0.89,0.62,13371,10156.00,0,0,0,11.76,-48.44,-48.16,0.25,0.89,0.62
-0.75390625,0.5895746,-0.42068863,-0.46889913,0.22,0.89,0.52,13386,10156.60,0,0,0,39.97,-30.03,-30.59,0.22,0.89,0.52
-0.053710938,0.88257456,-0.13968861,-0.30989912,0.21,0.83,0.5,13400,10157.30,0,0,0,60.48,-10.36,-19.46,0.21,0.83,0.50
-1.0537109,1.0605747,-0.049688607,-0.2528991,0.19,0.76,0.48,13415,10156.30,0,0,0,72.94,-4.06,-15.47,0.19,0.76,0.48
-0.35351562,1.0115746,-0.038688608,-0.37889913,0.22,0.74,0.51,13431,10157.00,0,0,0,69.51,-3.29,-24.29,0.22,0.74,0.51
-1.0537109,0.68457454,-0.2646886,-0.49789912,0.18,0.84,0.5,13445,10156.30,0,0,0,46.62,-19.11,-32.62,0.18,0.84,0.50
-0.35351562,0.46357456,-0.2146886,-0.42489913,0.08,0.78,0.31,13469,10157.00,0,0,0,31.15,-15.61,-27.51,0.08,0.78,0.31
0.3466797,0.36457455,-0.02968861,-0.34489912,0.08,0.9,0.27,13482,10157.70,0,0,0,24.22,-2.66,-21.91,0.08,0.90,0.27
-1.0537109,0.45557457,0.03731139,-0.059899125,0.13,0.86,0.28,13498,10156.30,0,0,0,30.59,2.03,-1.96,0.13,0.86,0.28
8.946289,1.1825746,1.6403114,-1.8498992,0.05,1.48,0.81,13513,10166.30,0,0,0,81.48,114.24,-127.26,0.05,1.48,0.81
6.946289,0.7375746,1.3233114,-1.7218992,0.3,0.86,0.66,13529,10164.30,0,0,0,50.33,92.05,-118.30,0.30,0.86,0.66
7.6464844,0.21257456,1.0513114,-0.7408991,1.22,1.4,1.23,13551,10165.00,0,0,0,13.58,73.01,-49.63,1.22,1.40,1.23
3.946289,-1.7474254,-1.6396886,-0.037899125,-0.15,0.22,-0.11,13565,10161.30,0,0,0,-123.62,-115.36,-0.42,-0.15,0.22,-0.11
0.94628906,-0.93042547,-0.1586886,-0.4378991,-0.12,1.11,-0.07,13581,10158.30,0,0,0,-66.43,-11.69,-28.42,-0.12,1.11,-0.07
0.94628906,-0.45342544,0.012311393,0.45410088,0.34,1.01,0.44,13596,10158.30,0,0,0,-33.04,0.28,34.02,0.34,1.01,0.44
1.3466797,-0.49942538,-0.3056886,0.43210086,0.32,0.8,0.58,13610,10158.70,0,0,0,-36.26,-21.98,32.48,0.32,0.80,0.58
-0.053710938,-0.34542543,-0.39068863,0.32110086,0.34,0.78,0.7,13626,10157.30,0,0,0,-25.48,-27.93,24.71,0.34,0.78,0.70
0.94628906,-0.16142546,-0.38868862,0.20510088,0.31,0.78,0.7,13641,10158.30,0,0,0,-12.60,-27.79,16.59,0.31,0.78,0.70
-0.35351562,-0.048425443,-0.5436886,-0.061899126,0.28,0.81,0.61,13663,10157.00,0,0,0,-4.69,-38.64,-2.10,0.28,0.81,0.61
0.94628906,0.10857456,-0.4666886,-0.14089912,0.3,0.85,0.6,13678,10158.30,0,0,0,6.30,-33.25,-7.63,0.30,0.85,0.60
0.94628906,0.16057454,-0.4816886,-0.18089913,0.32,0.79,0.58,13693,10158.30,0,0,0,9.94,-34.30,-10.43,0.32,0.79,0.58
0.94628906,0.03757456,-0.2806886,-0.22589913,0.14,0.86,0.47,13708,10158.30,0,0,0,1.33,-20.23,-13.58,0.14,0.86,0.47
0.6464844,0.11057456,0.076311395,-0.37589914,0.17,0.89,0.36,13723,10158.00,0,0,0,6.44,4.76,-24.08,0.17,0.89,0.36
-0.053710938,0.10457456,0.4193114,-0.19889912,0.09,0.95,0.28,13745,10157.30,0,0,0,6.02,28.77,-11.69,0.09,0.95,0.28
3.946289,0.071574554,0.6293114,-0.20089912,0.05,0.91,0.32,13760,10161.30,0,0,0,3.71,43.47,-11.83,0.05,0.91,0.32
2.946289,0.23257454,0.7723114,-0.14689913,0.17,0.9,0.46,13776,10160.30,0,0,0,14.98,53.48,-8.05,0.17,0.90,0.46
2.946289,-0.0144254435,-0.044688605,0.20810087,0.31,1.04,0.21,13790,10160.30,0,0,0,-2.31,-3.71,16.80,0.31,1.04,0.21
1.9462891,0.36957455,1.0583113,0.16510087,0.12,0.82,0.52,13806,10159.30,0,0,0,24.57,73.50,13.79,0.12,0.82,0.52
0.94628906,0.28657457,0.61631143,0.3651009,0.26,0.75,0.59,13828,10158.30,0,0,0,18.76,42.56,27.79,0.26,0.75,0.59
1.9462891,0.25557455,0.66431135,0.052100874,0.24,0.87,0.57,13844,10159.30,0,0,0,16.59,45.92,5.88,0.24,0.87,0.57
3.946289,0.6365745,0.5923114,0.09910087,0.24,0.87,0.6,13858,10161.30,0,0,0,43.26,40.88,9.17,0.24,0.87,0.60
4.946289,0.30157456,0.3273114,0.7661009,0.36,0.78,0.7,13873,10162.30,0,0,0,19.81,22.33,55.86,0.36,0.78,0.70
4.946289,0.30957457,-0.04068861,0.64510083,0.15,0.93,0.58,13889,10162.30,0,0,0,20.37,-3.43,47.39,0.15,0.93,0.58
4.2460938,0.15157455,0.1283114,0.5571009,0.09,0.61,0.5,13910,10161.60,0,0,0,9.31,8.40,41.23,0.09,0.61,0.50
2.946289,-0.5674255,0.2763114,0.19910088,0.13,0.89,0.36,13926,10160.30,0,0,0,-41.02,18.76,16.17,0.13,0.89,0.36
3.2460938,0.64857453,0.4573114,0.18210086,0.06,0.9,0.5,13940,10160.60,0,0,0,44.10,31.43,14.98,0.06,0.90,0.50
2.946289,0.40857455,0.69031143,-0.040899124,0.27,0.9,0.55,13955,10160.30,0,0,0,27.30,47.74,-0.63,0.27,0.90,0.55
4.2460938,0.56757456,0.6413114,0.13510087,0.23,0.94,0.53,13970,10161.60,0,0,0,38.43,44.31,11.69,0.23,0.94,0.53
3.946289,-0.22942546,0.7573114,0.12110087,0.08,0.75,0.51,13985,10161.30,0,0,0,-17.36,52.43,10.71,0.08,0.75,0.51
5.6464844,-0.056425445,0.5813114,0.038100876,0.13,0.83,0.54,14008,10163.00,0,0,0,-5.25,40.11,4.90,0.13,0.83,0.54
3.946289,-0.38042545,0.6293114,-0.005899124,0.1,0.82,0.67,14023,10161.30,0,0,0,-27.93,43.47,1.82,0.10,0.82,0.67
4.046875,0.5985745,0.5583114,-0.09389913,0.12,0.85,0.44,14037,10161.40,0,0,0,40.60,38.50,-4.34,0.12,0.85,0.44
0.3466797,-0.9694255,0.3833114,-0.49389914,0.11,1.3,0.47,14053,10157.70,0,0,0,-69.16,26.25,-32.34,0.11,1.30,0.47
-1.0537109,0.08857456,0.10131139,-0.24989913,0.23,0.95,0.56,14067,10156.30,0,0,0,4.90,6.51,-15.26,0.23,0.95,0.56
-1.0537109,0.22557455,-0.12768862,-0.2528991,0.2,0.84,0.59,14082,10156.30,0,0,0,14.49,-9.52,-15.47,0.20,0.84,0.59
-0.6533203,-0.0154254455,-0.1706886,-0.2548991,0.14,0.78,0.48,14098,10156.70,0,0,0,-2.38,-12.53,-15.61,0.14,0.78,0.48
2.046875,-0.59842545,-0.41968858,-0.05589912,0.35,0.68,0.76,14121,10159.40,0,0,0,-43.19,-29.96,-1.68,0.35,0.68,0.76
-1.0537109,-0.48242542,-0.3306886,-0.016899124,0.31,0.81,0.56,14135,10156.30,0,0,0,-35.07,-23.73,1.05,0.31,0.81,0.56
1.3466797,-0.6744254,-0.2606886,0.39410087,0.14,0.72,0.44,14150,10158.70,0,0,0,-48.51,-18.83,29.82,0.14,0.72,0.44
0.94628906,-1.0014254,-0.023688609,0.44210088,0.08,0.71,0.56,14166,10158.30,0,0,0,-71.40,-2.24,33.18,0.08,0.71,0.56
3.946289,-0.7074255,-0.28968862,0.48210087,0.15,0.95,0.56,14180,10161.30,0,0,0,-50.82,-20.86,35.98,0.15,0.95,0.56
3.946289,0.3155746,-0.3236886,0.7921009,0.08,0.83,0.46,14195,10161.30,0,0,0,20.79,-23.24,57.68,0.08,0.83,0.46
5.2460938,0.56057453,-0.12268861,0.8021009,0.23,0.87,0.45,14218,10162.60,0,0,0,37.94,-9.17,58.38,0.23,0.87,0.45
4.946289,0.56357455,0.0073113926,0.68610084,0.2,0.5,0.56,14233,10162.30,0,0,0,38.15,-0.07,50.26,0.20,0.50,0.56
4.2460938,0.7605745,-0.3116886,0.2651009,0.2,0.77,0.61,14248,10161.60,0,0,0,51.94,-22.40,20.79,0.20,0.77,0.61
5.2460938,0.29557455,-0.3126886,0.17910089,0.3,0.87,0.49,14263,10162.60,0,0,0,19.39,-22.47,14.77,0.30,0.87,0.49
4.946289,0.16757455,-0.29168862,0.09510088,0.4,0.88,0.42,14278,10162.30,0,0,0,10.43,-21.00,8.89,0.40,0.88,0.42
4.946289,0.060574554,-0.3166886,0.15810087,0.34,0.84,0.5,14299,10162.30,0,0,0,2.94,-22.75,13.30,0.34,0.84,0.50
-1.6533203,0.29257458,-0.4696886,0.18210086,0.21,0.83,0.58,14315,10155.70,0,0,0,19.18,-33.46,14.98,0.21,0.83,0.58
3.2460938,0.31257457,-0.4086886,0.10610087,0.12,0.82,0.63,14345,10160.60,0,0,0,20.58,-29.19,9.66,0.12,0.82,0.63
2.946289,0.32057455,-0.3526886,0.120100886,0.18,0.8,0.59,14347,10160.30,0,0,0,21.14,-25.27,10.64,0.18,0.80,0.59
1.9462891,0.27157456,-0.3496886,0.18710087,0.29,0.78,0.53,14361,10159.30,0,0,0,17.71,-25.06,15.33,0.29,0.78,0.53
4.2460938,0.33357456,-0.6396886,0.32010087,0.35,0.79,0.49,14376,10161.60,0,0,0,22.05,-45.36,24.64,0.35,0.79,0.49
-2.053711,0.8085745,-1.0666887,0.3341009,0.35,0.8,0.47,14390,10155.30,0,0,0,55.30,-75.25,25.62,0.35,0.80,0.47
2.2460938,0.46157455,-0.8256886,0.34110087,0.27,0.77,0.47,14412,10159.60,0,0,0,31.01,-58.38,26.11,0.27,0.77,0.47
2.2460938,-0.11242544,-0.3896886,0.45710087,0.31,0.87,0.47,14428,10159.60,0,0,0,-9.17,-27.86,34.23,0.31,0.87,0.47
0.3466797,0.50957453,-0.0096886065,0.7851008,0.24,0.83,0.49,14443,10157.70,0,0,0,34.37,-1.26,57.19,0.24,0.83,0.49
-0.6533203,0.51657456,0.29231137,0.6391009,0.32,0.98,0.43,14457,10156.70,0,0,0,34.86,19.88,46.97,0.32,0.98,0.43
-1.6533203,0.39057457,0.2703114,0.39210087,0.33,0.74,0.39,14473,10155.70,0,0,0,26.04,18.34,29.68,0.33,0.74,0.39
-2.6533203,0.21657455,0.18331139,0.13610087,0.37,0.82,0.37,14495,10154.70,0,0,0,13.86,12.25,11.76,0.37,0.82,0.37
-2.6533203,0.08757456,0.08031139,0.093100876,0.35,0.78,0.43,14510,10154.70,0,0,0,4.83,5.04,8.75,0.35,0.78,0.43
-1.6533203,-0.067425445,-0.0056886077,-0.0098991245,0.32,0.86,0.44,14525,10155.70,0,0,0,-6.02,-0.98,1.54,0.32,0.86,0.44
-2.6533203,-0.074425444,0.005311393,-0.051899124,0.34,0.86,0.45,14540,10154.70,0,0,0,-6.51,-0.21,-1.40,0.34,0.86,0.45
-3.053711,-0.06142544,0.03231139,-0.034899123,0.34,0.83,0.46,14555,10154.30,0,0,0,-5.60,1.68,-0.21,0.34,0.83,0.46
-1.6533203,-0.06442544,0.035311393,-0.008899124,0.39,0.78,0.46,14570,10155.70,0,0,0,-5.81,1.89,1.61,0.39,0.78,0.46
-1.6533203,-0.108425446,-0.0056886077,0.028100874,0.43,0.75,0.44,14592,10155.70,0,0,0,-8.89,-0.98,4.20,0.43,0.75,0.44
-1.3535156,-0.22042544,-0.030688608,0.082100876,0.34,0.8,0.49,14608,10156.00,0,0,0,-16.73,-2.73,7.98,0.34,0.80,0.49
-0.6533203,-0.34442544,0.018311393,0.03310088,0.24,0.81,0.57,14623,10156.70,0,0,0,-25.41,0.70,4.55,0.24,0.81,0.57
-0.053710938,-0.32642543,0.11131139,0.016100872,0.3,0.89,0.45,14637,10157.30,0,0,0,-24.15,7.21,3.36,0.30,0.89,0.45
0.3466797,-0.27542543,0.1343114,-0.026899125,0.38,0.87,0.43,14652,10157.70,0,0,0,-20.58,8.82,0.35,0.38,0.87,0.43
0.3466797,-0.25942543,0.11831139,-0.049899124,0.42,0.82,0.46,14667,10157.70,0,0,0,-19.46,7.70,-1.26,0.42,0.82,0.46
0.6464844,-0.3464254,0.04131139,-0.048899125,0.42,0.77,0.49,14683,10158.00,0,0,0,-25.55,2.31,-1.19,0.42,0.77,0.49
-1.6533203,-0.43342543,0.0043113925,-0.023899123,0.39,0.75,0.5,14705,10155.70,0,0,0,-31.64,-0.28,0.56,0.39,0.75,0.50
-0.6533203,-0.68942547,-0.11168861,-0.07889912,0.37,0.79,0.45,14720,10156.70,0,0,1,-49.56,-8.40,-3.29,0.37,0.79,0.45
-0.6533203,-0.82042545,-0.09268861,-0.018899124,0.41,0.84,0.42,14736,10156.70,0,0,1,-58.73,-7.07,0.91,0.41,0.84,0.42
0.3466797,-0.6004255,-0.17868862,0.08310088,0.39,0.9,0.47,14750,10157.70,0,0,1,-43.33,-13.09,8.05,0.39,0.90,0.47
-0.053710938,-0.4094254,-0.22568859,0.11810088,0.35,0.84,0.56,14765,10157.30,0,0,1,-29.96,-16.38,10.50,0.35,0.84,0.56
0.3466797,-0.16842546,-0.0986886,0.16510087,0.28,0.87,0.61,14789,10157.70,0,0,1,-13.09,-7.49,13.79,0.28,0.87,0.61
1.3466797,0.09557456,0.083311394,-0.112899125,0.31,0.88,0.55,14811,10158.70,0,0,1,5.39,5.25,-5.67,0.31,0.88,0.55
-2.053711,0.15357454,0.1353114,-0.24089913,0.38,0.86,0.51,14833,10155.30,0,0,1,9.45,8.89,-14.63,0.38,0.86,0.51
-0.6533203,0.12057456,0.13331139,-0.30789912,0.4,0.8,0.47,14848,10156.70,0,0,1,7.14,8.75,-19.32,0.40,0.80,0.47
0.94628906,0.15957455,0.07731139,-0.23789912,0.42,0.79,0.44,14863,10158.30,0,0,1,9.87,4.83,-14.42,0.42,0.79,0.44
-0.6533203,0.18657455,-0.06868861,-0.21289912,0.43,0.83,0.44,14878,10156.70,0,0,1,11.76,-5.39,-12.67,0.43,0.83,0.44
-0.6533203,0.17457455,-0.1556886,-0.23089913,0.43,0.81,0.47,14893,10156.70,0,0,1,10.92,-11.48,-13.93,0.43,0.81,0.47
-2.053711,0.17057456,-0.1596886,-0.25389913,0.41,0.79,0.51,14919,10155.30,0,0,1,10.64,-11.76,-15.54,0.41,0.79,0.51
-1.6533203,0.21057454,-0.16368861,-0.22789913,0.37,0.84,0.49,14925,10155.70,0,0,1,13.44,-12.04,-13.72,0.37,0.84,0.49
-1.6533203,0.25957456,-0.18468861,-0.23389913,0.33,0.89,0.47,14938,10155.70,0,0,1,16.87,-13.51,-14.14,0.33,0.89,0.47
-2.6533203,0.30657455,-0.17468862,-0.30489913,0.32,0.9,0.5,14960,10154.70,0,0,1,20.16,-12.81,-19.11,0.32,0.90,0.50
-1.6533203,0.35557458,-0.16568862,-0.29489914,0.33,0.85,0.51,14983,10155.70,0,0,1,23.59,-12.18,-18.41,0.33,0.85,0.51
-3.6533203,0.33757457,-0.1666886,-0.28889912,0.32,0.82,0.49,15005,10153.70,0,0,1,22.33,-12.25,-17.99,0.32,0.82,0.49
-2.6533203,0.34557456,-0.16868861,-0.27989912,0.29,0.85,0.47,15027,10154.70,0,0,1,22.89,-12.39,-17.36,0.29,0.85,0.47
-2.6533203,0.40157455,-0.1816886,-0.2898991,0.3,0.84,0.49,15043,10154.70,0,0,1,26.81,-13.30,-18.06,0.30,0.84,0.49
-2.3535156,0.37457457,-0.11868861,-0.27389914,0.29,0.81,0.48,15065,10155.00,0,0,1,24.92,-8.89,-16.94,0.29,0.81,0.48
-2.6533203,0.31857458,-0.020688606,-0.26289913,0.28,0.81,0.46,15088,10154.70,0,0,1,21.00,-2.03,-16.17,0.28,0.81,0.46
-5.6533203,0.33057457,3.1139236E-4,-0.25889912,0.29,0.82,0.45,15110,10151.70,0,0,1,21.84,-0.56,-15.89,0.29,0.82,0.45
-4.6533203,0.30557457,-0.0106886085,-0.25589913,0.31,0.78,0.46,15125,10152.70,0,0,1,20.09,-1.33,-15.68,0.31,0.78,0.46
-5.6533203,0.2785746,-0.033688605,-0.20989913,0.31,0.78,0.45,15140,10151.70,0,0,1,18.20,-2.94,-12.46,0.31,0.78,0.45
-8.053711,0.25557455,-0.056688614,-0.16289912,0.3,0.79,0.45,15155,10149.30,0,0,1,16.59,-4.55,-9.17,0.30,0.79,0.45
-8.65332,0.20457456,-0.019688608,-0.16389912,0.29,0.8,0.46,15170,10148.70,0,0,1,13.02,-1.96,-9.24,0.29,0.80,0.46
-12.65332,0.14557455,-0.0026886072,-0.12989913,0.31,0.79,0.47,15193,10144.70,0,0,1,8.89,-0.77,-6.86,0.31,0.79,0.47
-14.353516,0.13257456,0.020311393,-0.08489913,0.3,0.84,0.46,15207,10143.00,0,0,1,7.98,0.84,-3.71,0.30,0.84,0.46
-16.953125,0.13357456,0.049311392,-0.037899125,0.3,0.86,0.46,15230,10140.40,0,0,1,8.05,2.87,-0.42,0.30,0.86,0.46
-20.353516,0.10057455,0.043311395,0.026100874,0.3,0.87,0.45,15252,10137.00,0,0,1,5.74,2.45,4.06,0.30,0.87,0.45
-21.353516,0.06757456,0.060311392,0.03910087,0.28,0.91,0.42,15275,10136.00,0,0,1,3.43,3.64,4.97,0.28,0.91,0.42
-22.353516,0.043574557,0.06631139,0.03610088,0.29,0.9,0.43,15298,10135.00,0,0,1,1.75,4.06,4.76,0.29,0.90,0.43
-23.353516,0.071574554,0.08131139,0.018100876,0.31,0.92,0.43,15320,10134.00,0,0,1,3.71,5.11,3.50,0.31,0.92,0.43
-22.353516,0.075574555,0.07831139,0.018100876,0.33,0.9,0.43,15342,10135.00,0,0,1,3.99,4.90,3.50,0.33,0.90,0.43
-31.353516,0.068574555,0.051311396,0.030100878,0.33,0.9,0.41,15358,10126.00,0,0,1,3.50,3.01,4.34,0.33,0.90,0.41
-23.353516,0.07057456,0.017311392,0.04710088,0.32,0.9,0.38,15380,10134.00,0,0,1,3.64,0.63,5.53,0.32,0.90,0.38
-23.353516,0.08357456,0.0063113924,0.04310088,0.31,0.9,0.37,15387,10134.00,0,0,1,4.55,-0.14,5.25,0.31,0.90,0.37
-23.353516,0.09957456,-0.0056886077,0.014100876,0.31,0.89,0.37,15402,10134.00,0,0,1,5.67,-0.98,3.22,0.31,0.89,0.37
-24.65332,0.112574555,-0.011688607,-0.007899126,0.31,0.88,0.37,15417,10132.70,0,0,1,6.58,-1.40,1.68,0.31,0.88,0.37
-23.953125,0.10957456,-0.02568861,-0.045899123,0.29,0.87,0.37,15433,10133.40,0,0,1,6.37,-2.38,-0.98,0.29,0.87,0.37
-23.353516,0.09557456,-0.04068861,-0.06389913,0.28,0.87,0.36,15447,10134.00,0,0,1,5.39,-3.43,-2.24,0.28,0.87,0.36
-24.353516,0.06757456,-0.04668861,-0.08189912,0.26,0.86,0.35,15470,10133.00,0,0,1,3.43,-3.85,-3.50,0.26,0.86,0.35
-23.353516,0.047574557,-0.041688606,-0.09289913,0.26,0.87,0.35,15493,10134.00,0,0,1,2.03,-3.50,-4.27,0.26,0.87,0.35
-22.353516,0.051574558,-0.037688605,-0.07489912,0.27,0.87,0.36,15517,10135.00,0,0,1,2.31,-3.22,-3.01,0.27,0.87,0.36
-21.353516,0.023574557,-0.03568861,-0.032899123,0.31,0.87,0.39,15537,10136.00,0,0,1,0.35,-3.08,-0.07,0.31,0.87,0.39
-20.353516,-0.023425443,-0.034688607,0.010100875,0.32,0.86,0.42,15559,10137.00,0,0,1,-2.94,-3.01,2.94,0.32,0.86,0.42
-18.353516,-0.06142544,-0.037688605,0.03210088,0.31,0.87,0.41,15575,10139.00,0,0,1,-5.60,-3.22,4.48,0.31,0.87,0.41
-22.353516,-0.04742544,-0.03568861,0.018100876,0.29,0.9,0.39,15597,10135.00,0,0,1,-4.62,-3.08,3.50,0.29,0.90,0.39
-13.353516,-0.007425444,-0.023688609,-0.021899125,0.28,0.92,0.39,15612,10144.00,0,0,1,-1.82,-2.24,0.70,0.28,0.92,0.39
-10.353516,0.039574556,0.0063113924,-0.053899124,0.28,0.92,0.4,15635,10147.00,0,0,1,1.47,-0.14,-1.54,0.28,0.92,0.40
-5.053711,0.08057456,0.010311393,-0.053899124,0.29,0.89,0.4,15650,10152.30,0,0,1,4.34,0.14,-1.54,0.29,0.89,0.40
-1.3535156,0.08957455,0.022311393,-0.047899127,0.3,0.89,0.38,15665,10156.00,0,0,1,4.97,0.98,-1.12,0.30,0.89,0.38
1.6464844,0.10457456,0.018311393,-0.040899124,0.3,0.9,0.37,15680,10159.00,0,0,1,6.02,0.70,-0.63,0.30,0.90,0.37
7.946289,0.11557456,0.022311393,-0.050899126,0.29,0.9,0.38,15695,10165.30,0,0,1,6.79,0.98,-1.33,0.29,0.90,0.38
10.646484,0.11857456,0.039311394,-0.08489913,0.3,0.88,0.39,15718,10168.00,0,0,1,7.00,2.17,-3.71,0.30,0.88,0.39
13.946289,0.09357456,0.039311394,-0.09989913,0.31,0.88,0.39,15741,10171.30,0,0,1,5.25,2.17,-4.76,0.31,0.88,0.39
16.94629,0.101574555,0.021311393,-0.09289913,0.31,0.89,0.38,15763,10174.30,0,0,1,5.81,0.91,-4.27,0.31,0.89,0.38
19.94629,0.09957456,0.010311393,-0.098899126,0.3,0.89,0.38,15778,10177.30,0,0,1,5.67,0.14,-4.69,0.30,0.89,0.38
20.94629,0.09157456,0.010311393,-0.087899126,0.3,0.87,0.38,15800,10178.30,0,0,1,5.11,0.14,-3.92,0.30,0.87,0.38
19.94629,0.071574554,-6.886069E-4,-0.06289913,0.29,0.89,0.36,15823,10177.30,0,0,1,3.71,-0.63,-2.17,0.29,0.89,0.36
19.94629,0.075574555,-0.015688606,-0.07389912,0.29,0.9,0.36,15845,10177.30,0,0,1,3.99,-1.68,-2.94,0.29,0.90,0.36
19.94629,0.07457456,-0.028688608,-0.07789913,0.3,0.88,0.37,15860,10177.30,0,0,1,3.92,-2.59,-3.22,0.30,0.88,0.37
20.246094,0.06257456,-0.041688606,-0.06989913,0.3,0.87,0.38,15875,10177.60,0,0,1,3.08,-3.50,-2.66,0.30,0.87,0.38
20.94629,0.029574556,-0.04668861,-0.041899122,0.3,0.87,0.38,15890,10178.30,0,0,1,0.77,-3.85,-0.70,0.30,0.87,0.38
19.94629,0.004574556,-0.04368861,-0.019899126,0.28,0.88,0.38,15912,10177.30,0,0,1,-0.98,-3.64,0.84,0.28,0.88,0.38
21.646484,0.0035745567,-0.032688603,-0.018899124,0.27,0.9,0.37,15927,10179.00,0,0,1,-1.05,-2.87,0.91,0.27,0.90,0.37
18.94629,0.016574556,-0.006688607,-0.027899124,0.27,0.9,0.37,15943,10176.30,0,0,1,-0.14,-1.05,0.28,0.27,0.90,0.37
18.94629,0.021574557,0.010311393,-0.036899123,0.28,0.89,0.38,15965,10176.30,0,0,1,0.21,0.14,-0.35,0.28,0.89,0.38
19.646484,0.005574556,0.011311392,-0.023899123,0.28,0.87,0.38,15980,10177.00,0,0,1,-0.91,0.21,0.56,0.28,0.87,0.38
18.94629,-0.011425443,0.012311393,-0.013899125,0.28,0.88,0.37,16003,10176.30,0,0,1,-2.10,0.28,1.26,0.28,0.88,0.37
17.94629,-0.019425446,0.017311392,-0.0048991237,0.27,0.9,0.37,16026,10175.30,0,0,1,-2.66,0.63,1.89,0.27,0.90,0.37
17.94629,-0.0144254435,0.025311394,-0.005899124,0.27,0.89,0.37,16048,10175.30,0,0,1,-2.31,1.19,1.82,0.27,0.89,0.37
17.646484,-0.0034254435,0.021311393,0.006100878,0.27,0.89,0.38,16070,10175.00,0,0,1,-1.54,0.91,2.66,0.27,0.89,0.38
18.246094,-0.0144254435,0.04531139,0.009100873,0.28,0.88,0.38,16092,10175.60,0,0,1,-2.31,2.59,2.87,0.28,0.88,0.38
16.94629,-0.0154254455,0.03731139,0.009100873,0.27,0.9,0.37,16107,10174.30,0,0,1,-2.38,2.03,2.87,0.27,0.90,0.37
17.94629,-0.0094254445,0.033311393,-8.99123E-4,0.27,0.91,0.37,16122,10175.30,0,0,1,-1.96,1.75,2.17,0.27,0.91,0.37
15.946289,0.004574556,0.03231139,-8.99123E-4,0.28,0.9,0.38,16145,10173.30,0,0,1,-0.98,1.68,2.17,0.28,0.90,0.38
16.246094,0.018574556,0.018311393,0.022100877,0.28,0.88,0.38,16160,10173.60,0,0,1,0.00,0.70,3.78,0.28,0.88,0.38
14.946289,0.008574557,0.021311393,0.038100876,0.28,0.88,0.38,16176,10172.30,0,0,1,-0.70,0.91,4.90,0.28,0.88,0.38
13.946289,0.012574557,0.024311393,0.051100872,0.27,0.88,0.38,16190,10171.30,0,0,1,-0.42,1.12,5.81,0.27,0.88,0.38
13.946289,0.009574557,0.03731139,0.052100874,0.28,0.88,0.4,16212,10171.30,0,0,1,-0.63,2.03,5.88,0.28,0.88,0.40
6.946289,0.012574557,0.03431139,0.08610088,0.3,0.87,0.4,16235,10164.30,0,0,1,-0.42,1.82,8.26,0.30,0.87,0.40
0.3466797,-0.019425446,0.018311393,0.09910087,0.31,0.88,0.39,16250,10157.70,0,0,1,-2.66,0.70,9.17,0.31,0.88,0.39
-7.6533203,-0.016425444,-0.0106886085,0.093100876,0.29,0.91,0.4,16273,10149.70,0,0,1,-2.45,-1.33,8.75,0.29,0.91,0.40
-12.953125,0.008574557,-0.013688607,0.049100876,0.27,0.93,0.4,16295,10144.40,0,0,1,-0.70,-1.54,5.67,0.27,0.93,0.40
-15.65332,0.026574556,0.005311393,0.021100875,0.28,0.91,0.4,16317,10141.70,0,0,1,0.56,-0.21,3.71,0.28,0.91,0.40
-16.953125,0.05557456,0.016311392,0.031100877,0.28,0.9,0.39,16340,10140.40,0,0,1,2.59,0.56,4.41,0.28,0.90,0.39
-17.65332,0.05657456,0.010311393,0.006100878,0.29,0.88,0.38,16362,10139.70,0,0,1,2.66,0.14,2.66,0.29,0.88,0.38
-15.65332,0.053574555,0.0073113926,0.009100873,0.29,0.87,0.37,16378,10141.70,0,0,1,2.45,-0.07,2.87,0.29,0.87,0.37
-17.65332,0.048574556,0.010311393,0.034100875,0.31,0.85,0.37,16392,10139.70,0,0,1,2.10,0.14,4.62,0.31,0.85,0.37
-18.65332,0.032574557,0.013311393,0.06510088,0.32,0.84,0.37,16408,10138.70,0,0,1,0.98,0.35,6.79,0.32,0.84,0.37
-16.65332,0.015574557,0.0063113924,0.107100874,0.33,0.85,0.38,16422,10140.70,0,0,1,-0.21,-0.14,9.73,0.33,0.85,0.38
-16.65332,-0.022425441,-0.001688607,0.11110088,0.32,0.86,0.39,16445,10140.70,0,0,1,-2.87,-0.70,10.01,0.32,0.86,0.39
-15.65332,-0.052425437,-0.008688608,0.09710087,0.33,0.87,0.41,16460,10141.70,0,0,1,-4.97,-1.19,9.03,0.33,0.87,0.41
-15.353516,-0.059425443,-0.014688607,0.107100874,0.34,0.86,0.42,16483,10142.00,0,0,1,-5.46,-1.61,9.73,0.34,0.86,0.42
-13.353516,-0.067425445,-0.018688608,0.11310087,0.34,0.88,0.41,16505,10144.00,0,0,1,-6.02,-1.89,10.15,0.34,0.88,0.41
-13.65332,-0.045425445,-0.02968861,0.08310088,0.33,0.92,0.41,16528,10143.70,0,0,1,-4.48,-2.66,8.05,0.33,0.92,0.41
-13.65332,-4.2544492E-4,-0.04768861,0.016100872,0.32,0.94,0.42,16550,10143.70,0,0,1,-1.33,-3.92,3.36,0.32,0.94,0.42
-13.353516,0.04457456,-0.06468861,-0.019899126,0.32,0.91,0.42,16565,10144.00,0,0,1,1.82,-5.11,0.84,0.32,0.91,0.42
-13.65332,0.05657456,-0.05868861,-0.026899125,0.33,0.89,0.41,16587,10143.70,0,0,1,2.66,-4.69,0.35,0.33,0.89,0.41
-12.65332,0.061574556,-0.055688612,-0.019899126,0.31,0.9,0.4,16602,10144.70,0,0,1,3.01,-4.48,0.84,0.31,0.90,0.40
-12.65332,0.090574555,-0.04368861,-0.012899123,0.29,0.91,0.39,16625,10144.70,0,0,1,5.04,-3.64,1.33,0.29,0.91,0.39
-12.65332,0.12457456,-0.02568861,-0.018899124,0.28,0.91,0.38,16640,10144.70,0,0,1,7.42,-2.38,0.91,0.28,0.91,0.38
-10.65332,0.15657455,-0.008688608,-0.031899124,0.27,0.92,0.38,16655,10146.70,0,0,1,9.66,-1.19,0.00,0.27,0.92,0.38
-10.65332,0.16957454,0.012311393,-0.06389913,0.26,0.92,0.37,16670,10146.70,0,0,1,10.57,0.28,-2.24,0.26,0.92,0.37
-8.65332,0.17757455,0.023311391,-0.09289913,0.25,0.91,0.35,16685,10148.70,0,0,1,11.13,1.05,-4.27,0.25,0.91,0.35
-7.3535156,0.18657455,0.03231139,-0.112899125,0.26,0.9,0.35,16715,10150.00,0,0,1,11.76,1.68,-5.67,0.26,0.90,0.35
-2.3535156,0.19657455,0.050311394,-0.109899126,0.25,0.9,0.35,16730,10155.00,0,0,1,12.46,2.94,-5.46,0.25,0.90,0.35
1.3466797,0.19557455,0.06731139,-0.11189912,0.24,0.89,0.35,16752,10158.70,0,0,1,12.39,4.13,-5.60,0.24,0.89,0.35
7.3466797,0.17357455,0.08831139,-0.11489912,0.24,0.89,0.33,16778,10164.70,0,0,1,10.85,5.60,-5.81,0.24,0.89,0.33
9.646484,0.16757455,0.095311396,-0.11589912,0.25,0.9,0.31,16790,10167.00,0,0,1,10.43,6.09,-5.88,0.25,0.90,0.31
13.646484,0.17557454,0.08831139,-0.10389912,0.26,0.9,0.3,16812,10171.00,0,0,1,10.99,5.60,-5.04,0.26,0.90,0.30
17.246094,0.17757455,0.0703114,-0.08489913,0.28,0.88,0.3,16835,10174.60,0,0,1,11.13,4.34,-3.71,0.28,0.88,0.30
19.646484,0.16057454,0.051311396,-0.050899126,0.3,0.86,0.31,16858,10177.00,0,0,1,9.94,3.01,-1.33,0.30,0.86,0.31
21.646484,0.13657455,0.036311395,-0.029899124,0.3,0.86,0.32,16873,10179.00,0,0,1,8.26,1.96,0.14,0.30,0.86,0.32
23.246094,0.10357456,0.018311393,-0.005899124,0.31,0.87,0.32,16888,10180.60,0,0,1,5.95,0.70,1.82,0.31,0.87,0.32
22.646484,0.07757456,0.0013113925,0.019100875,0.31,0.87,0.32,16903,10180.00,0,0,1,4.13,-0.49,3.57,0.31,0.87,0.32
23.246094,0.053574555,-0.023688609,0.034100875,0.31,0.89,0.32,16925,10180.60,0,0,1,2.45,-2.24,4.62,0.31,0.89,0.32
23.646484,0.032574557,-0.044688605,0.031100877,0.31,0.9,0.33,16940,10181.00,0,0,1,0.98,-3.71,4.41,0.31,0.90,0.33
23.646484,-0.017425442,-0.07068861,0.027100876,0.31,0.9,0.34,16962,10181.00,0,0,1,-2.52,-5.53,4.13,0.31,0.90,0.34
24.646484,-0.042425446,-0.07968861,0.006100878,0.3,0.91,0.34,16977,10182.00,0,0,1,-4.27,-6.16,2.66,0.30,0.91,0.34
24.646484,-0.030425446,-0.06968861,-0.007899126,0.29,0.93,0.34,17007,10182.00,0,0,1,-3.43,-5.46,1.68,0.29,0.93,0.34
22.646484,5.745571E-4,-0.055688612,-0.014899123,0.29,0.92,0.35,17029,10180.00,0,0,1,-1.26,-4.48,1.19,0.29,0.92,0.35
21.94629,0.029574556,-0.045688607,-0.014899123,0.29,0.91,0.34,17045,10179.30,0,0,1,0.77,-3.78,1.19,0.29,0.91,0.34
20.646484,0.045574557,-0.02968861,-0.012899123,0.29,0.91,0.33,17068,10178.00,0,0,1,1.89,-2.66,1.33,0.29,0.91,0.33
21.94629,0.060574554,-0.019688608,0.006100878,0.29,0.9,0.33,17097,10179.30,0,0,1,2.94,-1.96,2.66,0.29,0.90,0.33
20.646484,0.059574552,-6.886069E-4,0.017100878,0.29,0.89,0.32,17105,10178.00,0,0,1,2.87,-0.63,3.43,0.29,0.89,0.32
19.646484,0.060574554,-0.0026886072,0.035100877,0.3,0.88,0.32,17128,10177.00,0,0,1,2.94,-0.77,4.69,0.30,0.88,0.32
19.94629,0.03757456,0.0043113925,0.046100877,0.3,0.88,0.31,17142,10177.30,0,0,1,1.33,-0.28,5.46,0.30,0.88,0.31
21.646484,0.014574556,0.010311393,0.060100876,0.3,0.89,0.32,17158,10179.00,0,0,1,-0.28,0.14,6.44,0.30,0.89,0.32
19.94629,-0.0014254432,0.014311392,0.06410087,0.3,0.89,0.32,17173,10177.30,0,0,1,-1.40,0.42,6.72,0.30,0.89,0.32
20.94629,-0.018425444,0.027311394,0.059100874,0.3,0.9,0.32,17188,10178.30,0,0,1,-2.59,1.33,6.37,0.30,0.90,0.32
19.94629,-0.035425447,0.035311393,0.042100877,0.3,0.9,0.32,17211,10177.30,0,0,1,-3.78,1.89,5.18,0.30,0.90,0.32
17.94629,-0.035425447,0.03231139,0.019100875,0.3,0.91,0.33,17232,10175.30,0,0,1,-3.78,1.68,3.57,0.30,0.91,0.33
19.94629,-0.03642544,0.023311391,0.011100877,0.31,0.91,0.33,17255,10177.30,0,0,1,-3.85,1.05,3.01,0.31,0.91,0.33
17.646484,-0.05842544,0.019311393,-0.010899125,0.3,0.9,0.34,17270,10175.00,0,0,1,-5.39,0.77,1.47,0.30,0.90,0.34
15.946289,-0.06942544,0.010311393,-0.029899124,0.3,0.91,0.34,17292,10173.30,0,0,1,-6.16,0.14,0.14,0.30,0.91,0.34
14.34668,-0.060425445,0.009311393,-0.031899124,0.3,0.89,0.37,17315,10171.70,0,0,1,-5.53,0.07,0.00,0.30,0.89,0.37
6.946289,-0.06842545,0.014311392,-0.011899125,0.31,0.88,0.37,17345,10164.30,0,0,1,-6.09,0.42,1.40,0.31,0.88,0.37
-2.953125,-0.062425442,0.03731139,0.004100874,0.31,0.89,0.36,17375,10154.40,0,0,1,-5.67,2.03,2.52,0.31,0.89,0.36
-10.953125,-0.055425443,0.04531139,0.010100875,0.3,0.91,0.37,17376,10146.40,0,0,1,-5.18,2.59,2.94,0.30,0.91,0.37
-13.65332,-0.055425443,0.043311395,0.016100872,0.29,0.91,0.37,17390,10143.70,0,0,1,-5.18,2.45,3.36,0.29,0.91,0.37
-14.953125,-0.048425443,0.050311394,0.005100876,0.28,0.92,0.36,17404,10142.40,0,0,1,-4.69,2.94,2.59,0.28,0.92,0.36
-17.953125,-0.013425445,0.057311393,-0.0028991252,0.28,0.92,0.36,17427,10139.40,0,0,1,-2.24,3.43,2.03,0.28,0.92,0.36
-17.65332,0.019574556,0.07131139,-0.001899125,0.29,0.9,0.36,17451,10139.70,0,0,1,0.07,4.41,2.10,0.29,0.90,0.36
-10.953125,0.035574555,0.083311394,0.010100875,0.29,0.89,0.37,17465,10146.40,0,0,1,1.19,5.25,2.94,0.29,0.89,0.37
-15.953125,0.05257456,0.098311394,0.03610088,0.28,0.89,0.36,17481,10141.40,0,0,1,2.38,6.30,4.76,0.28,0.89,0.36
-14.953125,0.036574557,0.12331139,0.040100873,0.28,0.88,0.37,17503,10142.40,0,0,1,1.26,8.05,5.04,0.28,0.88,0.37
-13.953125,0.021574557,0.1303114,0.041100875,0.29,0.88,0.36,17540,10143.40,0,0,1,0.21,8.54,5.11,0.29,0.88,0.36
-12.65332,-0.23542546,0.1283114,0.045100875,0.3,0.88,0.36,17547,10144.70,0,0,1,-17.78,8.40,5.39,0.30,0.88,0.36
-11.65332,0.011574556,0.11631139,0.04710088,0.3,0.88,0.36,17570,10145.70,0,0,1,-0.49,7.56,5.53,0.30,0.88,0.36
-11.65332,0.011574556,0.090311386,0.049100876,0.31,0.89,0.36,17593,10145.70,0,0,1,-0.49,5.74,5.67,0.31,0.89,0.36
-10.953125,0.0075745564,0.0703114,0.03310088,0.31,0.89,0.36,17608,10146.40,0,0,1,-0.77,4.34,4.55,0.31,0.89,0.36
-13.65332,0.009574557,0.062311396,0.025100876,0.31,0.89,0.36,17631,10143.70,0,0,1,-0.63,3.78,3.99,0.31,0.89,0.36
-8.65332,0.008574557,0.051311396,0.015100874,0.3,0.9,0.37,17645,10148.70,0,0,1,-0.70,3.01,3.29,0.30,0.90,0.37
-8.65332,0.0075745564,0.03731139,0.006100878,0.31,0.9,0.37,17660,10148.70,0,0,1,-0.77,2.03,2.66,0.31,0.90,0.37
-8.65332,0.004574556,0.029311392,-0.0038991235,0.31,0.9,0.37,17675,10148.70,0,0,1,-0.98,1.47,1.96,0.31,0.90,0.37
-7.6533203,0.008574557,0.024311393,-0.010899125,0.3,0.9,0.37,17690,10149.70,0,0,1,-0.70,1.12,1.47,0.30,0.90,0.37
-9.65332,0.016574556,0.019311393,-0.021899125,0.3,0.9,0.37,17712,10147.70,0,0,1,-0.14,0.77,0.70,0.30,0.90,0.37
-5.6533203,0.028574556,0.027311394,-0.017899124,0.3,0.9,0.37,17735,10151.70,0,0,1,0.70,1.33,0.98,0.30,0.90,0.37
-3.6533203,0.042574555,0.03431139,-0.016899124,0.29,0.89,0.37,17757,10153.70,0,0,1,1.68,1.82,1.05,0.29,0.89,0.37
-0.953125,0.048574556,0.036311395,-0.014899123,0.29,0.88,0.36,17780,10156.40,0,0,1,2.10,1.96,1.19,0.29,0.88,0.36
1.3466797,0.05557456,0.04431139,-0.0048991237,0.29,0.89,0.37,17795,10158.70,0,0,1,2.59,2.52,1.89,0.29,0.89,0.37
4.3466797,0.07357456,0.060311392,0.014100876,0.28,0.89,0.37,17817,10161.70,0,0,1,3.85,3.64,3.22,0.28,0.89,0.37
7.6464844,0.08457456,0.09131139,0.021100875,0.27,0.89,0.37,17840,10165.00,0,0,1,4.62,5.81,3.71,0.27,0.89,0.37
11.34668,0.08957455,0.11131139,0.015100874,0.28,0.9,0.36,17863,10168.70,0,0,1,4.97,7.21,3.29,0.28,0.90,0.36
13.646484,0.08757456,0.12531139,-8.99123E-4,0.28,0.9,0.36,17885,10171.00,0,0,1,4.83,8.19,2.17,0.28,0.90,0.36
16.646484,0.08957455,0.12631139,-0.016899124,0.29,0.89,0.37,17892,10174.00,0,0,1,4.97,8.26,1.05,0.29,0.89,0.37
11.646484,0.07357456,0.115311384,-0.0098991245,0.29,0.89,0.36,17907,10169.00,0,0,1,3.85,7.49,1.54,0.29,0.89,0.36
19.646484,0.079574555,0.10131139,-0.0028991252,0.29,0.89,0.35,17922,10177.00,0,0,1,4.27,6.51,2.03,0.29,0.89,0.35
22.646484,0.08057456,0.08531139,-0.001899125,0.3,0.89,0.35,17945,10180.00,0,0,1,4.34,5.39,2.10,0.30,0.89,0.35
26.646484,0.08657456,0.065311395,-8.99123E-4,0.3,0.9,0.35,17960,10184.00,0,0,1,4.76,3.99,2.17,0.30,0.90,0.35
29.646484,0.08357456,0.04531139,0.0011008754,0.3,0.89,0.36,17983,10187.00,0,0,1,4.55,2.59,2.31,0.30,0.89,0.36
25.646484,0.079574555,0.033311393,-0.001899125,0.29,0.89,0.36,18005,10183.00,0,0,1,4.27,1.75,2.10,0.29,0.89,0.36
26.94629,0.072574556,0.025311394,0.0031008758,0.29,0.89,0.36,18028,10184.30,0,0,1,3.78,1.19,2.45,0.29,0.89,0.36
26.646484,0.059574552,0.021311393,0.011100877,0.3,0.89,0.35,18051,10184.00,0,0,1,2.87,0.91,3.01,0.30,0.89,0.35
26.646484,0.051574558,0.023311391,0.0011008754,0.3,0.9,0.35,18065,10184.00,0,0,1,2.31,1.05,2.31,0.30,0.90,0.35
25.646484,0.050574556,0.009311393,-0.0098991245,0.29,0.9,0.35,18095,10183.00,0,0,1,2.24,0.07,1.54,0.29,0.90,0.35
26.646484,0.050574556,0.005311393,-0.017899124,0.3,0.89,0.35,18110,10184.00,0,0,1,2.24,-0.21,0.98,0.30,0.89,0.35
27.94629,0.042574555,0.0033113929,-0.021899125,0.3,0.89,0.34,18125,10185.30,0,0,1,1.68,-0.35,0.70,0.30,0.89,0.34
25.94629,0.036574557,-6.886069E-4,-0.021899125,0.3,0.89,0.35,18141,10183.30,0,0,1,1.26,-0.63,0.70,0.30,0.89,0.35
24.94629,0.032574557,-0.0106886085,-0.020899124,0.3,0.89,0.35,18163,10182.30,0,0,1,0.98,-1.33,0.77,0.30,0.89,0.35
24.94629,0.016574556,-0.017688608,-0.021899125,0.29,0.89,0.35,18178,10182.30,0,0,1,-0.14,-1.82,0.70,0.29,0.89,0.35
25.646484,0.27257457,-0.017688608,-0.011899125,0.29,0.9,0.35,18193,10183.00,0,0,1,17.78,-1.82,1.40,0.29,0.90,0.35
24.94629,0.036574557,-0.0036886064,-0.008899124,0.28,0.9,0.34,18215,10182.30,0,0,1,1.26,-0.84,1.61,0.28,0.90,0.34
21.94629,0.033574555,-0.001688607,-0.010899125,0.29,0.89,0.36,18238,10179.30,0,0,1,1.05,-0.70,1.47,0.29,0.89,0.36
15.34668,-0.006425444,-0.0106886085,1.00877136E-4,0.31,0.86,0.37,18252,10172.70,0,0,1,-1.75,-1.33,2.24,0.31,0.86,0.37
10.046875,-0.05342544,-0.016688608,0.031100877,0.32,0.87,0.35,18290,10167.40,0,0,1,-5.04,-1.75,4.41,0.32,0.87,0.35
4.046875,-0.04742544,-0.023688609,0.052100874,0.31,0.92,0.34,18305,10161.40,0,0,1,-4.62,-2.24,5.88,0.31,0.92,0.34
0.046875,-0.028425442,-0.028688608,0.035100877,0.3,0.93,0.35,18320,10157.40,0,0,1,-3.29,-2.59,4.69,0.30,0.93,0.35
-0.35351562,-0.013425445,-0.02968861,0.0031008758,0.3,0.92,0.35,18343,10157.00,0,0,1,-2.24,-2.66,2.45,0.30,0.92,0.35
6.3466797,0.0035745567,-0.026688607,-0.039899126,0.3,0.92,0.35,18366,10163.70,0,0,1,-1.05,-2.45,-0.56,0.30,0.92,0.35
11.34668,0.021574557,-0.021688607,-0.049899124,0.3,0.91,0.34,18380,10168.70,0,0,1,0.21,-2.10,-1.26,0.30,0.91,0.34
11.34668,0.029574556,-0.011688607,-0.060899124,0.29,0.91,0.34,18395,10168.70,0,0,1,0.77,-1.40,-2.03,0.29,0.91,0.34
14.646484,0.029574556,-0.006688607,-0.07489912,0.28,0.89,0.34,18410,10172.00,0,0,1,0.77,-1.05,-3.01,0.28,0.89,0.34
19.34668,0.026574556,-0.016688608,-0.06389913,0.28,0.89,0.34,18426,10176.70,0,0,1,0.56,-1.75,-2.24,0.28,0.89,0.34
24.94629,0.022574557,-0.008688608,-0.07489912,0.27,0.88,0.33,18455,10182.30,0,0,1,0.28,-1.19,-3.01,0.27,0.88,0.33
27.34668,0.0035745567,-0.011688607,-0.086899124,0.28,0.87,0.35,18462,10184.70,0,0,1,-1.05,-1.40,-3.85,0.28,0.87,0.35
30.646484,-0.021425443,-0.023688609,-0.056899123,0.3,0.86,0.35,18485,10188.00,0,0,1,-2.80,-2.24,-1.75,0.30,0.86,0.35
30.34668,-0.03942544,-0.04268861,-0.023899123,0.28,0.88,0.36,18508,10187.70,0,0,1,-4.06,-3.57,0.56,0.28,0.88,0.36
25.34668,-0.028425442,-0.039688602,1.00877136E-4,0.28,0.89,0.37,18537,10182.70,0,0,1,-3.29,-3.36,2.24,0.28,0.89,0.37
17.34668,-0.0154254455,-0.027688606,0.011100877,0.31,0.87,0.39,18552,10174.70,0,0,1,-2.38,-2.52,3.01,0.31,0.87,0.39
12.646484,-0.017425442,-0.0026886072,0.04710088,0.32,0.9,0.39,18576,10170.00,0,0,1,-2.52,-0.77,5.53,0.32,0.90,0.39
1.3466797,-0.026425445,0.0043113925,0.060100876,0.31,0.91,0.38,18598,10158.70,0,0,1,-3.15,-0.28,6.44,0.31,0.91,0.38
5.046875,-0.023425443,0.0033113929,0.057100877,0.31,0.92,0.37,18612,10162.40,0,0,1,-2.94,-0.35,6.23,0.31,0.92,0.37
5.3466797,-0.013425445,0.0023113932,0.028100874,0.3,0.93,0.36,18627,10162.70,0,0,1,-2.24,-0.42,4.20,0.30,0.93,0.36
7.6464844,5.745571E-4,-0.0036886064,-0.011899125,0.3,0.92,0.35,18650,10165.00,0,0,1,-1.26,-0.84,1.40,0.30,0.92,0.35
10.646484,0.018574556,-6.886069E-4,-0.031899124,0.3,0.91,0.35,18658,10168.00,0,0,1,0.00,-0.63,0.00,0.30,0.91,0.35
13.646484,0.025574557,3.1139236E-4,-0.049899124,0.29,0.9,0.35,18673,10171.00,0,0,1,0.49,-0.56,-1.26,0.29,0.90,0.35
18.34668,0.031574555,-0.0046886075,-0.061899126,0.28,0.89,0.34,18695,10175.70,0,0,1,0.91,-0.91,-2.10,0.28,0.89,0.34
23.646484,0.018574556,-0.0106886085,-0.07389912,0.28,0.87,0.34,18710,10181.00,0,0,1,0.00,-1.33,-2.94,0.28,0.87,0.34
27.646484,-0.018425444,-0.02568861,-0.07089913,0.28,0.86,0.34,18732,10185.00,0,0,1,-2.59,-2.38,-2.73,0.28,0.86,0.34
24.646484,-0.03942544,-0.056688614,-0.057899125,0.28,0.88,0.34,18755,10182.00,0,0,1,-4.06,-4.55,-1.82,0.28,0.88,0.34
30.34668,-0.03942544,-0.08168861,-0.047899127,0.29,0.88,0.36,18778,10187.70,0,0,1,-4.06,-6.30,-1.12,0.29,0.88,0.36
27.34668,-0.045425445,-0.09468861,-0.014899123,0.3,0.86,0.39,18792,10184.70,0,0,1,-4.48,-7.21,1.19,0.30,0.86,0.39
22.046875,-0.078425445,-0.08468861,0.03610088,0.31,0.86,0.39,18815,10179.40,0,0,1,-6.79,-6.51,4.76,0.31,0.86,0.39
17.046875,-0.093425445,-0.06468861,0.08110087,0.31,0.89,0.39,18838,10174.40,0,0,1,-7.84,-5.11,7.91,0.31,0.89,0.39
10.046875,-0.08142544,-0.05468861,0.08310088,0.3,0.93,0.39,18860,10167.40,0,0,1,-7.00,-4.41,8.05,0.30,0.93,0.39
7.046875,-0.055425443,-0.045688607,0.05810088,0.31,0.94,0.39,18875,10164.40,0,0,1,-5.18,-3.78,6.30,0.31,0.94,0.39
7.3466797,-0.021425443,-0.027688606,0.022100877,0.31,0.93,0.38,18890,10164.70,0,0,1,-2.80,-2.52,3.78,0.31,0.93,0.38
8.046875,0.006574557,-0.026688607,-0.014899123,0.31,0.93,0.38,18905,10165.40,0,0,1,-0.84,-2.45,1.19,0.31,0.93,0.38
9.046875,0.021574557,-0.019688608,-0.048899125,0.3,0.92,0.37,18928,10166.40,0,0,1,0.21,-1.96,-1.19,0.30,0.92,0.37
11.046875,0.034574557,-0.0056886077,-0.07389912,0.3,0.91,0.36,18943,10168.40,0,0,1,1.12,-0.98,-2.94,0.30,0.91,0.36
16.34668,0.03757456,0.0013113925,-0.094899125,0.29,0.88,0.35,18957,10173.70,0,0,1,1.33,-0.49,-4.41,0.29,0.88,0.35
22.046875,0.027574556,-0.006688607,-0.09989913,0.28,0.88,0.34,18980,10179.40,0,0,1,0.63,-1.05,-4.76,0.28,0.88,0.34
27.34668,0.017574556,-0.028688608,-0.112899125,0.29,0.86,0.35,19002,10184.70,0,0,1,-0.07,-2.59,-5.67,0.29,0.86,0.35
31.94629,-0.006425444,-0.060688607,-0.105899125,0.29,0.87,0.35,19025,10189.30,0,0,1,-1.75,-4.83,-5.18,0.29,0.87,0.35
32.34668,-0.024425445,-0.0876886,-0.07789913,0.29,0.85,0.37,19055,10189.70,0,0,1,-3.01,-6.72,-3.22,0.29,0.85,0.37
31.34668,-0.041425444,-0.096688606,-0.038899124,0.28,0.86,0.37,19063,10188.70,0,0,1,-4.20,-7.35,-0.49,0.28,0.86,0.37
26.94629,-0.05042544,-0.089688614,0.010100875,0.28,0.86,0.39,19085,10184.30,0,0,1,-4.83,-6.86,2.94,0.28,0.86,0.39
23.34668,-0.06142544,-0.074688606,0.025100876,0.28,0.87,0.4,19108,10180.70,0,0,1,-5.60,-5.81,3.99,0.28,0.87,0.40
15.34668,-0.07642544,-0.051688604,0.056100875,0.31,0.89,0.41,19130,10172.70,0,0,1,-6.65,-4.20,6.16,0.31,0.89,0.41
9.34668,-0.07542544,-0.037688605,0.06610088,0.32,0.91,0.41,19145,10166.70,0,0,1,-6.58,-3.22,6.86,0.32,0.91,0.41
5.3466797,-0.06442544,-0.022688609,0.061100878,0.31,0.93,0.4,19160,10162.70,0,0,1,-5.81,-2.17,6.51,0.31,0.93,0.40
3.3466797,-0.03642544,-0.014688607,0.030100878,0.31,0.94,0.39,19175,10160.70,0,0,1,-3.85,-1.61,4.34,0.31,0.94,0.39
5.7460938,-0.006425444,-0.013688607,-0.005899124,0.3,0.93,0.38,19205,10163.10,0,0,1,-1.75,-1.54,1.82,0.30,0.93,0.38
8.34668,0.030574556,-0.0046886075,-0.043899123,0.31,0.91,0.37,19212,10165.70,0,0,1,0.84,-0.91,-0.84,0.31,0.91,0.37
11.046875,0.051574558,-0.0036886064,-0.06789912,0.3,0.9,0.36,19234,10168.40,0,0,1,2.31,-0.84,-2.52,0.30,0.90,0.36
17.34668,0.053574555,-0.0096886065,-0.09589913,0.28,0.88,0.36,19257,10174.70,0,0,1,2.45,-1.26,-4.48,0.28,0.88,0.36
22.646484,0.023574557,-0.017688608,-0.109899126,0.28,0.87,0.35,19280,10180.00,0,0,1,0.35,-1.82,-5.46,0.28,0.87,0.35
28.34668,0.012574557,-0.03668861,-0.09689913,0.28,0.85,0.35,19302,10185.70,0,0,1,-0.42,-3.15,-4.55,0.28,0.85,0.35
31.646484,-0.0144254435,-0.05468861,-0.054899126,0.28,0.85,0.36,19325,10189.00,0,0,1,-2.31,-4.41,-1.61,0.28,0.85,0.36
30.646484,-0.03242544,-0.06868861,-0.018899124,0.28,0.85,0.38,19340,10188.00,0,0,1,-3.57,-5.39,0.91,0.28,0.85,0.38
29.646484,-0.051425442,-0.063688606,0.021100875,0.28,0.85,0.39,19363,10187.00,0,0,1,-4.90,-5.04,3.71,0.28,0.85,0.39
28.646484,-0.05842544,-0.062688604,0.049100876,0.29,0.86,0.39,19378,10186.00,0,0,1,-5.39,-4.97,5.67,0.29,0.86,0.39
20.646484,-0.07242544,-0.052688606,0.071100876,0.3,0.86,0.41,19393,10178.00,0,0,1,-6.37,-4.27,7.21,0.30,0.86,0.41
17.046875,-0.085425444,-0.044688605,0.08610088,0.31,0.89,0.41,19408,10174.40,0,0,1,-7.28,-3.71,8.26,0.31,0.89,0.41
12.646484,-0.082425445,-0.03568861,0.08810087,0.32,0.91,0.4,19437,10170.00,0,0,1,-7.07,-3.08,8.40,0.32,0.91,0.40
10.046875,-0.06642544,-0.030688608,0.07010087,0.32,0.93,0.4,19444,10167.40,0,0,1,-5.95,-2.73,7.14,0.32,0.93,0.40
8.046875,-0.027425444,-0.015688606,0.040100873,0.31,0.93,0.4,19467,10165.40,0,0,1,-3.22,-1.68,5.04,0.31,0.93,0.40
11.046875,0.013574556,-0.0036886064,-0.0038991235,0.31,0.94,0.38,19483,10168.40,0,0,1,-0.35,-0.84,1.96,0.31,0.94,0.38
14.046875,0.060574554,0.0063113924,-0.052899122,0.3,0.92,0.38,19505,10171.40,0,0,1,2.94,-0.14,-1.47,0.30,0.92,0.38
21.046875,0.08157456,0.015311393,-0.094899125,0.29,0.89,0.37,19527,10178.40,0,0,1,4.41,0.49,-4.41,0.29,0.89,0.37
27.34668,0.07057456,0.012311393,-0.11889913,0.29,0.87,0.36,19550,10184.70,0,0,1,3.64,0.28,-6.09,0.29,0.87,0.36
31.046875,0.047574557,-0.008688608,-0.11789913,0.29,0.84,0.35,19573,10188.40,0,0,1,2.03,-1.19,-6.02,0.29,0.84,0.35
35.046875,0.014574556,-0.04268861,-0.07989912,0.29,0.84,0.36,19587,10192.40,0,0,1,-0.28,-3.57,-3.36,0.29,0.84,0.36
35.046875,-0.026425445,-0.06568861,-0.044899125,0.28,0.85,0.37,19610,10192.40,0,0,1,-3.15,-5.18,-0.91,0.28,0.85,0.37
33.046875,-0.05342544,-0.08068861,-0.022899125,0.28,0.84,0.38,19626,10190.40,0,0,1,-5.04,-6.23,0.63,0.28,0.84,0.38
32.34668,-0.06342544,-0.08868861,0.020100877,0.29,0.85,0.39,19640,10189.70,0,0,1,-5.74,-6.79,3.64,0.29,0.85,0.39
24.046875,-0.071425445,-0.0876886,0.05410088,0.3,0.88,0.4,19662,10181.40,0,0,1,-6.30,-6.72,6.02,0.30,0.88,0.40
20.34668,-0.071425445,-0.08068861,0.08410087,0.31,0.86,0.42,19677,10177.70,0,0,1,-6.30,-6.23,8.12,0.31,0.86,0.42
15.746094,-0.07642544,-0.051688604,0.105100885,0.32,0.89,0.41,19692,10173.10,0,0,1,-6.65,-4.20,9.59,0.32,0.89,0.41
11.34668,-0.06442544,-0.034688607,0.08510087,0.31,0.92,0.41,19715,10168.70,0,0,1,-5.81,-3.01,8.19,0.31,0.92,0.41
7.7460938,-0.03642544,-0.0096886065,0.03910087,0.31,0.93,0.41,19737,10165.10,0,0,1,-3.85,-1.26,4.97,0.31,0.93,0.41
10.34668,0.008574557,0.0013113925,-0.017899124,0.31,0.92,0.39,19752,10167.70,0,0,1,-0.70,-0.49,0.98,0.31,0.92,0.39
14.746094,0.050574556,0.012311393,-0.07189912,0.31,0.91,0.38,19775,10172.10,0,0,1,2.24,0.28,-2.80,0.31,0.91,0.38
19.34668,0.08357456,0.010311393,-0.108899124,0.3,0.9,0.37,19797,10176.70,0,0,1,4.55,0.14,-5.39,0.30,0.90,0.37
26.646484,0.08257456,0.0023113932,-0.14589912,0.29,0.88,0.36,19820,10184.00,0,0,3,4.48,-0.42,-7.98,0.29,0.88,0.36
31.646484,0.072574556,-0.017688608,-0.14389913,0.29,0.86,0.36,19850,10189.00,0,0,3,3.78,-1.82,-7.84,0.29,0.86,0.36
34.646484,0.039574556,-0.03568861,-0.11589912,0.29,0.84,0.37,19865,10192.00,0,0,3,1.47,-3.08,-5.88,0.29,0.84,0.37
35.646484,0.009574557,-0.048688605,-0.08489913,0.28,0.85,0.37,19880,10193.00,0,0,3,-0.63,-3.99,-3.71,0.28,0.85,0.37
33.646484,-0.0014254432,-0.06168861,-0.057899125,0.28,0.85,0.37,19895,10191.00,0,0,3,-1.40,-4.90,-1.82,0.28,0.85,0.37
30.646484,-0.012425445,-0.07068861,-0.025899125,0.3,0.84,0.38,19910,10188.00,0,0,3,-2.17,-5.53,0.42,0.30,0.84,0.38
27.646484,-0.026425445,-0.07968861,0.019100875,0.31,0.83,0.4,19925,10185.00,0,0,3,-3.15,-6.16,3.57,0.31,0.83,0.40
24.046875,-0.05842544,-0.08168861,0.078100875,0.31,0.83,0.42,19948,10181.40,0,0,3,-5.39,-6.30,7.70,0.31,0.83,0.42
16.046875,-0.08442544,-0.062688604,0.12610088,0.3,0.88,0.4,19963,10173.40,0,0,3,-7.21,-4.97,11.06,0.30,0.88,0.40
11.746094,-0.059425443,-0.038688608,0.11710088,0.3,0.93,0.41,19985,10169.10,0,0,3,-5.46,-3.29,10.43,0.30,0.93,0.41
6.3466797,-0.017425442,-0.007688608,0.07710088,0.31,0.94,0.41,20008,10163.70,0,0,3,-2.52,-1.12,7.63,0.31,0.94,0.41
6.046875,0.033574555,0.016311392,0.018100876,0.31,0.94,0.41,20030,10163.40,0,0,3,1.05,0.56,3.50,0.31,0.94,0.41
7.3466797,0.07357456,0.033311393,-0.035899125,0.31,0.92,0.39,20052,10164.70,0,0,3,3.85,1.75,-0.28,0.31,0.92,0.39
14.34668,0.09757456,0.03431139,-0.083899125,0.3,0.9,0.37,20067,10171.70,0,0,3,5.53,1.82,-3.64,0.30,0.90,0.37
21.046875,0.09857456,0.033311393,-0.11589912,0.29,0.87,0.37,20090,10178.40,0,0,3,5.60,1.75,-5.88,0.29,0.87,0.37
27.34668,0.07457456,0.017311392,-0.12789911,0.28,0.86,0.36,20113,10184.70,0,0,3,3.92,0.63,-6.72,0.28,0.86,0.36
34.046875,0.05257456,0.009311393,-0.11389912,0.29,0.84,0.37,20135,10191.40,0,0,3,2.38,0.07,-5.74,0.29,0.84,0.37
34.34668,0.023574557,-0.0056886077,-0.090899125,0.29,0.84,0.37,20143,10191.70,0,0,3,0.35,-0.98,-4.13,0.29,0.84,0.37
36.046875,-0.008425444,-0.028688608,-0.053899124,0.29,0.83,0.38,20165,10193.40,0,0,3,-1.89,-2.59,-1.54,0.29,0.83,0.38
36.34668,-0.042425446,-0.037688605,-0.028899124,0.28,0.84,0.37,20180,10193.70,0,0,3,-4.27,-3.22,0.21,0.28,0.84,0.37
36.34668,-0.05442544,-0.049688607,-0.005899124,0.28,0.86,0.37,20195,10193.70,0,0,3,-5.11,-4.06,1.82,0.28,0.86,0.37
34.34668,-0.044425443,-0.053688608,0.021100875,0.29,0.87,0.39,20217,10191.70,0,0,3,-4.41,-4.34,3.71,0.29,0.87,0.39
31.746094,-0.044425443,-0.051688604,0.049100876,0.3,0.88,0.41,20240,10189.10,0,0,3,-4.41,-4.20,5.67,0.30,0.88,0.41
27.34668,-0.042425446,-0.05068861,0.07910088,0.32,0.87,0.43,20255,10184.70,0,0,3,-4.27,-4.13,7.77,0.32,0.87,0.43
18.34668,-0.042425446,-0.028688608,0.098100886,0.34,0.89,0.42,20278,10175.70,0,0,3,-4.27,-2.59,9.10,0.34,0.89,0.42
10.746094,-0.024425445,-0.020688606,0.09110087,0.33,0.91,0.41,20300,10168.10,0,0,3,-3.01,-2.03,8.61,0.33,0.91,0.41
4.7460938,-0.0024254434,-0.0046886075,0.04410088,0.33,0.93,0.41,20323,10162.10,0,0,3,-1.47,-0.91,5.32,0.33,0.93,0.41
4.7460938,0.005574556,-0.001688607,-0.017899124,0.32,0.92,0.4,20337,10162.10,0,0,3,-0.91,-0.70,0.98,0.32,0.92,0.40
6.7460938,0.035574555,3.1139236E-4,-0.068899125,0.31,0.91,0.38,20360,10164.10,0,0,3,1.19,-0.56,-2.59,0.31,0.91,0.38
10.746094,0.058574557,3.1139236E-4,-0.087899126,0.31,0.89,0.37,20375,10168.10,0,0,3,2.80,-0.56,-3.92,0.31,0.89,0.37
17.746094,0.07057456,-6.886069E-4,-0.10389912,0.29,0.89,0.37,20397,10175.10,0,0,3,3.64,-0.63,-5.04,0.29,0.89,0.37
23.746094,0.07757456,3.1139236E-4,-0.120899126,0.28,0.87,0.36,20413,10181.10,0,0,3,4.13,-0.56,-6.23,0.28,0.87,0.36
29.746094,0.035574555,-0.001688607,-0.13789913,0.28,0.87,0.37,20428,10187.10,0,0,3,1.19,-0.70,-7.42,0.28,0.87,0.37
34.046875,0.026574556,-0.018688608,-0.13289914,0.29,0.84,0.37,20442,10191.40,0,0,3,0.56,-1.89,-7.07,0.29,0.84,0.37
36.046875,-0.017425442,-0.039688602,-0.087899126,0.3,0.83,0.37,20466,10193.40,0,0,3,-2.52,-3.36,-3.92,0.30,0.83,0.37
39.046875,-0.041425444,-0.062688604,-0.037899125,0.29,0.84,0.38,20488,10196.40,0,0,3,-4.20,-4.97,-0.42,0.29,0.84,0.38
40.046875,-0.05042544,-0.056688614,0.009100873,0.29,0.85,0.39,20510,10197.40,0,0,3,-4.83,-4.55,2.87,0.29,0.85,0.39
39.046875,-0.049425445,-0.037688605,0.04410088,0.29,0.87,0.4,20525,10196.40,0,0,3,-4.76,-3.22,5.32,0.29,0.87,0.40
38.746094,-0.048425443,-0.018688608,0.07210088,0.3,0.88,0.41,20548,10196.10,0,0,3,-4.69,-1.89,7.28,0.30,0.88,0.41
37.046875,-0.048425443,-6.886069E-4,0.08710087,0.31,0.89,0.41,20570,10194.40,0,0,3,-4.69,-0.63,8.33,0.31,0.89,0.41
39.046875,-0.03942544,0.008311393,0.08010088,0.31,0.9,0.41,20592,10196.40,0,0,3,-4.06,0.00,7.84,0.31,0.90,0.41
38.746094,-0.008425444,0.020311393,0.056100875,0.31,0.91,0.41,20615,10196.10,0,0,3,-1.89,0.84,6.16,0.31,0.91,0.41
37.34668,0.017574556,0.023311391,0.017100878,0.32,0.9,0.4,20637,10194.70,0,0,3,-0.07,1.05,3.43,0.32,0.90,0.40
39.34668,0.040574558,0.027311394,-0.008899124,0.32,0.9,0.4,20652,10196.70,0,0,3,1.54,1.33,1.61,0.32,0.90,0.40
37.34668,0.046574555,0.018311393,-0.030899124,0.31,0.89,0.39,20668,10194.70,0,0,3,1.96,0.70,0.07,0.31,0.89,0.39
38.34668,0.04457456,0.014311392,-0.05589912,0.31,0.87,0.39,20690,10195.70,0,0,3,1.82,0.42,-1.68,0.31,0.87,0.39
38.34668,0.033574555,0.0013113925,-0.064899124,0.3,0.87,0.39,20705,10195.70,0,0,3,1.05,-0.49,-2.31,0.30,0.87,0.39
38.34668,0.017574556,-0.006688607,-0.064899124,0.31,0.86,0.39,20720,10195.70,0,0,3,-0.07,-1.05,-2.31,0.31,0.86,0.39
36.34668,0.014574556,-0.013688607,-0.046899125,0.31,0.87,0.39,20743,10193.70,0,0,3,-0.28,-1.54,-1.05,0.31,0.87,0.39
38.34668,0.021574557,-0.013688607,-0.028899124,0.3,0.87,0.4,20765,10195.70,0,0,3,0.21,-1.54,0.21,0.30,0.87,0.40
37.746094,0.011574556,-0.020688606,-0.022899125,0.3,0.87,0.4,20788,10195.10,0,0,3,-0.49,-2.03,0.63,0.30,0.87,0.40
37.746094,0.0035745567,-0.02568861,-0.021899125,0.3,0.87,0.4,20810,10195.10,0,0,3,-1.05,-2.38,0.70,0.30,0.87,0.40
38.046875,-0.0014254432,-0.028688608,-0.014899123,0.3,0.87,0.4,20833,10195.40,0,0,3,-1.40,-2.59,1.19,0.30,0.87,0.40
37.746094,-4.2544492E-4,-0.02568861,-0.007899126,0.3,0.88,0.4,20847,10195.10,0,0,3,-1.33,-2.38,1.68,0.30,0.88,0.40
37.746094,0.0075745564,-0.02568861,-0.005899124,0.3,0.88,0.4,20870,10195.10,0,0,3,-0.77,-2.38,1.82,0.30,0.88,0.40
37.046875,0.014574556,-0.014688607,-0.0098991245,0.3,0.88,0.4,20892,10194.40,0,0,3,-0.28,-1.61,1.54,0.30,0.88,0.40
36.746094,0.020574557,-0.014688607,-0.013899125,0.31,0.88,0.4,20907,10194.10,0,0,3,0.14,-1.61,1.26,0.31,0.88,0.40
37.046875,0.024574555,-0.014688607,-0.016899124,0.31,0.88,0.4,20923,10194.40,0,0,3,0.42,-1.61,1.05,0.31,0.88,0.40
33.046875,0.021574557,-0.013688607,-0.013899125,0.3,0.88,0.4,20945,10190.40,0,0,3,0.21,-1.54,1.26,0.30,0.88,0.40
38.046875,0.022574557,-0.017688608,-0.013899125,0.3,0.88,0.39,20960,10195.40,0,0,3,0.28,-1.82,1.26,0.30,0.88,0.39
39.046875,0.024574555,-0.014688607,-0.026899125,0.3,0.88,0.4,20982,10196.40,0,0,3,0.42,-1.61,0.35,0.30,0.88,0.40
37.046875,0.020574557,-0.008688608,-0.036899123,0.3,0.88,0.4,21004,10194.40,0,0,3,0.14,-1.19,-0.35,0.30,0.88,0.40
35.046875,0.022574557,-0.0106886085,-0.039899126,0.3,0.88,0.39,21028,10192.40,0,0,3,0.28,-1.33,-0.56,0.30,0.88,0.39
38.44629,0.026574556,-0.0096886065,-0.037899125,0.3,0.88,0.4,21042,10195.80,0,0,3,0.56,-1.26,-0.42,0.30,0.88,0.40
36.44629,0.020574557,-0.018688608,-0.029899124,0.3,0.88,0.4,21073,10193.80,0,0,3,0.14,-1.89,0.14,0.30,0.88,0.40
35.44629,0.017574556,-0.026688607,-0.021899125,0.3,0.88,0.4,21088,10192.80,0,0,3,-0.07,-2.45,0.70,0.30,0.88,0.40
31.746094,0.010574556,-0.037688605,-0.011899125,0.3,0.87,0.42,21110,10189.10,0,0,3,-0.56,-3.22,1.40,0.30,0.87,0.42
24.44629,-0.017425442,-0.037688605,-8.99123E-4,0.3,0.86,0.43,21133,10181.80,0,0,3,-2.52,-3.22,2.17,0.30,0.86,0.43
16.44629,-0.026425445,-0.033688605,1.00877136E-4,0.29,0.88,0.4,21155,10173.80,0,0,3,-3.15,-2.94,2.24,0.29,0.88,0.40
9.746094,-0.0014254432,-0.016688608,1.00877136E-4,0.3,0.89,0.39,21170,10167.10,0,0,3,-1.40,-1.75,2.24,0.30,0.89,0.39
8.146484,0.026574556,-0.0106886085,0.0031008758,0.3,0.89,0.4,21185,10165.50,0,0,3,0.56,-1.33,2.45,0.30,0.89,0.40
9.746094,0.036574557,-0.013688607,-0.0028991252,0.29,0.89,0.4,21207,10167.10,0,0,3,1.26,-1.54,2.03,0.29,0.89,0.40
6.7460938,0.047574557,-0.013688607,-0.028899124,0.28,0.89,0.38,21223,10164.10,0,0,3,2.03,-1.54,0.21,0.28,0.89,0.38
7.7460938,0.075574555,-0.0046886075,-0.059899125,0.28,0.89,0.35,21245,10165.10,0,0,3,3.99,-0.91,-1.96,0.28,0.89,0.35
8.746094,0.10357456,0.024311393,-0.048899125,0.3,0.85,0.36,21275,10166.10,0,0,3,5.95,1.12,-1.19,0.30,0.85,0.36
10.746094,0.057574555,0.024311393,-0.018899124,0.32,0.84,0.38,21290,10168.10,0,0,3,2.73,1.12,0.91,0.32,0.84,0.38
11.146484,-0.010425443,0.0023113932,0.0021008775,0.32,0.84,0.39,21305,10168.50,0,0,3,-2.03,-0.42,2.38,0.32,0.84,0.39
11.746094,-0.06642544,-0.018688608,-0.007899126,0.32,0.85,0.39,21328,10169.10,0,0,3,-5.95,-1.89,1.68,0.32,0.85,0.39
14.446289,-0.085425444,-0.030688608,-0.010899125,0.32,0.87,0.39,21350,10171.80,0,0,3,-7.28,-2.73,1.47,0.32,0.87,0.39
14.146484,-0.082425445,-0.037688605,-0.020899124,0.32,0.88,0.39,21373,10171.50,0,0,3,-7.07,-3.22,0.77,0.32,0.88,0.39
14.146484,-0.07542544,-0.04768861,-0.033899125,0.32,0.89,0.41,21395,10171.50,0,0,3,-6.58,-3.92,-0.14,0.32,0.89,0.41
15.046875,-0.07242544,-0.04768861,-0.044899125,0.33,0.9,0.41,21410,10172.40,0,0,3,-6.37,-3.92,-0.91,0.33,0.90,0.41
15.746094,-0.06642544,-0.053688608,-0.054899126,0.33,0.9,0.42,21425,10173.10,0,0,3,-5.95,-4.34,-1.61,0.33,0.90,0.42
15.046875,-0.05042544,-0.049688607,-0.061899126,0.33,0.91,0.43,21440,10172.40,0,0,3,-4.83,-4.06,-2.10,0.33,0.91,0.43
16.44629,-0.023425443,-0.041688606,-0.06789912,0.32,0.9,0.42,21463,10173.80,0,0,3,-2.94,-3.50,-2.52,0.32,0.90,0.42
17.44629,0.006574557,-0.03668861,-0.086899124,0.32,0.89,0.42,21485,10174.80,0,0,3,-0.84,-3.15,-3.85,0.32,0.89,0.42
18.44629,0.033574555,-0.032688603,-0.10289912,0.32,0.9,0.42,21508,10175.80,0,0,3,1.05,-2.87,-4.97,0.32,0.90,0.42
20.44629,0.030574556,-0.039688602,-0.11789913,0.33,0.86,0.44,21524,10177.80,0,0,3,0.84,-3.36,-6.02,0.33,0.86,0.44
15.446289,0.018574556,-0.062688604,-0.12689912,0.3,0.88,0.42,21545,10172.80,186,0,3,0.00,-4.97,-6.65,0.30,0.88,0.42
25.44629,0.054574557,-0.07268861,-0.18189913,0.26,0.92,0.4,21568,10182.80,186,0,3,2.52,-5.67,-10.50,0.26,0.92,0.40
29.746094,0.14157455,-0.07068861,-0.2528991,0.24,0.92,0.38,21589,10187.10,186,0,3,8.61,-5.53,-15.47,0.24,0.92,0.38
32.44629,0.20557456,-0.05068861,-0.2908991,0.23,0.91,0.38,21612,10189.80,186,0,3,13.09,-4.13,-18.13,0.23,0.91,0.38
38.746094,0.23457456,-0.028688608,-0.28489912,0.24,0.88,0.39,21635,10196.10,186,0,3,15.12,-2.59,-17.71,0.24,0.88,0.39
41.746094,0.21557455,-0.011688607,-0.24789913,0.24,0.88,0.39,21650,10199.10,186,0,3,13.79,-1.40,-15.12,0.24,0.88,0.39
44.746094,0.19057456,-0.008688608,-0.22289912,0.24,0.89,0.38,21673,10202.10,186,0,3,12.04,-1.19,-13.37,0.24,0.89,0.38
45.746094,0.18657455,-0.001688607,-0.19589911,0.24,0.9,0.37,21688,10203.10,186,0,3,11.76,-0.70,-11.48,0.24,0.90,0.37
41.146484,0.19457455,0.0033113929,-0.16589913,0.24,0.91,0.36,21703,10198.50,186,0,3,12.32,-0.35,-9.38,0.24,0.91,0.36
44.746094,0.20857455,0.020311393,-0.13089913,0.24,0.9,0.36,21725,10202.10,186,0,3,13.30,0.84,-6.93,0.24,0.90,0.36
45.746094,0.21557455,0.026311392,-0.10089912,0.24,0.9,0.35,21748,10203.10,186,0,3,13.79,1.26,-4.83,0.24,0.90,0.35
46.046875,0.21457456,0.038311392,-0.09389913,0.24,0.9,0.34,21763,10203.40,186,0,3,13.72,2.10,-4.34,0.24,0.90,0.34
40.746094,0.20657454,0.038311392,-0.09289913,0.24,0.89,0.34,21784,10198.10,186,0,3,13.16,2.10,-4.27,0.24,0.89,0.34
44.746094,0.19157454,0.047311395,-0.08989912,0.24,0.89,0.35,21808,10202.10,186,0,3,12.11,2.73,-4.06,0.24,0.89,0.35
44.44629,0.16857456,0.043311395,-0.08189912,0.25,0.89,0.35,21830,10201.80,186,0,3,10.50,2.45,-3.50,0.25,0.89,0.35
42.046875,0.14057456,0.03731139,-0.076899126,0.25,0.9,0.34,21852,10199.40,186,0,3,8.54,2.03,-3.15,0.25,0.90,0.34
43.046875,0.10957456,0.024311393,-0.09189913,0.25,0.91,0.34,21868,10200.40,186,0,3,6.37,1.12,-4.20,0.25,0.91,0.34
42.44629,0.079574555,-0.0046886075,-0.10689913,0.26,0.92,0.34,21890,10199.80,186,0,3,4.27,-0.91,-5.25,0.26,0.92,0.34
43.046875,0.06357456,-0.030688608,-0.11389912,0.26,0.92,0.34,21912,10200.40,186,0,3,3.15,-2.73,-5.74,0.26,0.92,0.34
43.44629,0.05657456,-0.05468861,-0.109899126,0.25,0.92,0.34,21928,10200.80,186,0,3,2.66,-4.41,-5.46,0.25,0.92,0.34
37.44629,0.05257456,-0.074688606,-0.11189912,0.25,0.92,0.34,21942,10194.80,186,0,3,2.38,-5.81,-5.60,0.25,0.92,0.34
42.44629,0.061574556,-0.09068861,-0.10689913,0.23,0.92,0.34,21972,10199.80,186,0,3,3.01,-6.93,-5.25,0.23,0.92,0.34
42.746094,0.07857455,-0.09068861,-0.10489912,0.23,0.92,0.34,21988,10200.10,186,0,3,4.20,-6.93,-5.11,0.23,0.92,0.34
42.746094,0.09257456,-0.08268861,-0.09689913,0.22,0.92,0.34,22002,10200.10,186,0,3,5.18,-6.37,-4.55,0.22,0.92,0.34
42.44629,0.10557456,-0.053688608,-0.083899125,0.21,0.92,0.35,22025,10199.80,186,0,3,6.09,-4.34,-3.64,0.21,0.92,0.35
45.746094,0.11157456,-0.026688607,-0.07389912,0.21,0.91,0.34,22048,10203.10,186,0,3,6.51,-2.45,-2.94,0.21,0.91,0.34
42.146484,0.11157456,0.017311392,-0.054899126,0.21,0.91,0.34,22069,10199.50,186,0,3,6.51,0.63,-1.61,0.21,0.91,0.34
42.44629,0.10657456,0.040311396,-0.034899123,0.22,0.91,0.33,22093,10199.80,186,0,3,6.16,2.24,-0.21,0.22,0.91,0.33
40.746094,0.10057455,0.065311395,-0.022899125,0.22,0.93,0.33,22115,10198.10,186,0,3,5.74,3.99,0.63,0.22,0.93,0.33
41.746094,0.09257456,0.07731139,-0.023899123,0.23,0.92,0.33,22130,10199.10,186,0,3,5.18,4.83,0.56,0.23,0.92,0.33
41.146484,0.08857456,0.08231139,-0.017899124,0.23,0.92,0.33,22153,10198.50,186,0,3,4.90,5.18,0.98,0.23,0.92,0.33
40.146484,0.08357456,0.08531139,-0.013899125,0.24,0.92,0.33,22182,10197.50,186,0,3,4.55,5.39,1.26,0.24,0.92,0.33
40.44629,0.072574556,0.07531139,-0.019899126,0.25,0.93,0.32,22189,10197.80,186,0,3,3.78,4.69,0.84,0.25,0.93,0.32
41.146484,0.05557456,0.051311396,-0.028899124,0.25,0.93,0.32,22220,10198.50,186,0,3,2.59,3.01,0.21,0.25,0.93,0.32
41.44629,0.05257456,0.026311392,-0.037899125,0.25,0.93,0.31,22242,10198.80,186,0,3,2.38,1.26,-0.42,0.25,0.93,0.31
41.146484,0.060574554,0.0033113929,-0.046899125,0.24,0.93,0.31,22273,10198.50,186,0,3,2.94,-0.35,-1.05,0.24,0.93,0.31
40.44629,0.06257456,-0.006688607,-0.065899126,0.23,0.94,0.31,22280,10197.80,186,0,3,3.08,-1.05,-2.38,0.23,0.94,0.31
38.146484,0.06957456,-0.0106886085,-0.07889912,0.23,0.94,0.32,22295,10195.50,186,0,3,3.57,-1.33,-3.29,0.23,0.94,0.32
40.44629,0.06557456,-0.012688607,-0.087899126,0.23,0.93,0.32,22317,10197.80,186,0,3,3.29,-1.47,-3.92,0.23,0.93,0.32
40.746094,0.059574552,-0.018688608,-0.08889912,0.23,0.93,0.31,22355,10198.10,186,0,3,2.87,-1.89,-3.99,0.23,0.93,0.31
39.746094,0.060574554,-0.024688607,-0.08289912,0.22,0.93,0.31,22361,10197.10,186,0,3,2.94,-2.31,-3.57,0.22,0.93,0.31
39.746094,0.051574558,-0.027688606,-0.087899126,0.21,0.93,0.31,22385,10197.10,195,0,3,2.31,-2.52,-3.92,0.21,0.93,0.31
39.746094,0.042574555,-0.026688607,-0.08489913,0.21,0.92,0.31,22400,10197.10,195,0,3,1.68,-2.45,-3.71,0.21,0.92,0.31
39.746094,0.029574556,-0.026688607,-0.07889912,0.21,0.92,0.3,22423,10197.10,195,0,3,0.77,-2.45,-3.29,0.21,0.92,0.30
39.746094,0.018574556,-0.032688603,-0.076899126,0.21,0.92,0.3,22437,10197.10,195,0,3,0.00,-2.87,-3.15,0.21,0.92,0.30
38.84668,0.0025745556,-0.04268861,-0.06389913,0.21,0.92,0.3,22453,10196.20,195,0,3,-1.12,-3.57,-2.24,0.21,0.92,0.30
38.84668,-0.007425444,-0.04668861,-0.05589912,0.2,0.93,0.31,22475,10196.20,195,0,3,-1.82,-3.85,-1.68,0.20,0.93,0.31
38.84668,-0.006425444,-0.03668861,-0.046899125,0.2,0.93,0.31,22497,10196.20,195,0,3,-1.75,-3.15,-1.05,0.20,0.93,0.31
37.84668,-0.0044254437,-0.033688605,-0.054899126,0.2,0.94,0.31,22512,10195.20,195,0,3,-1.61,-2.94,-1.61,0.20,0.94,0.31
36.84668,5.745571E-4,-0.02968861,-0.056899123,0.2,0.94,0.31,22535,10194.20,195,0,3,-1.26,-2.66,-1.75,0.20,0.94,0.31
35.146484,0.004574556,-0.032688603,-0.053899124,0.21,0.93,0.32,22557,10192.50,195,0,3,-0.98,-2.87,-1.54,0.21,0.93,0.32
29.146484,-0.0024254434,-0.032688603,-0.036899123,0.21,0.93,0.31,22587,10186.50,195,0,3,-1.47,-2.87,-0.35,0.21,0.93,0.31
26.44629,-0.010425443,-0.037688605,-0.023899123,0.2,0.94,0.31,22610,10183.80,195,0,3,-2.03,-3.22,0.56,0.20,0.94,0.31
26.44629,-0.0144254435,-0.03568861,-0.034899123,0.2,0.94,0.31,22618,10183.80,195,0,3,-2.31,-3.08,-0.21,0.20,0.94,0.31
24.44629,-0.0144254435,-0.038688608,-0.049899124,0.2,0.95,0.31,22640,10181.80,195,0,3,-2.31,-3.29,-1.26,0.20,0.95,0.31
23.44629,-0.010425443,-0.037688605,-0.060899124,0.19,0.95,0.31,22655,10180.80,195,0,3,-2.03,-3.22,-2.03,0.19,0.95,0.31
23.44629,-0.0014254432,-0.038688608,-0.07289912,0.2,0.95,0.31,22677,10180.80,195,0,3,-1.40,-3.29,-2.87,0.20,0.95,0.31
25.44629,0.0075745564,-0.04068861,-0.07889912,0.19,0.94,0.31,22692,10182.80,195,0,3,-0.77,-3.43,-3.29,0.19,0.94,0.31
24.44629,0.016574556,-0.03668861,-0.08089913,0.19,0.94,0.31,22715,10181.80,195,0,3,-0.14,-3.15,-3.43,0.19,0.94,0.31
25.44629,0.015574557,-0.026688607,-0.07489912,0.19,0.93,0.31,22729,10182.80,195,0,3,-0.21,-2.45,-3.01,0.19,0.93,0.31
26.84668,0.010574556,-0.017688608,-0.06689912,0.18,0.93,0.31,22752,10184.20,195,0,3,-0.56,-1.82,-2.45,0.18,0.93,0.31
26.44629,0.009574557,-0.015688606,-0.065899126,0.18,0.94,0.31,22775,10183.80,195,0,3,-0.63,-1.68,-2.38,0.18,0.94,0.31
27.84668,0.006574557,-0.015688606,-0.059899125,0.19,0.93,0.31,22797,10185.20,195,0,3,-0.84,-1.68,-1.96,0.19,0.93,0.31
22.84668,-0.0014254432,-0.021688607,-0.045899123,0.19,0.93,0.31,22820,10180.20,195,0,3,-1.40,-2.10,-0.98,0.19,0.93,0.31
26.44629,-0.005425442,-0.022688609,-0.024899125,0.19,0.93,0.31,22842,10183.80,195,0,3,-1.68,-2.17,0.49,0.19,0.93,0.31
25.44629,-0.006425444,-0.022688609,-0.015899124,0.19,0.94,0.31,22857,10182.80,195,0,3,-1.75,-2.17,1.12,0.19,0.94,0.31
27.146484,0.0015745554,-0.017688608,-0.018899124,0.19,0.94,0.32,22880,10184.50,195,0,3,-1.19,-1.82,0.91,0.19,0.94,0.32
26.84668,0.004574556,-0.015688606,-0.022899125,0.19,0.94,0.32,22903,10184.20,195,0,3,-0.98,-1.68,0.63,0.19,0.94,0.32
28.146484,0.005574556,-0.014688607,-0.028899124,0.19,0.94,0.32,22917,10185.50,195,0,3,-0.91,-1.61,0.21,0.19,0.94,0.32
27.44629,0.004574556,-0.014688607,-0.031899124,0.19,0.94,0.31,22932,10184.80,195,0,3,-0.98,-1.61,0.00,0.19,0.94,0.31
28.146484,0.010574556,-0.022688609,-0.033899125,0.19,0.94,0.31,22955,10185.50,195,0,3,-0.56,-2.17,-0.14,0.19,0.94,0.31
28.146484,0.019574556,-0.024688607,-0.033899125,0.19,0.94,0.31,22970,10185.50,195,0,3,0.07,-2.31,-0.14,0.19,0.94,0.31
29.146484,0.019574556,-0.023688609,-0.038899124,0.18,0.94,0.31,22992,10186.50,195,0,3,0.07,-2.24,-0.49,0.18,0.94,0.31
28.546875,0.008574557,-0.023688609,-0.040899124,0.19,0.93,0.32,23015,10185.90,195,0,3,-0.70,-2.24,-0.63,0.19,0.93,0.32
30.146484,0.008574557,-0.018688608,-0.026899125,0.18,0.94,0.31,23038,10187.50,195,0,3,-0.70,-1.89,0.35,0.18,0.94,0.31
30.546875,0.011574556,-0.017688608,-0.023899123,0.18,0.94,0.31,23060,10187.90,195,0,3,-0.49,-1.82,0.56,0.18,0.94,0.31
32.44629,0.017574556,-0.008688608,-0.016899124,0.18,0.93,0.31,23075,10189.80,195,0,3,-0.07,-1.19,1.05,0.18,0.93,0.31
29.546875,0.016574556,-0.0036886064,-0.020899124,0.18,0.94,0.31,23098,10186.90,195,0,3,-0.14,-0.84,0.77,0.18,0.94,0.31
34.146484,0.018574556,0.0073113926,-0.026899125,0.18,0.93,0.31,23127,10191.50,195,0,3,0.00,-0.07,0.35,0.18,0.93,0.31
35.146484,0.017574556,0.009311393,-0.026899125,0.18,0.94,0.31,23143,10192.50,195,0,3,-0.07,0.07,0.35,0.18,0.94,0.31
36.84668,0.020574557,0.0043113925,-0.020899124,0.19,0.94,0.31,23165,10194.20,195,0,3,0.14,-0.28,0.77,0.19,0.94,0.31
36.84668,0.020574557,-0.0036886064,-0.020899124,0.19,0.94,0.31,23180,10194.20,195,0,3,0.14,-0.84,0.77,0.19,0.94,0.31
38.44629,0.017574556,-0.013688607,-0.019899126,0.19,0.94,0.31,23195,10195.80,195,0,3,-0.07,-1.54,0.84,0.19,0.94,0.31
39.84668,0.015574557,-0.016688608,-0.012899123,0.19,0.94,0.31,23217,10197.20,195,0,3,-0.21,-1.75,1.33,0.19,0.94,0.31
42.84668,0.023574557,-0.022688609,-0.015899124,0.18,0.94,0.31,23240,10200.20,195,0,3,0.35,-2.17,1.12,0.18,0.94,0.31
41.44629,0.035574555,-0.0096886065,-0.024899125,0.18,0.94,0.32,23255,10198.80,195,0,3,1.19,-1.26,0.49,0.18,0.94,0.32
44.146484,0.025574557,-0.006688607,-0.034899123,0.18,0.93,0.32,23277,10201.50,195,0,3,0.49,-1.05,-0.21,0.18,0.93,0.32
44.146484,0.021574557,-0.001688607,-0.027899124,0.19,0.94,0.31,23300,10201.50,195,0,3,0.21,-0.70,0.28,0.19,0.94,0.31
44.146484,0.021574557,-0.0026886072,-0.016899124,0.19,0.94,0.31,23323,10201.50,195,0,3,0.21,-0.77,1.05,0.19,0.94,0.31
44.44629,0.029574556,-0.0056886077,-0.012899123,0.19,0.94,0.31,23345,10201.80,195,0,3,0.77,-0.98,1.33,0.19,0.94,0.31
46.146484,0.032574557,-0.008688608,-0.016899124,0.19,0.94,0.31,23360,10203.50,195,0,3,0.98,-1.19,1.05,0.19,0.94,0.31
45.146484,0.028574556,-0.012688607,-0.020899124,0.19,0.94,0.31,23383,10202.50,195,0,3,0.70,-1.47,0.77,0.19,0.94,0.31
44.146484,0.018574556,-0.014688607,-0.019899126,0.19,0.94,0.31,23405,10201.50,195,0,3,0.00,-1.61,0.84,0.19,0.94,0.31
45.146484,0.014574556,-0.017688608,-0.021899125,0.19,0.94,0.31,23420,10202.50,195,0,3,-0.28,-1.82,0.70,0.19,0.94,0.31
44.546875,0.019574556,-0.016688608,-0.022899125,0.18,0.94,0.31,23435,10201.90,195,0,3,0.07,-1.75,0.63,0.18,0.94,0.31
43.546875,0.025574557,-0.013688607,-0.028899124,0.18,0.95,0.31,23450,10200.90,195,0,3,0.49,-1.54,0.21,0.18,0.95,0.31
43.146484,0.030574556,-0.014688607,-0.032899123,0.18,0.94,0.31,23479,10200.50,195,0,3,0.84,-1.61,-0.07,0.18,0.94,0.31
43.546875,0.030574556,-0.011688607,-0.030899124,0.18,0.93,0.31,23495,10200.90,195,0,3,0.84,-1.40,0.07,0.18,0.93,0.31
43.546875,0.020574557,-0.008688608,-0.026899125,0.18,0.94,0.31,23518,10200.90,195,0,3,0.14,-1.19,0.35,0.18,0.94,0.31
43.546875,0.020574557,-0.0056886077,-0.019899126,0.18,0.94,0.31,23540,10200.90,195,0,3,0.14,-0.98,0.84,0.18,0.94,0.31
44.146484,0.018574556,-0.0106886085,-0.017899124,0.18,0.94,0.31,23555,10201.50,195,0,3,0.00,-1.33,0.98,0.18,0.94,0.31
40.546875,0.019574556,-0.0106886085,-0.013899125,0.19,0.93,0.31,23577,10197.90,195,0,3,0.07,-1.33,1.26,0.19,0.93,0.31
43.146484,0.010574556,-0.013688607,-0.008899124,0.19,0.94,0.31,23600,10200.50,195,0,3,-0.56,-1.54,1.61,0.19,0.94,0.31
41.546875,0.008574557,-0.014688607,-0.006899124,0.19,0.94,0.31,23623,10198.90,195,0,3,-0.70,-1.61,1.75,0.19,0.94,0.31
42.84668,0.0075745564,-0.016688608,-0.007899126,0.18,0.94,0.31,23645,10200.20,195,0,3,-0.77,-1.75,1.68,0.18,0.94,0.31
42.84668,0.0075745564,-0.015688606,-0.011899125,0.18,0.94,0.31,23660,10200.20,195,0,3,-0.77,-1.68,1.40,0.18,0.94,0.31
42.84668,0.012574557,-0.012688607,-0.013899125,0.18,0.94,0.31,23674,10200.20,195,0,3,-0.42,-1.47,1.26,0.18,0.94,0.31
41.84668,0.012574557,-0.013688607,-0.016899124,0.18,0.94,0.31,23691,10199.20,195,0,3,-0.42,-1.54,1.05,0.18,0.94,0.31
41.84668,0.012574557,-0.008688608,-0.015899124,0.19,0.94,0.31,23713,10199.20,195,0,3,-0.42,-1.19,1.12,0.19,0.94,0.31
41.84668,0.017574556,-0.008688608,-0.0098991245,0.19,0.94,0.31,23735,10199.20,195,0,3,-0.07,-1.19,1.54,0.19,0.94,0.31
43.146484,0.013574556,-0.012688607,-0.007899126,0.19,0.94,0.31,23757,10200.50,195,0,3,-0.35,-1.47,1.68,0.19,0.94,0.31
43.146484,0.014574556,-0.012688607,-8.99123E-4,0.19,0.94,0.31,23780,10200.50,195,0,3,-0.28,-1.47,2.17,0.19,0.94,0.31
43.146484,0.017574556,-0.018688608,-8.99123E-4,0.18,0.94,0.31,23803,10200.50,195,0,3,-0.07,-1.89,2.17,0.18,0.94,0.31
42.146484,0.016574556,-0.013688607,-0.0098991245,0.18,0.94,0.31,23818,10199.50,195,0,3,-0.14,-1.54,1.54,0.18,0.94,0.31
41.84668,0.010574556,-0.011688607,-0.021899125,0.18,0.94,0.32,23840,10199.20,195,0,3,-0.56,-1.40,0.70,0.18,0.94,0.32
42.146484,5.745571E-4,-0.0096886065,-0.026899125,0.19,0.94,0.31,23863,10199.50,195,0,3,-1.26,-1.26,0.35,0.19,0.94,0.31
40.146484,-4.2544492E-4,-0.0106886085,-0.019899126,0.19,0.94,0.31,23884,10197.50,195,0,3,-1.33,-1.33,0.84,0.19,0.94,0.31
41.546875,0.0075745564,-0.012688607,-0.008899124,0.19,0.94,0.31,23915,10198.90,195,0,3,-0.77,-1.47,1.61,0.19,0.94,0.31
41.546875,0.010574556,-0.017688608,-0.011899125,0.19,0.94,0.31,23923,10198.90,195,0,3,-0.56,-1.82,1.40,0.19,0.94,0.31
41.146484,0.015574557,-0.021688607,-0.014899123,0.19,0.95,0.32,23938,10198.50,195,0,3,-0.21,-2.10,1.19,0.19,0.95,0.32
42.546875,0.022574557,-0.018688608,-0.018899124,0.19,0.94,0.31,23953,10199.90,195,0,3,0.28,-1.89,0.91,0.19,0.94,0.31
40.546875,0.027574556,-0.012688607,-0.019899126,0.19,0.94,0.31,23975,10197.90,195,0,3,0.63,-1.47,0.84,0.19,0.94,0.31
40.546875,0.019574556,-0.012688607,-0.022899125,0.19,0.94,0.32,23998,10197.90,195,0,3,0.07,-1.47,0.63,0.19,0.94,0.32
40.84668,0.019574556,-0.013688607,-0.023899123,0.18,0.94,0.31,24013,10198.20,195,0,3,0.07,-1.54,0.56,0.18,0.94,0.31
39.84668,0.020574557,-0.015688606,-0.032899123,0.19,0.94,0.31,24035,10197.20,195,0,3,0.14,-1.68,-0.07,0.19,0.94,0.31
39.546875,0.019574556,-0.018688608,-0.022899125,0.19,0.94,0.31,24057,10196.90,195,0,3,0.07,-1.89,0.63,0.19,0.94,0.31
40.246094,0.014574556,-0.024688607,-0.021899125,0.19,0.93,0.31,24079,10197.60,195,0,3,-0.28,-2.31,0.70,0.19,0.93,0.31
32.84668,0.009574557,-0.024688607,-0.023899123,0.18,0.94,0.31,24110,10190.20,209,0,3,-0.63,-2.31,0.56,0.18,0.94,0.31
37.546875,0.0035745567,-0.02568861,-0.020899124,0.18,0.94,0.32,24117,10194.90,209,0,3,-1.05,-2.38,0.77,0.18,0.94,0.32
35.146484,0.004574556,-0.017688608,-0.008899124,0.19,0.94,0.31,24139,10192.50,209,0,3,-0.98,-1.82,1.61,0.19,0.94,0.31
32.84668,0.012574557,-0.012688607,0.005100876,0.19,0.94,0.31,24162,10190.20,209,0,3,-0.42,-1.47,2.59,0.19,0.94,0.31
29.84668,0.011574556,-0.011688607,0.012100875,0.19,0.94,0.31,24178,10187.20,209,0,3,-0.49,-1.40,3.08,0.19,0.94,0.31
27.546875,0.009574557,-0.0096886065,0.0071008764,0.19,0.95,0.31,24200,10184.90,209,0,3,-0.63,-1.26,2.73,0.19,0.95,0.31
26.84668,0.005574556,-0.011688607,-0.007899126,0.18,0.95,0.31,24215,10184.20,209,0,3,-0.91,-1.40,1.68,0.18,0.95,0.31
26.246094,0.014574556,-0.0026886072,-0.023899123,0.18,0.95,0.31,24244,10183.60,209,0,3,-0.28,-0.77,0.56,0.18,0.95,0.31
22.246094,0.016574556,0.0033113929,-0.042899124,0.18,0.95,0.31,24259,10179.60,209,0,3,-0.14,-0.35,-0.77,0.18,0.95,0.31
26.146484,0.015574557,-0.0026886072,-0.047899127,0.19,0.94,0.3,24283,10183.50,209,0,3,-0.21,-0.77,-1.12,0.19,0.94,0.30
25.546875,0.020574557,-0.0106886085,-0.045899123,0.19,0.94,0.3,24305,10182.90,209,0,3,0.14,-1.33,-0.98,0.19,0.94,0.30
27.546875,0.024574555,-0.026688607,-0.035899125,0.18,0.93,0.3,24320,10184.90,209,0,3,0.42,-2.45,-0.28,0.18,0.93,0.30
26.546875,0.022574557,-0.03568861,-0.023899123,0.18,0.93,0.3,24342,10183.90,209,0,3,0.28,-3.08,0.56,0.18,0.93,0.30
26.246094,0.011574556,-0.038688608,-0.015899124,0.18,0.93,0.31,24365,10183.60,209,0,3,-0.49,-3.29,1.12,0.18,0.93,0.31
25.546875,0.0035745567,-0.033688605,-0.010899125,0.18,0.93,0.31,24388,10182.90,209,0,3,-1.05,-2.94,1.47,0.18,0.93,0.31
26.546875,0.0015745554,-0.016688608,-0.011899125,0.18,0.94,0.31,24410,10183.90,209,0,3,-1.19,-1.75,1.40,0.18,0.94,0.31
26.546875,5.745571E-4,-0.0106886085,-0.0098991245,0.18,0.94,0.31,24425,10183.90,209,0,3,-1.26,-1.33,1.54,0.18,0.94,0.31
26.546875,-0.0024254434,-0.0056886077,-0.006899124,0.18,0.94,0.31,24441,10183.90,209,0,3,-1.47,-0.98,1.75,0.18,0.94,0.31
24.546875,-4.2544492E-4,-0.0056886077,-0.0038991235,0.18,0.94,0.31,24454,10181.90,209,0,3,-1.33,-0.98,1.96,0.18,0.94,0.31
27.84668,-0.0024254434,-0.0096886065,-0.005899124,0.19,0.94,0.31,24477,10185.20,209,0,3,-1.47,-1.26,1.82,0.19,0.94,0.31
26.546875,5.745571E-4,-0.0096886065,-0.008899124,0.19,0.94,0.31,24500,10183.90,209,0,3,-1.26,-1.26,1.61,0.19,0.94,0.31
27.84668,0.005574556,-0.012688607,-0.018899124,0.19,0.94,0.31,24515,10185.20,209,0,3,-0.91,-1.47,0.91,0.19,0.94,0.31
25.84668,0.010574556,-0.0096886065,-0.015899124,0.19,0.94,0.31,24537,10183.20,209,0,3,-0.56,-1.26,1.12,0.19,0.94,0.31
25.146484,0.009574557,-0.012688607,-0.016899124,0.19,0.94,0.31,24559,10182.50,209,0,3,-0.63,-1.47,1.05,0.19,0.94,0.31
28.246094,0.011574556,-0.016688608,-0.016899124,0.19,0.94,0.31,24590,10185.60,209,0,3,-0.49,-1.75,1.05,0.19,0.94,0.31
27.84668,0.005574556,-0.023688609,-0.018899124,0.19,0.94,0.31,24605,10185.20,209,0,3,-0.91,-2.24,0.91,0.19,0.94,0.31
27.84668,0.0025745556,-0.027688606,-0.018899124,0.18,0.94,0.31,24627,10185.20,209,0,3,-1.12,-2.52,0.91,0.18,0.94,0.31
28.246094,0.004574556,-0.024688607,-0.017899124,0.18,0.93,0.31,24643,10185.60,209,0,3,-0.98,-2.31,0.98,0.18,0.93,0.31
28.84668,0.0035745567,-0.020688606,-0.016899124,0.18,0.93,0.32,24665,10186.20,209,0,3,-1.05,-2.03,1.05,0.18,0.93,0.32
30.546875,0.0015745554,-0.014688607,-0.013899125,0.18,0.94,0.31,24687,10187.90,209,0,3,-1.19,-1.61,1.26,0.18,0.94,0.31
25.84668,-0.007425444,-0.015688606,-0.015899124,0.18,0.94,0.32,24695,10183.20,209,0,3,-1.82,-1.68,1.12,0.18,0.94,0.32
30.546875,-0.0094254445,-0.013688607,-0.012899123,0.18,0.95,0.31,24717,10187.90,209,0,3,-1.96,-1.54,1.33,0.18,0.95,0.31
30.246094,-0.0014254432,-0.0096886065,-0.008899124,0.19,0.95,0.31,24740,10187.60,209,0,3,-1.40,-1.26,1.61,0.19,0.95,0.31
32.546875,0.005574556,-0.011688607,-0.014899123,0.19,0.94,0.31,24762,10189.90,209,0,3,-0.91,-1.40,1.19,0.19,0.94,0.31
34.546875,0.012574557,-0.011688607,-0.019899126,0.19,0.93,0.31,24778,10191.90,209,0,3,-0.42,-1.40,0.84,0.19,0.93,0.31
35.546875,0.013574556,-0.013688607,-0.027899124,0.18,0.94,0.31,24800,10192.90,209,0,3,-0.35,-1.54,0.28,0.18,0.94,0.31
36.546875,0.018574556,-0.0106886085,-0.038899124,0.18,0.94,0.31,24822,10193.90,209,0,3,0.00,-1.33,-0.49,0.18,0.94,0.31
39.84668,0.019574556,-0.012688607,-0.036899123,0.18,0.94,0.31,24845,10197.20,209,0,3,0.07,-1.47,-0.35,0.18,0.94,0.31
40.84668,0.017574556,-0.012688607,-0.034899123,0.18,0.94,0.31,24860,10198.20,209,0,3,-0.07,-1.47,-0.21,0.18,0.94,0.31
42.546875,0.018574556,-0.011688607,-0.027899124,0.19,0.93,0.31,24883,10199.90,209,0,3,0.00,-1.40,0.28,0.19,0.93,0.31
44.546875,0.016574556,-0.014688607,-0.017899124,0.19,0.93,0.32,24905,10201.90,209,0,3,-0.14,-1.61,0.98,0.19,0.93,0.32
45.94629,0.016574556,-0.011688607,-0.0048991237,0.19,0.93,0.32,24920,10203.30,209,0,3,-0.14,-1.40,1.89,0.19,0.93,0.32
44.246094,0.011574556,-0.012688607,-0.0038991235,0.18,0.93,0.32,24935,10201.60,209,0,3,-0.49,-1.47,1.96,0.18,0.93,0.32
45.94629,-4.2544492E-4,-0.011688607,-0.008899124,0.18,0.93,0.32,24958,10203.30,209,0,3,-1.33,-1.40,1.61,0.18,0.93,0.32
44.94629,-0.007425444,-0.012688607,-0.013899125,0.18,0.94,0.32,24972,10202.30,0,82,3,-1.82,-1.47,1.26,0.18,0.94,0.32
44.246094,-4.2544492E-4,-0.0046886075,-0.013899125,0.18,0.95,0.32,24995,10201.60,0,82,3,-1.33,-0.91,1.26,0.18,0.95,0.32
44.94629,0.014574556,-0.006688607,-0.020899124,0.19,0.95,0.32,25017,10202.30,0,82,3,-0.28,-1.05,0.77,0.19,0.95,0.32
45.94629,0.020574557,-0.013688607,-0.017899124,0.19,0.94,0.32,25040,10203.30,0,82,3,0.14,-1.54,0.98,0.19,0.94,0.32
40.246094,0.019574556,-0.018688608,-0.021899125,0.18,0.94,0.32,25062,10197.60,0,82,3,0.07,-1.89,0.70,0.18,0.94,0.32
48.246094,0.027574556,-0.013688607,-0.024899125,0.18,0.94,0.31,25077,10205.60,0,82,3,0.63,-1.54,0.49,0.18,0.94,0.31
43.94629,0.031574555,-0.008688608,-0.030899124,0.18,0.94,0.31,25100,10201.30,0,82,3,0.91,-1.19,0.07,0.18,0.94,0.31
44.246094,0.036574557,-0.0026886072,-0.034899123,0.18,0.94,0.31,25130,10201.60,0,82,3,1.26,-0.77,-0.21,0.18,0.94,0.31
44.246094,0.031574555,-0.007688608,-0.025899125,0.18,0.93,0.31,25145,10201.60,0,82,3,0.91,-1.12,0.42,0.18,0.93,0.31
44.246094,0.018574556,-0.0096886065,-0.021899125,0.18,0.94,0.31,25167,10201.60,0,82,3,0.00,-1.26,0.70,0.18,0.94,0.31
44.246094,0.017574556,-0.013688607,-0.023899123,0.18,0.94,0.31,25190,10201.60,0,82,3,-0.07,-1.54,0.56,0.18,0.94,0.31
44.546875,0.019574556,-0.015688606,-0.022899125,0.18,0.94,0.31,25197,10201.90,0,82,3,0.07,-1.68,0.63,0.18,0.94,0.31
43.546875,0.025574557,-0.017688608,-0.014899123,0.18,0.93,0.31,25220,10200.90,0,82,3,0.49,-1.82,1.19,0.18,0.93,0.31
42.94629,0.017574556,-0.017688608,-0.0048991237,0.18,0.93,0.32,25242,10200.30,0,82,3,-0.07,-1.82,1.89,0.18,0.93,0.32
41.546875,0.012574557,-0.014688607,-0.001899125,0.18,0.94,0.32,25257,10198.90,0,82,3,-0.42,-1.61,2.10,0.18,0.94,0.32
43.546875,0.0075745564,-0.0096886065,-0.010899125,0.18,0.94,0.32,25280,10200.90,0,82,3,-0.77,-1.26,1.47,0.18,0.94,0.32
43.246094,0.008574557,-0.0046886075,-0.015899124,0.18,0.94,0.32,25303,10200.60,0,82,3,-0.70,-0.91,1.12,0.18,0.94,0.32
43.546875,0.006574557,-0.006688607,-0.014899123,0.19,0.94,0.31,25324,10200.90,0,82,3,-0.84,-1.05,1.19,0.19,0.94,0.31
42.94629,0.008574557,-0.011688607,-0.017899124,0.19,0.94,0.31,25355,10200.30,0,82,3,-0.70,-1.40,0.98,0.19,0.94,0.31
43.94629,0.013574556,-0.018688608,-0.023899123,0.19,0.94,0.31,25370,10201.30,0,82,3,-0.35,-1.89,0.56,0.19,0.94,0.31
43.546875,0.016574556,-0.023688609,-0.022899125,0.19,0.94,0.32,25385,10200.90,0,82,3,-0.14,-2.24,0.63,0.19,0.94,0.32
42.94629,0.015574557,-0.022688609,-0.022899125,0.18,0.94,0.31,25400,10200.30,0,82,3,-0.21,-2.17,0.63,0.18,0.94,0.31
38.94629,0.019574556,-0.022688609,-0.025899125,0.18,0.94,0.31,25415,10196.30,0,82,3,0.07,-2.17,0.42,0.18,0.94,0.31
41.94629,0.022574557,-0.021688607,-0.025899125,0.18,0.94,0.32,25430,10199.30,0,82,3,0.28,-2.10,0.42,0.18,0.94,0.32
42.246094,0.024574555,-0.014688607,-0.025899125,0.18,0.94,0.31,25444,10199.60,0,82,3,0.42,-1.61,0.42,0.18,0.94,0.31
41.94629,0.015574557,-0.0096886065,-0.026899125,0.18,0.94,0.32,25468,10199.30,0,82,3,-0.21,-1.26,0.35,0.18,0.94,0.32
38.94629,0.011574556,-0.008688608,-0.033899125,0.18,0.94,0.31,25490,10196.30,0,82,3,-0.49,-1.19,-0.14,0.18,0.94,0.31
40.94629,0.010574556,-0.0096886065,-0.032899123,0.19,0.94,0.31,25513,10198.30,0,82,3,-0.56,-1.26,-0.07,0.19,0.94,0.31
40.646484,0.008574557,-0.016688608,-0.022899125,0.19,0.93,0.31,25535,10198.00,0,82,3,-0.70,-1.75,0.63,0.19,0.93,0.31
37.94629,0.009574557,-0.026688607,-0.016899124,0.19,0.94,0.32,25557,10195.30,0,82,3,-0.63,-2.45,1.05,0.19,0.94,0.32
38.246094,0.015574557,-0.024688607,-0.013899125,0.19,0.95,0.32,25572,10195.60,0,82,3,-0.21,-2.31,1.26,0.19,0.95,0.32
36.246094,0.020574557,-0.020688606,0.0011008754,0.19,0.93,0.32,25595,10193.60,0,82,3,0.14,-2.03,2.31,0.19,0.93,0.32
31.246094,0.018574556,-0.012688607,0.0031008758,0.19,0.93,0.32,25618,10188.60,0,82,3,0.00,-1.47,2.45,0.19,0.93,0.32
27.246094,0.015574557,-0.0106886085,0.004100874,0.19,0.94,0.31,25632,10184.60,0,82,3,-0.21,-1.33,2.52,0.19,0.94,0.31
24.94629,0.013574556,-0.0096886065,-0.008899124,0.18,0.95,0.32,25648,10182.30,0,82,3,-0.35,-1.26,1.61,0.18,0.95,0.32
25.246094,0.011574556,-0.007688608,-0.024899125,0.18,0.95,0.32,25662,10182.60,0,82,3,-0.49,-1.12,0.49,0.18,0.95,0.32
23.546875,0.013574556,-0.0046886075,-0.038899124,0.18,0.94,0.32,25677,10180.90,0,82,3,-0.35,-0.91,-0.49,0.18,0.94,0.32
24.646484,0.015574557,-0.0026886072,-0.048899125,0.18,0.95,0.31,25700,10182.00,0,82,3,-0.21,-0.77,-1.19,0.18,0.95,0.31
23.546875,0.025574557,0.0063113924,-0.058899127,0.18,0.94,0.31,25715,10180.90,0,82,3,0.49,-0.14,-1.89,0.18,0.94,0.31
23.546875,0.021574557,-0.0036886064,-0.061899126,0.18,0.94,0.31,25753,10180.90,0,82,3,0.21,-0.84,-2.10,0.18,0.94,0.31
24.646484,0.023574557,-0.0056886077,-0.05589912,0.18,0.93,0.3,25760,10182.00,0,82,3,0.35,-0.98,-1.68,0.18,0.93,0.30
24.246094,0.020574557,-0.019688608,-0.041899122,0.18,0.94,0.3,25791,10181.60,0,82,3,0.14,-1.96,-0.70,0.18,0.94,0.30
28.94629,0.019574556,-0.02968861,-0.032899123,0.18,0.93,0.31,25805,10186.30,0,82,3,0.07,-2.66,-0.07,0.18,0.93,0.31
25.646484,0.010574556,-0.030688608,-0.017899124,0.17,0.93,0.31,25820,10183.00,0,82,3,-0.56,-2.73,0.98,0.17,0.93,0.31
25.646484,0.0015745554,-0.027688606,-0.013899125,0.17,0.94,0.31,25842,10183.00,0,82,3,-1.19,-2.52,1.26,0.17,0.94,0.31
25.246094,-0.0034254435,-0.016688608,-0.011899125,0.17,0.94,0.31,25865,10182.60,0,82,3,-1.54,-1.75,1.40,0.17,0.94,0.31
24.94629,-0.0044254437,-0.008688608,-0.010899125,0.17,0.94,0.31,25880,10182.30,0,82,3,-1.61,-1.19,1.47,0.17,0.94,0.31
25.94629,-0.005425442,-0.007688608,-0.013899125,0.17,0.95,0.32,25894,10183.30,0,82,3,-1.68,-1.12,1.26,0.17,0.95,0.32
26.246094,-0.0014254432,-0.006688607,-0.015899124,0.18,0.95,0.31,25910,10183.60,0,82,3,-1.40,-1.05,1.12,0.18,0.95,0.31
26.246094,-4.2544492E-4,-0.0096886065,-0.017899124,0.18,0.94,0.31,25933,10183.60,0,82,3,-1.33,-1.26,0.98,0.18,0.94,0.31
29.246094,0.010574556,-0.007688608,-0.015899124,0.18,0.94,0.31,25947,10186.60,0,82,3,-0.56,-1.12,1.12,0.18,0.94,0.31
26.246094,0.012574557,-0.011688607,-0.019899126,0.18,0.94,0.31,25970,10183.60,0,82,3,-0.42,-1.40,0.84,0.18,0.94,0.31
26.646484,0.012574557,-0.015688606,-0.015899124,0.18,0.94,0.31,25985,10184.00,0,82,3,-0.42,-1.68,1.12,0.18,0.94,0.31
26.94629,0.012574557,-0.017688608,-0.017899124,0.18,0.94,0.31,26007,10184.30,0,82,3,-0.42,-1.82,0.98,0.18,0.94,0.31
27.94629,0.009574557,-0.016688608,-0.019899126,0.18,0.94,0.31,26023,10185.30,0,82,3,-0.63,-1.75,0.84,0.18,0.94,0.31
28.646484,0.0025745556,-0.013688607,-0.018899124,0.17,0.94,0.31,26045,10186.00,0,82,3,-1.12,-1.54,0.91,0.17,0.94,0.31
28.246094,0.0015745554,-0.011688607,-0.019899126,0.18,0.94,0.31,26075,10185.60,0,82,3,-1.19,-1.40,0.84,0.18,0.94,0.31
30.246094,0.0025745556,-0.006688607,-0.011899125,0.18,0.94,0.32,26090,10187.60,0,82,3,-1.12,-1.05,1.40,0.18,0.94,0.32
28.646484,-4.2544492E-4,-0.0036886064,-0.006899124,0.18,0.94,0.32,26113,10186.00,0,82,3,-1.33,-0.84,1.75,0.18,0.94,0.32
26.646484,-0.0014254432,-0.0046886075,-0.005899124,0.18,0.94,0.31,26128,10184.00,0,82,3,-1.40,-0.91,1.82,0.18,0.94,0.31
30.646484,-0.0014254432,-0.008688608,-0.011899125,0.18,0.94,0.31,26143,10188.00,0,82,3,-1.40,-1.19,1.40,0.18,0.94,0.31
31.94629,0.0025745556,-0.013688607,-0.019899126,0.17,0.95,0.31,26158,10189.30,0,82,3,-1.12,-1.54,0.84,0.17,0.95,0.31
25.94629,0.006574557,-0.014688607,-0.028899124,0.17,0.94,0.32,26180,10183.30,0,82,3,-0.84,-1.61,0.21,0.17,0.94,0.32
34.94629,0.015574557,-0.016688608,-0.029899124,0.18,0.94,0.31,26195,10192.30,0,82,3,-0.21,-1.75,0.14,0.18,0.94,0.31
34.94629,0.025574557,-0.012688607,-0.027899124,0.17,0.93,0.32,26210,10192.30,0,82,3,0.49,-1.47,0.28,0.17,0.93,0.32
38.646484,0.027574556,-0.011688607,-0.027899124,0.17,0.94,0.31,26232,10196.00,0,82,3,0.63,-1.40,0.28,0.17,0.94,0.31
37.94629,0.026574556,-0.006688607,-0.022899125,0.17,0.94,0.32,26248,10195.30,0,82,3,0.56,-1.05,0.63,0.17,0.94,0.32
39.94629,0.020574557,-0.012688607,-0.020899124,0.17,0.94,0.31,26277,10197.30,0,82,3,0.14,-1.47,0.77,0.17,0.94,0.31
41.646484,0.020574557,-0.013688607,-0.015899124,0.17,0.94,0.31,26293,10199.00,0,82,3,0.14,-1.54,1.12,0.17,0.94,0.31
41.646484,0.019574556,-0.017688608,-0.010899125,0.18,0.93,0.32,26314,10199.00,0,82,3,0.07,-1.82,1.47,0.18,0.93,0.32
44.34668,0.013574556,-0.018688608,-0.0038991235,0.17,0.93,0.32,26337,10201.70,0,82,3,-0.35,-1.89,1.96,0.17,0.93,0.32
44.34668,0.013574556,-0.015688606,-0.0048991237,0.17,0.94,0.32,26360,10201.70,0,82,3,-0.35,-1.68,1.89,0.17,0.94,0.32
44.94629,0.013574556,-0.008688608,-0.0038991235,0.18,0.94,0.32,26382,10202.30,0,82,3,-0.35,-1.19,1.96,0.18,0.94,0.32
45.646484,0.016574556,-0.006688607,-0.0038991235,0.18,0.94,0.32,26390,10203.00,0,82,3,-0.14,-1.05,1.96,0.18,0.94,0.32
46.34668,0.010574556,-0.0036886064,-0.0038991235,0.18,0.93,0.32,26406,10203.70,0,82,3,-0.56,-0.84,1.96,0.18,0.93,0.32
46.34668,0.010574556,0.0043113925,0.0031008758,0.18,0.94,0.32,26420,10203.70,0,82,3,-0.56,-0.28,2.45,0.18,0.94,0.32
48.34668,0.010574556,0.0043113925,0.0021008775,0.18,0.95,0.32,26434,10205.70,0,82,3,-0.56,-0.28,2.38,0.18,0.95,0.32
43.646484,0.011574556,0.0043113925,-8.99123E-4,0.18,0.94,0.32,26458,10201.00,0,82,3,-0.49,-0.28,2.17,0.18,0.94,0.32
46.34668,0.019574556,-6.886069E-4,0.0011008754,0.18,0.95,0.32,26472,10203.70,0,82,3,0.07,-0.63,2.31,0.18,0.95,0.32
45.34668,0.027574556,-0.0046886075,-0.0098991245,0.18,0.94,0.31,26494,10202.70,0,82,3,0.63,-0.91,1.54,0.18,0.94,0.31
44.646484,0.023574557,-0.0096886065,-0.022899125,0.18,0.94,0.32,26517,10202.00,0,82,3,0.35,-1.26,0.63,0.18,0.94,0.32
44.34668,0.022574557,-0.008688608,-0.025899125,0.18,0.94,0.31,26547,10201.70,0,82,3,0.28,-1.19,0.42,0.18,0.94,0.31
44.646484,0.023574557,-0.013688607,-0.027899124,0.18,0.94,0.31,26554,10202.00,0,82,3,0.35,-1.54,0.28,0.18,0.94,0.31
43.646484,0.022574557,-0.015688606,-0.014899123,0.18,0.94,0.31,26578,10201.00,0,82,3,0.28,-1.68,1.19,0.18,0.94,0.31
43.94629,0.016574556,-0.024688607,-0.014899123,0.18,0.94,0.31,26600,10201.30,0,82,3,-0.14,-2.31,1.19,0.18,0.94,0.31
43.34668,0.018574556,-0.023688609,-0.005899124,0.18,0.94,0.31,26623,10200.70,0,82,3,0.00,-2.24,1.82,0.18,0.94,0.31
43.94629,0.016574556,-0.022688609,-0.008899124,0.18,0.94,0.31,26637,10201.30,0,82,3,-0.14,-2.17,1.61,0.18,0.94,0.31
42.646484,0.015574557,-0.017688608,-0.012899123,0.18,0.94,0.32,26652,10200.00,0,82,3,-0.21,-1.82,1.33,0.18,0.94,0.32
42.94629,0.015574557,-0.011688607,-0.015899124,0.18,0.94,0.32,26675,10200.30,0,82,3,-0.21,-1.40,1.12,0.18,0.94,0.32
42.94629,0.018574556,-0.0106886085,-0.014899123,0.18,0.94,0.32,26690,10200.30,0,82,3,0.00,-1.33,1.19,0.18,0.94,0.32
42.94629,0.022574557,-0.0056886077,-0.015899124,0.18,0.94,0.32,26706,10200.30,0,82,3,0.28,-0.98,1.12,0.18,0.94,0.32
42.646484,0.023574557,-0.0096886065,-0.011899125,0.18,0.94,0.31,26727,10200.00,0,82,3,0.35,-1.26,1.40,0.18,0.94,0.31
42.94629,0.022574557,-0.015688606,-0.013899125,0.18,0.94,0.31,26742,10200.30,0,82,3,0.28,-1.68,1.26,0.18,0.94,0.31
43.34668,0.018574556,-0.015688606,-0.012899123,0.18,0.94,0.32,26765,10200.70,0,82,3,0.00,-1.68,1.33,0.18,0.94,0.32
42.34668,0.021574557,-0.011688607,-0.014899123,0.18,0.94,0.31,26788,10199.70,0,82,3,0.21,-1.40,1.19,0.18,0.94,0.31
43.34668,0.020574557,-0.0106886085,-0.017899124,0.18,0.94,0.32,26810,10200.70,0,82,3,0.14,-1.33,0.98,0.18,0.94,0.32
42.34668,0.012574557,-0.008688608,-0.016899124,0.18,0.93,0.31,26840,10199.70,0,82,3,-0.42,-1.19,1.05,0.18,0.93,0.31
41.34668,0.010574556,-0.006688607,-0.016899124,0.18,0.94,0.31,26855,10198.70,0,82,3,-0.56,-1.05,1.05,0.18,0.94,0.31
41.34668,0.006574557,-0.0106886085,-0.012899123,0.18,0.94,0.32,26870,10198.70,0,82,3,-0.84,-1.33,1.33,0.18,0.94,0.32
41.34668,0.004574556,-0.011688607,-0.010899125,0.18,0.93,0.32,26893,10198.70,0,82,3,-0.98,-1.40,1.47,0.18,0.93,0.32
41.34668,0.0015745554,-0.016688608,-0.0098991245,0.18,0.93,0.32,26900,10198.70,0,82,3,-1.19,-1.75,1.54,0.18,0.93,0.32
40.646484,0.0015745554,-0.018688608,-0.0028991252,0.18,0.94,0.32,26923,10198.00,0,82,3,-1.19,-1.89,2.03,0.18,0.94,0.32
39.34668,-0.0014254432,-0.022688609,-0.005899124,0.18,0.94,0.32,26938,10196.70,0,82,3,-1.40,-2.17,1.82,0.18,0.94,0.32
38.646484,-0.0014254432,-0.027688606,-0.005899124,0.18,0.94,0.32,26953,10196.00,0,82,3,-1.40,-2.52,1.82,0.18,0.94,0.32
38.646484,0.008574557,-0.023688609,-8.99123E-4,0.18,0.94,0.32,26975,10196.00,0,82,3,-0.70,-2.24,2.17,0.18,0.94,0.32
34.646484,0.009574557,-0.02568861,0.0071008764,0.18,0.94,0.32,26990,10192.00,0,82,3,-0.63,-2.38,2.73,0.18,0.94,0.32
31.646484,0.006574557,-0.016688608,0.006100878,0.18,0.93,0.32,27012,10189.00,0,82,3,-0.84,-1.75,2.66,0.18,0.93,0.32
27.646484,-0.007425444,-0.016688608,0.005100876,0.19,0.94,0.32,27035,10185.00,0,82,3,-1.82,-1.75,2.59,0.19,0.94,0.32
26.646484,-0.013425445,-0.013688607,-8.99123E-4,0.18,0.95,0.32,27057,10184.00,0,82,3,-2.24,-1.54,2.17,0.18,0.95,0.32
24.94629,-0.0024254434,-0.012688607,-0.016899124,0.18,0.96,0.32,27079,10182.30,0,82,3,-1.47,-1.47,1.05,0.18,0.96,0.32
24.94629,0.011574556,-0.012688607,-0.029899124,0.18,0.95,0.32,27095,10182.30,0,82,3,-0.49,-1.47,0.14,0.18,0.95,0.32
23.94629,0.020574557,-0.013688607,-0.037899125,0.18,0.94,0.32,27117,10181.30,0,82,3,0.14,-1.54,-0.42,0.18,0.94,0.32
23.94629,0.025574557,-0.014688607,-0.044899125,0.18,0.94,0.32,27140,10181.30,0,82,3,0.49,-1.61,-0.91,0.18,0.94,0.32
24.94629,0.031574555,-0.013688607,-0.042899124,0.18,0.93,0.31,27155,10182.30,0,82,3,0.91,-1.54,-0.77,0.18,0.93,0.31
19.94629,0.031574555,-0.015688606,-0.038899124,0.18,0.93,0.31,27170,10177.30,0,82,3,0.91,-1.68,-0.49,0.18,0.93,0.31
23.94629,0.026574556,-0.015688606,-0.028899124,0.18,0.93,0.31,27185,10181.30,0,82,3,0.56,-1.68,0.21,0.18,0.93,0.31
23.94629,0.019574556,-0.016688608,-0.021899125,0.18,0.93,0.32,27200,10181.30,0,82,3,0.07,-1.75,0.70,0.18,0.93,0.32
20.34668,0.0075745564,-0.015688606,-0.011899125,0.18,0.93,0.32,27223,10177.70,0,82,3,-0.77,-1.68,1.40,0.18,0.93,0.32
27.94629,0.006574557,-0.006688607,-0.0028991252,0.17,0.94,0.31,27244,10185.30,0,82,3,-0.84,-1.05,2.03,0.17,0.94,0.31
24.94629,0.0025745556,3.1139236E-4,-0.005899124,0.18,0.93,0.32,27267,10182.30,0,82,3,-1.12,-0.56,1.82,0.18,0.93,0.32
25.34668,-0.010425443,-0.0036886064,-0.006899124,0.18,0.94,0.32,27290,10182.70,0,82,3,-2.03,-0.84,1.75,0.18,0.94,0.32
26.046875,-0.011425443,-0.008688608,-0.0028991252,0.19,0.94,0.32,27306,10183.40,0,82,3,-2.10,-1.19,2.03,0.19,0.94,0.32
24.34668,-0.0034254435,-0.013688607,-0.0048991237,0.19,0.95,0.32,27327,10181.70,0,82,3,-1.54,-1.54,1.89,0.19,0.95,0.32
25.646484,0.005574556,-0.017688608,-0.011899125,0.18,0.95,0.32,27350,10183.00,0,82,3,-0.91,-1.82,1.40,0.18,0.95,0.32
23.94629,0.006574557,-0.014688607,-0.020899124,0.18,0.94,0.32,27380,10181.30,0,82,3,-0.84,-1.61,0.77,0.18,0.94,0.32
25.646484,0.008574557,-0.014688607,-0.026899125,0.18,0.94,0.32,27387,10183.00,0,82,3,-0.70,-1.61,0.35,0.18,0.94,0.32
24.646484,0.009574557,-0.015688606,-0.032899123,0.18,0.94,0.32,27402,10182.00,0,82,3,-0.63,-1.68,-0.07,0.18,0.94,0.32
27.646484,0.014574556,-0.0106886085,-0.030899124,0.18,0.94,0.31,27416,10185.00,0,82,3,-0.28,-1.33,0.07,0.18,0.94,0.31
25.646484,0.017574556,-0.011688607,-0.032899123,0.18,0.94,0.32,27432,10183.00,0,82,3,-0.07,-1.40,-0.07,0.18,0.94,0.32
25.646484,0.015574557,-0.013688607,-0.033899125,0.18,0.93,0.32,27447,10183.00,0,82,3,-0.21,-1.54,-0.14,0.18,0.93,0.32
24.646484,0.014574556,-0.012688607,-0.023899123,0.18,0.93,0.32,27469,10182.00,0,82,3,-0.28,-1.47,0.56,0.18,0.93,0.32
25.646484,0.0075745564,-0.015688606,-0.021899125,0.18,0.93,0.32,27492,10183.00,0,82,3,-0.77,-1.68,0.70,0.18,0.93,0.32
24.646484,0.004574556,-0.013688607,-0.016899124,0.18,0.93,0.32,27514,10182.00,0,82,3,-0.98,-1.54,1.05,0.18,0.93,0.32
26.646484,0.0015745554,-0.012688607,-0.016899124,0.18,0.94,0.32,27538,10184.00,0,82,3,-1.19,-1.47,1.05,0.18,0.94,0.32
26.046875,0.005574556,-0.013688607,-0.013899125,0.18,0.94,0.32,27559,10183.40,0,82,3,-0.91,-1.54,1.26,0.18,0.94,0.32
26.046875,0.004574556,-0.012688607,-0.015899124,0.18,0.94,0.32,27575,10183.40,0,82,3,-0.98,-1.47,1.12,0.18,0.94,0.32
28.046875,0.0035745567,-0.007688608,-0.015899124,0.17,0.94,0.32,27597,10185.40,0,82,3,-1.05,-1.12,1.12,0.17,0.94,0.32
28.34668,0.0015745554,-0.0036886064,-0.015899124,0.18,0.94,0.32,27620,10185.70,0,82,3,-1.19,-0.84,1.12,0.18,0.94,0.32
31.046875,0.0035745567,-6.886069E-4,-0.013899125,0.18,0.94,0.32,27635,10188.40,0,82,3,-1.05,-0.63,1.26,0.18,0.94,0.32
33.34668,0.0075745564,-6.886069E-4,-0.018899124,0.18,0.94,0.31,27649,10190.70,0,82,3,-0.77,-0.63,0.91,0.18,0.94,0.31
36.34668,0.013574556,-0.001688607,-0.020899124,0.18,0.94,0.31,27665,10193.70,0,82,3,-0.35,-0.70,0.77,0.18,0.94,0.31
36.34668,0.020574557,-0.011688607,-0.028899124,0.17,0.94,0.31,27687,10193.70,0,82,3,0.14,-1.40,0.21,0.17,0.94,0.31
38.046875,0.017574556,-0.016688608,-0.034899123,0.17,0.93,0.31,27702,10195.40,0,82,3,-0.07,-1.75,-0.21,0.17,0.93,0.31
39.34668,0.018574556,-0.021688607,-0.037899125,0.17,0.94,0.31,27725,10196.70,0,82,3,0.00,-2.10,-0.42,0.17,0.94,0.31
42.046875,0.020574557,-0.019688608,-0.030899124,0.17,0.93,0.32,27740,10199.40,0,82,3,0.14,-1.96,0.07,0.17,0.93,0.32
42.646484,0.011574556,-0.023688609,-0.023899123,0.17,0.93,0.32,27763,10200.00,0,82,3,-0.49,-2.24,0.56,0.17,0.93,0.32
44.046875,0.004574556,-0.022688609,-0.021899125,0.17,0.93,0.33,27784,10201.40,0,82,3,-0.98,-2.17,0.70,0.17,0.93,0.33
45.34668,-0.0044254437,-0.02568861,-0.014899123,0.18,0.93,0.33,27807,10202.70,0,82,3,-1.61,-2.38,1.19,0.18,0.93,0.33
43.646484,-0.005425442,-0.026688607,0.0011008754,0.18,0.94,0.33,27830,10201.00,0,82,3,-1.68,-2.45,2.31,0.18,0.94,0.33
44.646484,-0.005425442,-0.022688609,0.013100877,0.18,0.94,0.33,27853,10202.00,0,82,3,-1.68,-2.17,3.15,0.18,0.94,0.33
44.646484,0.0025745556,-0.015688606,0.020100877,0.18,0.95,0.33,27867,10202.00,0,82,3,-1.12,-1.68,3.64,0.18,0.95,0.33
43.646484,0.0075745564,-0.013688607,0.014100876,0.18,0.95,0.33,27890,10201.00,0,82,3,-0.77,-1.54,3.22,0.18,0.95,0.33
43.646484,0.012574557,-0.008688608,0.004100874,0.18,0.94,0.33,27905,10201.00,0,82,3,-0.42,-1.19,2.52,0.18,0.94,0.33
42.046875,0.016574556,-0.0046886075,-0.001899125,0.18,0.94,0.33,27920,10199.40,0,82,3,-0.14,-0.91,2.10,0.18,0.94,0.33
43.646484,0.021574557,-6.886069E-4,-0.0098991245,0.18,0.95,0.33,27934,10201.00,0,82,3,0.21,-0.63,1.54,0.18,0.95,0.33
44.046875,0.025574557,0.0023113932,-0.012899123,0.18,0.94,0.32,27958,10201.40,0,82,3,0.49,-0.42,1.33,0.18,0.94,0.32
41.646484,0.026574556,0.0043113925,-0.013899125,0.18,0.93,0.32,27973,10199.00,0,82,3,0.56,-0.28,1.26,0.18,0.93,0.32
43.046875,0.028574556,-0.001688607,-0.0098991245,0.18,0.94,0.32,27995,10200.40,0,82,3,0.70,-0.70,1.54,0.18,0.94,0.32
42.046875,0.031574555,-0.0046886075,-0.005899124,0.18,0.93,0.32,28017,10199.40,0,82,3,0.91,-0.91,1.82,0.18,0.93,0.32
42.046875,0.023574557,-0.0096886065,-0.007899126,0.18,0.93,0.32,28041,10199.40,0,82,3,0.35,-1.26,1.68,0.18,0.93,0.32
42.046875,0.013574556,-0.018688608,-0.012899123,0.18,0.93,0.32,28056,10199.40,0,82,3,-0.35,-1.89,1.33,0.18,0.93,0.32
42.046875,0.013574556,-0.011688607,-0.0048991237,0.18,0.94,0.32,28077,10199.40,0,82,3,-0.35,-1.40,1.89,0.18,0.94,0.32
41.046875,0.016574556,-0.0056886077,0.005100876,0.18,0.94,0.32,28099,10198.40,0,82,3,-0.14,-0.98,2.59,0.18,0.94,0.32
41.34668,0.012574557,-0.001688607,0.010100875,0.18,0.93,0.33,28123,10198.70,0,82,3,-0.42,-0.70,2.94,0.18,0.93,0.33
41.34668,0.013574556,0.0013113925,0.013100877,0.18,0.94,0.33,28137,10198.70,0,82,3,-0.35,-0.49,3.15,0.18,0.94,0.33
40.34668,0.014574556,0.0033113929,0.014100876,0.18,0.94,0.33,28152,10197.70,0,82,3,-0.28,-0.35,3.22,0.18,0.94,0.33
37.34668,0.015574557,0.010311393,0.012100875,0.18,0.94,0.33,28167,10194.70,0,82,3,-0.21,0.14,3.08,0.18,0.94,0.33
41.34668,0.013574556,0.014311392,0.012100875,0.18,0.93,0.34,28182,10198.70,0,82,3,-0.35,0.42,3.08,0.18,0.93,0.34
40.34668,5.745571E-4,0.021311393,0.015100874,0.16,0.93,0.36,28198,10197.70,0,82,3,-1.26,0.91,3.29,0.16,0.93,0.36
39.34668,-0.026425445,0.051311396,0.006100878,0.12,0.96,0.37,28227,10196.70,0,82,3,-3.15,3.01,2.66,0.12,0.96,0.37
47.34668,-0.0094254445,0.1273114,0.009100873,0.12,0.95,0.36,28243,10204.70,0,82,3,-1.96,8.33,2.87,0.12,0.95,0.36
41.34668,0.038574554,0.23331138,0.10110088,0.15,0.91,0.34,28265,10198.70,0,82,3,1.40,15.75,9.31,0.15,0.91,0.34
41.746094,0.05557456,0.3083114,0.2281009,0.2,0.87,0.34,28287,10199.10,0,82,3,2.59,21.00,18.20,0.20,0.87,0.34
42.746094,0.023574557,0.3493114,0.35510087,0.23,0.86,0.33,28310,10200.10,0,82,3,0.35,23.87,27.09,0.23,0.86,0.33
41.746094,-0.031425446,0.34731138,0.4231009,0.26,0.85,0.35,28332,10199.10,0,82,3,-3.50,23.73,31.85,0.26,0.85,0.35
40.746094,-0.10142544,0.31031138,0.44610086,0.27,0.88,0.37,28348,10198.10,0,82,3,-8.40,21.14,33.46,0.27,0.88,0.37
38.746094,-0.16042544,0.2573114,0.41310087,0.25,0.92,0.37,28370,10196.10,0,82,3,-12.53,17.43,31.15,0.25,0.92,0.37
37.746094,-0.18042545,0.2263114,0.35010087,0.24,0.92,0.36,28385,10195.10,0,82,3,-13.93,15.26,26.74,0.24,0.92,0.36
30.646484,-0.19142544,0.18731138,0.30310088,0.26,0.91,0.37,28400,10188.00,0,82,3,-14.70,12.53,23.45,0.26,0.91,0.37
26.646484,-0.19542544,0.15331139,0.25710088,0.29,0.92,0.38,28438,10184.00,0,82,3,-14.98,10.15,20.23,0.29,0.92,0.38
24.646484,-0.18042545,0.11431139,0.24910086,0.3,0.93,0.38,28439,10182.00,0,82,3,-13.93,7.42,19.67,0.30,0.93,0.38
23.746094,-0.16442546,0.0703114,0.23110089,0.29,0.95,0.39,28452,10181.10,0,82,3,-12.81,4.34,18.41,0.29,0.95,0.39
23.046875,-0.15042545,0.021311393,0.19010088,0.27,0.93,0.39,28483,10180.40,0,82,3,-11.83,0.91,15.54,0.27,0.93,0.39
17.046875,-0.14042544,-0.0026886072,0.14910087,0.23,0.93,0.4,28498,10174.40,0,82,3,-11.13,-0.77,12.67,0.23,0.93,0.40
21.34668,-0.11442544,0.0013113925,0.12610088,0.23,0.92,0.4,28512,10178.70,0,82,3,-9.31,-0.49,11.06,0.23,0.92,0.40
22.34668,-0.06342544,0.027311394,0.14510088,0.22,0.93,0.39,28535,10179.70,0,82,3,-5.74,1.33,12.39,0.22,0.93,0.39
23.046875,-0.007425444,0.069311395,0.16910087,0.19,0.94,0.39,28557,10180.40,0,82,3,-1.82,4.27,14.07,0.19,0.94,0.39
24.046875,0.045574557,0.1693114,0.19110087,0.15,0.92,0.4,28580,10181.40,0,82,3,1.89,11.27,15.61,0.15,0.92,0.40
24.34668,0.08957455,0.3383114,0.23610088,0.11,0.91,0.43,28610,10181.70,0,82,3,4.97,23.10,18.76,0.11,0.91,0.43
25.34668,0.16257454,0.64931136,0.3051009,0.06,0.9,0.48,28633,10182.70,0,82,3,10.08,44.87,23.59,0.06,0.90,0.48
25.34668,0.19557455,0.9463114,0.34810087,0.04,0.88,0.5,28639,10182.70,0,82,3,12.39,65.66,26.60,0.04,0.88,0.50
26.34668,0.22057456,1.2733114,0.3971009,0.05,0.85,0.52,28663,10183.70,0,82,3,14.14,88.55,30.03,0.05,0.85,0.52
26.34668,0.21557455,1.5843114,0.45510086,0.08,0.83,0.52,28670,10183.70,0,82,3,13.79,110.32,34.09,0.08,0.83,0.52
25.34668,0.18757455,1.8423115,0.49910083,0.13,0.83,0.5,28685,10182.70,0,82,3,11.83,128.38,37.17,0.13,0.83,0.50
25.746094,0.16957454,2.0303113,0.5391009,0.18,0.85,0.48,28700,10183.10,0,82,3,10.57,141.54,39.97,0.18,0.85,0.48
26.746094,0.14857456,2.1603115,0.57110083,0.25,0.84,0.45,28722,10184.10,0,82,3,9.10,150.64,42.21,0.25,0.84,0.45
25.046875,0.10057455,2.1153116,0.5771009,0.32,0.84,0.41,28745,10182.40,0,82,3,5.74,147.49,42.63,0.32,0.84,0.41
25.746094,0.049574558,1.9313114,0.56610084,0.38,0.86,0.37,28767,10183.10,0,82,3,2.17,134.61,41.86,0.38,0.86,0.37
25.746094,0.009574557,1.6383114,0.53610086,0.42,0.87,0.35,28790,10183.10,0,82,3,-0.63,114.10,39.76,0.42,0.87,0.35
25.746094,-0.026425445,1.2733114,0.50510085,0.41,0.89,0.33,28812,10183.10,0,82,3,-3.15,88.55,37.59,0.41,0.89,0.33
25.746094,-0.027425444,0.88531137,0.40610087,0.38,0.94,0.32,28827,10183.10,0,82,3,-3.22,61.39,30.66,0.38,0.94,0.32
25.746094,0.053574555,0.4703114,0.25510088,0.35,1.02,0.31,28850,10183.10,0,82,3,2.45,32.34,20.09,0.35,1.02,0.31
27.746094,0.24157454,0.2513114,0.13810088,0.29,1.08,0.33,28872,10185.10,0,82,3,15.61,17.01,11.90,0.29,1.08,0.33
26.746094,0.45357457,0.11431139,-0.016899124,0.28,1.06,0.38,28887,10184.10,0,82,3,30.45,7.42,1.05,0.28,1.06,0.38
26.746094,0.6085745,0.029311392,-0.10289912,0.29,0.98,0.43,28902,10184.10,0,82,3,41.30,1.47,-4.97,0.29,0.98,0.43
25.046875,0.68557453,-0.028688608,-0.14989913,0.28,0.95,0.43,28917,10182.40,0,82,3,46.69,-2.59,-8.26,0.28,0.95,0.43
28.046875,0.73657453,-0.05868861,-0.19289914,0.28,0.9,0.44,28932,10185.40,0,82,3,50.26,-4.69,-11.27,0.28,0.90,0.44
30.046875,0.71757454,-0.07568861,-0.19789912,0.31,0.82,0.47,28955,10187.40,0,82,3,48.93,-5.88,-11.62,0.31,0.82,0.47
31.046875,0.55957454,-0.11368861,-0.15289913,0.32,0.76,0.49,28970,10188.40,0,82,3,37.87,-8.54,-8.47,0.32,0.76,0.49
33.046875,0.28457457,-0.2086886,-0.11789913,0.31,0.76,0.47,28992,10190.40,0,82,3,18.62,-15.19,-6.02,0.31,0.76,0.47
35.34668,-0.023425443,-0.3806886,-0.119899124,0.35,0.76,0.41,29015,10192.70,0,82,3,-2.94,-27.23,-6.16,0.35,0.76,0.41
36.34668,-0.32342544,-0.6616886,-0.10489912,0.39,0.77,0.34,29037,10193.70,0,82,3,-23.94,-46.90,-5.11,0.39,0.77,0.34
39.046875,-0.52742547,-1.0236886,-0.042899124,0.44,0.78,0.27,29060,10196.40,0,82,3,-38.22,-72.24,-0.77,0.44,0.78,0.27
40.44629,-0.6244254,-1.4376886,0.06910088,0.43,0.81,0.27,29082,10197.80,0,82,3,-45.01,-101.22,7.07,0.43,0.81,0.27
43.44629,-0.6644255,-1.7406886,0.17810087,0.37,0.86,0.32,29097,10200.80,0,82,3,-47.81,-122.43,14.70,0.37,0.86,0.32
44.44629,-0.63042545,-1.9346886,0.21310087,0.32,0.9,0.37,29120,10201.80,0,82,3,-45.43,-136.01,17.15,0.32,0.90,0.37
46.746094,-0.5814255,-2.0106885,0.19410087,0.27,0.95,0.4,29135,10204.10,0,82,3,-42.00,-141.33,15.82,0.27,0.95,0.40
45.44629,-0.46942544,-1.9996885,0.12410088,0.23,0.99,0.42,29157,10202.80,0,82,3,-34.16,-140.56,10.92,0.23,0.99,0.42
44.046875,-0.33142543,-1.8936886,0.03910087,0.22,0.98,0.45,29173,10201.40,0,82,3,-24.50,-133.14,4.97,0.22,0.98,0.45
44.44629,-0.21842545,-1.7356887,-0.036899123,0.23,0.95,0.49,29187,10201.80,0,82,3,-16.59,-122.08,-0.35,0.23,0.95,0.49
43.746094,-0.14242546,-1.5586886,-0.08089913,0.26,0.92,0.49,29202,10201.10,0,82,3,-11.27,-109.69,-3.43,0.26,0.92,0.49
44.746094,-0.06642544,-1.3206886,-0.10789913,0.29,0.9,0.47,29225,10202.10,0,82,3,-5.95,-93.03,-5.32,0.29,0.90,0.47
43.746094,-0.013425445,-1.0666887,-0.11889913,0.31,0.9,0.46,29247,10201.10,0,82,3,-2.24,-75.25,-6.09,0.31,0.90,0.46
43.746094,0.018574556,-0.85568863,-0.13789913,0.32,0.89,0.45,29269,10201.10,0,82,3,0.00,-60.48,-7.42,0.32,0.89,0.45
42.746094,0.026574556,-0.6466886,-0.17689912,0.32,0.89,0.44,29292,10200.10,0,82,3,0.56,-45.85,-10.15,0.32,0.89,0.44
43.746094,0.032574557,-0.49368858,-0.20289913,0.31,0.89,0.41,29308,10201.10,0,82,3,0.98,-35.14,-11.97,0.31,0.89,0.41
43.046875,0.023574557,-0.3366886,-0.23489912,0.31,0.9,0.38,29330,10200.40,0,82,3,0.35,-24.15,-14.21,0.31,0.90,0.38
43.046875,0.028574556,-0.2246886,-0.2758991,0.32,0.89,0.37,29352,10200.40,0,82,3,0.70,-16.31,-17.08,0.32,0.89,0.37
42.046875,0.027574556,-0.1666886,-0.27789912,0.33,0.88,0.37,29367,10199.40,0,82,3,0.63,-12.25,-17.22,0.33,0.88,0.37
42.046875,0.024574555,-0.10668861,-0.25889912,0.33,0.86,0.36,29382,10199.40,0,0,3,0.42,-8.05,-15.89,0.33,0.86,0.36
38.046875,0.014574556,-0.05768861,-0.23389913,0.33,0.85,0.35,29397,10195.40,0,0,3,-0.28,-4.62,-14.14,0.33,0.85,0.35
42.046875,0.006574557,-0.022688609,-0.18689913,0.33,0.85,0.34,29420,10199.40,0,0,3,-0.84,-2.17,-10.85,0.33,0.85,0.34
42.44629,-4.2544492E-4,-0.001688607,-0.14989913,0.34,0.85,0.34,29435,10199.80,0,0,3,-1.33,-0.70,-8.26,0.34,0.85,0.34
42.046875,-0.012425445,0.011311392,-0.10689913,0.34,0.84,0.33,29450,10199.40,0,0,3,-2.17,0.21,-5.25,0.34,0.84,0.33
42.44629,-0.018425444,0.024311393,-0.061899126,0.34,0.85,0.33,29465,10199.80,0,0,3,-2.59,1.12,-2.10,0.34,0.85,0.33
42.046875,-0.024425445,0.035311393,-0.010899125,0.34,0.85,0.33,29480,10199.40,0,0,3,-3.01,1.89,1.47,0.34,0.85,0.33
44.44629,-0.027425444,0.04831139,0.010100875,0.33,0.87,0.33,29495,10201.80,0,0,3,-3.22,2.80,2.94,0.33,0.87,0.33
43.44629,-0.028425442,0.06631139,0.024100877,0.33,0.87,0.34,29517,10200.80,0,0,3,-3.29,4.06,3.92,0.33,0.87,0.34
44.44629,-0.042425446,0.084311396,0.040100873,0.34,0.86,0.35,29532,10201.80,0,0,3,-4.27,5.32,5.04,0.34,0.86,0.35
43.44629,-0.051425442,0.104311384,0.057100877,0.35,0.87,0.35,29547,10200.80,0,0,3,-4.90,6.72,6.23,0.35,0.87,0.35
42.046875,-0.056425445,0.120311394,0.05510088,0.35,0.88,0.35,29562,10199.40,0,0,3,-5.25,7.84,6.09,0.35,0.88,0.35
43.44629,-0.057425447,0.1383114,0.045100875,0.35,0.89,0.36,29577,10200.80,0,0,3,-5.32,9.10,5.39,0.35,0.89,0.36
40.746094,-0.05042544,0.14731139,0.020100877,0.34,0.89,0.36,29592,10198.10,0,0,3,-4.83,9.73,3.64,0.34,0.89,0.36
41.44629,-0.038425446,0.15331139,-0.006899124,0.34,0.9,0.36,29615,10198.80,0,0,3,-3.99,10.15,1.75,0.34,0.90,0.36
40.44629,-0.024425445,0.1713114,-0.018899124,0.34,0.9,0.36,29630,10197.80,0,0,3,-3.01,11.41,0.91,0.34,0.90,0.36
41.046875,-0.0034254435,0.19931139,-0.021899125,0.33,0.89,0.37,29645,10198.40,0,0,3,-1.54,13.37,0.70,0.33,0.89,0.37
40.746094,0.012574557,0.2433114,-0.021899125,0.33,0.88,0.39,29659,10198.10,0,0,3,-0.42,16.45,0.70,0.33,0.88,0.39
38.746094,0.019574556,0.3013114,-0.014899123,0.31,0.88,0.4,29675,10196.10,0,0,3,0.07,20.51,1.19,0.31,0.88,0.40
35.34668,0.025574557,0.39231136,-0.005899124,0.3,0.87,0.42,29690,10192.70,0,0,3,0.49,26.88,1.82,0.30,0.87,0.42
34.44629,0.026574556,0.49831137,0.005100876,0.27,0.88,0.43,29704,10191.80,0,0,3,0.56,34.30,2.59,0.27,0.88,0.43
31.046875,0.040574558,0.6413114,1.00877136E-4,0.24,0.89,0.45,29727,10188.40,0,0,3,1.54,44.31,2.24,0.24,0.89,0.45
28.746094,0.058574557,0.81131136,-0.010899125,0.23,0.89,0.46,29742,10186.10,0,0,3,2.80,56.21,1.47,0.23,0.89,0.46
27.046875,0.072574556,0.9973114,-0.016899124,0.22,0.89,0.48,29757,10184.40,0,0,3,3.78,69.23,1.05,0.22,0.89,0.48
25.746094,0.10357456,1.2023114,-0.0038991235,0.19,0.9,0.5,29772,10183.10,0,0,3,5.95,83.58,1.96,0.19,0.90,0.50
28.746094,0.15657455,1.4363114,0.008100875,0.17,0.92,0.52,29788,10186.10,0,0,3,9.66,99.96,2.80,0.17,0.92,0.52
24.046875,0.21257456,1.6843114,0.021100875,0.19,0.89,0.53,29809,10181.40,0,0,3,13.58,117.32,3.71,0.19,0.89,0.53
25.046875,0.23057455,1.8073114,0.037100874,0.23,0.87,0.51,29824,10182.40,0,0,3,14.84,125.93,4.83,0.23,0.87,0.51
21.046875,0.22157454,1.8693115,0.051100872,0.28,0.87,0.47,29840,10178.40,0,0,3,14.21,130.27,5.81,0.28,0.87,0.47
24.046875,0.21157455,1.8453113,0.056100875,0.31,0.88,0.43,29855,10181.40,0,0,3,13.51,128.59,6.16,0.31,0.88,0.43
25.44629,0.23957455,1.7753115,0.063100874,0.33,0.89,0.41,29870,10182.80,0,0,3,15.47,123.69,6.65,0.33,0.89,0.41
25.046875,0.26957455,1.6603113,0.071100876,0.35,0.89,0.39,29885,10182.40,0,0,3,17.57,115.64,7.21,0.35,0.89,0.39
25.046875,0.27757454,1.5033114,0.07610088,0.35,0.87,0.38,29908,10182.40,0,0,3,18.13,104.65,7.56,0.35,0.87,0.38
20.44629,0.25857455,1.3083113,0.074100874,0.36,0.86,0.37,29923,10177.80,0,0,3,16.80,91.00,7.42,0.36,0.86,0.37
25.44629,0.22957456,1.0993115,0.08610088,0.36,0.86,0.36,29937,10182.80,0,0,3,14.77,76.37,8.26,0.36,0.86,0.36
24.746094,0.20657454,0.8903114,0.10110088,0.33,0.88,0.35,29952,10182.10,0,0,3,13.16,61.74,9.31,0.33,0.88,0.35
27.44629,0.18957455,0.6943114,0.107100874,0.32,0.88,0.36,29967,10184.80,0,0,3,11.97,48.02,9.73,0.32,0.88,0.36
25.44629,0.16557455,0.5203114,0.11310087,0.3,0.88,0.36,29989,10182.80,0,0,3,10.29,35.84,10.15,0.30,0.88,0.36
25.746094,0.14457455,0.3713114,0.115100875,0.28,0.88,0.38,30004,10183.10,0,0,3,8.82,25.41,10.29,0.28,0.88,0.38
25.44629,0.12457456,0.25931138,0.107100874,0.25,0.89,0.39,30019,10182.80,0,0,3,7.42,17.57,9.73,0.25,0.89,0.39
25.44629,0.10757456,0.17631139,0.093100876,0.23,0.89,0.4,30034,10182.80,0,0,3,6.23,11.76,8.75,0.23,0.89,0.40
26.44629,0.09157456,0.10731139,0.07910088,0.22,0.9,0.41,30050,10183.80,0,0,3,5.11,6.93,7.77,0.22,0.90,0.41
26.746094,0.090574555,0.060311392,0.062100872,0.2,0.91,0.41,30065,10184.10,0,0,3,5.04,3.64,6.58,0.20,0.91,0.41
24.34668,0.09957456,0.046311393,0.046100877,0.18,0.91,0.42,30079,10181.70,0,0,3,5.67,2.66,5.46,0.18,0.91,0.42
27.746094,0.11357456,0.049311392,0.035100877,0.18,0.91,0.43,30102,10185.10,0,0,3,6.65,2.87,4.69,0.18,0.91,0.43
26.44629,0.10957456,0.05531139,0.027100876,0.19,0.89,0.43,30117,10183.80,0,0,3,6.37,3.29,4.13,0.19,0.89,0.43
27.746094,0.08357456,0.051311396,0.011100877,0.2,0.88,0.43,30133,10185.10,0,0,3,4.55,3.01,3.01,0.20,0.88,0.43
27.746094,0.048574556,0.029311392,0.004100874,0.21,0.89,0.41,30147,10185.10,0,0,3,2.10,1.47,2.52,0.21,0.89,0.41
29.046875,0.029574556,3.1139236E-4,0.004100874,0.2,0.91,0.4,30163,10186.40,0,0,3,0.77,-0.56,2.52,0.20,0.91,0.40
27.746094,0.049574558,0.0043113925,0.004100874,0.18,0.92,0.41,30185,10185.10,0,0,3,2.17,-0.28,2.52,0.18,0.92,0.41
28.046875,0.06657455,0.020311393,-0.006899124,0.18,0.91,0.42,30200,10185.40,0,0,3,3.36,0.84,1.75,0.18,0.91,0.42
28.046875,0.06557456,0.029311392,-0.014899123,0.19,0.89,0.43,30215,10185.40,0,0,3,3.29,1.47,1.19,0.19,0.89,0.43
29.046875,0.046574555,0.024311393,-0.017899124,0.2,0.89,0.42,30230,10186.40,0,0,3,1.96,1.12,0.98,0.20,0.89,0.42
29.046875,0.021574557,0.0063113924,-0.012899123,0.21,0.88,0.41,30244,10186.40,0,0,3,0.21,-0.14,1.33,0.21,0.88,0.41
