Pressure_Rel,GyroX_Rel,GyroY_Rel,GyroZ_Rel,AccX_Rel,AccY_Rel,AccZ_Rel,Timestamp,Pressure_abs,HeartRate,Oxygen,Status,GyroX,GyroY,GyroZ,AccX,AccY,AccZ
0.0,0.0,0.0,0.0,0.0,0.0,0.0,2240,10028.10,0,0,0,-30.38,-11.76,48.93,0.85,0.54,0.13
0.0,0.0,0.0,0.0,0.0,0.0,0.0,2246,10026.70,0,0,0,-66.85,-133.14,228.90,0.85,0.54,0.12
0.0,0.0,0.0,0.0,0.0,0.0,0.0,2262,10026.70,0,0,165,37.17,-71.05,-6.02,0.85,0.52,0.10
0.0,0.0,0.0,0.0,0.0,0.0,0.0,2276,10027.70,0,0,0,14.07,9.10,-3.43,0.85,0.50,0.09
0.0,0.0,0.0,0.0,0.0,0.0,0.0,2284,10025.70,0,0,165,15.82,11.20,-2.24,0.86,0.49,0.08
0.0,0.0,0.0,0.0,0.0,0.0,0.0,2298,10027.00,0,0,0,9.03,13.93,-3.71,0.86,0.47,0.09
0.0,0.0,0.0,0.0,0.0,0.0,0.0,2313,10026.00,0,0,165,3.92,16.31,-7.28,0.86,0.46,0.10
0.0,0.0,0.0,0.0,0.0,0.0,0.0,2321,10027.00,0,0,0,1.96,16.31,-11.83,0.87,0.47,0.12
0.0,0.0,0.0,0.0,0.0,0.0,0.0,2337,10027.70,0,0,165,2.38,15.12,-14.35,0.88,0.52,0.14
0.0,0.0,0.0,0.0,0.0,0.0,0.0,2351,10027.00,0,0,0,-0.35,14.28,-12.67,0.88,0.55,0.14
0.0,0.0,0.0,0.0,0.0,0.0,0.0,2358,10027.00,0,0,165,-1.96,13.30,-9.03,0.89,0.57,0.14
0.0,0.0,0.0,0.0,0.0,0.0,0.0,2374,10027.00,0,0,0,-1.96,11.97,-4.20,0.88,0.57,0.15
0.0,0.0,0.0,0.0,0.0,0.0,0.0,2389,10027.00,0,0,165,0.00,10.29,-1.68,0.88,0.55,0.15
0.0,0.0,0.0,0.0,0.0,0.0,0.0,2404,10027.00,0,0,0,1.33,9.17,-0.42,0.87,0.52,0.15
0.0,0.0,0.0,0.0,0.0,0.0,0.0,2412,10027.00,0,0,165,0.07,7.98,0.42,0.87,0.51,0.15
0.0,0.0,0.0,0.0,0.0,0.0,0.0,2427,10027.00,0,0,0,-2.38,6.65,0.56,0.85,0.49,0.15
0.0,0.0,0.0,0.0,0.0,0.0,0.0,2434,10027.00,0,0,165,-5.11,5.18,0.63,0.85,0.47,0.15
0.0,0.0,0.0,0.0,0.0,0.0,0.0,2449,10026.00,0,0,0,-7.00,3.64,-0.42,0.86,0.47,0.14
0.0,0.0,0.0,0.0,0.0,0.0,0.0,2463,10027.00,0,0,165,-9.24,3.29,-0.91,0.86,0.47,0.15
0.0,0.0,0.0,0.0,0.0,0.0,0.0,2471,10026.00,0,0,0,-9.38,2.31,-1.89,0.86,0.47,0.16
0.0,0.0,0.0,0.0,0.0,0.0,0.0,2487,10027.00,0,0,165,-9.52,1.82,-1.96,0.87,0.49,0.17
0.0,0.0,0.0,0.0,0.0,0.0,0.0,2501,10026.00,0,0,0,-10.78,1.33,-1.68,0.88,0.50,0.18
0.0,0.0,0.0,0.0,0.0,0.0,0.0,2508,10027.00,0,0,165,-12.32,0.56,-0.77,0.89,0.50,0.18
0.0,0.0,0.0,0.0,0.0,0.0,0.0,2524,10027.00,0,0,0,-10.22,-0.21,-0.21,0.90,0.48,0.18
0.0,0.0,0.0,0.0,0.0,0.0,0.0,2539,10026.00,0,0,165,-6.65,0.00,-0.77,0.89,0.47,0.18
0.0,0.0,0.0,0.0,0.0,0.0,0.0,2546,10027.00,0,0,0,-6.79,1.33,-2.66,0.90,0.48,0.19
0.0,0.0,0.0,0.0,0.0,0.0,0.0,2561,10026.00,0,0,165,-12.18,2.80,-4.90,0.90,0.51,0.22
0.0,0.0,0.0,0.0,0.0,0.0,0.0,2576,10027.00,0,0,0,-19.53,2.73,-8.26,0.90,0.55,0.25
0.0,0.0,0.0,0.0,0.0,0.0,0.0,2594,10027.40,0,0,165,-27.79,-0.63,-10.08,0.90,0.59,0.28
0.0,0.0,0.0,0.0,0.0,0.0,0.0,2600,10027.00,0,0,0,-31.08,-5.39,-10.22,0.89,0.63,0.29
0.0,0.0,0.0,0.0,0.0,0.0,0.0,2613,10027.00,0,0,165,-32.55,-9.80,-6.37,0.88,0.67,0.30
0.0,0.0,0.0,0.0,0.0,0.0,0.0,2621,10027.00,0,0,0,-30.52,-17.78,3.15,0.86,0.68,0.29
0.0,0.0,0.0,0.0,0.0,0.0,0.0,2636,10027.00,0,0,165,-20.30,-25.41,15.12,0.84,0.61,0.25
0.0,0.0,0.0,0.0,0.0,0.0,0.0,2650,10027.40,0,0,0,-5.04,-30.87,25.06,0.82,0.56,0.21
0.0,0.0,0.0,0.0,0.0,0.0,0.0,2658,10026.00,0,0,165,4.27,-31.85,29.05,0.82,0.50,0.18
0.0,0.0,0.0,0.0,0.0,0.0,0.0,2673,10027.00,0,0,0,4.69,-31.71,29.54,0.81,0.46,0.15
0.0,0.0,0.0,0.0,0.0,0.0,0.0,2688,10027.00,0,0,165,-1.47,-31.71,28.77,0.81,0.43,0.13
0.0,0.0,0.0,0.0,0.0,0.0,0.0,2695,10026.40,0,0,0,-6.23,-30.59,23.87,0.82,0.40,0.11
0.0,0.0,0.0,0.0,0.0,0.0,0.0,2711,10026.00,0,0,165,-5.95,-28.35,16.52,0.82,0.40,0.08
0.0,0.0,0.0,0.0,0.0,0.0,0.0,2726,10026.00,0,0,0,-3.57,-21.14,9.10,0.84,0.45,0.07
0.0,0.0,0.0,0.0,0.0,0.0,0.0,2733,10027.40,0,0,165,-2.66,-14.77,3.78,0.86,0.48,0.09
0.0,0.0,0.0,0.0,0.0,0.0,0.0,2748,10027.00,0,0,0,-2.31,-9.59,3.22,0.87,0.51,0.11
0.0,0.0,0.0,0.0,0.0,0.0,0.0,2763,10027.00,0,0,165,-2.45,-6.72,4.41,0.87,0.52,0.12
0.0,0.0,0.0,0.0,0.0,0.0,0.0,2771,10026.00,0,0,0,-2.17,-4.62,3.71,0.87,0.53,0.15
0.0,0.0,0.0,0.0,0.0,0.0,0.0,2786,10027.00,0,0,165,-5.95,-3.71,3.43,0.87,0.55,0.16
0.0,0.0,0.0,0.0,0.0,0.0,0.0,2801,10027.00,0,0,0,-8.47,-2.31,2.73,0.87,0.55,0.16
0.0,0.0,0.0,0.0,0.0,0.0,0.0,2809,10026.40,0,0,165,-9.66,-1.26,3.08,0.86,0.57,0.16
0.0,0.0,0.0,0.0,0.0,0.0,0.0,2823,10027.40,0,0,0,-9.24,0.42,5.95,0.86,0.57,0.16
0.0,0.0,0.0,0.0,0.0,0.0,0.0,2838,10027.00,0,0,165,-5.60,0.91,9.38,0.85,0.55,0.16
0.0,0.0,0.0,0.0,0.0,0.0,0.0,2846,10028.10,0,0,0,0.28,2.66,11.90,0.83,0.52,0.16
0.0,0.0,0.0,0.0,0.0,0.0,0.0,2863,10026.40,0,0,165,4.20,4.83,12.04,0.82,0.50,0.17
0.0,0.0,0.0,0.0,0.0,0.0,0.0,2875,10026.40,0,0,0,3.29,6.23,10.85,0.82,0.47,0.17
0.0,0.0,0.0,0.0,0.0,0.0,0.0,2883,10027.00,0,0,165,-0.21,6.93,8.19,0.82,0.46,0.18
0.0,0.0,0.0,0.0,0.0,0.0,0.0,2898,10027.00,0,0,0,-9.17,7.84,5.11,0.83,0.48,0.18
0.0,0.0,0.0,0.0,0.0,0.0,0.0,2913,10027.40,0,0,165,-14.49,7.84,2.94,0.82,0.47,0.18
0.0,0.0,0.0,0.0,0.0,0.0,0.0,2921,10025.00,0,0,0,-11.55,6.16,1.19,0.84,0.47,0.17
0.0,0.0,0.0,0.0,0.0,0.0,0.0,2936,10027.00,0,0,165,-7.42,4.20,0.00,0.85,0.47,0.16
0.0,0.0,0.0,0.0,0.0,0.0,0.0,2951,10027.40,0,0,0,-6.79,2.52,-0.49,0.87,0.49,0.15
0.0,0.0,0.0,0.0,0.0,0.0,0.0,2966,10027.40,0,0,165,-10.15,2.52,-0.07,0.87,0.48,0.13
0.0,0.0,0.0,0.0,0.0,0.0,0.0,2973,10027.40,0,0,0,-11.69,3.36,0.35,0.87,0.47,0.13
0.0,0.0,0.0,0.0,0.0,0.0,0.0,2993,10026.40,0,0,165,-10.08,4.97,-0.07,0.87,0.47,0.14
0.0,0.0,0.0,0.0,0.0,0.0,0.0,2995,10027.40,0,0,0,-6.72,6.16,-0.63,0.87,0.47,0.15
0.0,0.0,0.0,0.0,0.0,0.0,0.0,3011,10027.40,0,0,165,-4.34,6.37,0.07,0.87,0.47,0.16
0.0,0.0,0.0,0.0,0.0,0.0,0.0,3026,10027.40,0,0,0,-5.81,7.42,1.05,0.88,0.48,0.16
0.0,0.0,0.0,0.0,0.0,0.0,0.0,3033,10027.40,0,0,165,-10.99,7.21,3.71,0.88,0.48,0.18
0.0,0.0,0.0,0.0,0.0,0.0,0.0,3049,10027.40,0,0,0,-12.74,7.42,4.06,0.87,0.45,0.17
0.0,0.0,0.0,0.0,0.0,0.0,0.0,3065,10027.40,0,0,165,-10.01,7.63,1.82,0.87,0.45,0.18
0.0,0.0,0.0,0.0,0.0,0.0,0.0,3071,10027.40,0,0,0,-9.52,8.54,0.14,0.88,0.47,0.19
0.0,0.0,0.0,0.0,0.0,0.0,0.0,3086,10026.40,0,0,165,-11.97,8.12,-0.21,0.87,0.47,0.21
0.0,0.0,0.0,0.0,0.0,0.0,0.0,3100,10027.40,0,0,0,-13.86,7.84,0.28,0.87,0.47,0.22
0.0,0.0,0.0,0.0,0.0,0.0,0.0,3108,10027.40,0,0,165,-11.76,6.79,0.42,0.86,0.45,0.23
0.0,0.0,0.0,0.0,0.0,0.0,0.0,3124,10028.40,0,0,0,-7.63,5.60,0.00,0.86,0.45,0.23
0.0,0.0,0.0,0.0,0.0,0.0,0.0,3138,10027.40,0,0,165,-5.53,4.69,-0.28,0.86,0.44,0.24
0.0,0.0,0.0,0.0,0.0,0.0,0.0,3146,10027.40,0,0,0,-5.18,3.50,-0.77,0.86,0.45,0.24
0.0,0.0,0.0,0.0,0.0,0.0,0.0,3160,10026.40,0,0,165,-5.88,2.59,-1.12,0.86,0.45,0.24
0.0,0.0,0.0,0.0,0.0,0.0,0.0,3176,10027.40,0,0,0,-5.60,1.96,-2.17,0.85,0.45,0.24
0.0,0.0,0.0,0.0,0.0,0.0,0.0,3184,10026.40,0,0,165,-4.20,2.03,-3.78,0.85,0.45,0.24
0.0,0.0,0.0,0.0,0.0,0.0,0.0,3199,10026.40,0,0,0,-2.94,2.24,-4.55,0.85,0.47,0.25
0.0,0.0,0.0,0.0,0.0,0.0,0.0,3213,10027.40,0,0,165,-1.89,1.54,-3.99,0.86,0.48,0.25
0.0,0.0,0.0,0.0,0.0,0.0,0.0,3221,10026.40,0,0,0,-0.84,-0.14,-2.31,0.86,0.48,0.25
0.0,0.0,0.0,0.0,0.0,0.0,0.0,3236,10027.40,0,0,165,-0.42,-1.82,0.49,0.86,0.48,0.25
0.0,0.0,0.0,0.0,0.0,0.0,0.0,3251,10027.40,0,0,0,1.47,-3.85,3.50,0.85,0.47,0.23
0.0,0.0,0.0,0.0,0.0,0.0,0.0,3258,10027.40,0,0,165,4.48,-4.27,4.41,0.86,0.45,0.21
0.0,0.0,0.0,0.0,0.0,0.0,0.0,3273,10027.40,0,0,0,7.42,-3.08,3.29,0.86,0.44,0.21
0.0,0.0,0.0,0.0,0.0,0.0,0.0,3288,10027.40,0,0,165,6.30,-2.24,2.45,0.86,0.44,0.21
0.0,0.0,0.0,0.0,0.0,0.0,0.0,3296,10028.40,0,0,0,2.94,-1.54,1.40,0.86,0.43,0.20
0.0,0.0,0.0,0.0,0.0,0.0,0.0,3311,10027.40,0,0,165,0.70,-1.05,-0.14,0.86,0.44,0.21
0.0,0.0,0.0,0.0,0.0,0.0,0.0,3326,10026.40,0,0,0,0.70,-0.70,-2.17,0.86,0.44,0.21
0.0,0.0,0.0,0.0,0.0,0.0,0.0,3341,10027.40,0,0,165,1.54,-0.07,-2.87,0.86,0.45,0.21
0.0,0.0,0.0,0.0,0.0,0.0,0.0,3348,10027.40,0,0,0,2.03,0.49,-3.01,0.86,0.45,0.22
0.0,0.0,0.0,0.0,0.0,0.0,0.0,3363,10028.40,0,0,165,0.77,1.54,-3.22,0.86,0.45,0.22
0.0,0.0,0.0,0.0,0.0,0.0,0.0,3371,10027.40,0,0,0,-1.33,3.01,-3.64,0.86,0.46,0.23
0.0,0.0,0.0,0.0,0.0,0.0,0.0,3385,10027.00,0,0,165,-1.75,2.94,-4.20,0.86,0.46,0.24
0.0,0.0,0.0,0.0,0.0,0.0,0.0,3401,10028.40,0,0,0,-2.52,2.66,-4.69,0.86,0.47,0.25
0.0,0.0,0.0,0.0,0.0,0.0,0.0,3409,10026.40,0,0,165,-4.90,1.68,-4.06,0.87,0.48,0.25
0.0,0.0,0.0,0.0,0.0,0.0,0.0,3424,10027.40,0,0,0,-6.09,-0.07,-2.94,0.87,0.46,0.24
0.0,0.0,0.0,0.0,0.0,0.0,0.0,3438,10027.40,0,0,165,-3.15,-1.68,-3.08,0.87,0.46,0.23
0.0,0.0,0.0,0.0,0.0,0.0,0.0,3446,10026.40,0,0,0,-1.47,-1.26,-3.85,0.87,0.47,0.22
0.0,0.0,0.0,0.0,0.0,0.0,0.0,3461,10027.40,0,0,165,-3.08,1.19,-4.06,0.88,0.48,0.22
0.0,0.0,0.0,0.0,0.0,0.0,0.0,3478,10027.40,0,0,0,-5.32,3.43,-3.71,0.87,0.48,0.22
0.0,0.0,0.0,0.0,0.0,0.0,0.0,3483,10027.70,0,0,165,-4.55,4.48,-3.08,0.87,0.47,0.23
0.0,0.0,0.0,0.0,0.0,0.0,0.0,3499,10028.40,0,0,0,-2.94,7.63,-2.45,0.85,0.48,0.22
0.0,0.0,0.0,0.0,0.0,0.0,0.0,3513,10027.40,0,0,165,-6.16,11.34,-0.49,0.86,0.49,0.23
0.0,0.0,0.0,0.0,0.0,0.0,0.0,3521,10027.70,0,0,0,-9.80,13.16,1.75,0.85,0.46,0.24
0.0,0.0,0.0,0.0,0.0,0.0,0.0,3536,10026.40,0,0,165,-8.40,14.21,3.22,0.84,0.45,0.25
0.0,0.0,0.0,0.0,0.0,0.0,0.0,3552,10027.40,0,0,0,-6.72,14.35,5.32,0.84,0.45,0.26
0.0,0.0,0.0,0.0,0.0,0.0,0.0,3558,10026.40,0,0,165,-4.97,13.16,7.35,0.83,0.41,0.27
0.0,0.0,0.0,0.0,0.0,0.0,0.0,3573,10027.40,0,0,0,-1.33,12.18,6.30,0.82,0.38,0.27
0.0,0.0,0.0,0.0,0.0,0.0,0.0,3588,10027.40,0,0,165,1.75,11.76,2.73,0.83,0.38,0.29
0.0,0.0,0.0,0.0,0.0,0.0,0.0,3596,10027.40,0,0,0,0.00,9.87,-1.75,0.84,0.38,0.30
0.0,0.0,0.0,0.0,0.0,0.0,0.0,3611,10027.40,0,0,165,-4.06,6.72,-5.39,0.84,0.38,0.32
0.0,0.0,0.0,0.0,0.0,0.0,0.0,3626,10027.40,0,0,0,-2.66,3.50,-11.06,0.85,0.40,0.33
0.0,0.0,0.0,0.0,0.0,0.0,0.0,3633,10026.40,0,0,165,-1.61,1.12,-15.89,0.86,0.45,0.34
0.0,0.0,0.0,0.0,0.0,0.0,0.0,3649,10026.40,0,0,0,-3.64,-1.26,-15.68,0.86,0.49,0.36
0.0,0.0,0.0,0.0,0.0,0.0,0.0,3663,10027.40,0,0,165,-2.66,-5.81,-12.74,0.86,0.50,0.36
0.0,0.0,0.0,0.0,0.0,0.0,0.0,3672,10027.40,0,0,0,2.73,-11.34,-10.15,0.87,0.51,0.34
0.0,0.0,0.0,0.0,0.0,0.0,0.0,3685,10028.40,0,0,165,7.56,-15.19,-7.56,0.88,0.54,0.32
0.0,0.0,0.0,0.0,0.0,0.0,0.0,3701,10027.40,0,0,0,7.84,-18.62,-3.78,0.88,0.54,0.28
0.0,0.0,0.0,0.0,0.0,0.0,0.0,3711,10026.40,0,0,165,7.77,-19.74,-1.40,0.89,0.53,0.25
0.0,0.0,0.0,0.0,0.0,0.0,0.0,3728,10027.40,0,0,0,8.54,-18.90,-0.56,0.89,0.52,0.22
0.0,0.0,0.0,0.0,0.0,0.0,0.0,3738,10027.70,0,0,165,8.54,-17.64,-0.14,0.89,0.52,0.21
0.0,0.0,0.0,0.0,0.0,0.0,0.0,3746,10027.40,0,0,0,5.60,-16.31,1.40,0.89,0.52,0.20
0.0,0.0,0.0,0.0,0.0,0.0,0.0,3761,10028.40,0,0,165,1.89,-14.56,3.71,0.88,0.52,0.18
0.0,0.0,0.0,0.0,0.0,0.0,0.0,3776,10027.40,0,0,0,-0.28,-12.39,4.69,0.86,0.49,0.17
0.0,0.0,0.0,0.0,0.0,0.0,0.0,3783,10027.40,0,0,165,0.84,-9.94,4.06,0.86,0.48,0.17
0.0,0.0,0.0,0.0,0.0,0.0,0.0,3799,10027.40,0,0,0,0.00,-8.33,3.78,0.85,0.49,0.18
0.0,0.0,0.0,0.0,0.0,0.0,0.0,3813,10028.40,0,0,165,-2.87,-7.49,4.69,0.85,0.47,0.17
0.0,0.0,0.0,0.0,0.0,0.0,0.0,3821,10028.70,0,0,0,-2.66,-6.37,4.20,0.84,0.44,0.16
0.0,0.0,0.0,0.0,0.0,0.0,0.0,3836,10027.40,0,0,165,-2.52,-4.41,3.22,0.84,0.44,0.15
0.0,0.0,0.0,0.0,0.0,0.0,0.0,3851,10027.00,0,0,0,-4.55,-0.07,1.75,0.85,0.44,0.16
0.0,0.0,0.0,0.0,0.0,0.0,0.0,3858,10027.40,0,0,165,-5.53,2.87,0.42,0.84,0.41,0.16
0.0,0.0,0.0,0.0,0.0,0.0,0.0,3873,10027.40,0,0,0,-3.64,5.88,-2.66,0.85,0.41,0.18
0.0,0.0,0.0,0.0,0.0,0.0,0.0,3888,10026.40,0,0,165,-5.18,8.61,-5.39,0.85,0.44,0.20
0.0,0.0,0.0,0.0,0.0,0.0,0.0,3898,10027.70,0,0,0,-7.98,9.73,-7.07,0.85,0.44,0.23
0.0,0.0,0.0,0.0,0.0,0.0,0.0,3911,10028.70,0,0,165,-9.38,9.45,-7.84,0.86,0.48,0.25
0.0,0.0,0.0,0.0,0.0,0.0,0.0,3926,10027.40,0,0,0,-9.66,7.98,-7.00,0.86,0.49,0.27
0.0,0.0,0.0,0.0,0.0,0.0,0.0,3933,10028.40,0,0,165,-7.07,6.86,-5.60,0.86,0.51,0.28
0.0,0.0,0.0,0.0,0.0,0.0,0.0,3948,10027.40,0,0,0,-5.60,5.39,-1.96,0.87,0.51,0.27
0.0,0.0,0.0,0.0,0.0,0.0,0.0,3963,10027.40,0,0,165,-4.20,4.27,0.70,0.87,0.49,0.27
0.0,0.0,0.0,0.0,0.0,0.0,0.0,3970,10027.70,0,0,0,-0.21,3.08,0.77,0.87,0.47,0.27
0.0,0.0,0.0,0.0,0.0,0.0,0.0,3986,10027.70,0,0,165,0.70,2.31,-0.07,0.87,0.48,0.27
0.0,0.0,0.0,0.0,0.0,0.0,0.0,4001,10026.40,0,0,0,-2.17,1.19,-0.49,0.87,0.49,0.28
0.0,0.0,0.0,0.0,0.0,0.0,0.0,4009,10027.40,0,0,165,-4.90,0.35,-0.14,0.88,0.49,0.26
0.0,0.0,0.0,0.0,0.0,0.0,0.0,4023,10027.40,0,0,0,-3.22,-0.28,0.35,0.87,0.49,0.26
0.0,0.0,0.0,0.0,0.0,0.0,0.0,4038,10026.40,0,0,165,-0.14,0.21,0.63,0.88,0.50,0.25
0.0,0.0,0.0,0.0,0.0,0.0,0.0,4046,10027.70,0,0,0,-0.07,2.10,2.03,0.88,0.50,0.25
0.0,0.0,0.0,0.0,0.0,0.0,0.0,4061,10027.40,0,0,165,-1.19,3.15,3.78,0.87,0.48,0.27
0.0,0.0,0.0,0.0,0.0,0.0,0.0,4076,10028.70,0,0,0,0.21,2.38,5.39,0.86,0.45,0.26
0.0,0.0,0.0,0.0,0.0,0.0,0.0,4084,10027.40,0,0,165,4.48,2.45,3.57,0.84,0.43,0.27
0.0,0.0,0.0,0.0,0.0,0.0,0.0,4098,10026.70,0,0,0,7.00,1.47,1.40,0.85,0.42,0.27
0.0,0.0,0.0,0.0,0.0,0.0,0.0,4113,10027.40,0,0,165,3.01,0.21,0.07,0.85,0.43,0.27
0.0,0.0,0.0,0.0,0.0,0.0,0.0,4120,10027.70,0,0,0,-4.06,0.98,-3.15,0.88,0.46,0.25
0.0,0.0,0.0,0.0,0.0,0.0,0.0,4137,10027.70,0,0,165,-12.32,4.41,-5.74,0.88,0.47,0.25
0.0,0.0,0.0,0.0,0.0,0.0,0.0,4152,10028.40,0,0,0,-9.10,9.87,-8.12,0.86,0.45,0.25
0.0,0.0,0.0,0.0,0.0,0.0,0.0,4160,10028.70,0,0,165,-0.28,15.26,-8.61,0.85,0.47,0.28
0.0,0.0,0.0,0.0,0.0,0.0,0.0,4173,10027.70,0,0,0,0.63,16.80,-5.32,0.85,0.48,0.31
0.0,0.0,0.0,0.0,0.0,0.0,0.0,4189,10027.70,0,0,165,-3.71,14.42,-3.64,0.85,0.45,0.33
0.0,0.0,0.0,0.0,0.0,0.0,0.0,4196,10027.70,0,0,0,-7.91,12.67,-8.82,0.84,0.40,0.31
0.0,0.0,0.0,0.0,0.0,0.0,0.0,4210,10027.40,0,0,165,-10.36,13.79,-17.71,0.85,0.39,0.30
0.0,0.0,0.0,0.0,0.0,0.0,0.0,4226,10027.70,0,0,0,-11.34,16.38,-27.58,0.83,0.41,0.31
0.0,0.0,0.0,0.0,0.0,0.0,0.0,4234,10027.40,0,0,165,-17.99,15.96,-30.73,0.82,0.45,0.34
0.0,0.0,0.0,0.0,0.0,0.0,0.0,4249,10028.40,0,0,0,-26.60,14.49,-33.74,0.83,0.48,0.34
0.0,0.0,0.0,0.0,0.0,0.0,0.0,4263,10027.40,0,0,165,-37.38,10.99,-31.71,0.84,0.51,0.35
0.0,0.0,0.0,0.0,0.0,0.0,0.0,4270,10026.70,0,0,0,-45.50,6.72,-30.10,0.84,0.52,0.36
0.0,0.0,0.0,0.0,0.0,0.0,0.0,4287,10027.40,0,0,165,-42.77,2.73,-31.08,0.84,0.52,0.36
0.0,0.0,0.0,0.0,0.0,0.0,0.0,4300,10027.70,0,0,0,-33.04,0.28,-32.62,0.83,0.53,0.35
0.0,0.0,0.0,0.0,0.0,0.0,0.0,4308,10027.70,0,0,165,-20.86,-0.49,-31.36,0.83,0.56,0.35
0.0,0.0,0.0,0.0,0.0,0.0,0.0,4324,10027.70,0,0,0,-13.09,-2.38,-24.57,0.81,0.59,0.37
0.0,0.0,0.0,0.0,0.0,0.0,0.0,4339,10027.40,0,0,165,-10.78,-3.64,-16.73,0.82,0.58,0.37
0.0,0.0,0.0,0.0,0.0,0.0,0.0,4346,10027.40,0,0,0,-7.21,-3.29,-12.04,0.81,0.56,0.37
0.0,0.0,0.0,0.0,0.0,0.0,0.0,4361,10027.40,0,0,165,-2.10,-2.73,-11.48,0.80,0.55,0.38
0.0,0.0,0.0,0.0,0.0,0.0,0.0,4375,10027.40,0,0,0,-1.54,-2.94,-11.48,0.79,0.56,0.40
0.0,0.0,0.0,0.0,0.0,0.0,0.0,4383,10027.70,0,0,165,-2.94,-4.27,-11.41,0.78,0.56,0.40
0.0,0.0,0.0,0.0,0.0,0.0,0.0,4398,10027.70,0,0,0,-4.62,-6.58,-9.59,0.78,0.57,0.40
0.0,0.0,0.0,0.0,0.0,0.0,0.0,4413,10026.70,0,0,165,-6.86,-9.03,-7.00,0.77,0.58,0.40
0.0,0.0,0.0,0.0,0.0,0.0,0.0,4422,10028.40,0,0,0,-8.82,-11.06,-1.96,0.78,0.57,0.38
0.0,0.0,0.0,0.0,0.0,0.0,0.0,4454,10029.40,0,0,165,-4.34,-11.76,1.61,0.76,0.53,0.36
0.0,0.0,0.0,0.0,0.0,0.0,0.0,4458,10028.40,0,0,0,4.48,-11.48,1.40,0.76,0.53,0.36
0.0,0.0,0.0,0.0,0.0,0.0,0.0,4458,10028.40,0,0,165,5.95,-11.90,1.82,0.76,0.53,0.36
0.0,0.0,0.0,0.0,0.0,0.0,0.0,4473,10027.70,0,0,0,2.31,-13.30,3.78,0.76,0.52,0.35
0.0,0.0,0.0,0.0,0.0,0.0,0.0,4488,10028.70,0,0,165,-0.70,-14.21,6.37,0.77,0.50,0.32
0.0,0.0,0.0,0.0,0.0,0.0,0.0,4496,10027.70,0,0,0,17.01,-7.63,-14.63,0.77,0.32,0.25
0.0,0.0,0.0,0.0,0.0,0.0,0.0,4511,10026.70,0,0,165,44.31,-3.22,-17.29,0.75,0.49,0.29
0.0,0.0,0.0,0.0,0.0,0.0,0.0,4526,10027.70,0,0,0,36.26,-2.10,-20.58,0.74,0.54,0.33
0.0,0.0,0.0,0.0,0.0,0.0,0.0,4533,10028.70,0,0,165,14.63,-3.43,-20.44,0.71,0.60,0.36
0.0,0.0,0.0,0.0,0.0,0.0,0.0,4549,10027.70,0,0,0,-7.07,-5.39,-13.51,0.69,0.59,0.36
0.0,0.0,0.0,0.0,0.0,0.0,0.0,4563,10027.70,0,0,165,-17.85,-10.22,-9.66,0.70,0.63,0.36
0.0,0.0,0.0,0.0,0.0,0.0,0.0,4571,10027.70,0,0,0,-21.35,-15.33,-2.24,0.75,0.57,0.34
0.0,0.0,0.0,0.0,0.0,0.0,0.0,4586,10027.70,0,0,165,-11.97,-20.44,-3.85,0.76,0.53,0.33
0.0,0.0,0.0,0.0,0.0,0.0,0.0,4601,10027.70,0,0,0,-5.39,-22.40,-6.93,0.76,0.54,0.31
0.0,0.0,0.0,0.0,0.0,0.0,0.0,4609,10027.70,0,0,165,-7.63,-21.98,-9.24,0.78,0.56,0.30
0.0,0.0,0.0,0.0,0.0,0.0,0.0,4623,10028.70,0,0,0,-16.24,-23.24,-6.93,0.78,0.58,0.30
0.0,0.0,0.0,0.0,0.0,0.0,0.0,4640,10027.70,0,0,165,-19.81,-23.59,-3.22,0.78,0.57,0.28
0.0,0.0,0.0,0.0,0.0,0.0,0.0,4645,10027.40,0,0,0,-16.03,-22.05,-1.89,0.78,0.56,0.27
0.0,0.0,0.0,0.0,0.0,0.0,0.0,4660,10027.70,0,0,165,7.28,-16.31,-6.93,0.81,0.40,0.21
0.0,0.0,0.0,0.0,0.0,0.0,0.0,4675,10026.40,0,0,0,47.53,-12.04,-18.13,0.73,0.54,0.21
0.0,0.0,0.0,0.0,0.0,0.0,0.0,4683,10028.70,0,0,165,36.12,-10.64,-14.28,0.73,0.64,0.28
0.0,0.0,0.0,0.0,0.0,0.0,0.0,4698,10028.40,0,0,0,-1.89,-12.39,-4.83,0.76,0.65,0.29
0.0,0.0,0.0,0.0,0.0,0.0,0.0,4713,10027.70,0,0,165,-21.70,-13.72,-1.54,0.76,0.55,0.28
0.0,0.0,0.0,0.0,0.0,0.0,0.0,4721,10027.70,0,0,0,-14.56,-15.40,-6.30,0.76,0.55,0.28
0.0,0.0,0.0,0.0,0.0,0.0,0.0,4737,10027.70,0,0,165,-7.91,-16.31,-9.03,0.80,0.56,0.28
0.0,0.0,0.0,0.0,0.0,0.0,0.0,4757,10027.70,0,0,0,-0.07,-16.73,-10.15,0.81,0.54,0.26
0.0,0.0,0.0,0.0,0.0,0.0,0.0,4760,10027.40,0,0,165,5.53,-18.69,-11.48,0.77,0.57,0.27
0.0,0.0,0.0,0.0,0.0,0.0,0.0,4773,10026.70,0,0,0,-3.01,-16.80,-8.12,0.79,0.57,0.25
0.0,0.0,0.0,0.0,0.0,0.0,0.0,4788,10026.40,0,0,165,-7.84,-15.68,-9.52,0.77,0.57,0.25
0.0,0.0,0.0,0.0,0.0,0.0,0.0,4795,10027.70,0,0,0,-8.96,-11.41,-11.41,0.80,0.55,0.23
0.0,0.0,0.0,0.0,0.0,0.0,0.0,4812,10028.70,0,0,165,-3.08,-10.36,-13.79,0.87,0.60,0.27
0.0,0.0,0.0,0.0,0.0,0.0,0.0,4826,10028.70,0,0,0,-3.22,-9.31,-12.81,0.77,0.61,0.27
0.0,0.0,0.0,0.0,0.0,0.0,0.0,4833,10027.70,0,0,165,-5.67,-10.43,-9.94,0.78,0.67,0.27
0.0,0.0,0.0,0.0,0.0,0.0,0.0,4848,10027.70,0,0,0,-8.26,-12.53,-4.76,0.79,0.64,0.27
0.0,0.0,0.0,0.0,0.0,0.0,0.0,4863,10028.40,0,0,165,-2.17,-14.14,-0.14,0.80,0.65,0.27
0.0,0.0,0.0,0.0,0.0,0.0,0.0,4871,10027.70,0,0,0,6.93,-14.42,5.53,0.78,0.62,0.25
0.0,0.0,0.0,0.0,0.0,0.0,0.0,4886,10027.70,0,0,165,11.41,-13.16,10.43,0.75,0.62,0.25
0.0,0.0,0.0,0.0,0.0,0.0,0.0,4901,10027.70,0,0,0,6.79,-12.46,15.26,0.75,0.63,0.26
0.0,0.0,0.0,0.0,0.0,0.0,0.0,4909,10026.70,0,0,165,-1.68,-13.02,19.67,0.78,0.58,0.25
0.0,0.0,0.0,0.0,0.0,0.0,0.0,4923,10028.70,0,0,0,-3.01,-13.23,18.76,0.79,0.52,0.23
0.0,0.0,0.0,0.0,0.0,0.0,0.0,4938,10027.70,0,0,165,1.61,-13.44,14.14,0.80,0.50,0.24
0.0,0.0,0.0,0.0,0.0,0.0,0.0,4945,10028.40,0,0,0,4.48,-16.73,8.33,0.78,0.51,0.25
0.0,0.0,0.0,0.0,0.0,0.0,0.0,4960,10027.70,0,0,165,-1.75,-17.29,4.76,0.79,0.55,0.25
0.0,0.0,0.0,0.0,0.0,0.0,0.0,4976,10026.70,0,0,0,-12.60,-16.10,3.78,0.79,0.55,0.25
0.0,0.0,0.0,0.0,0.0,0.0,0.0,4983,10027.40,0,0,165,-14.28,-13.37,2.38,0.78,0.53,0.25
0.0,0.0,0.0,0.0,0.0,0.0,0.0,4998,10028.70,0,0,0,-6.23,-10.01,-1.19,0.79,0.55,0.27
0.0,0.0,0.0,0.0,0.0,0.0,0.0,5013,10027.70,0,0,165,-1.54,-8.47,-1.75,0.81,0.60,0.29
0.0,0.0,0.0,0.0,0.0,0.0,0.0,5020,10028.70,0,0,0,-0.98,-10.78,3.08,0.80,0.59,0.30
0.0,0.0,0.0,0.0,0.0,0.0,0.0,5038,10028.70,0,0,165,5.74,-13.79,3.64,0.79,0.57,0.29
0.0,0.0,0.0,0.0,0.0,0.0,0.0,5050,10028.40,0,0,0,12.67,-15.47,1.05,0.80,0.58,0.27
0.0,0.0,0.0,0.0,0.0,0.0,0.0,5058,10028.70,0,0,165,16.80,-15.26,-1.89,0.81,0.59,0.25
0.0,0.0,0.0,0.0,0.0,0.0,0.0,5073,10027.40,0,0,0,18.13,-14.77,-3.15,0.82,0.60,0.24
0.0,0.0,0.0,0.0,0.0,0.0,0.0,5087,10027.70,0,0,165,18.97,-15.19,-2.87,0.83,0.59,0.23
0.0,0.0,0.0,0.0,0.0,0.0,0.0,5096,10027.70,0,0,0,19.81,-15.68,-1.89,0.82,0.57,0.22
0.0,0.0,0.0,0.0,0.0,0.0,0.0,5111,10027.70,0,0,165,21.49,-16.31,-2.17,0.81,0.55,0.22
0.0,0.0,0.0,0.0,0.0,0.0,0.0,5127,10028.70,0,0,0,20.02,-17.08,-3.57,0.81,0.55,0.21
0.0,0.0,0.0,0.0,0.0,0.0,0.0,5133,10027.70,0,0,165,14.00,-17.99,-4.55,0.81,0.55,0.20
0.0,0.0,0.0,0.0,0.0,0.0,0.0,5148,10027.40,0,0,0,5.32,-18.97,-4.62,0.81,0.53,0.19
0.0,0.0,0.0,0.0,0.0,0.0,0.0,5163,10028.70,0,0,165,1.54,-18.62,-6.30,0.80,0.55,0.18
0.0,0.0,0.0,0.0,0.0,0.0,0.0,5170,10027.70,0,0,0,-6.23,-17.50,-4.55,0.82,0.57,0.17
0.0,0.0,0.0,0.0,0.0,0.0,0.0,5186,10028.70,0,0,165,-6.79,-16.31,-2.59,0.81,0.54,0.15
0.0,0.0,0.0,0.0,0.0,0.0,0.0,5202,10026.70,0,0,0,1.75,-14.70,-2.17,0.79,0.53,0.16
0.0,0.0,0.0,0.0,0.0,0.0,0.0,5222,10027.70,0,0,165,8.75,-12.32,-0.77,0.78,0.52,0.16
0.0,0.0,0.0,0.0,0.0,0.0,0.0,5234,10026.70,0,0,0,11.20,-11.13,0.21,0.76,0.52,0.18
0.0,0.0,0.0,0.0,0.0,0.0,0.0,5243,10028.70,0,0,165,7.84,-10.85,0.77,0.75,0.51,0.20
0.0,0.0,0.0,0.0,0.0,0.0,0.0,5253,10026.70,0,0,0,4.06,-11.76,-0.28,0.75,0.50,0.21
0.0,0.0,0.0,0.0,0.0,0.0,0.0,5261,10027.70,0,0,165,4.48,-14.14,-2.73,0.75,0.49,0.21
0.0,0.0,0.0,0.0,0.0,0.0,0.0,5275,10028.70,0,0,0,6.02,-17.57,-4.90,0.76,0.52,0.20
0.0,0.0,0.0,0.0,0.0,0.0,0.0,5291,10028.70,0,0,165,6.93,-19.18,-5.67,0.76,0.52,0.19
0.0,0.0,0.0,0.0,0.0,0.0,0.0,5298,10027.70,0,0,0,10.15,-20.58,-6.44,0.75,0.53,0.18
0.0,0.0,0.0,0.0,0.0,0.0,0.0,5314,10027.70,0,0,165,13.79,-20.51,-6.44,0.75,0.55,0.18
0.0,0.0,0.0,0.0,0.0,0.0,0.0,5328,10027.70,0,0,0,13.65,-19.74,-5.53,0.76,0.57,0.17
0.0,0.0,0.0,0.0,0.0,0.0,0.0,5336,10027.70,0,0,165,11.27,-18.20,-3.85,0.76,0.58,0.17
0.0,0.0,0.0,0.0,0.0,0.0,0.0,5350,10028.70,0,0,0,11.90,-16.87,-3.08,0.77,0.56,0.17
0.0,0.0,0.0,0.0,0.0,0.0,0.0,5366,10027.70,0,0,165,16.87,-15.26,-4.83,0.79,0.55,0.18
0.0,0.0,0.0,0.0,0.0,0.0,0.0,5373,10027.70,0,0,0,20.79,-14.07,-6.44,0.81,0.57,0.18
0.0,0.0,0.0,0.0,0.0,0.0,0.0,5388,10027.70,0,0,165,22.68,-13.09,-9.73,0.82,0.57,0.18
0.0,0.0,0.0,0.0,0.0,0.0,0.0,5403,10027.70,0,0,0,22.26,-12.32,-17.08,0.85,0.60,0.18
0.0,0.0,0.0,0.0,0.0,0.0,0.0,5411,10028.70,0,0,165,16.24,-12.67,-23.24,0.88,0.67,0.18
0.0,0.0,0.0,0.0,0.0,0.0,0.0,5426,10027.70,0,0,0,8.05,-15.19,-29.47,0.90,0.73,0.17
0.0,0.0,0.0,0.0,0.0,0.0,0.0,5441,10028.70,0,0,165,2.38,-17.57,-32.41,0.90,0.79,0.15
0.0,0.0,0.0,0.0,0.0,0.0,0.0,5448,10027.70,0,0,0,-1.54,-20.16,-31.01,0.89,0.83,0.13
0.0,0.0,0.0,0.0,0.0,0.0,0.0,5463,10027.70,0,0,165,-3.01,-21.84,-24.71,0.87,0.85,0.10
0.0,0.0,0.0,0.0,0.0,0.0,0.0,5478,10026.70,0,0,0,0.84,-22.33,-12.11,0.83,0.81,0.07
0.0,0.0,0.0,0.0,0.0,0.0,0.0,5486,10027.70,0,0,165,11.41,-21.28,-2.66,0.80,0.74,0.04
0.0,0.0,0.0,0.0,0.0,0.0,0.0,5501,10027.70,0,0,0,22.82,-18.76,8.26,0.77,0.68,0.03
0.0,0.0,0.0,0.0,0.0,0.0,0.0,5516,10027.70,0,0,165,26.39,-17.43,16.73,0.74,0.56,0.02
0.0,0.0,0.0,0.0,0.0,0.0,0.0,5523,10027.40,0,0,0,27.51,-17.22,19.88,0.71,0.48,0.01
0.0,0.0,0.0,0.0,0.0,0.0,0.0,5538,10028.70,0,0,165,25.55,-16.38,16.66,0.71,0.42,0.00
0.30664062,0.18583176,-0.28350776,-0.029065428,0.76,0.52,-0.02,9558,10028.10,0,0,165,17.71,-20.16,-2.59,0.76,0.52,-0.02
-0.79296875,0.08583177,-0.33750778,-0.046065427,0.8,0.55,0.04,9573,10027.00,0,0,0,10.71,-23.94,-3.78,0.80,0.55,0.04
-0.79296875,-0.37416825,0.12049221,-0.32706544,0.67,0.61,0.02,9580,10027.00,0,0,165,-21.49,8.12,-23.45,0.67,0.61,0.02
-0.79296875,-0.25516823,-0.22950777,-0.30806544,0.74,0.61,-0.04,9596,10027.00,0,0,0,-13.16,-16.38,-22.12,0.74,0.61,-0.04
-0.79296875,0.13583177,-0.038507786,-0.5080654,0.8,0.64,-0.05,9618,10027.00,0,0,165,14.21,-3.01,-36.12,0.80,0.64,-0.05
-0.79296875,0.16783178,0.12849222,-0.71206546,0.8,0.69,-0.01,9618,10027.00,0,0,0,16.45,8.68,-50.40,0.80,0.69,-0.01
0.30664062,0.24083176,-0.095507786,-0.7960654,0.83,0.69,-0.0,9633,10028.10,0,0,165,21.56,-7.00,-56.28,0.83,0.69,-0.00
1.3066406,0.26983178,-0.035507783,-0.8810654,0.79,0.71,-0.03,9648,10029.10,0,0,0,23.59,-2.80,-62.23,0.79,0.71,-0.03
-0.79296875,0.37183174,-0.1695078,-0.84306544,0.79,0.68,-0.08,9657,10027.00,0,0,165,30.73,-12.18,-59.57,0.79,0.68,-0.08
1.3066406,0.56283176,-0.38850778,-0.8400654,0.71,0.7,-0.08,9672,10029.10,0,0,0,44.10,-27.51,-59.36,0.71,0.70,-0.08
-0.79296875,0.54583174,-0.52550775,-0.82506543,0.69,0.71,-0.09,9688,10027.00,0,0,165,42.91,-37.10,-58.31,0.69,0.71,-0.09
0.30664062,0.5098317,-0.5895078,-0.82006544,0.67,0.75,-0.13,9693,10028.10,0,0,0,40.39,-41.58,-57.96,0.67,0.75,-0.13
1.3066406,0.7168318,-0.5825078,-0.7100654,0.66,0.78,-0.18,9708,10029.10,0,0,165,54.88,-41.09,-50.26,0.66,0.78,-0.18
0.30664062,0.9738318,-0.5815078,-0.59206545,0.58,0.82,-0.17,9724,10028.10,0,0,0,72.87,-41.02,-42.00,0.58,0.82,-0.17
0.30664062,0.83083177,-0.52650774,-0.41406545,0.55,0.82,-0.22,9739,10028.10,0,0,165,62.86,-37.17,-29.54,0.55,0.82,-0.22
0.30664062,0.7038318,-0.35750777,-0.30106542,0.58,0.79,-0.22,9753,10028.10,0,0,0,53.97,-25.34,-21.63,0.58,0.79,-0.22
0.30664062,0.68283176,-0.29050776,-0.35506544,0.64,0.76,-0.22,9763,10028.10,0,0,165,52.50,-20.65,-25.41,0.64,0.76,-0.22
-0.79296875,0.59983176,-0.29350778,-0.40506542,0.71,0.77,-0.17,9771,10027.00,0,0,0,46.69,-20.86,-28.91,0.71,0.77,-0.17
0.30664062,0.53183174,-0.41650778,-0.49106544,0.76,0.75,-0.15,9784,10028.10,0,0,165,41.93,-29.47,-34.93,0.76,0.75,-0.15
0.30664062,0.41783178,-0.5515078,-0.55506545,0.74,0.73,-0.17,9802,10028.10,0,0,0,33.95,-38.92,-39.41,0.74,0.73,-0.17
-0.79296875,0.31283176,-0.63950783,-0.6040654,0.64,0.72,-0.18,9805,10027.00,0,0,165,26.60,-45.08,-42.84,0.64,0.72,-0.18
0.30664062,-0.037168227,-0.4775078,-0.6340654,0.59,0.73,-0.23,9821,10028.10,0,0,0,2.10,-33.74,-44.94,0.59,0.73,-0.23
1.3066406,-0.19516823,-0.4895078,-0.6570654,0.56,0.76,-0.28,9836,10029.10,0,0,165,-8.96,-34.58,-46.55,0.56,0.76,-0.28
0.30664062,-0.35716823,-0.2885078,-0.5450654,0.54,0.75,-0.29,9844,10028.10,0,0,0,-20.30,-20.51,-38.71,0.54,0.75,-0.29
0.30664062,-0.29716823,-0.27350777,-0.7300654,0.55,0.7,-0.28,9866,10028.10,0,0,165,-16.10,-19.46,-51.66,0.55,0.70,-0.28
0.30664062,-0.22516823,-0.20950778,-0.78706545,0.54,0.79,-0.29,9873,10028.10,0,0,0,-11.06,-14.98,-55.65,0.54,0.79,-0.29
0.30664062,-0.25816822,-0.057507787,-0.80606544,0.54,0.8,-0.13,9880,10028.10,0,0,165,-13.37,-4.34,-56.98,0.54,0.80,-0.13
0.30664062,-0.17916822,0.017492214,-0.8260654,0.58,0.83,-0.24,9896,10028.10,0,0,0,-7.84,0.91,-58.38,0.58,0.83,-0.24
0.30664062,-0.06316823,0.0024922143,-0.9000654,0.61,0.83,-0.23,9911,10028.10,0,0,165,0.28,-0.14,-63.56,0.61,0.83,-0.23
0.30664062,0.113831766,-0.080507785,-0.98506546,0.61,0.82,-0.22,9918,10028.10,0,0,0,12.67,-5.95,-69.51,0.61,0.82,-0.22
0.30664062,0.27683178,-0.35650778,-1.0880655,0.59,0.76,-0.2,9935,10028.10,0,0,165,24.08,-25.27,-76.72,0.59,0.76,-0.20
0.30664062,0.30883175,-0.34950778,-1.0160655,0.5,0.76,-0.23,9948,10028.10,0,0,0,26.32,-24.78,-71.68,0.50,0.76,-0.23
0.30664062,0.24783176,-0.3625078,-0.7710654,0.46,0.78,-0.26,9956,10028.10,0,0,165,22.05,-25.69,-54.53,0.46,0.78,-0.26
0.30664062,0.22683176,-0.15950778,-0.38806543,0.44,0.81,-0.29,9971,10028.10,0,0,0,20.58,-11.48,-27.72,0.44,0.81,-0.29
0.30664062,0.06883178,-0.1885078,-0.30906543,0.42,0.85,-0.26,9986,10028.10,0,0,165,9.52,-13.51,-22.19,0.42,0.85,-0.26
0.30664062,-0.05316823,-0.18450779,-0.18906543,0.48,0.8,-0.25,9993,10028.10,0,0,0,0.98,-13.23,-13.79,0.48,0.80,-0.25
0.30664062,-0.07416823,-0.33350778,-0.07506543,0.53,0.8,-0.24,10008,10028.10,0,0,165,-0.49,-23.66,-5.81,0.53,0.80,-0.24
1.3066406,0.007831775,-0.35650778,0.10793457,0.53,0.79,-0.26,10023,10029.10,0,0,0,5.25,-25.27,7.00,0.53,0.79,-0.26
0.30664062,0.33583176,-0.20850779,0.29793456,0.45,0.79,-0.27,10031,10028.10,0,0,165,28.21,-14.91,20.30,0.45,0.79,-0.27
-0.79296875,-0.0031682253,-0.112507775,0.12093457,0.47,0.86,-0.25,10046,10027.00,0,0,0,4.48,-8.19,7.91,0.47,0.86,-0.25
-0.79296875,-0.20016822,-0.07750778,0.14493458,0.53,0.78,-0.27,10060,10027.00,0,0,165,-9.31,-5.74,9.59,0.53,0.78,-0.27
0.30664062,-0.14216822,-0.017507786,0.23093456,0.5,0.79,-0.27,10068,10028.10,0,0,0,-5.25,-1.54,15.61,0.50,0.79,-0.27
0.30664062,-0.15816823,-0.0015077852,0.19493458,0.47,0.82,-0.26,10083,10028.10,0,0,165,-6.37,-0.42,13.09,0.47,0.82,-0.26
0.30664062,-0.30216825,0.0074922144,0.08793457,0.47,0.81,-0.26,10099,10028.10,0,0,0,-16.45,0.21,5.60,0.47,0.81,-0.26
0.30664062,-0.35116822,-0.026507787,0.11493456,0.5,0.8,-0.26,10105,10028.10,0,0,165,-19.88,-2.17,7.49,0.50,0.80,-0.26
0.30664062,-0.41116825,-0.08550779,0.041934572,0.45,0.84,-0.25,10121,10028.10,0,0,0,-24.08,-6.30,2.38,0.45,0.84,-0.25
0.30664062,-0.5131682,-0.044507787,-0.057065435,0.48,0.85,-0.26,10143,10028.10,0,0,165,-31.22,-3.43,-4.55,0.48,0.85,-0.26
0.30664062,-0.47716823,-0.056507785,-0.06906543,0.49,0.86,-0.26,10145,10028.10,0,0,0,-28.70,-4.27,-5.39,0.49,0.86,-0.26
0.6074219,-0.43116823,-0.080507785,-0.045065425,0.49,0.85,-0.26,10158,10028.40,0,0,165,-25.48,-5.95,-3.71,0.49,0.85,-0.26
-0.79296875,-0.41416824,-0.1445078,-0.0020654276,0.48,0.84,-0.25,10173,10027.00,0,0,0,-24.29,-10.43,-0.70,0.48,0.84,-0.25
-0.79296875,-0.3701682,-0.16450779,-0.008065429,0.5,0.83,-0.25,10181,10027.00,0,0,165,-21.21,-11.83,-1.12,0.50,0.83,-0.25
0.30664062,-0.25116822,-0.117507786,-0.04806543,0.52,0.82,-0.24,10195,10028.10,0,0,0,-12.88,-8.54,-3.92,0.52,0.82,-0.24
1.3066406,-0.17616823,-0.07450779,-0.06906543,0.51,0.84,-0.24,10211,10029.10,0,0,165,-7.63,-5.53,-5.39,0.51,0.84,-0.24
0.30664062,-0.10916823,-0.034507785,-0.04706543,0.5,0.83,-0.25,10218,10028.10,0,0,0,-2.94,-2.73,-3.85,0.50,0.83,-0.25
0.30664062,-0.05316823,0.015492214,-0.04706543,0.5,0.8,-0.24,10233,10028.10,0,0,165,0.98,0.77,-3.85,0.50,0.80,-0.24
2.3066406,-0.054168228,0.028492212,-0.06606543,0.5,0.82,-0.23,10248,10030.10,0,0,0,0.91,1.68,-5.18,0.50,0.82,-0.23
-0.79296875,-0.07416823,0.016492214,-0.039065428,0.51,0.83,-0.23,10256,10027.00,0,0,165,-0.49,0.84,-3.29,0.51,0.83,-0.23
0.30664062,-0.06716823,0.023492215,-0.06506543,0.49,0.83,-0.24,10270,10028.10,0,0,0,0.00,1.33,-5.11,0.49,0.83,-0.24
0.30664062,-0.03816823,0.022492213,-0.06606543,0.49,0.81,-0.24,10286,10028.10,0,0,165,2.03,1.26,-5.18,0.49,0.81,-0.24
0.30664062,-0.01616823,0.019492215,-0.08006543,0.49,0.83,-0.23,10293,10028.10,0,0,0,3.57,1.05,-6.16,0.49,0.83,-0.23
0.30664062,-0.04616823,0.008492215,-0.049065426,0.5,0.85,-0.23,10309,10028.10,0,0,165,1.47,0.28,-3.99,0.50,0.85,-0.23
0.30664062,-0.06816823,0.011492215,0.025934571,0.5,0.84,-0.24,10323,10028.10,0,0,0,-0.07,0.49,1.26,0.50,0.84,-0.24
0.30664062,-0.041168228,0.0014922146,0.10093457,0.55,0.85,-0.24,10336,10028.10,0,0,165,1.82,-0.21,6.51,0.55,0.85,-0.24
0.30664062,0.021831773,0.048492216,0.13193458,0.45,0.86,-0.22,10354,10028.10,0,0,0,6.23,3.08,8.68,0.45,0.86,-0.22
0.30664062,-0.08616823,-0.0095077865,0.16393457,0.49,0.83,-0.22,10361,10028.10,0,0,165,-1.33,-0.98,10.92,0.49,0.83,-0.22
0.30664062,-0.11516823,-0.017507786,0.094934575,0.5,0.83,-0.22,10372,10028.10,0,0,0,-3.36,-1.54,6.09,0.50,0.83,-0.22
1.3066406,-0.15016823,-0.012507787,0.07393457,0.5,0.85,-0.24,10383,10029.10,0,0,165,-5.81,-1.19,4.62,0.50,0.85,-0.24
1.3066406,-0.16216823,0.011492215,0.07793457,0.51,0.83,-0.24,10403,10029.10,0,0,0,-6.65,0.49,4.90,0.51,0.83,-0.24
-1.0927734,-0.13916823,0.060492218,0.039934576,0.5,0.82,-0.23,10406,10026.70,0,0,165,-5.04,3.92,2.24,0.50,0.82,-0.23
0.30664062,-0.13216823,0.07249222,-0.005065428,0.49,0.83,-0.23,10423,10028.10,0,0,0,-4.55,4.76,-0.91,0.49,0.83,-0.23
1.3066406,-0.16416824,0.060492218,-0.014065428,0.48,0.85,-0.22,10437,10029.10,0,0,165,-6.79,3.92,-1.54,0.48,0.85,-0.22
-0.39257812,-0.20616823,0.047492217,0.012934572,0.48,0.86,-0.22,10444,10027.40,0,0,0,-9.73,3.01,0.35,0.48,0.86,-0.22
1.3066406,-0.26216823,0.04249222,0.027934572,0.5,0.84,-0.22,10458,10029.10,0,0,165,-13.65,2.66,1.40,0.50,0.84,-0.22
1.3066406,-0.31316823,0.061492216,0.032934573,0.5,0.86,-0.21,10473,10029.10,0,0,0,-17.22,3.99,1.75,0.50,0.86,-0.21
0.30664062,-0.38616824,0.088492215,0.041934572,0.51,0.87,-0.2,10482,10028.10,0,0,165,-22.33,5.88,2.38,0.51,0.87,-0.20
0.30664062,-0.45216826,0.14049222,0.061934575,0.52,0.87,-0.19,10496,10028.10,0,0,0,-26.95,9.52,3.78,0.52,0.87,-0.19
0.30664062,-0.5461682,0.1964922,0.039934576,0.52,0.88,-0.19,10511,10028.10,0,0,165,-33.53,13.44,2.24,0.52,0.88,-0.19
-0.79296875,-0.6431682,0.24849221,-0.03206543,0.5,0.88,-0.21,10518,10027.00,0,0,0,-40.32,17.08,-2.80,0.50,0.88,-0.21
0.30664062,-0.6801682,0.29049224,-0.13306543,0.51,0.85,-0.21,10533,10028.10,0,0,165,-42.91,20.02,-9.87,0.51,0.85,-0.21
0.30664062,-0.5351682,0.3074922,-0.19906543,0.48,0.83,-0.18,10548,10028.10,0,0,0,-32.76,21.21,-14.49,0.48,0.83,-0.18
-0.79296875,-0.36616823,0.2694922,-0.22506543,0.46,0.85,-0.17,10555,10027.00,0,0,165,-20.93,18.55,-16.31,0.46,0.85,-0.17
0.30664062,-0.29516822,0.1924922,-0.15906543,0.47,0.89,-0.13,10578,10028.10,0,0,0,-15.96,13.16,-11.69,0.47,0.89,-0.13
0.30664062,-0.29516822,0.17349221,-0.10306543,0.49,0.91,-0.14,10586,10028.10,0,0,165,-15.96,11.83,-7.77,0.49,0.91,-0.14
0.30664062,-0.27016822,0.12949221,0.015934572,0.48,0.87,-0.13,10593,10028.10,0,0,0,-14.21,8.75,0.56,0.48,0.87,-0.13
0.30664062,-0.17716822,0.12549222,0.05493457,0.5,0.82,-0.14,10608,10028.10,0,0,165,-7.70,8.47,3.29,0.50,0.82,-0.14
1.3066406,-0.10216823,0.106492214,0.06693457,0.49,0.83,-0.14,10623,10029.10,0,0,0,-2.45,7.14,4.13,0.49,0.83,-0.14
-0.79296875,-0.13316822,0.06749222,0.046934575,0.5,0.82,-0.14,10631,10027.00,0,0,165,-4.62,4.41,2.73,0.50,0.82,-0.14
0.30664062,-0.15016823,0.037492216,-0.0030654278,0.5,0.82,-0.14,10646,10028.10,0,0,0,-5.81,2.31,-0.77,0.50,0.82,-0.14
-0.79296875,-0.21516824,0.011492215,-0.10006543,0.49,0.84,-0.14,10661,10027.00,0,0,165,-10.36,0.49,-7.56,0.49,0.84,-0.14
-0.79296875,-0.29616824,-0.038507786,-0.16106543,0.5,0.88,-0.14,10677,10027.00,0,0,0,-16.03,-3.01,-11.83,0.50,0.88,-0.14
0.30664062,-0.31116822,-0.06750778,-0.17806543,0.51,0.87,-0.13,10684,10028.10,0,0,165,-17.08,-5.04,-13.02,0.51,0.87,-0.13
0.30664062,-0.31716824,-0.095507786,-0.20106544,0.51,0.89,-0.12,10698,10028.10,0,0,0,-17.50,-7.00,-14.63,0.51,0.89,-0.12
0.30664062,-0.32116824,-0.07550778,-0.21806543,0.52,0.88,-0.12,10706,10028.10,0,0,165,-17.78,-5.60,-15.82,0.52,0.88,-0.12
0.30664062,-0.24916822,-0.03650778,-0.25406542,0.5,0.9,-0.11,10721,10028.10,0,0,0,-12.74,-2.87,-18.34,0.50,0.90,-0.11
0.30664062,-0.25516823,-0.028507786,-0.21206543,0.51,0.91,-0.13,10737,10028.10,0,0,165,-13.16,-2.31,-15.40,0.51,0.91,-0.13
1.3066406,-0.11716823,-0.003507786,-0.15806542,0.49,0.91,-0.12,10744,10029.10,0,0,0,-3.50,-0.56,-11.62,0.49,0.91,-0.12
0.30664062,-0.08316823,0.011492215,-0.11806543,0.49,0.88,-0.12,10758,10028.10,0,0,165,-1.12,0.49,-8.82,0.49,0.88,-0.12
1.6074219,-0.121168226,0.017492214,-0.12806544,0.48,0.87,-0.12,10773,10029.40,0,0,0,-3.78,0.91,-9.52,0.48,0.87,-0.12
-0.79296875,-0.19416824,0.019492215,-0.14306542,0.5,0.89,-0.11,10780,10027.00,0,0,165,-8.89,1.05,-10.57,0.50,0.89,-0.11
0.30664062,-0.35816824,0.050492216,-0.15306544,0.53,0.86,-0.19,10796,10028.10,0,0,0,-20.37,3.22,-11.27,0.53,0.86,-0.19
0.30664062,-0.46416825,0.11349222,-0.15906543,0.49,0.85,-0.12,10814,10028.10,0,0,165,-27.79,7.63,-11.69,0.49,0.85,-0.12
-0.79296875,-0.5471682,0.1354922,-0.18006542,0.46,0.85,-0.09,10818,10027.00,0,0,0,-33.60,9.17,-13.16,0.46,0.85,-0.09
0.30664062,-0.52116823,0.07549221,-0.13606542,0.48,0.92,-0.07,10833,10028.10,0,0,165,-31.78,4.97,-10.08,0.48,0.92,-0.07
-0.79296875,-0.7541682,0.043492217,0.11393457,0.48,0.98,-0.08,10848,10027.00,0,0,0,-48.09,2.73,7.42,0.48,0.98,-0.08
0.30664062,-1.0781682,0.020492215,0.3189346,0.45,0.93,-0.08,10856,10028.10,0,0,165,-70.77,1.12,21.77,0.45,0.93,-0.08
0.30664062,-1.1541681,-0.047507785,0.42693457,0.44,0.86,-0.07,10871,10028.10,0,0,0,-76.09,-3.64,29.33,0.44,0.86,-0.07
0.30664062,-1.1161683,-0.120507784,0.46093455,0.47,0.82,-0.02,10886,10028.10,0,0,165,-73.43,-8.75,31.71,0.47,0.82,-0.02
0.30664062,-1.3501682,-0.1445078,0.50093454,0.48,0.84,-0.06,10893,10028.10,0,0,0,-89.81,-10.43,34.51,0.48,0.84,-0.06
0.6074219,-1.6271682,-0.1255078,0.49393457,0.5,0.89,-0.06,10908,10028.40,0,0,165,-109.20,-9.10,34.02,0.50,0.89,-0.06
0.30664062,-1.9941683,-0.055507783,0.5389345,0.47,0.92,-0.05,10923,10028.10,0,0,0,-134.89,-4.20,37.17,0.47,0.92,-0.05
0.30664062,-2.0121682,-0.022507787,0.63893455,0.48,0.92,0.03,10930,10028.10,0,0,165,-136.15,-1.89,44.17,0.48,0.92,0.03
0.6074219,-1.7651682,0.049492218,0.7529346,0.47,0.84,0.11,10946,10028.40,0,0,0,-118.86,3.15,52.15,0.47,0.84,0.11
0.90722656,-1.5631683,0.099492215,0.81393456,0.48,0.85,0.09,10961,10028.70,0,0,165,-104.72,6.65,56.42,0.48,0.85,0.09
0.30664062,-1.3441682,0.21049221,0.7919346,0.5,0.84,0.07,10968,10028.10,0,0,0,-89.39,14.42,54.88,0.50,0.84,0.07
0.30664062,-0.82416826,0.2274922,0.8529346,0.51,0.81,0.1,10983,10028.10,0,0,165,-52.99,15.61,59.15,0.51,0.81,0.10
1.3066406,-0.36016825,0.23349223,0.98193455,0.38,0.8,0.14,11006,10029.10,0,0,0,-20.51,16.03,68.18,0.38,0.80,0.14
0.30664062,-0.70016825,0.2214922,1.2559346,0.55,0.81,0.11,11007,10028.10,0,0,165,-44.31,15.19,87.36,0.55,0.81,0.11
0.30664062,-1.2251682,0.27249223,1.1699345,0.59,0.74,0.15,11021,10028.10,0,0,0,-81.06,18.76,81.34,0.59,0.74,0.15
0.30664062,-0.87216824,0.12549222,1.0289346,0.66,0.74,0.18,11035,10028.10,0,0,165,-56.35,8.47,71.47,0.66,0.74,0.18
0.30664062,-0.88016826,0.10949221,0.85693455,0.64,0.71,0.2,11043,10028.10,0,0,0,-56.91,7.35,59.43,0.64,0.71,0.20
0.30664062,-0.98816824,0.10049221,0.7289346,0.61,0.75,0.21,11058,10028.10,0,0,165,-64.47,6.72,50.47,0.61,0.75,0.21
0.30664062,-0.8411682,0.066492215,0.6769346,0.61,0.78,0.22,11073,10028.10,0,0,0,-54.18,4.34,46.83,0.61,0.78,0.22
0.30664062,-0.66916823,-0.045507785,0.69993454,0.61,0.81,0.24,11081,10028.10,0,0,165,-42.14,-3.50,48.44,0.61,0.81,0.24
0.30664062,-0.7581682,-0.06750778,0.68593454,0.6,0.73,0.2,11096,10028.10,0,0,0,-48.37,-5.04,47.46,0.60,0.73,0.20
-0.39257812,-0.82516825,-0.047507785,0.61193454,0.6,0.69,0.18,11110,10027.40,0,0,165,-53.06,-3.64,42.28,0.60,0.69,0.18
0.30664062,-0.7981682,-0.020507786,0.49493456,0.65,0.7,0.22,11119,10028.10,0,0,0,-51.17,-1.75,34.09,0.65,0.70,0.22
0.30664062,-0.8051682,-0.056507785,0.45193458,0.65,0.71,0.23,11133,10028.10,0,0,165,-51.66,-4.27,31.08,0.65,0.71,0.23
0.30664062,-0.8741683,-0.16150779,0.47993457,0.66,0.7,0.19,11148,10028.10,0,0,0,-56.49,-11.62,33.04,0.66,0.70,0.19
-0.79296875,-0.8601682,-0.1385078,0.46793458,0.62,0.75,0.28,11156,10027.00,0,0,165,-55.51,-10.01,32.20,0.62,0.75,0.28
0.30664062,-0.9061682,-0.1515078,0.49893457,0.68,0.75,0.3,11185,10028.10,0,0,0,-58.73,-10.92,34.37,0.68,0.75,0.30
0.30664062,-0.9901683,-0.1675078,0.64693457,0.68,0.76,0.31,11187,10028.10,0,0,165,-64.61,-12.04,44.73,0.68,0.76,0.31
-0.79296875,-1.2541682,-0.1975078,0.78793454,0.66,0.75,0.34,11193,10027.00,0,0,0,-83.09,-14.14,54.60,0.66,0.75,0.34
0.30664062,-1.5561683,-0.19350779,1.0159346,0.67,0.75,0.28,11208,10028.10,0,0,165,-104.23,-13.86,70.56,0.67,0.75,0.28
1.3066406,-1.7521682,-0.2025078,1.0749346,0.71,0.71,0.31,11223,10029.10,0,0,0,-117.95,-14.49,74.69,0.71,0.71,0.31
0.30664062,-1.7521682,-0.24050778,1.0389346,0.71,0.62,0.32,11231,10028.10,0,0,165,-117.95,-17.15,72.17,0.71,0.62,0.32
0.6074219,-1.5801682,-0.3115078,0.95993453,0.73,0.56,0.31,11246,10028.40,0,0,0,-105.91,-22.12,66.64,0.73,0.56,0.31
0.30664062,-1.2811683,-0.34850776,0.8679346,0.74,0.55,0.33,11261,10028.10,0,0,165,-84.98,-24.71,60.20,0.74,0.55,0.33
-0.79296875,-1.0131682,-0.34450778,0.78693455,0.77,0.49,0.34,11268,10027.00,0,0,0,-66.22,-24.43,54.53,0.77,0.49,0.34
0.30664062,-0.77116823,-0.3175078,0.6769346,0.79,0.48,0.33,11283,10028.10,0,0,165,-49.28,-22.54,46.83,0.79,0.48,0.33
0.30664062,-0.5001682,-0.30450776,0.61193454,0.79,0.5,0.34,11298,10028.10,0,0,0,-30.31,-21.63,42.28,0.79,0.50,0.34
0.30664062,-0.35016823,-0.26350778,0.53793454,0.78,0.5,0.32,11306,10028.10,0,0,165,-19.81,-18.76,37.10,0.78,0.50,0.32
0.30664062,-0.21616822,-0.22450781,0.40493459,0.78,0.49,0.32,11321,10028.10,0,0,0,-10.43,-16.03,27.79,0.78,0.49,0.32
-0.39257812,-0.029168226,-0.21650779,0.32893455,0.77,0.51,0.32,11336,10027.40,0,0,165,2.66,-15.47,22.47,0.77,0.51,0.32
-0.79296875,0.09283177,-0.28350776,0.33993456,0.76,0.53,0.33,11344,10027.00,0,0,0,11.20,-20.16,23.24,0.76,0.53,0.33
0.30664062,0.020831771,-0.27150777,0.43793458,0.74,0.5,0.31,11358,10028.10,0,0,165,6.16,-19.32,30.10,0.74,0.50,0.31
0.30664062,-0.029168226,-0.29850775,0.44193456,0.76,0.54,0.32,11373,10028.10,0,0,0,2.66,-21.21,30.38,0.76,0.54,0.32
-0.39257812,-0.04316823,-0.34550777,0.5169346,0.77,0.52,0.32,11381,10027.40,0,0,165,1.68,-24.50,35.63,0.77,0.52,0.32
0.30664062,-0.12416823,-0.40750778,0.56093454,0.77,0.48,0.32,11396,10028.10,0,0,0,-3.99,-28.84,38.71,0.77,0.48,0.32
0.6074219,-0.23416823,-0.47550777,0.60993457,0.78,0.5,0.33,11411,10028.40,0,0,165,-11.69,-33.60,42.14,0.78,0.50,0.33
0.30664062,-0.45416823,-0.6155078,0.74493456,0.81,0.52,0.33,11418,10028.10,0,0,0,-27.09,-43.40,51.59,0.81,0.52,0.33
0.30664062,-0.6191682,-0.59850776,0.8529346,0.83,0.5,0.34,11434,10028.10,0,0,165,-38.64,-42.21,59.15,0.83,0.50,0.34
-0.79296875,-0.73616827,-0.50650775,0.82493454,0.84,0.48,0.33,11448,10027.00,0,0,0,-46.83,-35.77,57.19,0.84,0.48,0.33
0.30664062,-0.77816826,-0.2955078,0.6699346,0.86,0.44,0.33,11456,10028.10,0,0,165,-49.77,-21.00,46.34,0.86,0.44,0.33
-0.79296875,-0.80816823,-0.2265078,0.5199346,0.87,0.44,0.35,11471,10027.00,0,0,0,-51.87,-16.17,35.84,0.87,0.44,0.35
0.6074219,-0.90016824,-0.1805078,0.5209346,0.88,0.45,0.33,11486,10028.40,0,0,165,-58.31,-12.95,35.91,0.88,0.45,0.33
-0.79296875,-0.97716826,-0.1725078,0.5519346,0.86,0.4,0.33,11493,10027.00,0,0,0,-63.70,-12.39,38.08,0.86,0.40,0.33
-0.79296875,-1.1431682,-0.17050779,0.5519346,0.84,0.38,0.33,11508,10027.00,0,0,165,-75.32,-12.25,38.08,0.84,0.38,0.33
0.30664062,-1.0391682,-0.25950778,0.010934572,0.77,0.5,0.49,11526,10028.10,0,0,0,-68.04,-18.48,0.21,0.77,0.50,0.49
0.30664062,-1.3981682,-0.32250777,0.29593456,0.83,0.38,0.3,11530,10028.10,0,0,165,-93.17,-22.89,20.16,0.83,0.38,0.30
0.30664062,-0.5001682,-0.2815078,0.22093457,0.95,0.4,0.3,11546,10028.10,0,0,0,-30.31,-20.02,14.91,0.95,0.40,0.30
0.30664062,-0.31616822,-0.27650777,0.19393457,0.89,0.33,0.32,11561,10028.10,0,0,165,-17.43,-19.67,13.02,0.89,0.33,0.32
0.30664062,-0.17616823,-0.2475078,0.11793457,0.93,0.33,0.34,11568,10028.10,0,0,0,-7.63,-17.64,7.70,0.93,0.33,0.34
0.30664062,-0.06716823,-0.21550779,0.025934571,0.91,0.36,0.35,11583,10028.10,0,0,165,0.00,-15.40,1.26,0.91,0.36,0.35
-0.79296875,-0.0061682276,-0.1805078,0.008934572,0.9,0.39,0.35,11598,10027.00,0,0,0,4.27,-12.95,0.07,0.90,0.39,0.35
0.30664062,0.08683177,-0.17650779,0.0099345725,0.88,0.38,0.33,11607,10028.10,0,0,165,10.78,-12.67,0.14,0.88,0.38,0.33
-0.09277344,0.15483177,-0.12350779,-0.018065428,0.87,0.38,0.33,11621,10027.70,0,0,0,15.54,-8.96,-1.82,0.87,0.38,0.33
-0.79296875,0.20083177,-0.09450778,-0.07006543,0.86,0.4,0.34,11636,10027.00,0,0,165,18.76,-6.93,-5.46,0.86,0.40,0.34
-1.0927734,0.19983178,-0.12750779,-0.09606543,0.87,0.4,0.33,11644,10026.70,0,0,0,18.69,-9.24,-7.28,0.87,0.40,0.33
0.30664062,0.19283178,-0.1675078,-0.08806542,0.86,0.38,0.31,11658,10028.10,0,0,165,18.20,-12.04,-6.72,0.86,0.38,0.31
0.30664062,0.17183176,-0.1735078,-0.08106543,0.88,0.39,0.31,11673,10028.10,0,0,0,16.73,-12.46,-6.23,0.88,0.39,0.31
0.30664062,0.20583177,-0.1505078,-0.09806543,0.88,0.38,0.31,11680,10028.10,0,0,165,19.11,-10.85,-7.42,0.88,0.38,0.31
0.30664062,0.30483177,-0.1295078,-0.15806542,0.89,0.39,0.32,11696,10028.10,0,0,0,26.04,-9.38,-11.62,0.89,0.39,0.32
0.30664062,0.33783177,-0.12750779,-0.21606544,0.9,0.39,0.34,11716,10028.10,0,0,165,28.35,-9.24,-15.68,0.90,0.39,0.34
0.30664062,0.38083178,-0.110507786,-0.2510654,0.91,0.4,0.31,11734,10028.10,0,0,0,31.36,-8.05,-18.13,0.91,0.40,0.31
0.30664062,0.46983176,-0.098507784,-0.25606543,0.9,0.42,0.32,11735,10028.10,0,0,165,37.59,-7.21,-18.48,0.90,0.42,0.32
0.30664062,0.48783177,-0.095507786,-0.25706542,0.89,0.42,0.3,11751,10028.10,0,0,0,38.85,-7.00,-18.55,0.89,0.42,0.30
0.6074219,0.54583174,-0.106507786,-0.27506542,0.9,0.43,0.31,11756,10028.40,0,0,165,42.91,-7.77,-19.81,0.90,0.43,0.31
-0.79296875,0.61083174,-0.11950779,-0.2950654,0.9,0.44,0.31,11771,10027.00,0,0,0,47.46,-8.68,-21.21,0.90,0.44,0.31
-0.79296875,0.59583175,-0.11450778,-0.2690654,0.86,0.46,0.29,11796,10027.00,0,0,165,46.41,-8.33,-19.39,0.86,0.46,0.29
-0.79296875,0.52183175,-0.095507786,-0.23006542,0.83,0.44,0.27,11796,10027.00,0,0,0,41.23,-7.00,-16.66,0.83,0.44,0.27
0.30664062,0.49383175,-0.058507785,-0.21206543,0.85,0.45,0.25,11808,10028.10,0,0,165,39.27,-4.41,-15.40,0.85,0.45,0.25
0.30664062,0.48483175,-0.016507786,-0.21706542,0.86,0.45,0.26,11824,10028.10,0,0,0,38.64,-1.47,-15.75,0.86,0.45,0.26
0.30664062,0.49783176,0.028492212,-0.27106544,0.88,0.41,0.23,11831,10028.10,0,0,165,39.55,1.68,-19.53,0.88,0.41,0.23
1.3066406,0.58983177,0.12449221,-0.39706543,0.88,0.39,0.22,11846,10029.10,0,0,0,45.99,8.40,-28.35,0.88,0.39,0.22
0.30664062,0.6768318,0.2024922,-0.57906544,0.87,0.38,0.22,11861,10028.10,0,0,165,52.08,13.86,-41.09,0.87,0.38,0.22
0.30664062,0.76183176,0.22049221,-0.7600654,0.86,0.43,0.23,11868,10028.10,0,0,0,58.03,15.12,-53.76,0.86,0.43,0.23
-0.79296875,0.84683174,0.2304922,-0.89306545,0.83,0.43,0.21,11883,10027.00,0,0,165,63.98,15.82,-63.07,0.83,0.43,0.21
0.30664062,0.90583175,0.22549221,-1.0050654,0.81,0.47,0.2,11898,10028.10,0,0,0,68.11,15.47,-70.91,0.81,0.47,0.20
0.30664062,0.96783173,0.2274922,-0.9970654,0.8,0.55,0.21,11906,10028.10,0,0,165,72.45,15.61,-70.35,0.80,0.55,0.21
0.30664062,0.92883176,0.1834922,-0.8860655,0.78,0.58,0.2,11921,10028.10,0,0,0,69.72,12.53,-62.58,0.78,0.58,0.20
-0.79296875,0.9258318,0.15949221,-0.74906546,0.77,0.58,0.22,11935,10027.00,0,0,165,69.51,10.85,-52.99,0.77,0.58,0.22
0.30664062,0.7408318,0.13049221,-0.6680654,0.76,0.61,0.21,11943,10028.10,0,0,0,56.56,8.82,-47.32,0.76,0.61,0.21
-0.79296875,0.65683174,0.12049221,-0.57006544,0.77,0.62,0.21,11958,10027.00,0,0,165,50.68,8.12,-40.46,0.77,0.62,0.21
0.30664062,0.5918318,0.107492216,-0.49706542,0.77,0.62,0.21,11974,10028.10,0,0,0,46.13,7.21,-35.35,0.77,0.62,0.21
-0.79296875,0.47483176,0.077492215,-0.42706543,0.76,0.63,0.22,11981,10027.00,0,0,165,37.94,5.11,-30.45,0.76,0.63,0.22
0.30664062,0.30483177,0.038492218,-0.32806543,0.77,0.61,0.2,11996,10028.10,0,0,0,26.04,2.38,-23.52,0.77,0.61,0.20
1.3066406,0.20283175,0.032492217,-0.26106542,0.78,0.6,0.2,12011,10029.10,0,0,165,18.90,1.96,-18.83,0.78,0.60,0.20
0.30664062,0.09483177,0.046492215,-0.23806542,0.78,0.6,0.19,12018,10028.10,0,0,0,11.34,2.94,-17.22,0.78,0.60,0.19
0.30664062,0.020831771,0.048492216,-0.17806543,0.77,0.62,0.19,12034,10028.10,0,0,165,6.16,3.08,-13.02,0.77,0.62,0.19
0.30664062,-0.04316823,0.033492215,-0.08906543,0.78,0.6,0.18,12048,10028.10,0,0,0,1.68,2.03,-6.79,0.78,0.60,0.18
0.30664062,-0.05616823,0.037492216,-0.052065425,0.78,0.58,0.17,12056,10028.10,0,0,165,0.77,2.31,-4.20,0.78,0.58,0.17
1.3066406,-0.06716823,0.029492214,-0.02406543,0.78,0.59,0.17,12072,10029.10,0,0,0,0.00,1.75,-2.24,0.78,0.59,0.17
0.30664062,-0.09216823,0.061492216,-0.010065427,0.77,0.62,0.17,12086,10028.10,0,0,165,-1.75,3.99,-1.26,0.77,0.62,0.17
0.30664062,-0.19316822,0.11349222,-0.02406543,0.77,0.61,0.19,12094,10028.10,0,0,0,-8.82,7.63,-2.24,0.77,0.61,0.19
0.30664062,-0.27416822,0.14449221,-6.5428205E-5,0.76,0.63,0.18,12109,10028.10,0,0,165,-14.49,9.80,-0.56,0.76,0.63,0.18
1.3066406,-0.35816824,0.1574922,0.08193457,0.77,0.64,0.2,12124,10029.10,0,0,0,-20.37,10.71,5.18,0.77,0.64,0.20
-0.79296875,-0.42116824,0.1704922,0.17493457,0.77,0.63,0.2,12139,10027.00,0,0,165,-24.78,11.62,11.69,0.77,0.63,0.20
1.3066406,-0.48516825,0.18749222,0.21493457,0.77,0.62,0.22,12146,10029.10,0,0,0,-29.26,12.81,14.49,0.77,0.62,0.22
-0.79296875,-0.5361682,0.15649222,0.21993457,0.78,0.63,0.23,12161,10027.00,0,0,165,-32.83,10.64,14.84,0.78,0.63,0.23
-0.79296875,-0.5221682,0.1434922,0.23693459,0.77,0.64,0.25,12168,10027.00,0,0,0,-31.85,9.73,16.03,0.77,0.64,0.25
0.6074219,-0.5271682,0.15349221,0.25793457,0.78,0.64,0.27,12183,10028.40,0,0,165,-32.20,10.43,17.50,0.78,0.64,0.27
0.30664062,-0.5601682,0.1494922,0.31293458,0.79,0.63,0.27,12198,10028.10,0,0,0,-34.51,10.15,21.35,0.79,0.63,0.27
-0.79296875,-0.6011683,0.16649221,0.34293458,0.8,0.59,0.27,12206,10027.00,0,0,165,-37.38,11.34,23.45,0.80,0.59,0.27
0.30664062,-0.62616825,0.2364922,0.32793456,0.8,0.56,0.27,12221,10028.10,0,0,0,-39.13,16.24,22.40,0.80,0.56,0.27
0.30664062,-0.68716824,0.26749223,0.28893456,0.79,0.54,0.28,12236,10028.10,0,0,165,-43.40,18.41,19.67,0.79,0.54,0.28
0.30664062,-0.7351682,0.30449224,0.23393457,0.8,0.53,0.28,12243,10028.10,0,0,0,-46.76,21.00,15.82,0.80,0.53,0.28
0.30664062,-0.7491683,0.33049223,0.20793457,0.81,0.53,0.3,12259,10028.10,0,0,165,-47.74,22.82,14.00,0.81,0.53,0.30
0.30664062,-0.75116825,0.34549224,0.23193458,0.8,0.56,0.31,12273,10028.10,0,0,0,-47.88,23.87,15.68,0.80,0.56,0.31
0.30664062,-0.7821682,0.32749224,0.32093456,0.79,0.54,0.31,12281,10028.10,0,0,165,-50.05,22.61,21.91,0.79,0.54,0.31
0.30664062,-0.77516824,0.31549224,0.30593458,0.8,0.53,0.33,12304,10028.10,0,0,0,-49.56,21.77,20.86,0.80,0.53,0.33
0.30664062,-0.75016826,0.31149223,0.27193457,0.81,0.51,0.34,12311,10028.10,0,0,165,-47.81,21.49,18.48,0.81,0.51,0.34
0.30664062,-0.61316824,0.30849224,0.2559346,0.8,0.53,0.35,12318,10028.10,0,0,0,-38.22,21.28,17.36,0.80,0.53,0.35
0.30664062,-0.58816826,0.28249222,0.26593456,0.78,0.52,0.34,12333,10028.10,0,0,165,-36.47,19.46,18.06,0.78,0.52,0.34
1.3066406,-0.5701682,0.2994922,0.25293458,0.79,0.49,0.37,12349,10029.10,0,0,0,-35.21,20.65,17.15,0.79,0.49,0.37
0.30664062,-0.52116823,0.27049223,0.22293457,0.79,0.51,0.36,12356,10028.10,0,0,165,-31.78,18.62,15.05,0.79,0.51,0.36
1.3066406,-0.47316822,0.2444922,0.21193457,0.79,0.51,0.38,12371,10029.10,0,0,0,-28.42,16.80,14.28,0.79,0.51,0.38
0.30664062,-0.44716823,0.23549221,0.20393458,0.8,0.5,0.38,12386,10028.10,0,0,165,-26.60,16.17,13.72,0.80,0.50,0.38
0.30664062,-0.44916824,0.23949222,0.20893456,0.8,0.5,0.4,12393,10028.10,0,0,0,-26.74,16.45,14.07,0.80,0.50,0.40
0.30664062,-0.47716823,0.2424922,0.21093456,0.78,0.51,0.39,12408,10028.10,0,0,165,-28.70,16.66,14.21,0.78,0.51,0.39
0.30664062,-0.48516825,0.22549221,0.24893458,0.79,0.49,0.4,12423,10028.10,0,0,0,-29.26,15.47,16.87,0.79,0.49,0.40
-0.79296875,-0.48716822,0.21349221,0.2679346,0.79,0.49,0.41,12431,10027.00,0,0,165,-29.40,14.63,18.20,0.79,0.49,0.41
1.3066406,-0.5311682,0.2184922,0.29593456,0.77,0.49,0.41,12446,10029.10,0,0,0,-32.48,14.98,20.16,0.77,0.49,0.41
-0.79296875,-0.5831682,0.2244922,0.29993457,0.79,0.46,0.4,12460,10027.00,0,0,165,-36.12,15.40,20.44,0.79,0.46,0.40
0.30664062,-0.55816823,0.2144922,0.28693458,0.78,0.47,0.42,12468,10028.10,0,0,0,-34.37,14.70,19.53,0.78,0.47,0.42
0.30664062,-0.57916826,0.18749222,0.30593458,0.78,0.48,0.44,12484,10028.10,0,0,165,-35.84,12.81,20.86,0.78,0.48,0.44
1.3066406,-0.63916826,0.13749221,0.33993456,0.78,0.47,0.45,12498,10029.10,0,0,0,-40.04,9.31,23.24,0.78,0.47,0.45
0.30664062,-0.65516824,0.12249222,0.37493458,0.79,0.45,0.44,12506,10028.10,0,0,165,-41.16,8.26,25.69,0.79,0.45,0.44
0.30664062,-0.58016825,0.110492215,0.35893455,0.79,0.44,0.45,12520,10028.10,0,0,0,-35.91,7.42,24.57,0.79,0.44,0.45
0.30664062,-0.5091682,0.12149221,0.31993458,0.79,0.42,0.46,12535,10028.10,0,0,165,-30.94,8.19,21.84,0.79,0.42,0.46
1.3066406,-0.45716822,0.1424922,0.22193456,0.79,0.42,0.44,12543,10029.10,0,0,0,-27.30,9.66,14.98,0.79,0.42,0.44
0.30664062,-0.40816826,0.15849221,0.14893457,0.78,0.39,0.45,12559,10028.10,0,0,165,-23.87,10.78,9.87,0.78,0.39,0.45
0.30664062,-0.38616824,0.16249222,0.083934575,0.79,0.4,0.43,12573,10028.10,0,0,0,-22.33,11.06,5.32,0.79,0.40,0.43
0.30664062,-0.36416826,0.2214922,0.04393457,0.8,0.38,0.45,12580,10028.10,0,0,165,-20.79,15.19,2.52,0.80,0.38,0.45
0.30664062,-0.37416825,0.3064922,-0.04406543,0.8,0.39,0.48,12596,10028.10,0,0,0,-21.49,21.14,-3.64,0.80,0.39,0.48
0.30664062,-0.36516824,0.32649225,-0.06606543,0.8,0.41,0.48,12610,10028.10,0,0,165,-20.86,22.54,-5.18,0.80,0.41,0.48
-0.79296875,-0.42816824,0.33349222,-0.06206543,0.79,0.42,0.49,12618,10027.00,0,0,0,-25.27,23.03,-4.90,0.79,0.42,0.49
-0.79296875,-0.45716822,0.32849222,-0.040065423,0.81,0.41,0.51,12641,10027.00,0,0,165,-27.30,22.68,-3.36,0.81,0.41,0.51
0.6074219,-0.45416823,0.29849222,-0.018065428,0.8,0.44,0.54,12648,10028.40,0,0,0,-27.09,20.58,-1.82,0.80,0.44,0.54
0.30664062,-0.5041682,0.30349222,-0.014065428,0.79,0.42,0.52,12656,10028.10,0,0,165,-30.59,20.93,-1.54,0.79,0.42,0.52
0.30664062,-0.5601682,0.32649225,-0.022065427,0.78,0.41,0.51,12671,10028.10,0,0,0,-34.51,22.54,-2.10,0.78,0.41,0.51
-0.79296875,-0.5631682,0.3364922,-0.017065428,0.79,0.4,0.52,12686,10027.00,0,0,165,-34.72,23.24,-1.75,0.79,0.40,0.52
0.30664062,-0.5061682,0.33149222,-0.010065427,0.79,0.38,0.51,12693,10028.10,0,0,0,-30.73,22.89,-1.26,0.79,0.38,0.51
-0.79296875,-0.43816823,0.3504922,0.008934572,0.78,0.38,0.52,12707,10027.00,0,0,165,-25.97,24.22,0.07,0.78,0.38,0.52
0.30664062,-0.41916823,0.35349223,-0.009065429,0.75,0.36,0.53,12723,10028.10,0,0,0,-24.64,24.43,-1.19,0.75,0.36,0.53
0.30664062,-0.46816823,0.36149222,0.020934572,0.77,0.38,0.54,12731,10028.10,0,0,165,-28.07,24.99,0.91,0.77,0.38,0.54
0.30664062,-0.46716824,0.3574922,0.064934574,0.77,0.39,0.56,12746,10028.10,0,0,0,-28.00,24.71,3.99,0.77,0.39,0.56
-0.79296875,-0.5041682,0.34749222,0.12093457,0.77,0.4,0.57,12760,10027.00,0,0,165,-30.59,24.01,7.91,0.77,0.40,0.57
0.30664062,-0.5541682,0.36149222,0.15593457,0.74,0.36,0.55,12768,10028.10,0,0,0,-34.09,24.99,10.36,0.74,0.36,0.55
0.30664062,-0.5561682,0.40049222,0.15693457,0.76,0.35,0.54,12783,10028.10,0,0,165,-34.23,27.72,10.43,0.76,0.35,0.54
0.30664062,-0.53016824,0.51249224,0.17893457,0.77,0.33,0.56,12806,10028.10,0,0,0,-32.41,35.56,11.97,0.77,0.33,0.56
0.30664062,-0.46616825,0.5804922,0.18193458,0.75,0.32,0.56,12807,10028.10,0,0,165,-27.93,40.32,12.18,0.75,0.32,0.56
0.30664062,-0.46616825,0.6254922,0.20093457,0.7,0.31,0.61,12820,10028.10,0,0,0,-27.93,43.47,13.51,0.70,0.31,0.61
0.30664062,-0.42316824,0.7104922,0.052934572,0.8,0.28,0.65,12837,10028.10,0,0,165,-24.92,49.42,3.15,0.80,0.28,0.65
0.30664062,-0.17616823,0.79049224,-0.02406543,0.71,0.33,0.67,12844,10028.10,0,0,0,-7.63,55.02,-2.24,0.71,0.33,0.67
0.30664062,-0.24316823,0.7684922,-0.03206543,0.69,0.32,0.66,12858,10028.10,0,0,165,-12.32,53.48,-2.80,0.69,0.32,0.66
0.30664062,-0.21616822,0.7174922,-0.08906543,0.69,0.3,0.66,12866,10028.10,0,0,0,-10.43,49.91,-6.79,0.69,0.30,0.66
0.30664062,-0.16116822,0.61949223,-0.16306543,0.68,0.3,0.67,12880,10028.10,0,0,165,-6.58,43.05,-11.97,0.68,0.30,0.67
0.30664062,-0.088168226,0.45349222,-0.18306543,0.68,0.34,0.69,12895,10028.10,0,0,0,-1.47,31.43,-13.37,0.68,0.34,0.69
-0.39257812,0.05283177,0.36149222,-0.14506543,0.7,0.31,0.65,12903,10027.40,0,0,165,8.40,24.99,-10.71,0.70,0.31,0.65
0.30664062,0.23683178,0.30949223,-0.15606542,0.68,0.32,0.68,12918,10028.10,0,0,0,21.28,21.35,-11.48,0.68,0.32,0.68
0.30664062,0.30883175,0.2214922,-0.15106542,0.68,0.35,0.69,12933,10028.10,0,0,165,26.32,15.19,-11.13,0.68,0.35,0.69
0.30664062,-0.019168232,0.1464922,-0.12306543,0.69,0.51,0.6,12941,10028.10,0,0,0,3.36,9.94,-9.17,0.69,0.51,0.60
0.30664062,-0.04316823,0.19749221,-0.08306543,0.71,0.33,0.66,12956,10028.10,0,0,165,1.68,13.51,-6.37,0.71,0.33,0.66
-0.79296875,0.06883178,0.1684922,-0.22306544,0.66,0.34,0.7,12971,10027.00,0,0,0,9.52,11.48,-16.17,0.66,0.34,0.70
-0.79296875,0.013831772,0.107492216,-0.21306543,0.65,0.37,0.68,12978,10027.00,0,0,165,5.67,7.21,-15.47,0.65,0.37,0.68
1.3066406,-0.0061682276,0.06949222,-0.17206544,0.66,0.38,0.66,13004,10029.10,0,0,0,4.27,4.55,-12.60,0.66,0.38,0.66
-0.79296875,-0.028168228,0.06549221,-0.120065436,0.67,0.41,0.66,13012,10027.00,0,0,165,2.73,4.27,-8.96,0.67,0.41,0.66
0.30664062,-0.10216823,0.055492215,-0.074065425,0.66,0.32,0.62,13018,10028.10,0,0,0,-2.45,3.57,-5.74,0.66,0.32,0.62
0.30664062,-0.013168227,0.031492215,-0.119065434,0.67,0.32,0.64,13032,10028.10,0,0,165,3.78,1.89,-8.89,0.67,0.32,0.64
1.3066406,-0.010168228,-0.012507787,-0.08506543,0.64,0.37,0.67,13046,10029.10,0,0,0,3.99,-1.19,-6.51,0.64,0.37,0.67
-0.39257812,0.009831771,-0.061507784,-0.07706543,0.63,0.33,0.69,13053,10027.40,0,0,165,5.39,-4.62,-5.95,0.63,0.33,0.69
0.30664062,0.018831775,-0.09750778,-0.090065435,0.65,0.36,0.63,13068,10028.10,0,0,0,6.02,-7.14,-6.86,0.65,0.36,0.63
0.30664062,-0.04316823,-0.073507786,-0.052065425,0.65,0.39,0.65,13083,10028.10,0,0,165,1.68,-5.46,-4.20,0.65,0.39,0.65
0.30664062,-0.13516822,-0.06850778,0.026934573,0.66,0.36,0.66,13090,10028.10,0,0,0,-4.76,-5.11,1.33,0.66,0.36,0.66
0.30664062,-0.08716823,-0.003507786,-0.03706543,0.67,0.33,0.63,13105,10028.10,0,0,165,-1.40,-0.56,-3.15,0.67,0.33,0.63
-0.79296875,-0.12316823,0.070492215,-0.07806543,0.67,0.39,0.65,13120,10027.00,0,0,0,-3.92,4.62,-6.02,0.67,0.39,0.65
-0.79296875,-0.12616822,0.106492214,-0.08306543,0.67,0.37,0.65,13127,10027.00,0,0,165,-4.13,7.14,-6.37,0.67,0.37,0.65
1.3066406,-0.120168224,0.1854922,-0.063065425,0.68,0.38,0.66,13143,10029.10,0,0,0,-3.71,12.67,-4.97,0.68,0.38,0.66
0.30664062,-0.07816823,0.1854922,-0.08906543,0.66,0.39,0.69,13158,10028.10,0,0,165,-0.77,12.67,-6.79,0.66,0.39,0.69
1.6074219,-0.16316822,0.15349221,-0.061065428,0.65,0.41,0.71,13165,10029.40,0,0,0,-6.72,10.43,-4.83,0.65,0.41,0.71
0.30664062,-0.21816823,0.1434922,-0.027065428,0.65,0.4,0.71,13181,10028.10,0,0,165,-10.57,9.73,-2.45,0.65,0.40,0.71
0.30664062,-0.24616823,0.12049221,0.007934572,0.65,0.4,0.72,13195,10028.10,0,0,0,-12.53,8.12,0.00,0.65,0.40,0.72
0.30664062,-0.21116823,0.110492215,0.017934572,0.66,0.37,0.68,13203,10028.10,0,0,165,-10.08,7.42,0.70,0.66,0.37,0.68
0.30664062,-0.23716822,0.14049222,0.018934572,0.65,0.38,0.68,13218,10028.10,0,0,0,-11.90,9.52,0.77,0.65,0.38,0.68
0.30664062,-0.20716822,0.1394922,-0.0020654276,0.65,0.39,0.68,13233,10028.10,0,0,165,-9.80,9.45,-0.70,0.65,0.39,0.68
0.30664062,-0.25416824,0.12849222,0.03793457,0.66,0.39,0.7,13241,10028.10,0,0,0,-13.09,8.68,2.10,0.66,0.39,0.70
0.30664062,-0.30716822,0.08649221,0.06793457,0.65,0.41,0.71,13256,10028.10,0,0,165,-16.80,5.74,4.20,0.65,0.41,0.71
0.30664062,-0.40916824,0.054492217,0.14093457,0.62,0.39,0.72,13270,10028.10,0,0,0,-23.94,3.50,9.31,0.62,0.39,0.72
0.30664062,-0.44616824,0.017492214,0.15893456,0.65,0.23,0.64,13278,10028.10,0,0,165,-26.53,0.91,10.57,0.65,0.23,0.64
-0.79296875,-0.05716823,0.15349221,-0.06206543,0.61,0.38,0.72,13293,10027.00,0,0,0,0.70,10.43,-4.90,0.61,0.38,0.72
0.6074219,-0.121168226,0.08049222,-0.045065425,0.65,0.36,0.71,13308,10028.40,0,0,165,-3.78,5.32,-3.71,0.65,0.36,0.71
-0.79296875,-0.10516823,0.07849222,-0.03606543,0.66,0.34,0.69,13316,10027.00,0,0,0,-2.66,5.18,-3.08,0.66,0.34,0.69
0.30664062,-0.15916823,0.09849221,-0.028065426,0.65,0.39,0.71,13330,10028.10,0,0,165,-6.44,6.58,-2.52,0.65,0.39,0.71
0.6074219,-0.21916825,0.095492214,-0.05906543,0.63,0.37,0.71,13346,10028.40,0,0,0,-10.64,6.37,-4.69,0.63,0.37,0.71
0.30664062,-0.27116823,0.09449222,-0.02606543,0.64,0.36,0.7,13353,10028.10,0,0,165,-14.28,6.30,-2.38,0.64,0.36,0.70
0.30664062,-0.2591682,0.12349221,-0.03606543,0.64,0.33,0.7,13368,10028.10,0,0,0,-13.44,8.33,-3.08,0.64,0.33,0.70
0.6074219,-0.20616823,0.15449221,-0.05906543,0.64,0.33,0.7,13384,10028.40,0,0,165,-9.73,10.50,-4.69,0.64,0.33,0.70
-0.79296875,-0.19316822,0.16649221,-0.07706543,0.62,0.34,0.72,13391,10027.00,0,0,0,-8.82,11.34,-5.95,0.62,0.34,0.72
-0.79296875,-0.19216824,0.13849221,-0.10606543,0.6,0.32,0.7,13406,10027.00,0,0,165,-8.75,9.38,-7.98,0.60,0.32,0.70
1.6074219,-0.16916823,0.117492214,-0.079065435,0.61,0.33,0.73,13421,10029.40,0,0,0,-7.14,7.91,-6.09,0.61,0.33,0.73
0.30664062,-0.12916823,0.070492215,-0.057065435,0.61,0.33,0.73,13428,10028.10,0,0,165,-4.34,4.62,-4.55,0.61,0.33,0.73
0.30664062,-0.15816823,0.048492216,0.013934571,0.65,0.28,0.73,13443,10028.10,0,0,0,-6.37,3.08,0.42,0.65,0.28,0.73
0.30664062,-0.19516823,0.019492215,-0.009065429,0.63,0.49,0.74,13458,10028.10,0,0,165,-8.96,1.05,-1.19,0.63,0.49,0.74
0.30664062,-0.17116824,0.020492215,-0.04706543,0.61,0.3,0.72,13465,10028.10,0,0,0,-7.28,1.12,-3.85,0.61,0.30,0.72
0.30664062,-0.14816824,0.030492214,-0.068065435,0.62,0.34,0.72,13480,10028.10,0,0,165,-5.67,1.82,-5.32,0.62,0.34,0.72
0.30664062,-0.12816823,0.063492216,-0.07206543,0.67,0.4,0.73,13495,10028.10,0,0,0,-4.27,4.13,-5.60,0.67,0.40,0.73
0.6074219,-0.13516822,0.10249222,-0.08406543,0.62,0.35,0.74,13503,10028.40,0,0,165,-4.76,6.86,-6.44,0.62,0.35,0.74
0.30664062,-0.17016822,0.09049222,-0.10206543,0.61,0.36,0.74,13518,10028.10,0,0,0,-7.21,6.02,-7.70,0.61,0.36,0.74
0.30664062,-0.19516823,0.066492215,-0.07606543,0.61,0.34,0.74,13534,10028.10,0,0,165,-8.96,4.34,-5.88,0.61,0.34,0.74
0.30664062,-0.17816824,0.034492213,-0.019065429,0.61,0.33,0.74,13541,10028.10,0,0,0,-7.77,2.10,-1.89,0.61,0.33,0.74
1.3066406,-0.11616823,0.0014922146,-0.017065428,0.58,0.29,0.73,13556,10029.10,0,0,165,-3.43,-0.21,-1.75,0.58,0.29,0.73
0.30664062,-0.044168226,-0.040507786,-6.5428205E-5,0.6,0.32,0.76,13571,10028.10,0,0,0,1.61,-3.15,-0.56,0.60,0.32,0.76
-0.79296875,-0.091168225,-0.09450778,-0.021065427,0.59,0.33,0.76,13578,10027.00,0,0,165,-1.68,-6.93,-2.03,0.59,0.33,0.76
0.30664062,-0.09016823,-0.09750778,0.014934572,0.64,0.37,0.73,13593,10028.10,0,0,0,-1.61,-7.14,0.49,0.64,0.37,0.73
0.30664062,-0.035168227,-0.09450778,0.0099345725,0.62,0.31,0.74,13608,10028.10,0,0,165,2.24,-6.93,0.14,0.62,0.31,0.74
0.6074219,0.02783177,-0.061507784,-0.022065427,0.64,0.31,0.72,13615,10028.40,0,0,0,6.65,-4.62,-2.10,0.64,0.31,0.72
0.30664062,0.12983176,0.0024922143,-0.10406543,0.63,0.3,0.7,13630,10028.10,0,0,165,13.79,-0.14,-7.84,0.63,0.30,0.70
1.3066406,0.23283178,0.050492216,-0.21806543,0.63,0.3,0.71,13645,10029.10,0,0,0,21.00,3.22,-15.82,0.63,0.30,0.71
-0.39257812,0.23883176,0.060492218,-0.26406544,0.62,0.34,0.75,13653,10027.40,0,0,165,21.42,3.92,-19.04,0.62,0.34,0.75
0.30664062,0.17583176,-0.016507786,-0.25406542,0.59,0.39,0.79,13668,10028.10,0,0,0,17.01,-1.47,-18.34,0.59,0.39,0.79
0.30664062,0.09983177,-0.07950778,-0.21706542,0.58,0.38,0.78,13683,10028.10,0,0,165,11.69,-5.88,-15.75,0.58,0.38,0.78
-0.79296875,0.14883178,-0.095507786,-0.16906543,0.61,0.4,0.76,13690,10027.00,0,0,0,15.12,-7.00,-12.39,0.61,0.40,0.76
0.30664062,0.18283176,-0.110507786,-0.16406544,0.58,0.33,0.74,13706,10028.10,0,0,165,17.50,-8.05,-12.04,0.58,0.33,0.74
0.30664062,0.15283176,-0.13450779,-0.13806543,0.61,0.38,0.72,13721,10028.10,0,0,0,15.40,-9.73,-10.22,0.61,0.38,0.72
-0.79296875,0.12283177,-0.121507786,-0.08906543,0.62,0.37,0.72,13728,10027.00,0,0,165,13.30,-8.82,-6.79,0.62,0.37,0.72
0.6074219,0.115831785,-0.15450779,-0.08806542,0.62,0.38,0.72,13743,10028.40,0,0,0,12.81,-11.13,-6.72,0.62,0.38,0.72
-0.39257812,0.08483178,-0.16250779,-0.06206543,0.62,0.39,0.71,13758,10027.40,0,0,165,10.64,-11.69,-4.90,0.62,0.39,0.71
0.30664062,0.0048317686,-0.1505078,-0.025065428,0.62,0.4,0.71,13765,10028.10,0,0,0,5.04,-10.85,-2.31,0.62,0.40,0.71
0.30664062,-0.06016823,-0.15250778,-6.5428205E-5,0.63,0.4,0.7,13780,10028.10,0,0,165,0.49,-10.99,-0.56,0.63,0.40,0.70
-0.39257812,-0.05516823,-0.112507775,-0.035065427,0.61,0.39,0.71,13795,10027.40,0,0,0,0.84,-8.19,-3.01,0.61,0.39,0.71
-0.79296875,-0.08716823,-0.06650778,-0.04706543,0.62,0.38,0.71,13803,10027.00,0,0,165,-1.40,-4.97,-3.85,0.62,0.38,0.71
0.30664062,-0.20016822,-0.084507786,-0.016065426,0.62,0.38,0.72,13818,10028.10,0,0,0,-9.31,-6.23,-1.68,0.62,0.38,0.72
0.30664062,-0.18516824,-0.08850779,0.0019345726,0.62,0.37,0.71,13833,10028.10,0,0,165,-8.26,-6.51,-0.42,0.62,0.37,0.71
0.30664062,-0.08516823,-0.080507785,-0.022065427,0.63,0.38,0.69,13841,10028.10,0,0,0,-1.26,-5.95,-2.10,0.63,0.38,0.69
0.30664062,-0.10316823,-0.06850778,-0.015065428,0.62,0.4,0.7,13855,10028.10,0,0,165,-2.52,-5.11,-1.61,0.62,0.40,0.70
0.30664062,-0.106168225,-0.08550779,-0.053065427,0.61,0.39,0.7,13871,10028.10,0,0,0,-2.73,-6.30,-4.27,0.61,0.39,0.70
0.30664062,-0.13816822,-0.10350779,-0.022065427,0.65,0.43,0.69,13878,10028.10,0,0,165,-4.97,-7.56,-2.10,0.65,0.43,0.69
0.30664062,-0.20216823,-0.10850778,0.075934574,0.62,0.41,0.71,13901,10028.10,0,0,0,-9.45,-7.91,4.76,0.62,0.41,0.71
0.30664062,-0.23916823,-0.12750779,0.11393457,0.63,0.4,0.7,13908,10028.10,0,0,165,-12.04,-9.24,7.42,0.63,0.40,0.70
0.30664062,-0.19316822,-0.121507786,0.09093457,0.62,0.39,0.69,13915,10028.10,0,0,0,-8.82,-8.82,5.81,0.62,0.39,0.69
1.3066406,-0.20616823,-0.10050778,0.068934575,0.6,0.37,0.71,13930,10029.10,0,0,165,-9.73,-7.35,4.27,0.60,0.37,0.71
0.30664062,-0.19816822,-0.09150778,0.07993457,0.63,0.37,0.69,13946,10028.10,0,0,0,-9.17,-6.72,5.04,0.63,0.37,0.69
0.6074219,-0.20516822,-0.084507786,0.08893457,0.63,0.38,0.69,13954,10028.40,0,0,165,-9.66,-6.23,5.67,0.63,0.38,0.69
-0.79296875,-0.24116823,-0.08850779,0.12093457,0.62,0.36,0.71,13968,10027.00,0,0,0,-12.18,-6.51,7.91,0.62,0.36,0.71
0.30664062,-0.21316823,-0.10050778,0.10493457,0.63,0.37,0.71,13983,10028.10,0,0,165,-10.22,-7.35,6.79,0.63,0.37,0.71
0.30664062,-0.20916823,-0.121507786,0.06393457,0.6,0.29,0.69,13991,10028.10,0,0,0,-9.94,-8.82,3.92,0.60,0.29,0.69
0.30664062,0.008831777,-0.061507784,-0.027065428,0.65,0.34,0.68,14006,10028.10,0,0,165,5.32,-4.62,-2.45,0.65,0.34,0.68
0.30664062,0.093831785,-0.047507785,-0.08906543,0.61,0.35,0.72,14021,10028.10,0,0,0,11.27,-3.64,-6.79,0.61,0.35,0.72
0.6074219,0.16783178,-0.051507786,-0.10706543,0.62,0.36,0.71,14028,10028.40,0,0,165,16.45,-3.92,-8.05,0.62,0.36,0.71
1.3066406,0.18383175,-0.034507785,-0.10206543,0.62,0.39,0.72,14044,10029.10,0,0,0,17.57,-2.73,-7.70,0.62,0.39,0.72
-0.39257812,0.10983177,-0.06650778,-0.08606543,0.61,0.39,0.72,14058,10027.40,0,0,165,12.39,-4.97,-6.58,0.61,0.39,0.72
0.30664062,0.04583177,-0.10350779,-0.06406543,0.61,0.38,0.7,14066,10028.10,0,0,0,7.91,-7.56,-5.04,0.61,0.38,0.70
0.30664062,-0.011168227,-0.113507785,-0.031065429,0.63,0.39,0.69,14081,10028.10,0,0,165,3.92,-8.26,-2.73,0.63,0.39,0.69
0.6074219,-0.06616823,-0.084507786,0.007934572,0.63,0.38,0.69,14096,10028.40,0,0,0,0.07,-6.23,0.00,0.63,0.38,0.69
0.30664062,-0.12716822,-0.080507785,0.038934574,0.63,0.39,0.69,14103,10028.10,0,0,165,-4.20,-5.95,2.17,0.63,0.39,0.69
1.3066406,-0.11416823,-0.065507784,0.07993457,0.65,0.39,0.69,14118,10029.10,0,0,0,-3.29,-4.90,5.04,0.65,0.39,0.69
0.30664062,-0.13116823,-0.041507784,0.14693457,0.66,0.42,0.69,14133,10028.10,0,0,165,-4.48,-3.22,9.73,0.66,0.42,0.69
0.30664062,-0.15816823,-0.032507785,0.16493456,0.64,0.45,0.7,14141,10028.10,0,0,0,-6.37,-2.59,10.99,0.64,0.45,0.70
-0.39257812,-0.27116823,-0.042507783,0.21693458,0.63,0.38,0.7,14156,10027.40,0,0,165,-14.28,-3.29,14.63,0.63,0.38,0.70
-0.39257812,-0.35716823,-0.053507783,0.2559346,0.63,0.36,0.7,14171,10027.40,0,0,0,-20.30,-4.06,17.36,0.63,0.36,0.70
0.6074219,-0.39516822,-0.06850778,0.26393458,0.62,0.32,0.71,14178,10028.40,0,0,165,-22.96,-5.11,17.92,0.62,0.32,0.71
-0.79296875,-0.29416823,-0.08250779,0.16493456,0.62,0.32,0.69,14193,10027.00,0,0,0,-15.89,-6.09,10.99,0.62,0.32,0.69
-0.79296875,-0.29616824,-0.056507785,0.15193456,0.64,0.34,0.7,14209,10027.00,0,0,165,-16.03,-4.27,10.08,0.64,0.34,0.70
-0.79296875,-0.27816823,-0.037507784,0.11893457,0.64,0.3,0.7,14216,10027.00,0,0,0,-14.77,-2.94,7.77,0.64,0.30,0.70
0.6074219,-0.23516822,-0.008507786,0.10793457,0.65,0.31,0.7,14231,10028.40,0,0,165,-11.76,-0.91,7.00,0.65,0.31,0.70
-0.79296875,-0.22616822,0.017492214,0.13993457,0.66,0.37,0.7,14245,10027.00,0,0,0,-11.13,0.91,9.24,0.66,0.37,0.70
0.30664062,-0.36816823,0.037492216,0.26593456,0.65,0.38,0.71,14254,10028.10,0,0,165,-21.07,2.31,18.06,0.65,0.38,0.71
0.30664062,-0.44216824,0.032492217,0.3049346,0.63,0.33,0.73,14268,10028.10,0,0,0,-26.25,1.96,20.79,0.63,0.33,0.73
0.6074219,-0.46516824,0.034492213,0.29193455,0.64,0.31,0.72,14283,10028.40,0,0,165,-27.86,2.10,19.88,0.64,0.31,0.72
-0.79296875,-0.42616823,0.054492217,0.2749346,0.65,0.31,0.72,14290,10027.00,0,0,0,-25.13,3.50,18.69,0.65,0.31,0.72
0.30664062,-0.36016825,0.084492214,0.27093458,0.65,0.31,0.71,14305,10028.10,0,0,165,-20.51,5.60,18.41,0.65,0.31,0.71
0.30664062,-0.31716824,0.11249222,0.29093456,0.65,0.33,0.71,14321,10028.10,0,0,0,-17.50,7.56,19.81,0.65,0.33,0.71
0.6074219,-0.32916823,0.10949221,0.29093456,0.64,0.29,0.74,14328,10028.40,0,0,165,-18.34,7.35,19.81,0.64,0.29,0.74
0.30664062,-0.27416822,0.07849222,0.26293457,0.64,0.31,0.74,14343,10028.10,0,0,0,-14.49,5.18,17.85,0.64,0.31,0.74
0.6074219,-0.25116822,0.05349222,0.23293456,0.63,0.3,0.76,14358,10028.40,0,0,165,-12.88,3.43,15.75,0.63,0.30,0.76
-0.39257812,-0.22316822,0.039492216,0.17593457,0.63,0.28,0.77,14365,10027.40,0,0,0,-10.92,2.45,11.76,0.63,0.28,0.77
0.30664062,-0.21416822,0.0044922144,0.12293457,0.65,0.28,0.75,14381,10028.10,0,0,165,-10.29,0.00,8.05,0.65,0.28,0.75
-0.79296875,-0.30016822,-0.045507785,0.13093457,0.65,0.26,0.73,14396,10027.00,0,0,0,-16.31,-3.50,8.61,0.65,0.26,0.73
-0.79296875,-0.27316824,0.012492215,0.105934575,0.65,0.25,0.73,14403,10027.00,0,0,165,-14.42,0.56,6.86,0.65,0.25,0.73
0.30664062,-0.2681682,0.050492216,0.04393457,0.65,0.26,0.75,14417,10028.10,0,0,0,-14.07,3.22,2.52,0.65,0.26,0.75
0.30664062,-0.27316824,0.07849222,0.027934572,0.64,0.27,0.76,14432,10028.10,0,0,165,-14.42,5.18,1.40,0.64,0.27,0.76
1.6074219,-0.25816822,0.066492215,0.020934572,0.63,0.27,0.75,14441,10029.40,0,0,0,-13.37,4.34,0.91,0.63,0.27,0.75
0.30664062,-0.15216823,0.050492216,0.012934572,0.64,0.26,0.74,14456,10028.10,0,0,165,-5.95,3.22,0.35,0.64,0.26,0.74
0.30664062,-0.06416823,0.046492215,-0.012065427,0.64,0.26,0.73,14473,10028.10,0,0,0,0.21,2.94,-1.40,0.64,0.26,0.73
0.30664062,-0.06316823,0.034492213,-0.03006543,0.63,0.26,0.73,14478,10028.10,0,0,165,0.28,2.10,-2.66,0.63,0.26,0.73
1.3066406,-0.05616823,0.033492215,-0.063065425,0.64,0.27,0.69,14494,10029.10,0,0,0,0.77,2.03,-4.97,0.64,0.27,0.69
0.6074219,-0.29916823,-0.053507783,-0.017065428,0.57,0.35,0.82,14508,10028.40,0,0,165,-16.24,-4.06,-1.75,0.57,0.35,0.82
0.30664062,-0.19616821,-0.09750778,-0.049065426,0.65,0.26,0.7,14519,10028.10,0,0,0,-9.03,-7.14,-3.99,0.65,0.26,0.70
0.30664062,-0.16716823,-0.1815078,-0.042065427,0.62,0.27,0.71,14531,10028.10,0,0,165,-7.00,-13.02,-3.50,0.62,0.27,0.71
0.30664062,-0.23216823,-0.2265078,-0.0030654278,0.62,0.27,0.72,14546,10028.10,0,0,0,-11.55,-16.17,-0.77,0.62,0.27,0.72
-0.79296875,-0.29216823,-0.29750776,9.3457196E-4,0.63,0.27,0.69,14556,10027.00,0,0,165,-15.75,-21.14,-0.49,0.63,0.27,0.69
0.30664062,-0.43116823,-0.2105078,-0.05806543,0.68,0.22,0.69,14568,10028.10,0,0,0,-25.48,-15.05,-4.62,0.68,0.22,0.69
-0.79296875,-0.34016824,-0.11850778,-0.14606543,0.68,0.21,0.73,14583,10027.00,0,0,165,-19.11,-8.61,-10.78,0.68,0.21,0.73
0.6074219,-0.18516824,-0.03650778,-0.23206542,0.67,0.21,0.74,14591,10028.40,0,0,0,-8.26,-2.87,-16.80,0.67,0.21,0.74
0.30664062,-0.13616823,-5.077855E-4,-0.31106544,0.64,0.24,0.77,14605,10028.10,0,0,165,-4.83,-0.35,-22.33,0.64,0.24,0.77
1.6074219,-0.09716823,-0.032507785,-0.32206544,0.64,0.33,0.75,14620,10029.40,0,0,0,-2.10,-2.59,-23.10,0.64,0.33,0.75
0.30664062,-0.5481682,-0.03650778,-0.05906543,0.66,0.24,0.74,14628,10028.10,0,0,165,-33.67,-2.87,-4.69,0.66,0.24,0.74
-0.79296875,-0.21316823,-0.059507787,-0.19306542,0.66,0.12,0.7,14644,10027.00,0,0,0,-10.22,-4.48,-14.07,0.66,0.12,0.70
0.6074219,0.002831772,-0.013507785,-0.30006543,0.65,0.23,0.74,14658,10028.40,0,0,165,4.90,-1.26,-21.56,0.65,0.23,0.74
1.3066406,-0.17516823,-0.0025077858,-0.119065434,0.69,0.38,0.72,14666,10029.10,0,0,0,-7.56,-0.49,-8.89,0.69,0.38,0.72
0.30664062,0.13683176,0.014492214,-0.21106543,0.67,0.18,0.72,14680,10028.10,0,0,165,14.28,0.70,-15.33,0.67,0.18,0.72
-0.39257812,0.22183177,0.035492215,-0.19906543,0.67,0.32,0.73,14696,10027.40,0,0,0,20.23,2.17,-14.49,0.67,0.32,0.73
0.30664062,0.103831775,0.016492214,-0.17506544,0.63,0.28,0.75,14703,10028.10,0,0,165,11.97,0.84,-12.81,0.63,0.28,0.75
0.30664062,0.09283177,-0.026507787,-0.21706542,0.64,0.24,0.74,14718,10028.10,0,0,0,11.20,-2.17,-15.75,0.64,0.24,0.74
0.30664062,0.12983176,-0.039507784,-0.22806543,0.66,0.28,0.73,14733,10028.10,0,0,165,13.79,-3.08,-16.52,0.66,0.28,0.73
0.6074219,0.15183178,0.0014922146,-0.23506543,0.68,0.27,0.71,14742,10028.40,0,0,0,15.33,-0.21,-17.01,0.68,0.27,0.71
0.30664062,0.15883178,0.041492216,-0.23306544,0.65,0.27,0.73,14755,10028.10,0,0,165,15.82,2.59,-16.87,0.65,0.27,0.73
-0.79296875,0.19183174,0.048492216,-0.24306542,0.65,0.31,0.73,14778,10027.00,0,0,0,18.13,3.08,-17.57,0.65,0.31,0.73
0.30664062,0.17383179,0.06849222,-0.24506542,0.66,0.31,0.72,14780,10028.10,0,0,165,16.87,4.48,-17.71,0.66,0.31,0.72
0.6074219,0.17083177,0.07849222,-0.25306544,0.63,0.31,0.74,14793,10028.40,0,0,0,16.66,5.18,-18.27,0.63,0.31,0.74
0.6074219,0.14083177,0.030492214,-0.23006542,0.61,0.34,0.75,14808,10028.40,0,0,165,14.56,1.82,-16.66,0.61,0.34,0.75
1.3066406,0.025831774,-0.031507783,-0.17406543,0.61,0.35,0.73,14816,10029.10,0,0,0,6.51,-2.52,-12.74,0.61,0.35,0.73
-0.39257812,-0.040168226,-0.038507786,-0.12506543,0.62,0.33,0.71,14831,10027.40,0,0,165,1.89,-3.01,-9.31,0.62,0.33,0.71
0.30664062,-0.05616823,-0.025507785,-0.09606543,0.64,0.31,0.7,14846,10028.10,0,0,0,0.77,-2.10,-7.28,0.64,0.31,0.70
0.6074219,-0.044168226,-0.0065077855,-0.079065435,0.63,0.31,0.71,14853,10028.40,0,0,165,1.61,-0.77,-6.09,0.63,0.31,0.71
1.6074219,0.011831775,-0.029507788,-0.074065425,0.62,0.33,0.72,14872,10029.40,0,0,0,5.53,-2.38,-5.74,0.62,0.33,0.72
0.30664062,0.0058317706,-0.057507787,-0.050065428,0.62,0.33,0.72,14883,10028.10,0,0,165,5.11,-4.34,-4.06,0.62,0.33,0.72
0.30664062,-0.029168226,-0.07850778,-0.019065429,0.62,0.32,0.7,14891,10028.10,0,0,0,2.66,-5.81,-1.89,0.62,0.32,0.70
0.6074219,-0.022168227,-0.050507784,-0.0030654278,0.63,0.31,0.69,14905,10028.40,0,0,165,3.15,-3.85,-0.77,0.63,0.31,0.69
0.30664062,-0.00916823,-0.004507785,-0.010065427,0.62,0.3,0.7,14920,10028.10,0,0,0,4.06,-0.63,-1.26,0.62,0.30,0.70
0.30664062,-0.0041682273,0.010492214,-0.02406543,0.62,0.3,0.7,14928,10028.10,0,0,165,4.41,0.42,-2.24,0.62,0.30,0.70
0.6074219,0.007831775,0.04249222,-0.049065426,0.63,0.3,0.68,14943,10028.40,0,0,0,5.25,2.66,-3.99,0.63,0.30,0.68
0.6074219,0.029831775,0.09349222,-0.07106543,0.63,0.3,0.68,14958,10028.40,0,0,165,6.79,6.23,-5.53,0.63,0.30,0.68
0.30664062,0.073831774,0.106492214,-0.09506543,0.62,0.31,0.71,14966,10028.10,0,0,0,9.87,7.14,-7.21,0.62,0.31,0.71
0.30664062,0.09283177,0.096492216,-0.10306543,0.62,0.32,0.72,14981,10028.10,0,0,165,11.20,6.44,-7.77,0.62,0.32,0.72
0.30664062,0.12183177,0.088492215,-0.11006543,0.62,0.32,0.72,14996,10028.10,0,0,0,13.23,5.88,-8.26,0.62,0.32,0.72
0.6074219,0.13683176,0.09049222,-0.09706543,0.62,0.32,0.73,15003,10028.40,0,0,165,14.28,6.02,-7.35,0.62,0.32,0.73
0.30664062,0.18183178,0.073492214,-0.101065435,0.61,0.31,0.73,15019,10028.10,0,0,0,17.43,4.83,-7.63,0.61,0.31,0.73
0.30664062,0.24283177,0.062492214,-0.111065425,0.62,0.29,0.72,15033,10028.10,0,0,165,21.70,4.06,-8.33,0.62,0.29,0.72
0.30664062,0.36883178,0.054492217,-0.12806544,0.61,0.29,0.73,15041,10028.10,0,0,0,30.52,3.50,-9.52,0.61,0.29,0.73
1.3066406,0.4538318,0.018492214,-0.14806543,0.61,0.31,0.74,15057,10029.10,0,0,165,36.47,0.98,-10.92,0.61,0.31,0.74
1.3066406,0.37783176,-0.051507786,-0.15106542,0.64,0.43,0.79,15070,10029.10,0,0,0,31.15,-3.92,-11.13,0.64,0.43,0.79
0.6074219,0.20983174,-0.2135078,-0.03206543,0.63,0.37,0.77,15078,10028.40,0,0,165,19.39,-15.26,-2.80,0.63,0.37,0.77
0.30664062,0.29783174,-0.16350779,-0.034065425,0.65,0.28,0.74,15092,10028.10,0,0,0,25.55,-11.76,-2.94,0.65,0.28,0.74
0.30664062,0.50883174,-0.17750779,-0.11306544,0.62,0.3,0.76,15108,10028.10,0,0,165,40.32,-12.74,-8.47,0.62,0.30,0.76
0.6074219,0.69683176,-0.21850778,-0.21506542,0.59,0.26,0.76,15117,10028.40,0,0,0,53.48,-15.61,-15.61,0.59,0.26,0.76
1.3066406,1.0378318,-0.31350777,-0.34206542,0.56,0.32,0.75,15131,10029.10,0,0,165,77.35,-22.26,-24.50,0.56,0.32,0.75
0.30664062,1.2148317,-0.45950776,-0.4710654,0.6,0.29,0.72,15148,10028.10,0,0,0,89.74,-32.48,-33.53,0.60,0.29,0.72
1.6074219,1.4928317,-0.5545078,-0.68606544,0.58,0.25,0.66,15153,10029.40,0,0,165,109.20,-39.13,-48.58,0.58,0.25,0.66
0.6074219,1.9578319,-0.6545078,-0.8260654,0.59,0.38,0.64,15168,10028.40,0,0,0,141.75,-46.13,-58.38,0.59,0.38,0.64
0.30664062,1.8978318,-0.73350775,-0.77406543,0.6,0.49,0.67,15183,10028.10,0,0,165,137.55,-51.66,-54.74,0.60,0.49,0.67
0.30664062,1.6718318,-0.79250777,-0.6460654,0.6,0.58,0.6,15199,10028.10,0,0,0,121.73,-55.79,-45.78,0.60,0.58,0.60
1.6074219,1.3908317,-0.7935078,-0.25406542,0.57,0.81,0.6,15206,10029.40,0,0,165,102.06,-55.86,-18.34,0.57,0.81,0.60
-0.79296875,0.96783173,-0.7895078,0.28993458,0.59,0.79,0.55,15220,10027.00,0,0,0,72.45,-55.58,19.74,0.59,0.79,0.55
-0.39257812,0.69683176,-0.72450775,0.54093456,0.63,0.58,0.56,15232,10027.40,0,0,165,53.48,-51.03,37.31,0.63,0.58,0.56
1.6074219,0.61983174,-0.6625078,0.5059346,0.58,0.53,0.29,15250,10029.40,0,0,0,48.09,-46.69,34.86,0.58,0.53,0.29
0.30664062,-0.27016822,-0.43250778,0.6179346,0.69,0.87,0.28,15258,10028.10,0,0,165,-14.21,-30.59,42.70,0.69,0.87,0.28
-0.79296875,-0.89916825,-0.1735078,0.68693453,0.73,0.27,0.6,15265,10027.00,0,0,0,-58.24,-12.46,47.53,0.73,0.27,0.60
0.6074219,-0.77116823,-0.51250774,0.4369346,0.62,0.49,0.62,15280,10028.40,0,0,165,-49.28,-36.19,30.03,0.62,0.49,0.62
0.30664062,-0.7161682,-0.5165078,0.40193456,0.69,0.44,0.57,15296,10028.10,0,0,0,-45.43,-36.47,27.58,0.69,0.44,0.57
0.30664062,-0.61716825,-0.5155078,0.40193456,0.69,0.45,0.59,15304,10028.10,0,0,165,-38.50,-36.40,27.58,0.69,0.45,0.59
1.6074219,-0.3701682,-0.47150776,0.30893457,0.68,0.35,0.57,15322,10029.40,0,0,0,-21.21,-33.32,21.07,0.68,0.35,0.57
0.30664062,-0.20516822,-0.38650778,0.41493458,0.71,0.57,0.62,15333,10028.10,0,0,165,-9.66,-27.37,28.49,0.71,0.57,0.62
0.6074219,-0.34216824,-0.38950777,0.5539346,0.71,0.48,0.59,15340,10028.40,0,0,0,-19.25,-27.58,38.22,0.71,0.48,0.59
0.30664062,-0.40816826,-0.32150778,0.45893458,0.72,0.42,0.52,15356,10028.10,0,0,165,-23.87,-22.82,31.57,0.72,0.42,0.52
0.30664062,-0.20616823,-0.15550779,0.30193457,0.71,0.33,0.51,15371,10028.10,0,0,0,-9.73,-11.20,20.58,0.71,0.33,0.51
-0.39257812,-0.021168228,-0.008507786,0.11893457,0.78,0.5,0.52,15378,10027.40,0,0,165,3.22,-0.91,7.77,0.78,0.50,0.52
1.3066406,0.23183176,0.09149222,0.07193457,0.76,0.54,0.47,15393,10029.10,0,0,0,20.93,6.09,4.48,0.76,0.54,0.47
0.30664062,0.40183178,0.08649221,0.028934572,0.74,0.53,0.46,15414,10028.10,0,0,165,32.83,5.74,1.47,0.74,0.53,0.46
1.3066406,0.69183177,-0.024507785,-0.010065427,0.7,0.57,0.46,15430,10029.10,0,0,0,53.13,-2.03,-1.26,0.70,0.57,0.46
2.6074219,0.7918318,0.04249222,0.030934572,0.76,0.5,0.41,15432,10030.40,0,0,165,60.13,2.66,1.61,0.76,0.50,0.41
1.3066406,0.78083175,0.19149221,-0.04806543,0.74,0.51,0.41,15446,10029.10,0,0,0,59.36,13.09,-3.92,0.74,0.51,0.41
0.6074219,0.69683176,0.29449221,-0.13406542,0.69,0.53,0.45,15453,10028.40,0,0,165,53.48,20.30,-9.94,0.69,0.53,0.45
0.6074219,0.56783175,0.28349224,-0.21806543,0.69,0.59,0.45,15475,10028.40,0,0,0,44.45,19.53,-15.82,0.69,0.59,0.45
1.6074219,0.61383176,0.25249222,-0.27706543,0.74,0.59,0.49,15483,10029.40,0,0,165,47.67,17.36,-19.95,0.74,0.59,0.49
0.6074219,0.96083176,0.06549221,-0.26506543,0.72,0.62,0.5,15490,10028.40,0,0,0,71.96,4.27,-19.11,0.72,0.62,0.50
1.3066406,1.1498318,-0.021507787,-0.23506543,0.7,0.62,0.48,15513,10029.10,0,0,165,85.19,-1.82,-17.01,0.70,0.62,0.48
-0.79296875,1.3218318,-0.09450778,-0.20006543,0.68,0.65,0.49,15521,10027.00,0,0,0,97.23,-6.93,-14.56,0.68,0.65,0.49
1.6074219,1.4778318,-0.1295078,-0.12506543,0.65,0.67,0.5,15528,10029.40,0,0,165,108.15,-9.38,-9.31,0.65,0.67,0.50
1.3066406,1.4848318,-0.16850778,0.08493457,0.7,0.69,0.43,15543,10029.10,0,0,0,108.64,-12.11,5.39,0.70,0.69,0.43
0.30664062,1.3688318,-0.12350779,0.10093457,0.68,0.64,0.45,15558,10028.10,0,0,165,100.52,-8.96,6.51,0.68,0.64,0.45
0.30664062,1.1348318,-0.12350779,0.08893457,0.67,0.65,0.45,15566,10028.10,0,0,0,84.14,-8.96,5.67,0.67,0.65,0.45
0.30664062,0.71583176,-0.1445078,0.11593457,0.67,0.64,0.47,15580,10028.10,0,0,165,54.81,-10.43,7.56,0.67,0.64,0.47
0.30664062,0.27483177,-0.18350779,0.21693458,0.71,0.65,0.47,15596,10028.10,0,0,0,23.94,-13.16,14.63,0.71,0.65,0.47
0.30664062,-0.24916822,-0.24850778,0.30293456,0.72,0.61,0.46,15603,10028.10,0,0,165,-12.74,-17.71,20.65,0.72,0.61,0.46
1.6074219,-0.5461682,-0.31050777,0.35193458,0.73,0.6,0.42,15618,10029.40,0,0,0,-33.53,-22.05,24.08,0.73,0.60,0.42
0.30664062,-0.5981682,-0.31050777,0.42193457,0.71,0.63,0.43,15634,10028.10,0,0,165,-37.17,-22.05,28.98,0.71,0.63,0.43
0.6074219,-0.45716822,-0.2745078,0.5209346,0.74,0.63,0.41,15641,10028.40,0,0,0,-27.30,-19.53,35.91,0.74,0.63,0.41
1.6074219,-0.26616824,-0.20850779,0.6129345,0.76,0.6,0.43,15655,10029.40,0,0,165,-13.93,-14.91,42.35,0.76,0.60,0.43
0.30664062,-0.16916823,-0.1605078,0.6589346,0.76,0.57,0.48,15671,10028.10,0,0,0,-7.14,-11.55,45.57,0.76,0.57,0.48
0.6074219,-0.13716823,-0.13750778,0.67093456,0.78,0.54,0.45,15679,10028.40,0,0,165,-4.90,-9.94,46.41,0.78,0.54,0.45
0.30664062,-0.21616822,-0.08850779,0.69493455,0.77,0.53,0.45,15694,10028.10,0,0,0,-10.43,-6.51,48.09,0.77,0.53,0.45
0.6074219,-0.21016824,-0.06850778,0.7039346,0.78,0.5,0.42,15708,10028.40,0,0,165,-10.01,-5.11,48.72,0.78,0.50,0.42
0.6074219,-0.07816823,-0.0015077852,0.6829346,0.77,0.49,0.43,15715,10028.40,0,0,0,-0.77,-0.42,47.25,0.77,0.49,0.43
1.3066406,0.12183177,0.046492215,0.67593455,0.78,0.49,0.45,15730,10029.10,0,0,165,13.23,2.94,46.76,0.78,0.49,0.45
0.6074219,0.22583178,0.045492213,0.6819346,0.78,0.47,0.45,15745,10028.40,0,0,0,20.51,2.87,47.18,0.78,0.47,0.45
0.6074219,0.27083176,0.055492215,0.6459346,0.77,0.3,0.55,15754,10028.40,0,0,165,23.66,3.57,44.66,0.77,0.30,0.55
1.6074219,0.79483175,-0.053507783,0.49993455,0.82,0.51,0.38,15768,10029.40,0,0,0,60.34,-4.06,34.44,0.82,0.51,0.38
1.6074219,0.9548317,0.040492214,0.47693458,0.77,0.43,0.35,15783,10029.40,0,0,165,71.54,2.52,32.83,0.77,0.43,0.35
-0.79296875,1.0258318,0.1574922,0.41393456,0.77,0.41,0.4,15790,10027.00,0,0,0,76.51,10.71,28.42,0.77,0.41,0.40
0.30664062,0.7888317,0.17449221,0.34793457,0.8,0.45,0.44,15806,10028.10,0,0,165,59.92,11.90,23.80,0.80,0.45,0.44
1.6074219,0.25383174,0.1274922,0.34093457,0.8,0.46,0.45,15820,10029.40,0,0,0,22.47,8.61,23.31,0.80,0.46,0.45
0.6074219,-0.07516823,0.060492218,0.35093457,0.8,0.48,0.48,15828,10028.40,0,0,165,-0.56,3.92,24.01,0.80,0.48,0.48
1.3066406,-0.10216823,-0.048507784,0.38593456,0.83,0.5,0.45,15843,10029.10,0,0,0,-2.45,-3.71,26.46,0.83,0.50,0.45
1.6074219,0.14383179,-0.21850778,0.41493458,0.79,0.45,0.41,15858,10029.40,0,0,165,14.77,-15.61,28.49,0.79,0.45,0.41
0.6074219,0.42483175,-0.28950778,0.39793456,0.79,0.46,0.39,15865,10028.40,0,0,0,34.44,-20.58,27.30,0.79,0.46,0.39
1.6074219,0.46983176,-0.27050778,0.40393457,0.82,0.28,0.43,15880,10029.40,0,0,165,37.59,-19.25,27.72,0.82,0.28,0.43
0.30664062,0.22983178,-0.40950778,0.40493459,0.79,0.5,0.45,15896,10028.10,0,0,0,20.79,-28.98,27.79,0.79,0.50,0.45
0.6074219,-0.15016823,-0.28050777,0.40393457,0.79,0.36,0.26,15904,10028.40,0,0,165,-5.81,-19.95,27.72,0.79,0.36,0.26
0.6074219,-0.20416823,-0.43350777,0.45293456,0.85,0.42,0.23,15918,10028.40,0,0,0,-9.59,-30.66,31.15,0.85,0.42,0.23
0.6074219,-0.36416826,-0.21450779,0.50093454,0.81,0.4,0.48,15940,10028.40,0,0,165,-20.79,-15.33,34.51,0.81,0.40,0.48
0.30664062,-0.42416823,-0.3325078,0.53593457,0.85,0.45,0.37,15941,10028.10,0,0,0,-24.99,-23.59,36.96,0.85,0.45,0.37
1.6074219,-0.6351682,-0.1385078,0.6329346,0.85,0.41,0.37,15956,10029.40,0,0,165,-39.76,-10.01,43.75,0.85,0.41,0.37
0.30664062,-0.85816824,-0.053507783,0.58293456,0.83,0.36,0.43,15972,10028.10,0,0,0,-55.37,-4.06,40.25,0.83,0.36,0.43
1.6074219,-0.97916824,-0.041507784,0.61193454,0.84,0.34,0.39,15978,10029.40,0,0,165,-63.84,-3.22,42.28,0.84,0.34,0.39
0.6074219,-0.78716826,0.13849221,0.58893454,0.87,0.31,0.34,15993,10028.40,0,0,0,-50.40,9.38,40.67,0.87,0.31,0.34
1.3066406,-0.5101682,0.21549222,0.49093458,0.86,0.33,0.33,16008,10029.10,0,0,165,-31.01,14.77,33.81,0.86,0.33,0.33
0.30664062,-0.39916822,0.22549221,0.47293457,0.82,0.31,0.35,16015,10028.10,0,0,0,-23.24,15.47,32.55,0.82,0.31,0.35
1.6074219,-0.41116825,0.22549221,0.35893455,0.8,0.32,0.36,16031,10029.40,0,0,165,-24.08,15.47,24.57,0.80,0.32,0.36
0.6074219,-0.39216822,0.2054922,0.23493457,0.83,0.34,0.38,16046,10028.40,0,0,0,-22.75,14.07,15.89,0.83,0.34,0.38
1.3066406,-0.31716824,0.22249222,0.21793456,0.87,0.35,0.43,16054,10029.10,0,0,165,-17.50,15.26,14.70,0.87,0.35,0.43
1.3066406,-0.25616822,0.35449222,0.22393458,0.86,0.35,0.43,16073,10029.10,0,0,0,-13.23,24.50,15.12,0.86,0.35,0.43
0.6074219,-0.22516823,0.35849223,0.15693457,0.84,0.33,0.42,16083,10028.40,0,0,165,-11.06,24.78,10.43,0.84,0.33,0.42
0.6074219,-0.15916823,0.33749223,0.10493457,0.85,0.32,0.43,16090,10028.40,0,0,0,-6.44,23.31,6.79,0.85,0.32,0.43
1.6074219,-0.07016823,0.2994922,0.064934574,0.83,0.34,0.43,16108,10029.40,0,0,165,-0.21,20.65,3.99,0.83,0.34,0.43
1.3066406,-0.03216823,0.2494922,0.030934572,0.83,0.34,0.43,16121,10029.10,0,0,0,2.45,17.15,1.61,0.83,0.34,0.43
1.6074219,0.03183177,0.2314922,0.007934572,0.83,0.34,0.44,16128,10029.40,0,0,165,6.93,15.89,0.00,0.83,0.34,0.44
1.3066406,0.07183177,0.12949221,0.008934572,0.85,0.34,0.47,16143,10029.10,0,0,0,9.73,8.75,0.07,0.85,0.34,0.47
0.30664062,0.036831774,0.044492215,0.024934573,0.86,0.31,0.46,16158,10028.10,0,0,165,7.28,2.80,1.19,0.86,0.31,0.46
1.6074219,0.03883177,-0.09350779,0.02293457,0.86,0.32,0.44,16165,10029.40,0,0,0,7.42,-6.86,1.05,0.86,0.32,0.44
1.6074219,0.083831765,-0.17950779,0.0049345726,0.85,0.31,0.43,16183,10029.40,0,0,165,10.57,-12.88,-0.21,0.85,0.31,0.43
1.3066406,0.10883177,-0.22350779,-0.03006543,0.83,0.33,0.43,16196,10029.10,0,0,0,12.32,-15.96,-2.66,0.83,0.33,0.43
0.6074219,0.117831774,-0.22450781,-0.03006543,0.84,0.34,0.43,16203,10028.40,0,0,165,12.95,-16.03,-2.66,0.84,0.34,0.43
0.6074219,0.16383177,-0.21450779,-0.014065428,0.85,0.34,0.42,16218,10028.40,0,0,0,16.17,-15.33,-1.54,0.85,0.34,0.42
1.3066406,0.11183176,-0.15550779,0.0019345726,0.85,0.34,0.42,16233,10029.10,0,0,165,12.53,-11.20,-0.42,0.85,0.34,0.42
0.6074219,0.0038317665,-0.13350779,0.035934575,0.84,0.37,0.44,16241,10028.40,0,0,0,4.97,-9.66,1.96,0.84,0.37,0.44
0.6074219,-0.028168228,-0.08650778,0.116934575,0.85,0.39,0.46,16258,10028.40,0,0,165,2.73,-6.37,7.63,0.85,0.39,0.46
2.3066406,-0.0021682233,-0.057507787,0.18793458,0.84,0.36,0.45,16276,10030.10,0,0,0,4.55,-4.34,12.60,0.84,0.36,0.45
1.6074219,0.033831775,-0.050507784,0.22593458,0.87,0.36,0.43,16278,10029.40,0,0,165,7.07,-3.85,15.26,0.87,0.36,0.43
2.6074219,0.051831767,-0.03650778,0.24893458,0.87,0.37,0.42,16293,10030.40,0,0,0,8.33,-2.87,16.87,0.87,0.37,0.42
1.6074219,0.07483176,-0.035507783,0.22893457,0.8,0.31,0.32,16308,10029.40,0,0,165,9.94,-2.80,15.47,0.80,0.31,0.32
0.30664062,-0.10316823,-0.03650778,0.16693456,0.86,0.34,0.41,16315,10028.10,0,0,0,-2.52,-2.87,11.13,0.86,0.34,0.41
1.6074219,-0.27216822,0.063492216,0.105934575,0.9,0.34,0.44,16330,10029.40,0,0,165,-14.35,4.13,6.86,0.90,0.34,0.44
-0.79296875,-0.27416822,0.045492213,-0.013065428,0.94,0.3,0.41,16356,10027.00,0,0,0,-14.49,2.87,-1.47,0.94,0.30,0.41
1.6074219,0.17883176,-0.10750779,-0.17506544,0.88,0.4,0.42,16357,10029.40,0,0,165,17.22,-7.84,-12.81,0.88,0.40,0.42
0.6074219,0.08783177,-0.109507784,-0.14806543,0.86,0.33,0.45,16368,10028.40,0,0,0,10.85,-7.98,-10.92,0.86,0.33,0.45
1.6074219,0.010831773,-0.1885078,-0.08906543,0.87,0.33,0.4,16383,10029.40,0,0,165,5.46,-13.51,-6.79,0.87,0.33,0.40
0.6074219,0.008831777,-0.1825078,-0.018065428,0.86,0.34,0.42,16398,10028.40,0,0,0,5.32,-13.09,-1.82,0.86,0.34,0.42
0.30664062,-0.15316823,-0.2395078,-0.010065427,0.86,0.32,0.43,16407,10028.10,0,0,165,-6.02,-17.08,-1.26,0.86,0.32,0.43
1.3066406,-0.23316821,-0.2925078,-0.029065428,0.87,0.35,0.42,16424,10029.10,0,0,0,-11.62,-20.79,-2.59,0.87,0.35,0.42
2.3066406,-0.19116823,-0.32750776,-0.028065426,0.87,0.36,0.41,16436,10030.10,0,0,165,-8.68,-23.24,-2.52,0.87,0.36,0.41
1.3066406,-0.0031682253,-0.34650776,-0.027065428,0.88,0.36,0.39,16443,10029.10,0,0,0,4.48,-24.57,-2.45,0.88,0.36,0.39
0.6074219,0.13383177,-0.35450777,-0.040065423,0.87,0.35,0.39,16458,10028.40,0,0,165,14.07,-25.13,-3.36,0.87,0.35,0.39
1.6074219,0.117831774,-0.32950777,-0.063065425,0.86,0.34,0.39,16474,10029.40,0,0,0,12.95,-23.38,-4.97,0.86,0.34,0.39
1.6074219,0.009831771,-0.30950776,-0.07606543,0.87,0.35,0.39,16480,10029.40,0,0,165,5.39,-21.98,-5.88,0.87,0.35,0.39
1.3066406,-0.13316822,-0.25350776,-0.09306543,0.86,0.35,0.39,16495,10029.10,0,0,0,-4.62,-18.06,-7.07,0.86,0.35,0.39
1.6074219,-0.18416822,-0.1815078,-0.09906542,0.86,0.36,0.39,16510,10029.40,0,0,165,-8.19,-13.02,-7.49,0.86,0.36,0.39
1.3066406,-0.17416823,-0.1315078,-0.08906543,0.87,0.37,0.39,16517,10029.10,0,0,0,-7.49,-9.52,-6.79,0.87,0.37,0.39
2.6074219,-0.10016823,-0.10250778,-0.09606543,0.86,0.35,0.39,16533,10030.40,0,0,165,-2.31,-7.49,-7.28,0.86,0.35,0.39
0.30664062,-0.07216823,-0.09450778,-0.08006543,0.86,0.35,0.39,16548,10028.10,0,0,0,-0.35,-6.93,-6.16,0.86,0.35,0.39
1.6074219,-0.10816823,-0.09250779,-0.061065428,0.86,0.35,0.39,16556,10029.40,0,0,165,-2.87,-6.79,-4.83,0.86,0.35,0.39
2.6074219,-0.18416822,-0.07450779,-0.031065429,0.86,0.35,0.39,16571,10030.40,0,0,0,-8.19,-5.53,-2.73,0.86,0.35,0.39
1.3066406,-0.20816824,-0.058507785,-0.0060654283,0.86,0.36,0.38,16586,10029.10,0,0,165,-9.87,-4.41,-0.98,0.86,0.36,0.38
1.6074219,-0.19816822,-0.047507785,0.029934572,0.86,0.35,0.38,16593,10029.40,0,0,0,-9.17,-3.64,1.54,0.86,0.35,0.38
1.3066406,-0.19016823,-0.053507783,0.050934575,0.86,0.35,0.38,16608,10029.10,0,0,165,-8.61,-4.06,3.01,0.86,0.35,0.38
2.3066406,-0.18216823,-0.07450779,0.053934574,0.86,0.35,0.37,16623,10030.10,0,0,0,-8.05,-5.53,3.22,0.86,0.35,0.37
1.6074219,-0.11616823,-0.13050778,0.041934572,0.85,0.34,0.38,16631,10029.40,0,0,165,-3.43,-9.45,2.38,0.85,0.34,0.38
1.6074219,-0.069168225,-0.095507786,0.042934574,0.85,0.35,0.37,16650,10029.40,0,0,0,-0.14,-7.00,2.45,0.85,0.35,0.37
1.6074219,-0.09816823,-0.07450779,0.045934573,0.86,0.35,0.37,16664,10029.40,0,0,165,-2.17,-5.53,2.66,0.86,0.35,0.37
1.3066406,-0.11416823,-0.06750778,0.030934572,0.86,0.33,0.34,16668,10029.10,0,0,0,-3.29,-5.04,1.61,0.86,0.33,0.34
1.6074219,-0.08116823,-0.065507784,-0.013065428,0.86,0.32,0.33,16684,10029.40,0,0,165,-0.98,-4.90,-1.47,0.86,0.32,0.33
0.6074219,-0.022168227,-0.058507785,-0.09406543,0.87,0.33,0.35,16700,10028.40,0,0,0,3.15,-4.41,-7.14,0.87,0.33,0.35
1.6074219,-0.013168227,-0.07050779,-0.16706543,0.87,0.34,0.36,16708,10029.40,0,0,165,3.78,-5.25,-12.25,0.87,0.34,0.36
1.3066406,-0.04616823,-0.09750778,-0.30506542,0.81,0.46,0.4,16722,10029.10,0,0,0,1.47,-7.14,-21.91,0.81,0.46,0.40
1.6074219,-0.10716823,-0.06750778,-0.21206543,0.85,0.35,0.34,16736,10029.40,0,0,165,-2.80,-5.04,-15.40,0.85,0.35,0.34
1.3066406,0.098831765,-0.07850778,-0.24306542,0.87,0.4,0.39,16743,10029.10,0,0,0,11.62,-5.81,-17.57,0.87,0.40,0.39
0.6074219,0.18683177,-0.12250779,-0.24806544,0.87,0.38,0.39,16758,10028.40,0,0,165,17.78,-8.89,-17.92,0.87,0.38,0.39
1.6074219,0.17683178,-0.21850778,-0.29706544,0.87,0.39,0.42,16773,10029.40,0,0,0,17.08,-15.61,-21.35,0.87,0.39,0.42
1.6074219,0.07283177,-0.2625078,-0.21606544,0.87,0.39,0.34,16781,10029.40,0,0,165,9.80,-18.69,-15.68,0.87,0.39,0.34
1.6074219,0.26783177,-0.2425078,-0.18406542,0.88,0.42,0.39,16796,10029.40,0,0,0,23.45,-17.29,-13.44,0.88,0.42,0.39
1.6074219,0.36583176,-0.34650776,-0.10906542,0.89,0.43,0.4,16811,10029.40,0,0,165,30.31,-24.57,-8.19,0.89,0.43,0.40
1.6074219,0.29083174,-0.37950775,-0.025065428,0.89,0.44,0.36,16818,10029.40,0,0,0,25.06,-26.88,-2.31,0.89,0.44,0.36
1.6074219,0.19583178,-0.45950776,-0.013065428,0.89,0.43,0.34,16834,10029.40,0,0,165,18.41,-32.48,-1.47,0.89,0.43,0.34
1.6074219,0.20983174,-0.41650778,-0.03706543,0.89,0.43,0.34,16848,10029.40,0,0,0,19.39,-29.47,-3.15,0.89,0.43,0.34
1.6074219,0.30283177,-0.40150777,-0.046065427,0.88,0.43,0.34,16856,10029.40,0,0,165,25.90,-28.42,-3.78,0.88,0.43,0.34
1.3066406,0.32183176,-0.3625078,-0.052065425,0.89,0.42,0.33,16872,10029.10,0,0,0,27.23,-25.69,-4.20,0.89,0.42,0.33
1.6074219,0.32983178,-0.34950778,-0.05106543,0.88,0.41,0.31,16888,10029.40,0,0,165,27.79,-24.78,-4.13,0.88,0.41,0.31
1.6074219,0.33083177,-0.35850778,-0.05406543,0.89,0.44,0.34,16893,10029.40,0,0,0,27.86,-25.41,-4.34,0.89,0.44,0.34
2.6074219,0.17983177,-0.35350776,0.017934572,0.88,0.45,0.33,16908,10030.40,0,0,165,17.29,-25.06,0.70,0.88,0.45,0.33
1.6074219,0.16083178,-0.40250778,0.05893457,0.84,0.36,0.35,16923,10029.40,0,0,0,15.96,-28.49,3.57,0.84,0.36,0.35
0.6074219,0.37783176,-0.4665078,-0.05506543,0.89,0.41,0.26,16931,10028.40,0,0,165,31.15,-32.97,-4.41,0.89,0.41,0.26
1.6074219,0.47083175,-0.38250777,-0.056065433,0.86,0.4,0.27,16945,10029.40,0,0,0,37.66,-27.09,-4.48,0.86,0.40,0.27
1.6074219,0.52083176,-0.3805078,-0.07106543,0.88,0.42,0.26,16960,10029.40,0,0,165,41.16,-26.95,-5.53,0.88,0.42,0.26
1.6074219,0.48283178,-0.3995078,-0.039065428,0.86,0.41,0.26,16968,10029.40,0,0,0,38.50,-28.28,-3.29,0.86,0.41,0.26
1.6074219,0.4678318,-0.44750777,-0.046065427,0.86,0.39,0.25,16983,10029.40,0,0,165,37.45,-31.64,-3.78,0.86,0.39,0.25
1.6074219,0.47183174,-0.4665078,-0.09706543,0.86,0.37,0.21,16998,10029.40,0,0,0,37.73,-32.97,-7.35,0.86,0.37,0.21
1.6074219,0.48583174,-0.4315078,-0.12606543,0.87,0.41,0.2,17006,10029.40,0,0,165,38.71,-30.52,-9.38,0.87,0.41,0.20
1.3066406,0.47583175,-0.37050778,-0.116065435,0.85,0.4,0.21,17022,10029.10,0,0,0,38.01,-26.25,-8.68,0.85,0.40,0.21
1.6074219,0.49783176,-0.34050778,-0.10306543,0.85,0.42,0.23,17036,10029.40,0,0,165,39.55,-24.15,-7.77,0.85,0.42,0.23
2.6074219,0.4528318,-0.3925078,-0.04306543,0.86,0.44,0.24,17043,10030.40,0,0,0,36.40,-27.79,-3.57,0.86,0.44,0.24
1.6074219,0.43783176,-0.43250778,0.0029345723,0.87,0.41,0.22,17065,10029.40,0,0,165,35.35,-30.59,-0.35,0.87,0.41,0.22
0.30664062,0.56683177,-0.4925078,-0.013065428,0.86,0.4,0.2,17073,10028.10,0,0,0,44.38,-34.79,-1.47,0.86,0.40,0.20
2.3066406,0.6358318,-0.48650777,-0.04806543,0.87,0.4,0.17,17080,10030.10,0,0,165,49.21,-34.37,-3.92,0.87,0.40,0.17
0.6074219,0.64683175,-0.4205078,-0.10706543,0.89,0.4,0.06,17096,10028.40,0,0,0,49.98,-29.75,-8.05,0.89,0.40,0.06
1.6074219,0.41883177,-0.1535078,-0.10606543,0.89,0.44,0.08,17103,10029.40,0,0,165,34.02,-11.06,-7.98,0.89,0.44,0.08
0.6074219,0.06983178,-0.033507787,-0.11406543,0.88,0.45,0.18,17118,10028.40,0,0,0,9.59,-2.66,-8.54,0.88,0.45,0.18
0.30664062,-0.10716823,-0.09650779,-0.09506543,0.89,0.47,0.21,17133,10028.10,0,0,165,-2.80,-7.07,-7.21,0.89,0.47,0.21
1.6074219,-0.20116824,-0.15450779,-0.041065432,0.89,0.49,0.19,17141,10029.40,0,0,0,-9.38,-11.13,-3.43,0.89,0.49,0.19
1.6074219,-0.18416822,-0.15950778,-0.053065427,0.92,0.44,0.11,17156,10029.40,0,0,165,-8.19,-11.48,-4.27,0.92,0.44,0.11
0.30664062,-0.17116824,-0.09950779,-0.03706543,0.87,0.5,0.18,17171,10028.10,0,0,0,-7.28,-7.28,-3.15,0.87,0.50,0.18
2.6074219,-0.12516823,-0.061507784,0.05593457,0.89,0.46,0.14,17178,10030.40,0,0,165,-4.06,-4.62,3.36,0.89,0.46,0.14
1.6074219,0.041831776,-0.08350778,0.035934575,0.89,0.45,0.15,17194,10029.40,0,0,0,7.63,-6.16,1.96,0.89,0.45,0.15
1.6074219,0.04283177,-0.09650779,0.007934572,0.9,0.45,0.1,17208,10029.40,0,0,165,7.70,-7.07,0.00,0.90,0.45,0.10
1.6074219,0.12483176,-0.2305078,-0.06906543,0.94,0.43,0.11,17215,10029.40,0,0,0,13.44,-16.45,-5.39,0.94,0.43,0.11
1.6074219,0.07483176,-0.5175078,-0.22806543,0.92,0.42,0.19,17230,10029.40,0,0,165,9.94,-36.54,-16.52,0.92,0.42,0.19
1.6074219,-0.20816824,-0.66750777,-0.28306544,0.9,0.5,0.16,17246,10029.40,0,0,0,-9.87,-47.04,-20.37,0.90,0.50,0.16
1.6074219,-0.34416822,-0.7155078,-0.20706543,0.91,0.51,0.11,17261,10029.40,0,0,165,-19.39,-50.40,-15.05,0.91,0.51,0.11
2.6074219,-0.34516823,-0.6405078,-0.14106543,0.91,0.49,0.08,17268,10030.40,0,0,0,-19.46,-45.15,-10.43,0.91,0.49,0.08
0.6074219,-0.43316826,-0.56550777,-0.13706543,0.9,0.46,0.12,17283,10028.40,0,0,165,-25.62,-39.90,-10.15,0.90,0.46,0.12
1.6074219,-0.5701682,-0.54250777,-0.12706542,0.9,0.47,0.13,17291,10029.40,0,0,0,-35.21,-38.29,-9.45,0.90,0.47,0.13
1.6074219,-0.57416826,-0.48150778,-0.09606543,0.91,0.5,0.09,17306,10029.40,0,0,165,-35.49,-34.02,-7.28,0.91,0.50,0.09
2.6074219,-0.45016822,-0.39050776,0.025934571,0.9,0.5,0.1,17314,10030.40,0,0,0,-26.81,-27.65,1.26,0.90,0.50,0.10
2.6074219,-0.17216823,-0.32950777,0.083934575,0.89,0.49,0.11,17328,10030.40,0,0,165,-7.35,-23.38,5.32,0.89,0.49,0.11
2.6074219,0.0148317665,-0.28550777,0.119934574,0.89,0.48,0.11,17343,10030.40,0,0,0,5.74,-20.30,7.84,0.89,0.48,0.11
2.6074219,0.024831772,-0.25450775,0.12593457,0.89,0.47,0.09,17350,10030.40,0,0,165,6.44,-18.13,8.26,0.89,0.47,0.09
1.6074219,0.007831775,-0.24850778,0.09693457,0.89,0.49,0.09,17365,10029.40,0,0,0,5.25,-17.71,6.23,0.89,0.49,0.09
2.6074219,0.12283177,-0.24450779,0.097934574,0.89,0.5,0.08,17381,10030.40,0,0,165,13.30,-17.43,6.30,0.89,0.50,0.08
2.6074219,0.30083176,-0.2175078,0.09693457,0.89,0.47,0.06,17388,10030.40,0,0,0,25.76,-15.54,6.23,0.89,0.47,0.06
2.6074219,0.34883177,-0.1915078,0.07393457,0.89,0.44,0.05,17403,10030.40,0,0,165,29.12,-13.72,4.62,0.89,0.44,0.05
1.3066406,0.34883177,-0.16450779,-0.02606543,0.89,0.43,0.04,17418,10029.10,0,0,0,29.12,-11.83,-2.38,0.89,0.43,0.04
2.6074219,0.34383178,-0.15250778,-0.08706543,0.87,0.46,0.04,17426,10030.40,0,0,165,28.77,-10.99,-6.65,0.87,0.46,0.04
2.6074219,0.5418318,-0.065507784,-0.120065436,0.86,0.46,-0.01,17441,10030.40,0,0,0,42.63,-4.90,-8.96,0.86,0.46,-0.01
1.6074219,0.7558318,0.070492215,-0.09106543,0.85,0.45,0.03,17456,10029.40,0,0,165,57.61,4.62,-6.93,0.85,0.45,0.03
2.6074219,0.9078318,0.1504922,-0.101065435,0.85,0.44,0.03,17463,10030.40,0,0,0,68.25,10.22,-7.63,0.85,0.44,0.03
2.6074219,0.83283174,0.1774922,-0.11406543,0.85,0.45,-0.01,17478,10030.40,0,0,165,63.00,12.11,-8.54,0.85,0.45,-0.01
2.6074219,0.6518318,0.2054922,-0.13906543,0.85,0.45,0.03,17493,10030.40,0,0,0,50.33,14.07,-10.29,0.85,0.45,0.03
1.6074219,0.47883177,0.117492214,-0.115065426,0.86,0.46,0.01,17500,10029.40,0,0,165,38.22,7.91,-8.61,0.86,0.46,0.01
1.3066406,0.42983177,0.06549221,-0.07006543,0.89,0.53,0.0,17515,10029.10,0,0,0,34.79,4.27,-5.46,0.89,0.53,0.00
1.6074219,0.5038318,0.029492214,-0.038065426,0.87,0.51,0.01,17531,10029.40,0,0,165,39.97,1.75,-3.22,0.87,0.51,0.01
1.6074219,0.5938318,0.014492214,-0.045065425,0.87,0.53,0.05,17539,10029.40,0,0,0,46.27,0.70,-3.71,0.87,0.53,0.05
1.6074219,0.20383176,-0.072507784,0.19793457,0.89,0.61,0.09,17553,10029.40,0,0,165,18.97,-5.39,13.30,0.89,0.61,0.09
2.6074219,-0.039168227,-0.10450779,0.18593457,0.85,0.41,-0.07,17568,10030.40,0,0,0,1.96,-7.63,12.46,0.85,0.41,-0.07
1.6074219,0.21383175,0.103492215,0.086934574,0.85,0.5,-0.04,17576,10029.40,0,0,165,19.67,6.93,5.53,0.85,0.50,-0.04
2.3066406,0.5288318,0.12049221,0.14193457,0.93,0.25,0.0,17591,10030.10,0,0,0,41.72,8.12,9.38,0.93,0.25,0.00
2.6074219,0.6308318,0.050492216,0.12393457,0.88,0.49,0.01,17606,10030.40,0,0,165,48.86,3.22,8.12,0.88,0.49,0.01
2.6074219,0.55283177,0.032492217,0.16593458,0.87,0.48,0.05,17613,10030.40,0,0,0,43.40,1.96,11.06,0.87,0.48,0.05
1.6074219,0.5928318,-0.012507787,0.16193457,0.87,0.45,-0.0,17628,10029.40,0,0,165,46.20,-1.19,10.78,0.87,0.45,-0.00
2.6074219,0.6678318,0.050492216,0.09093457,0.86,0.45,0.0,17644,10030.40,0,0,0,51.45,3.22,5.81,0.86,0.45,0.00
1.6074219,0.62783176,0.08649221,0.032934573,0.9,0.45,-0.02,17651,10029.40,0,0,165,48.65,5.74,1.75,0.90,0.45,-0.02
1.6074219,0.58683175,0.11549222,-0.012065427,0.91,0.47,-0.01,17666,10029.40,0,0,0,45.78,7.77,-1.40,0.91,0.47,-0.01
1.6074219,0.62683177,0.1354922,-0.038065426,0.89,0.48,0.01,17681,10029.40,0,0,165,48.58,9.17,-3.22,0.89,0.48,0.01
2.6074219,0.76283175,0.1634922,-6.5428205E-5,0.9,0.52,-0.03,17688,10030.40,0,0,0,58.10,11.13,-0.56,0.90,0.52,-0.03
2.6074219,1.0048318,0.19749221,0.030934572,0.9,0.5,-0.02,17703,10030.40,0,0,165,75.04,13.51,1.61,0.90,0.50,-0.02
1.6074219,1.1238317,0.20349221,0.050934575,0.91,0.5,-0.02,17718,10029.40,0,0,0,83.37,13.93,3.01,0.91,0.50,-0.02
3.006836,1.1308317,0.2214922,0.0029345723,0.89,0.47,-0.02,17725,10030.80,0,0,165,83.86,15.19,-0.35,0.89,0.47,-0.02
1.6074219,1.0208318,0.25949222,-0.021065427,0.88,0.47,0.0,17740,10029.40,0,0,0,76.16,17.85,-2.03,0.88,0.47,0.00
2.6074219,0.7748318,0.24149221,-0.017065428,0.89,0.48,0.0,17756,10030.40,0,0,165,58.94,16.59,-1.75,0.89,0.48,0.00
1.6074219,0.51283175,0.22249222,-0.017065428,0.89,0.47,-0.01,17763,10029.40,0,0,0,40.60,15.26,-1.75,0.89,0.47,-0.01
2.6074219,0.3798318,0.17549221,0.027934572,0.89,0.47,-0.03,17778,10030.40,0,0,165,31.29,11.97,1.40,0.89,0.47,-0.03
1.6074219,0.24783176,0.12849222,0.050934575,0.9,0.47,-0.03,17793,10029.40,0,0,0,22.05,8.68,3.01,0.90,0.47,-0.03
2.6074219,0.14683175,0.10849222,0.09193457,0.89,0.47,-0.03,17800,10030.40,0,0,165,14.98,7.28,5.88,0.89,0.47,-0.03
2.6074219,0.095831774,0.11249222,0.15393457,0.89,0.5,-0.03,17815,10030.40,0,0,0,11.41,7.56,10.22,0.89,0.50,-0.03
2.6074219,0.15983176,0.14049222,0.22593458,0.9,0.49,-0.05,17831,10030.40,0,0,165,15.89,9.52,15.26,0.90,0.49,-0.05
2.6074219,0.27383178,0.15949221,0.25793457,0.9,0.46,-0.04,17838,10030.40,0,0,0,23.87,10.85,17.50,0.90,0.46,-0.04
2.6074219,0.32483178,0.16649221,0.26593456,0.92,0.45,-0.04,17853,10030.40,0,0,165,27.44,11.34,18.06,0.92,0.45,-0.04
3.6074219,0.36583176,0.17649221,0.23893458,0.91,0.45,-0.03,17868,10031.40,0,0,0,30.31,12.04,16.17,0.91,0.45,-0.03
2.6074219,0.43883175,0.1704922,0.24493457,0.91,0.47,-0.03,17876,10030.40,0,0,165,35.42,11.62,16.59,0.91,0.47,-0.03
3.6074219,0.45483178,0.13449222,0.28693458,0.92,0.47,-0.01,17890,10031.40,0,0,0,36.54,9.10,19.53,0.92,0.47,-0.01
2.6074219,0.43183178,0.08349222,0.30293456,0.91,0.46,-0.0,17905,10030.40,0,0,165,34.93,5.53,20.65,0.91,0.46,-0.00
2.6074219,0.3918318,0.021492215,0.31293458,0.9,0.45,-0.02,17912,10030.40,0,0,0,32.13,1.19,21.35,0.90,0.45,-0.02
1.6074219,0.34783176,-0.016507786,0.32793456,0.9,0.45,-0.03,17928,10029.40,0,0,165,29.05,-1.47,22.40,0.90,0.45,-0.03
2.6074219,0.30883175,0.0054922146,0.35893455,0.9,0.44,-0.05,17943,10030.40,0,0,0,26.32,0.07,24.57,0.90,0.44,-0.05
2.6074219,0.27383178,0.057492215,0.38993457,0.92,0.43,-0.06,17951,10030.40,0,0,165,23.87,3.71,26.74,0.92,0.43,-0.06
2.6074219,0.27783176,0.1944922,0.36193457,0.92,0.41,-0.05,17966,10030.40,0,0,0,24.15,13.30,24.78,0.92,0.41,-0.05
2.6074219,0.19083175,0.43049222,0.37093458,0.9,0.45,-0.05,17981,10030.40,0,0,165,18.06,29.82,25.41,0.90,0.45,-0.05
2.6074219,0.15983176,0.62849224,0.37193456,0.85,0.41,-0.01,17988,10030.40,0,0,0,15.89,43.68,25.48,0.85,0.41,-0.01
2.6074219,0.18183178,0.73749226,0.77193457,0.89,0.38,-0.12,18004,10030.40,0,0,165,17.43,51.31,53.48,0.89,0.38,-0.12
2.6074219,0.42383176,0.9824922,0.5649346,0.85,0.37,-0.07,18018,10030.40,0,0,0,34.37,68.46,38.99,0.85,0.37,-0.07
2.6074219,0.41083175,1.0894921,0.51093453,0.83,0.35,-0.05,18026,10030.40,0,0,165,33.46,75.95,35.21,0.83,0.35,-0.05
1.6074219,0.5548318,1.091492,0.55493456,0.92,0.27,-0.03,18040,10029.40,0,0,0,43.54,76.09,38.29,0.92,0.27,-0.03
2.6074219,0.8058318,1.2084922,0.43393457,0.94,0.24,-0.0,18062,10030.40,0,0,165,61.11,84.28,29.82,0.94,0.24,-0.00
1.6074219,0.8058318,1.3394921,0.26693454,0.94,0.31,0.07,18063,10029.40,0,0,0,61.11,93.45,18.13,0.94,0.31,0.07
2.6074219,0.5418318,1.3404921,0.20593457,0.95,0.38,0.14,18085,10030.40,0,0,165,42.63,93.52,13.86,0.95,0.38,0.14
2.6074219,0.24683174,1.1794921,0.21393457,0.99,0.38,0.17,18097,10030.40,0,0,0,21.98,82.25,14.42,0.99,0.38,0.17
2.6074219,0.20283175,0.8424922,0.17893457,1.0,0.36,0.19,18103,10030.40,0,0,165,18.90,58.66,11.97,1.00,0.36,0.19
2.6074219,0.20183176,0.30549222,0.15993458,0.99,0.36,0.2,18115,10030.40,0,0,0,18.83,21.07,10.64,0.99,0.36,0.20
2.6074219,0.19883177,-0.1655078,0.14793457,0.99,0.34,0.17,18130,10030.40,0,0,165,18.62,-11.90,9.80,0.99,0.34,0.17
2.6074219,0.25183177,-0.38150778,0.12693457,0.96,0.34,0.13,18137,10030.40,0,0,0,22.33,-27.02,8.33,0.96,0.34,0.13
3.6074219,0.22683176,-0.40850776,0.16193457,0.95,0.35,0.1,18153,10031.40,0,0,165,20.58,-28.91,10.78,0.95,0.35,0.10
2.6074219,0.13883176,-0.28250778,0.26293457,0.94,0.34,0.08,18168,10030.40,0,0,0,14.42,-20.09,17.85,0.94,0.34,0.08
3.006836,0.10283177,-0.1535078,0.31593457,0.94,0.33,0.04,18183,10030.80,0,0,165,11.90,-11.06,21.56,0.94,0.33,0.04
2.6074219,0.11483177,0.028492212,0.33593455,0.93,0.31,0.05,18190,10030.40,0,0,0,12.74,1.68,22.96,0.93,0.31,0.05
3.006836,0.098831765,0.14149222,0.38093457,0.95,0.34,0.05,18206,10030.80,0,0,165,11.62,9.59,26.11,0.95,0.34,0.05
2.6074219,0.12583178,0.2164922,0.45193458,1.04,0.34,0.04,18221,10030.40,0,0,0,13.51,14.84,31.08,1.04,0.34,0.04
2.6074219,0.27983177,0.017492214,0.7439346,1.0,0.3,0.08,18227,10030.40,0,0,165,24.29,0.91,51.52,1.00,0.30,0.08
3.6074219,0.22583178,-0.2395078,0.87593454,0.96,0.28,0.1,18243,10031.40,0,0,0,20.51,-17.08,60.76,0.96,0.28,0.10
2.6074219,0.14083177,-0.30150777,0.7149346,0.97,0.26,0.07,18258,10030.40,0,0,165,14.56,-21.42,49.49,0.97,0.26,0.07
2.6074219,0.17183176,-0.2315078,0.43193457,0.95,0.25,0.05,18266,10030.40,0,0,0,16.73,-16.52,29.68,0.95,0.25,0.05
2.6074219,0.18583176,-0.1565078,0.29893458,0.94,0.25,0.04,18281,10030.40,0,0,165,17.71,-11.27,20.37,0.94,0.25,0.04
0.6074219,0.24983177,-0.047507785,0.20393458,0.93,0.24,0.02,18296,10028.40,0,0,0,22.19,-3.64,13.72,0.93,0.24,0.02
1.6074219,0.30083176,0.073492214,0.05193457,0.91,0.24,0.01,18303,10029.40,0,0,165,25.76,4.83,3.08,0.91,0.24,0.01
3.6074219,0.26083174,0.21049221,-0.033065423,0.94,0.25,0.03,18318,10031.40,0,0,0,22.96,14.42,-2.87,0.94,0.25,0.03
2.6074219,0.27683178,0.27849224,-0.042065427,0.99,0.26,0.04,18333,10030.40,0,0,165,24.08,19.18,-3.50,0.99,0.26,0.04
2.6074219,0.44783175,0.28249222,0.014934572,1.01,0.27,0.09,18341,10030.40,0,0,0,36.05,19.46,0.49,1.01,0.27,0.09
3.006836,0.6498318,0.19749221,0.07193457,0.99,0.28,0.07,18355,10030.80,0,0,165,50.19,13.51,4.48,0.99,0.28,0.07
2.6074219,0.75283176,0.11249222,0.089934565,0.96,0.29,0.07,18373,10030.40,0,0,0,57.40,7.56,5.74,0.96,0.29,0.07
3.6074219,0.7048318,0.031492215,0.14193457,0.94,0.31,0.06,18386,10031.40,0,0,165,54.04,1.89,9.38,0.94,0.31,0.06
2.6074219,0.5848318,0.0054922146,0.23593457,0.94,0.28,0.05,18393,10030.40,0,0,0,45.64,0.07,15.96,0.94,0.28,0.05
2.6074219,0.53583175,0.024492214,0.27093458,0.93,0.26,0.05,18417,10030.40,0,0,165,42.21,1.40,18.41,0.93,0.26,0.05
1.6074219,0.5408318,0.2164922,0.16693456,0.92,0.29,0.05,18418,10029.40,0,0,0,42.56,14.84,11.13,0.92,0.29,0.05
2.6074219,0.36383176,0.39649224,-0.33006543,0.94,0.35,0.03,18430,10030.40,0,0,165,30.17,27.44,-23.66,0.94,0.35,0.03
3.6074219,0.39983174,0.26049224,-0.4200654,0.98,0.27,0.04,18446,10031.40,0,0,0,32.69,17.92,-29.96,0.98,0.27,0.04
3.6074219,0.7408318,0.19049221,-0.3570654,0.98,0.26,0.08,18454,10031.40,0,0,165,56.56,13.02,-25.55,0.98,0.26,0.08
2.6074219,0.9028318,0.11949222,-0.19706543,0.99,0.3,0.06,18468,10030.40,0,0,0,67.90,8.05,-14.35,0.99,0.30,0.06
2.6074219,0.96883166,0.07549221,-0.063065425,0.99,0.27,0.05,18483,10030.40,0,0,165,72.52,4.97,-4.97,0.99,0.27,0.05
3.006836,1.0048318,0.008492215,0.005934572,0.97,0.23,0.07,18492,10030.80,0,0,0,75.04,0.28,-0.14,0.97,0.23,0.07
2.6074219,1.0308318,-0.03650778,0.050934575,0.95,0.23,0.05,18508,10030.40,0,0,165,76.86,-2.87,3.01,0.95,0.23,0.05
2.6074219,1.0528318,-0.055507783,0.10693457,0.94,0.24,0.04,18525,10030.40,0,0,0,78.40,-4.20,6.93,0.94,0.24,0.04
3.006836,1.0068318,-0.062507786,0.14993456,0.96,0.23,0.04,18527,10030.80,0,0,165,75.18,-4.69,9.94,0.96,0.23,0.04
2.6074219,0.93983173,-0.10850778,0.15093458,0.97,0.23,0.04,18542,10030.40,0,0,0,70.49,-7.91,10.01,0.97,0.23,0.04
2.6074219,0.90483177,-0.1735078,0.14193457,0.97,0.24,0.04,18558,10030.40,0,0,165,68.04,-12.46,9.38,0.97,0.24,0.04
2.6074219,0.9038318,-0.2195078,0.14693457,0.97,0.25,0.03,18566,10030.40,0,0,0,67.97,-15.68,9.73,0.97,0.25,0.03
2.6074219,0.9268318,-0.5005078,0.12793458,0.96,0.24,0.02,18580,10030.40,0,0,165,69.58,-35.35,8.40,0.96,0.24,0.02
2.6074219,0.9358318,-0.2305078,0.04893457,0.96,0.22,0.02,18595,10030.40,0,0,0,70.21,-16.45,2.87,0.96,0.22,0.02
3.3066406,0.9298318,-0.25750777,-0.050065428,0.97,0.22,0.02,18604,10031.10,0,0,165,69.79,-18.34,-4.06,0.97,0.22,0.02
3.006836,0.8628318,-0.22850779,-0.12906544,0.97,0.24,0.01,18618,10030.80,0,0,0,65.10,-16.31,-9.59,0.97,0.24,0.01
4.006836,0.75883174,-0.17050779,-0.17606543,0.97,0.25,-0.02,18634,10031.80,0,0,165,57.82,-12.25,-12.88,0.97,0.25,-0.02
2.6074219,0.6868318,-0.1505078,-0.20206542,0.97,0.3,-0.03,18641,10030.40,0,0,0,52.78,-10.85,-14.70,0.97,0.30,-0.03
3.6074219,0.43283176,-0.038507786,-0.116065435,0.98,0.36,-0.07,18655,10031.40,0,0,165,35.00,-3.01,-8.68,0.98,0.36,-0.07
2.6074219,0.10883177,0.035492215,0.019934572,0.98,0.35,-0.05,18671,10030.40,0,0,0,12.32,2.17,0.84,0.98,0.35,-0.05
3.006836,-0.20316824,0.06849222,0.097934574,0.98,0.32,-0.02,18678,10030.80,0,0,165,-9.52,4.48,6.30,0.98,0.32,-0.02
3.006836,-0.37516823,0.048492216,0.16293457,0.99,0.33,-0.02,18693,10030.80,0,0,0,-21.56,3.08,10.85,0.99,0.33,-0.02
3.006836,-0.39916822,0.047492217,0.22593458,0.99,0.33,-0.02,18711,10030.80,0,0,165,-23.24,3.01,15.26,0.99,0.33,-0.02
4.006836,-0.48316824,0.028492212,0.29593456,0.98,0.29,-0.0,18715,10031.80,0,0,0,-29.12,1.68,20.16,0.98,0.29,-0.00
3.6074219,-0.57516825,0.0014922146,0.25893456,0.96,0.25,0.0,18730,10031.40,0,0,165,-35.56,-0.21,17.57,0.96,0.25,0.00
3.006836,-0.67716825,-0.03650778,0.24193455,0.96,0.26,-0.01,18746,10030.80,0,0,0,-42.70,-2.87,16.38,0.96,0.26,-0.01
2.6074219,-0.78916824,-0.035507783,0.25993457,0.95,0.27,-0.01,18753,10030.40,0,0,165,-50.54,-2.80,17.64,0.95,0.27,-0.01
2.6074219,-1.0101682,0.020492215,0.34093457,0.93,0.31,0.03,18768,10030.40,0,0,0,-66.01,1.12,23.31,0.93,0.31,0.03
2.6074219,-0.94216824,-0.011507787,0.41893458,0.93,0.31,0.1,18783,10030.40,0,0,165,-61.25,-1.12,28.77,0.93,0.31,0.10
2.6074219,-0.39616823,-0.2115078,0.43593454,0.95,0.28,0.1,18790,10030.40,0,0,0,-23.03,-15.12,29.96,0.95,0.28,0.10
1.9072266,0.0148317665,-0.3555078,0.5039346,0.95,0.27,0.06,18806,10029.70,0,0,165,5.74,-25.20,34.72,0.95,0.27,0.06
2.6074219,0.27083176,-0.3765078,0.48793456,0.96,0.2,-0.01,18821,10030.40,0,0,0,23.66,-26.67,33.60,0.96,0.20,-0.01
2.6074219,0.37183174,-0.30850777,0.40893456,0.97,0.17,-0.06,18828,10030.40,0,0,165,30.73,-21.91,28.07,0.97,0.17,-0.06
3.6074219,0.36283177,-0.19650778,0.29193455,0.98,0.16,-0.08,18843,10031.40,0,0,0,30.10,-14.07,19.88,0.98,0.16,-0.08
3.006836,0.30583176,-0.061507784,0.16093457,0.98,0.16,-0.08,18866,10030.80,0,0,165,26.11,-4.62,10.71,0.98,0.16,-0.08
3.006836,0.050831772,0.062492214,0.0099345725,0.99,0.14,-0.07,18875,10030.80,0,0,0,8.26,4.06,0.14,0.99,0.14,-0.07
3.6074219,-0.30716822,0.12849222,-0.08106543,0.99,0.17,-0.04,18880,10031.40,0,0,165,-16.80,8.68,-6.23,0.99,0.17,-0.04
2.6074219,-0.5841682,0.118492216,-0.10606543,0.98,0.21,-0.0,18895,10030.40,0,0,0,-36.19,7.98,-7.98,0.98,0.21,-0.00
3.6074219,-0.40616822,0.033492215,-0.101065435,0.98,0.23,0.01,18903,10031.40,0,0,165,-23.73,2.03,-7.63,0.98,0.23,0.01
4.006836,-0.010168228,-0.057507787,-0.07506543,0.98,0.25,-0.0,18918,10031.80,0,0,0,3.99,-4.34,-5.81,0.98,0.25,-0.00
3.006836,0.044831775,-0.06650778,-0.025065428,0.94,0.24,0.01,18938,10030.80,0,0,165,7.84,-4.97,-2.31,0.94,0.24,0.01
2.6074219,0.0148317665,-0.058507785,0.003934572,0.98,0.21,-0.01,18941,10030.40,0,0,0,5.74,-4.41,-0.28,0.98,0.21,-0.01
4.006836,0.08983176,-0.07050779,0.003934572,0.97,0.22,-0.02,18956,10031.80,0,0,165,10.99,-5.25,-0.28,0.97,0.22,-0.02
3.006836,0.118831776,-0.035507783,0.014934572,0.96,0.2,0.01,18978,10030.80,0,0,0,13.02,-2.80,0.49,0.96,0.20,0.01
3.6074219,0.13483179,-0.09750778,-0.029065428,0.96,0.19,0.01,18986,10031.40,0,0,165,14.14,-7.14,-2.59,0.96,0.19,0.01
2.6074219,0.12983176,-0.1385078,-0.03606543,0.98,0.22,0.01,18992,10030.40,0,0,0,13.79,-10.01,-3.08,0.98,0.22,0.01
2.6074219,0.14783177,-0.21850778,0.003934572,0.99,0.24,-0.0,19008,10030.40,0,0,165,15.05,-15.61,-0.28,0.99,0.24,-0.00
3.6074219,0.20183176,-0.28450778,0.011934573,0.99,0.22,-0.03,19015,10031.40,0,0,0,18.83,-20.23,0.28,0.99,0.22,-0.03
3.6074219,0.17483178,-0.30850777,-0.0030654278,0.99,0.22,-0.03,19030,10031.40,0,0,165,16.94,-21.91,-0.77,0.99,0.22,-0.03
3.006836,0.14983177,-0.32750776,-0.014065428,0.99,0.22,-0.04,19045,10030.80,0,0,0,15.19,-23.24,-1.54,0.99,0.22,-0.04
4.006836,0.16283178,-0.30850777,-0.03006543,0.98,0.22,-0.04,19053,10031.80,0,0,165,16.10,-21.91,-2.66,0.98,0.22,-0.04
2.6074219,0.18683177,-0.28550777,-0.050065428,0.96,0.21,-0.05,19067,10030.40,0,0,0,17.78,-20.30,-4.06,0.96,0.21,-0.05
3.006836,0.18183178,-0.2325078,-0.035065427,1.0,0.2,-0.08,19088,10030.80,0,0,165,17.43,-16.59,-3.01,1.00,0.20,-0.08
4.006836,0.25183177,-0.24050778,-0.10006543,0.99,0.21,-0.05,19090,10031.80,0,0,0,22.33,-17.15,-7.56,0.99,0.21,-0.05
3.006836,0.24883178,-0.2435078,-0.120065436,0.93,0.2,-0.04,19105,10030.80,0,0,165,22.12,-17.36,-8.96,0.93,0.20,-0.04
2.6074219,0.23883176,-0.24650778,-0.120065436,0.98,0.22,-0.06,19121,10030.40,0,0,0,21.42,-17.57,-8.96,0.98,0.22,-0.06
2.6074219,0.19583178,-0.27150777,-0.119065434,0.98,0.23,-0.07,19128,10030.40,0,0,165,18.41,-19.32,-8.89,0.98,0.23,-0.07
4.006836,0.17583176,-0.31650776,-0.09906542,0.99,0.23,-0.07,19143,10031.80,0,0,0,17.01,-22.47,-7.49,0.99,0.23,-0.07
4.006836,0.24683174,-0.38250777,-0.119065434,0.98,0.23,-0.06,19158,10031.80,0,0,165,21.98,-27.09,-8.89,0.98,0.23,-0.06
2.6074219,0.29383177,-0.43750778,-0.10206543,0.98,0.24,-0.08,19167,10030.40,0,0,0,25.27,-30.94,-7.70,0.98,0.24,-0.08
4.006836,0.23883176,-0.45850778,-0.09406543,0.97,0.23,-0.08,19180,10031.80,0,0,165,21.42,-32.41,-7.14,0.97,0.23,-0.08
2.6074219,0.17583176,-0.44650778,-0.115065426,0.96,0.23,-0.11,19196,10030.40,0,0,0,17.01,-31.57,-8.61,0.96,0.23,-0.11
4.006836,0.17083177,-0.38850778,-0.14706543,0.96,0.24,-0.14,19203,10031.80,0,0,165,16.66,-27.51,-10.85,0.96,0.24,-0.14
4.006836,0.17883176,-0.28750777,-0.18206543,0.95,0.25,-0.16,19218,10031.80,0,0,0,17.22,-20.44,-13.30,0.95,0.25,-0.16
3.6074219,0.110831775,-0.17750779,-0.17006543,0.95,0.27,-0.16,19233,10031.40,0,0,165,12.46,-12.74,-12.46,0.95,0.27,-0.16
3.006836,0.058831774,-0.084507786,-0.13206543,0.96,0.27,-0.14,19241,10030.80,0,0,0,8.82,-6.23,-9.80,0.96,0.27,-0.14
3.6074219,0.10083177,-0.034507785,-0.05406543,0.95,0.28,-0.13,19257,10031.40,0,0,165,11.76,-2.73,-4.34,0.95,0.28,-0.13
1.9072266,0.15883178,-0.019507784,0.042934574,0.96,0.27,-0.11,19272,10029.70,0,0,0,15.82,-1.68,2.45,0.96,0.27,-0.11
3.006836,0.15983176,-0.003507786,0.11193457,0.95,0.26,-0.11,19278,10030.80,0,0,165,15.89,-0.56,7.28,0.95,0.26,-0.11
3.006836,0.09783178,-0.015507786,0.16393457,0.96,0.23,-0.1,19293,10030.80,0,0,0,11.55,-1.40,10.92,0.96,0.23,-0.10
3.006836,0.03183177,-0.04350778,0.15793458,0.96,0.21,-0.09,19308,10030.80,0,0,165,6.93,-3.36,10.50,0.96,0.21,-0.09
4.006836,0.025831774,-0.06850778,0.11893457,0.95,0.2,-0.1,19315,10031.80,0,0,0,6.51,-5.11,7.77,0.95,0.20,-0.10
4.006836,0.04283177,-0.06850778,0.05893457,0.95,0.21,-0.1,19330,10031.80,0,0,165,7.70,-5.11,3.57,0.95,0.21,-0.10
3.006836,0.013831772,-0.07550778,0.019934572,0.95,0.23,-0.1,19345,10030.80,0,0,0,5.67,-5.60,0.84,0.95,0.23,-0.10
3.006836,-0.0051682256,-0.08650778,-0.014065428,0.96,0.23,-0.09,19353,10030.80,0,0,165,4.34,-6.37,-1.54,0.96,0.23,-0.09
4.006836,0.040831774,-0.13550779,-0.02606543,0.96,0.25,-0.11,19368,10031.80,0,0,0,7.56,-9.80,-2.38,0.96,0.25,-0.11
3.006836,0.10483178,-0.17050779,-0.019065429,0.96,0.25,-0.11,19383,10030.80,0,0,165,12.04,-12.25,-1.89,0.96,0.25,-0.11
3.006836,0.10783177,-0.18750778,-0.0030654278,0.96,0.25,-0.12,19391,10030.80,0,0,0,12.25,-13.44,-0.77,0.96,0.25,-0.12
3.006836,0.073831774,-0.19350779,0.03793457,0.96,0.25,-0.12,19413,10030.80,0,0,165,9.87,-13.86,2.10,0.96,0.25,-0.12
3.006836,0.018831775,-0.1945078,0.08593457,0.95,0.23,-0.12,19420,10030.80,0,0,0,6.02,-13.93,5.46,0.95,0.23,-0.12
4.006836,-0.00916823,-0.18750778,0.12493456,0.95,0.22,-0.13,19443,10031.80,0,0,165,4.06,-13.44,8.19,0.95,0.22,-0.13
4.006836,-0.012168229,-0.1755078,0.15493457,0.95,0.22,-0.14,19445,10031.80,0,0,0,3.85,-12.60,10.29,0.95,0.22,-0.14
4.006836,0.00183177,-0.15950778,0.14993456,0.95,0.21,-0.14,19451,10031.80,0,0,165,4.83,-11.48,9.94,0.95,0.21,-0.14
4.006836,0.020831771,-0.15550779,0.13193458,0.95,0.21,-0.15,19466,10031.80,0,0,0,6.16,-11.20,8.68,0.95,0.21,-0.15
4.006836,0.007831775,-0.14150779,0.105934575,0.96,0.22,-0.15,19481,10031.80,0,0,165,5.25,-10.22,6.86,0.96,0.22,-0.15
4.006836,-0.029168226,-0.12750779,0.10293457,0.97,0.23,-0.16,19488,10031.80,0,0,0,2.66,-9.24,6.65,0.97,0.23,-0.16
4.006836,-0.0041682273,-0.10350779,0.09893457,0.97,0.22,-0.17,19503,10031.80,0,0,165,4.41,-7.56,6.37,0.97,0.22,-0.17
3.006836,0.039831765,-0.062507786,0.08793457,0.97,0.21,-0.17,19518,10030.80,0,0,0,7.49,-4.69,5.60,0.97,0.21,-0.17
2.6074219,0.06783176,-0.035507783,0.05893457,0.97,0.21,-0.17,19525,10030.40,0,0,165,9.45,-2.80,3.57,0.97,0.21,-0.17
4.006836,0.06283178,-0.024507785,0.029934572,0.98,0.22,-0.17,19540,10031.80,0,0,0,9.10,-2.03,1.54,0.98,0.22,-0.17
4.607422,0.02783177,-0.038507786,0.008934572,0.99,0.22,-0.17,19555,10032.40,0,0,165,6.65,-3.01,0.07,0.99,0.22,-0.17
4.006836,-0.0031682253,-0.065507784,0.007934572,0.99,0.22,-0.16,19563,10031.80,0,0,0,4.48,-4.90,0.00,0.99,0.22,-0.16
4.006836,-0.03216823,-0.098507784,0.021934573,1.0,0.23,-0.16,19578,10031.80,0,0,165,2.45,-7.21,0.98,1.00,0.23,-0.16
4.006836,-0.088168226,-0.120507784,0.07693457,1.0,0.22,-0.17,19593,10031.80,0,0,0,-1.47,-8.75,4.83,1.00,0.22,-0.17
4.006836,-0.08316823,-0.12350779,0.10793457,0.99,0.22,-0.17,19601,10031.80,0,0,165,-1.12,-8.96,7.00,0.99,0.22,-0.17
3.006836,-0.012168229,-0.13350779,0.13693456,1.0,0.22,-0.19,19616,10030.80,0,0,0,3.85,-9.66,9.03,1.00,0.22,-0.19
3.6074219,0.10283177,-0.13350779,0.14593457,1.0,0.21,-0.19,19630,10031.40,0,0,165,11.90,-9.66,9.66,1.00,0.21,-0.19
4.006836,0.15383178,-0.113507785,0.18493457,0.99,0.22,-0.17,19638,10031.80,0,0,0,15.47,-8.26,12.39,0.99,0.22,-0.17
3.006836,0.17283177,-0.12250779,0.23093456,0.98,0.22,-0.17,19653,10030.80,0,0,165,16.80,-8.89,15.61,0.98,0.22,-0.17
3.006836,0.19683176,-0.13050778,0.26093456,0.98,0.21,-0.16,19668,10030.80,0,0,0,18.48,-9.45,17.71,0.98,0.21,-0.16
3.006836,0.19583178,-0.16850778,0.26693454,0.97,0.16,-0.16,19676,10030.80,0,0,165,18.41,-12.11,18.13,0.97,0.16,-0.16
4.006836,0.16483176,-0.22150779,0.25493458,0.97,0.19,-0.15,19693,10031.80,0,0,0,16.24,-15.82,17.29,0.97,0.19,-0.15
3.6074219,0.026831768,-0.22850779,0.30293456,0.96,0.21,-0.15,19711,10031.40,0,0,165,6.58,-16.31,20.65,0.96,0.21,-0.15
3.006836,-0.05816823,-0.2325078,0.38493457,0.95,0.18,-0.16,19713,10030.80,0,0,0,0.63,-16.59,26.39,0.95,0.18,-0.16
3.006836,-0.12516823,-0.25650778,0.35693458,0.9,0.21,-0.11,19728,10030.80,0,0,165,-4.06,-18.27,24.43,0.90,0.21,-0.11
5.006836,-0.42316824,-0.12250779,0.23093456,0.95,0.18,-0.24,19743,10032.80,0,0,0,-24.92,-8.89,15.61,0.95,0.18,-0.24
4.006836,-0.37316823,-0.10150778,0.26293457,0.96,0.15,-0.21,19751,10031.80,0,0,165,-21.42,-7.42,17.85,0.96,0.15,-0.21
3.006836,-0.14016822,-0.14150779,0.28393456,0.94,0.16,-0.18,19765,10030.80,0,0,0,-5.11,-10.22,19.32,0.94,0.16,-0.18
3.006836,-0.099168226,-0.113507785,0.29393458,0.94,0.18,-0.23,19780,10030.80,0,0,165,-2.24,-8.26,20.02,0.94,0.18,-0.23
4.006836,-0.040168226,0.008492215,0.25393456,0.93,0.15,-0.2,19790,10031.80,0,0,0,1.89,0.28,17.22,0.93,0.15,-0.20
4.006836,0.10783177,0.07949222,0.08893457,1.0,0.1,-0.13,19803,10031.80,0,0,165,12.25,5.25,5.67,1.00,0.10,-0.13
4.006836,0.19283178,-0.13550779,-0.20406543,0.91,-0.02,-0.04,19818,10031.80,0,0,0,18.20,-9.80,-14.84,0.91,-0.02,-0.04
3.006836,0.41283175,-0.44450778,-0.5940654,0.95,0.05,-0.13,19826,10030.80,0,0,165,33.60,-31.43,-42.14,0.95,0.05,-0.13
4.006836,0.72183174,-0.48150778,-0.34506541,1.07,0.16,-0.18,19841,10031.80,0,0,0,55.23,-34.02,-24.71,1.07,0.16,-0.18
4.006836,0.64083177,-0.2625078,0.17493457,1.0,0.3,-0.27,19856,10031.80,0,0,165,49.56,-18.69,11.69,1.00,0.30,-0.27
4.006836,0.4288318,-0.39650777,0.35793456,0.95,0.22,-0.25,19871,10031.80,0,0,0,34.72,-28.07,24.50,0.95,0.22,-0.25
4.006836,0.36283177,-0.5005078,0.17893457,0.98,0.14,-0.22,19878,10031.80,0,0,165,30.10,-35.35,11.97,0.98,0.14,-0.22
4.006836,0.21183178,-0.54950774,9.3457196E-4,1.03,0.16,-0.22,19904,10031.80,0,0,0,19.53,-38.78,-0.49,1.03,0.16,-0.22
3.006836,0.01283177,-0.3945078,0.12493456,0.97,0.17,-0.28,19915,10030.80,0,0,165,5.60,-27.93,8.19,0.97,0.17,-0.28
4.006836,-0.17216823,-0.17450778,0.4439346,0.95,0.14,-0.27,19916,10031.80,0,0,0,-7.35,-12.53,30.52,0.95,0.14,-0.27
4.006836,-0.38616824,0.1354922,0.13593458,1.02,0.13,-0.31,19930,10031.80,0,0,165,-22.33,9.17,8.96,1.02,0.13,-0.31
4.3066406,-0.07416823,0.11149221,-0.2510654,0.97,0.12,-0.29,19938,10032.10,0,0,0,-0.49,7.49,-18.13,0.97,0.12,-0.29
4.006836,0.39283177,0.37549222,-0.80206543,0.94,0.15,-0.28,19953,10031.80,0,0,165,32.20,25.97,-56.70,0.94,0.15,-0.28
5.006836,0.7038318,-0.2325078,0.5159346,0.95,0.45,0.0,19968,10032.80,0,0,0,53.97,-16.59,35.56,0.95,0.45,0.00
3.006836,0.15683177,-0.2115078,0.58393455,0.96,0.13,-0.19,19976,10030.80,0,0,165,15.68,-15.12,40.32,0.96,0.13,-0.19
4.006836,0.030831777,-0.7365078,0.80893457,0.98,0.1,-0.24,19990,10031.80,0,0,0,6.86,-51.87,56.07,0.98,0.10,-0.24
4.006836,0.11183176,-0.6995078,1.1099346,1.06,0.12,-0.26,20006,10031.80,0,0,165,12.53,-49.28,77.14,1.06,0.12,-0.26
3.006836,0.17383179,-0.6565078,1.1359346,0.96,0.12,-0.26,20012,10030.80,0,0,0,16.87,-46.27,78.96,0.96,0.12,-0.26
5.3066406,0.11683177,-0.58450776,1.0259346,0.91,0.12,-0.28,20028,10033.10,0,0,165,12.88,-41.23,71.26,0.91,0.12,-0.28
4.006836,0.07183177,-0.5175078,0.8659346,0.88,0.13,-0.32,20043,10031.80,0,0,0,9.73,-36.54,60.06,0.88,0.13,-0.32
4.006836,0.04283177,-0.39350778,0.77293456,0.89,0.11,-0.34,20050,10031.80,0,0,165,7.70,-27.86,53.55,0.89,0.11,-0.34
3.006836,0.024831772,-0.30850777,0.68893456,0.86,0.07,-0.48,20066,10030.80,0,0,0,6.44,-21.91,47.67,0.86,0.07,-0.48
5.006836,0.07783177,-0.34250778,0.9319346,0.91,0.06,-0.31,20081,10032.80,0,0,165,10.15,-24.29,64.68,0.91,0.06,-0.31
4.006836,0.043831773,-0.1735078,0.6179346,0.91,0.05,-0.33,20088,10031.80,0,0,0,7.77,-12.46,42.70,0.91,0.05,-0.33
4.006836,0.12283177,-0.2035078,0.41793457,0.92,0.02,-0.33,20103,10031.80,0,0,165,13.30,-14.56,28.70,0.92,0.02,-0.33
5.006836,0.24883178,-0.109507784,0.32393458,0.9,0.04,-0.33,20118,10032.80,0,0,0,22.12,-7.98,22.12,0.90,0.04,-0.33
4.006836,0.19983178,-0.023507787,0.31693456,0.89,0.03,-0.34,20126,10031.80,0,0,165,18.69,-1.96,21.63,0.89,0.03,-0.34
