Pressure_Rel,GyroX_Rel,GyroY_Rel,GyroZ_Rel,AccX_Rel,AccY_Rel,AccZ_Rel,Timestamp,Pressure_abs,HeartRate,Oxygen,Status,GyroX,GyroY,GyroZ,AccX,AccY,AccZ
0.0,0.0,0.0,0.0,0.0,0.0,0.0,3101,10070.50,0,0,165,0.70,-2.73,0.14,-0.16,1.00,0.09
0.0,0.0,0.0,0.0,0.0,0.0,0.0,3117,10070.80,0,0,0,0.77,-2.87,0.00,-0.16,1.00,0.09
0.0,0.0,0.0,0.0,0.0,0.0,0.0,3132,10071.40,0,0,165,0.70,-2.94,0.14,-0.16,1.00,0.09
0.0,0.0,0.0,0.0,0.0,0.0,0.0,3139,10071.40,0,0,0,0.49,-2.87,0.00,-0.16,1.00,0.09
0.0,0.0,0.0,0.0,0.0,0.0,0.0,3154,10071.80,0,0,165,0.56,-2.94,0.00,-0.16,1.00,0.09
0.0,0.0,0.0,0.0,0.0,0.0,0.0,3169,10071.40,0,0,0,0.70,-2.87,0.07,-0.16,1.00,0.09
0.0,0.0,0.0,0.0,0.0,0.0,0.0,3176,10070.50,0,0,165,0.63,-3.01,0.00,-0.16,1.00,0.09
0.0,0.0,0.0,0.0,0.0,0.0,0.0,3191,10071.80,0,0,0,0.56,-3.01,0.21,-0.16,1.00,0.09
0.0,0.0,0.0,0.0,0.0,0.0,0.0,3207,10071.40,0,0,165,0.63,-2.87,0.07,-0.16,1.00,0.09
0.0,0.0,0.0,0.0,0.0,0.0,0.0,3214,10071.40,0,0,0,0.63,-3.01,0.07,-0.16,1.00,0.09
0.0,0.0,0.0,0.0,0.0,0.0,0.0,3229,10071.40,0,0,165,0.56,-2.87,0.00,-0.16,1.00,0.09
0.0,0.0,0.0,0.0,0.0,0.0,0.0,3244,10071.80,0,0,0,0.49,-2.87,0.00,-0.16,1.00,0.09
0.0,0.0,0.0,0.0,0.0,0.0,0.0,3251,10071.40,0,0,165,0.56,-2.87,-0.07,-0.16,1.00,0.09
0.0,0.0,0.0,0.0,0.0,0.0,0.0,3266,10070.50,0,0,0,0.70,-2.87,0.07,-0.16,1.00,0.09
0.0,0.0,0.0,0.0,0.0,0.0,0.0,3282,10071.40,0,0,165,0.77,-3.01,0.07,-0.16,1.00,0.09
0.0,0.0,0.0,0.0,0.0,0.0,0.0,3289,10071.40,0,0,0,0.49,-2.94,-0.07,-0.16,1.00,0.09
0.0,0.0,0.0,0.0,0.0,0.0,0.0,3304,10071.40,0,0,165,0.70,-3.01,0.07,-0.16,1.00,0.09
0.0,0.0,0.0,0.0,0.0,0.0,0.0,3320,10071.80,0,0,0,0.63,-3.01,0.14,-0.16,1.00,0.09
0.0,0.0,0.0,0.0,0.0,0.0,0.0,3327,10071.80,0,0,165,0.63,-2.80,0.00,-0.16,1.00,0.09
0.0,0.0,0.0,0.0,0.0,0.0,0.0,3342,10070.50,0,0,0,0.70,-2.87,0.21,-0.16,1.00,0.09
0.0,0.0,0.0,0.0,0.0,0.0,0.0,3357,10070.80,0,0,165,0.56,-2.94,0.00,-0.16,1.00,0.09
0.0,0.0,0.0,0.0,0.0,0.0,0.0,3364,10071.80,0,0,0,0.70,-2.94,0.14,-0.16,0.99,0.09
0.0,0.0,0.0,0.0,0.0,0.0,0.0,3379,10070.80,0,0,165,0.49,-2.87,0.07,-0.16,1.00,0.09
0.0,0.0,0.0,0.0,0.0,0.0,0.0,3395,10071.40,0,0,0,0.77,-2.94,0.14,-0.16,1.00,0.09
0.0,0.0,0.0,0.0,0.0,0.0,0.0,3403,10070.80,0,0,165,0.63,-3.01,0.07,-0.16,1.00,0.09
0.0,0.0,0.0,0.0,0.0,0.0,0.0,3416,10071.40,0,0,0,0.56,-2.80,0.14,-0.16,1.00,0.09
0.0,0.0,0.0,0.0,0.0,0.0,0.0,3431,10071.40,0,0,165,0.70,-2.80,0.28,-0.16,1.00,0.09
0.0,0.0,0.0,0.0,0.0,0.0,0.0,3439,10071.40,0,0,0,0.63,-2.87,0.07,-0.16,1.00,0.09
0.0,0.0,0.0,0.0,0.0,0.0,0.0,3454,10070.50,0,0,165,0.56,-2.94,0.14,-0.16,1.00,0.09
0.0,0.0,0.0,0.0,0.0,0.0,0.0,3469,10071.40,0,0,0,0.49,-2.94,-0.07,-0.16,1.00,0.09
0.0,0.0,0.0,0.0,0.0,0.0,0.0,3476,10071.80,0,0,165,0.63,-3.01,0.07,-0.15,1.00,0.09
0.0,0.0,0.0,0.0,0.0,0.0,0.0,3491,10071.80,0,0,0,0.70,-3.08,0.00,-0.16,1.00,0.09
0.0,0.0,0.0,0.0,0.0,0.0,0.0,3514,10070.50,0,0,165,0.63,-3.08,-0.07,-0.16,1.00,0.09
0.0,0.0,0.0,0.0,0.0,0.0,0.0,3515,10070.80,0,0,0,0.77,-2.94,0.21,-0.16,1.00,0.09
0.0,0.0,0.0,0.0,0.0,0.0,0.0,3529,10071.80,0,0,165,0.49,-2.87,-0.07,-0.16,1.00,0.09
0.0,0.0,0.0,0.0,0.0,0.0,0.0,3544,10071.40,0,0,0,0.49,-2.87,0.14,-0.16,1.00,0.09
0.0,0.0,0.0,0.0,0.0,0.0,0.0,3552,10070.80,0,0,165,0.35,-2.87,0.00,-0.16,1.00,0.09
0.0,0.0,0.0,0.0,0.0,0.0,0.0,3567,10070.80,0,0,0,0.49,-3.01,0.00,-0.16,1.00,0.09
0.0,0.0,0.0,0.0,0.0,0.0,0.0,3581,10071.80,0,0,165,0.56,-2.87,0.07,-0.16,1.00,0.09
0.0,0.0,0.0,0.0,0.0,0.0,0.0,3589,10070.50,0,0,0,0.70,-2.94,0.07,-0.16,0.99,0.09
0.0,0.0,0.0,0.0,0.0,0.0,0.0,3604,10071.40,0,0,165,0.70,-2.94,-0.07,-0.16,1.00,0.09
0.0,0.0,0.0,0.0,0.0,0.0,0.0,3620,10071.40,0,0,0,0.63,-2.87,0.07,-0.16,1.00,0.09
0.0,0.0,0.0,0.0,0.0,0.0,0.0,3626,10071.80,0,0,165,0.63,-2.94,0.07,-0.16,1.00,0.09
0.0,0.0,0.0,0.0,0.0,0.0,0.0,3642,10070.50,0,0,0,0.63,-2.87,0.14,-0.16,1.00,0.09
0.0,0.0,0.0,0.0,0.0,0.0,0.0,3657,10070.80,0,0,165,0.70,-2.94,0.14,-0.16,1.00,0.09
0.0,0.0,0.0,0.0,0.0,0.0,0.0,3664,10071.40,0,0,0,0.56,-2.94,0.14,-0.16,1.00,0.09
0.0,0.0,0.0,0.0,0.0,0.0,0.0,3680,10070.80,0,0,165,0.70,-2.94,0.14,-0.16,1.00,0.09
0.0,0.0,0.0,0.0,0.0,0.0,0.0,3695,10071.80,0,0,0,0.84,-2.87,0.21,-0.16,1.00,0.09
0.0,0.0,0.0,0.0,0.0,0.0,0.0,3702,10071.80,0,0,165,0.63,-2.80,0.14,-0.16,1.00,0.09
0.0,0.0,0.0,0.0,0.0,0.0,0.0,3717,10069.80,0,0,0,0.77,-2.87,0.14,-0.16,1.00,0.09
0.0,0.0,0.0,0.0,0.0,0.0,0.0,3732,10071.80,0,0,165,0.56,-2.94,0.00,-0.16,1.00,0.09
0.0,0.0,0.0,0.0,0.0,0.0,0.0,3739,10070.80,0,0,0,0.56,-2.94,0.07,-0.16,1.00,0.09
0.0,0.0,0.0,0.0,0.0,0.0,0.0,3754,10071.80,0,0,165,0.70,-2.94,0.07,-0.16,1.00,0.09
0.0,0.0,0.0,0.0,0.0,0.0,0.0,3761,10070.50,0,0,0,0.70,-2.94,0.00,-0.16,1.00,0.09
0.0,0.0,0.0,0.0,0.0,0.0,0.0,3776,10070.50,0,0,165,0.56,-3.01,0.00,-0.16,1.00,0.09
0.0,0.0,0.0,0.0,0.0,0.0,0.0,3799,10070.50,0,0,0,0.56,-2.94,-0.07,-0.16,0.88,0.09
0.0,0.0,0.0,0.0,0.0,0.0,0.0,3800,10069.80,0,0,165,0.70,-2.94,0.07,-0.16,1.00,0.09
0.0,0.0,0.0,0.0,0.0,0.0,0.0,3814,10071.80,0,0,0,0.70,-2.80,0.14,-0.16,1.00,0.09
0.0,0.0,0.0,0.0,0.0,0.0,0.0,3829,10070.80,0,0,165,0.63,-2.87,0.07,-0.16,1.00,0.09
0.0,0.0,0.0,0.0,0.0,0.0,0.0,3844,10070.50,0,0,0,0.56,-2.87,0.14,-0.16,1.00,0.09
0.0,0.0,0.0,0.0,0.0,0.0,0.0,3859,10071.80,0,0,165,0.63,-2.87,-0.07,-0.16,1.00,0.09
0.0,0.0,0.0,0.0,0.0,0.0,0.0,3866,10071.80,0,0,0,0.63,-3.01,0.00,-0.16,1.00,0.09
0.0,0.0,0.0,0.0,0.0,0.0,0.0,3881,10071.80,0,0,165,0.56,-2.94,-0.07,-0.16,1.00,0.09
0.0,0.0,0.0,0.0,0.0,0.0,0.0,3889,10070.80,0,0,0,0.56,-2.94,-0.07,-0.16,1.00,0.09
0.0,0.0,0.0,0.0,0.0,0.0,0.0,3904,10071.80,0,0,165,0.63,-3.01,0.00,-0.16,1.00,0.09
0.0,0.0,0.0,0.0,0.0,0.0,0.0,3921,10070.80,0,0,0,0.56,-2.94,0.21,-0.16,1.00,0.09
0.0,0.0,0.0,0.0,0.0,0.0,0.0,3927,10070.80,0,0,165,0.70,-2.73,0.21,-0.16,1.00,0.09
0.0,0.0,0.0,0.0,0.0,0.0,0.0,3941,10070.80,0,0,0,0.63,-2.73,0.14,-0.16,1.00,0.09
0.0,0.0,0.0,0.0,0.0,0.0,0.0,3957,10071.80,0,0,165,0.63,-2.73,0.28,-0.16,1.00,0.09
0.0,0.0,0.0,0.0,0.0,0.0,0.0,3964,10070.80,0,0,0,0.49,-2.94,0.07,-0.16,1.00,0.09
0.0,0.0,0.0,0.0,0.0,0.0,0.0,3979,10071.40,0,0,165,0.63,-2.94,0.14,-0.16,1.00,0.09
0.0,0.0,0.0,0.0,0.0,0.0,0.0,3994,10071.40,0,0,0,0.70,-2.87,0.07,-0.16,1.00,0.09
0.0,0.0,0.0,0.0,0.0,0.0,0.0,4002,10070.80,0,0,165,0.84,-2.94,0.00,-0.16,1.00,0.09
0.0,0.0,0.0,0.0,0.0,0.0,0.0,4017,10070.80,0,0,0,0.63,-2.80,0.14,-0.16,1.00,0.09
0.0,0.0,0.0,0.0,0.0,0.0,0.0,4032,10071.80,0,0,165,0.63,-2.80,0.00,-0.16,1.00,0.09
0.0,0.0,0.0,0.0,0.0,0.0,0.0,4039,10071.40,0,0,0,0.70,-2.87,0.14,-0.16,1.00,0.09
0.0,0.0,0.0,0.0,0.0,0.0,0.0,4054,10071.80,0,0,165,0.56,-2.87,0.00,-0.16,1.00,0.09
0.0,0.0,0.0,0.0,0.0,0.0,0.0,4071,10071.40,0,0,0,0.56,-2.94,0.14,-0.16,1.00,0.09
0.0,0.0,0.0,0.0,0.0,0.0,0.0,4077,10071.40,0,0,165,0.56,-3.01,0.07,-0.16,1.00,0.09
0.0,0.0,0.0,0.0,0.0,0.0,0.0,4099,10072.40,0,0,0,0.63,-2.87,0.07,-0.16,1.00,0.08
0.0,0.0,0.0,0.0,0.0,0.0,0.0,4106,10070.80,0,0,165,0.56,-2.80,0.00,-0.16,1.00,0.08
0.0,0.0,0.0,0.0,0.0,0.0,0.0,4114,10071.80,0,0,0,0.42,-2.80,-0.14,-0.16,1.00,0.09
0.0,0.0,0.0,0.0,0.0,0.0,0.0,4129,10070.80,0,0,165,0.56,-2.80,0.00,-0.15,1.00,0.09
0.0,0.0,0.0,0.0,0.0,0.0,0.0,4144,10070.80,0,0,0,0.63,-3.01,0.00,-0.15,1.00,0.09
0.0,0.0,0.0,0.0,0.0,0.0,0.0,4152,10071.80,0,0,165,0.63,-3.29,-17.78,-0.15,1.00,0.09
0.0,0.0,0.0,0.0,0.0,0.0,0.0,4167,10072.40,0,0,0,0.77,-3.29,-0.07,-0.16,0.99,0.09
0.0,0.0,0.0,0.0,0.0,0.0,0.0,4182,10071.40,0,0,165,0.63,-3.08,-0.35,-0.17,0.99,0.09
0.0,0.0,0.0,0.0,0.0,0.0,0.0,4190,10071.80,0,0,0,0.42,-2.45,0.21,-0.18,1.00,0.09
0.0,0.0,0.0,0.0,0.0,0.0,0.0,4204,10071.80,0,0,165,0.84,-2.31,0.14,-0.17,1.01,0.09
0.0,0.0,0.0,0.0,0.0,0.0,0.0,4220,10072.70,0,0,0,1.26,-2.45,0.77,-0.15,0.98,0.09
0.0,0.0,0.0,0.0,0.0,0.0,0.0,4227,10071.80,0,0,165,0.42,-2.94,-0.14,-0.15,0.99,0.09
0.0,0.0,0.0,0.0,0.0,0.0,0.0,4242,10071.80,0,0,0,0.21,-3.36,0.14,-0.15,1.00,0.09
0.0,0.0,0.0,0.0,0.0,0.0,0.0,4256,10071.80,0,0,165,0.84,-3.64,0.00,-0.16,1.00,0.09
0.33398438,3.6957394E-4,-2.3601577E-4,-0.0013074527,-0.16,1.0,0.09,8284,10072.10,0,0,0,0.63,-2.94,0.07,-0.16,1.00,0.09
0.33398438,3.6957394E-4,-2.3601577E-4,-0.0013074527,-0.16,1.0,0.09,8291,10072.10,0,0,165,0.63,-2.94,0.07,-0.16,1.00,0.09
-0.6660156,-6.304253E-4,-2.3601577E-4,-3.0745263E-4,-0.16,1.0,0.09,8315,10071.10,0,0,0,0.56,-2.94,0.14,-0.16,1.00,0.09
0.33398438,-6.304253E-4,-0.0012360178,-0.0023074527,-0.16,1.0,0.09,8322,10072.10,0,0,165,0.56,-3.01,0.00,-0.16,1.00,0.09
-0.36523438,0.0013695741,-2.3601577E-4,-0.0023074527,-0.16,1.0,0.09,8329,10071.40,0,0,0,0.70,-2.94,0.00,-0.16,1.00,0.09
0.6347656,-0.0016304255,7.6398626E-4,-0.0043074526,-0.16,1.0,0.09,8346,10072.40,0,0,165,0.49,-2.87,-0.14,-0.16,1.00,0.09
-0.36523438,3.6957394E-4,-2.3601577E-4,-0.0013074527,-0.16,1.0,0.09,8359,10071.40,0,0,0,0.63,-2.94,0.07,-0.16,1.00,0.09
0.6347656,-0.0016304255,-2.3601577E-4,-0.003307453,-0.16,1.0,0.09,8367,10072.40,0,0,165,0.49,-2.94,-0.07,-0.16,1.00,0.09
0.6347656,3.6957394E-4,-2.3601577E-4,-3.0745263E-4,-0.16,1.0,0.09,8382,10072.40,0,0,0,0.63,-2.94,0.14,-0.16,1.00,0.09
0.6347656,3.6957394E-4,-0.0012360178,-0.0023074527,-0.16,1.0,0.09,8397,10072.40,0,0,165,0.63,-3.01,0.00,-0.16,1.00,0.09
0.33398438,-6.304253E-4,-2.3601577E-4,-0.0023074527,-0.16,1.0,0.09,8405,10072.10,0,0,0,0.56,-2.94,0.00,-0.16,1.00,0.09
0.33398438,-6.304253E-4,-2.3601577E-4,-0.0013074527,-0.16,1.0,0.09,8423,10072.10,0,0,165,0.56,-2.94,0.07,-0.16,1.00,0.09
0.6347656,0.0013695741,-0.0012360178,-0.0013074527,-0.16,1.0,0.09,8434,10072.40,0,0,0,0.70,-3.01,0.07,-0.16,1.00,0.09
-0.6660156,0.0013695741,7.6398626E-4,6.9254707E-4,-0.16,1.0,0.09,8442,10071.10,0,0,165,0.70,-2.87,0.21,-0.16,1.00,0.09
0.33398438,3.6957394E-4,7.6398626E-4,-3.0745263E-4,-0.16,1.0,0.09,8456,10072.10,0,0,0,0.63,-2.87,0.14,-0.16,1.00,0.09
-0.6660156,0.0023695743,7.6398626E-4,-0.0013074527,-0.16,1.0,0.09,8471,10071.10,0,0,165,0.77,-2.87,0.07,-0.16,1.00,0.09
0.33398438,3.6957394E-4,-2.3601577E-4,-3.0745263E-4,-0.16,1.0,0.09,8479,10072.10,0,0,0,0.63,-2.94,0.14,-0.16,1.00,0.09
0.6347656,3.6957394E-4,7.6398626E-4,-0.003307453,-0.16,1.0,0.09,8496,10072.40,0,0,165,0.63,-2.87,-0.07,-0.16,1.00,0.09
0.6347656,0.0013695741,-2.3601577E-4,-3.0745263E-4,-0.16,1.0,0.09,8515,10072.40,0,0,0,0.70,-2.94,0.14,-0.16,1.00,0.09
0.33398438,3.6957394E-4,7.6398626E-4,-0.003307453,-0.16,1.0,0.09,8516,10072.10,0,0,165,0.63,-2.87,-0.07,-0.16,1.00,0.09
0.33398438,3.6957394E-4,-2.3601577E-4,-3.0745263E-4,-0.16,0.99,0.09,8543,10072.10,0,0,0,0.63,-2.94,0.14,-0.16,0.99,0.09
0.33398438,-0.0016304255,7.6398626E-4,-3.0745263E-4,-0.16,1.0,0.09,8549,10072.10,0,0,165,0.49,-2.87,0.14,-0.16,1.00,0.09
0.33398438,0.0013695741,7.6398626E-4,-0.0023074527,-0.16,1.0,0.08,8555,10072.10,0,0,0,0.70,-2.87,0.00,-0.16,1.00,0.08
0.33398438,-0.002630426,7.6398626E-4,-0.003307453,-0.16,1.0,0.09,8579,10072.10,0,0,165,0.42,-2.87,-0.07,-0.16,1.00,0.09
0.6347656,-6.304253E-4,-2.3601577E-4,-0.0023074527,-0.16,1.0,0.09,8584,10072.40,0,0,0,0.56,-2.94,0.00,-0.16,1.00,0.09
-0.36523438,0.0013695741,7.6398626E-4,-0.0013074527,-0.16,1.0,0.09,8592,10071.40,0,0,165,0.70,-2.87,0.07,-0.16,1.00,0.09
0.6347656,-0.0016304255,-2.3601577E-4,-0.003307453,-0.16,1.0,0.09,8612,10072.40,0,0,0,0.49,-2.94,-0.07,-0.16,1.00,0.09
0.33398438,-0.002630426,-0.0012360178,-0.0023074527,-0.16,1.0,0.09,8624,10072.10,0,0,165,0.42,-3.01,0.00,-0.16,1.00,0.09
0.6347656,-6.304253E-4,-2.3601577E-4,-0.003307453,-0.16,1.0,0.09,8629,10072.40,0,0,0,0.56,-2.94,-0.07,-0.16,1.00,0.09
0.33398438,3.6957394E-4,-0.0012360178,-0.0043074526,-0.16,1.0,0.09,8644,10072.10,0,0,165,0.63,-3.01,-0.14,-0.16,1.00,0.09
1.3339844,-6.304253E-4,-2.3601577E-4,-0.0013074527,-0.16,1.0,0.09,8666,10073.10,0,0,0,0.56,-2.94,0.07,-0.16,1.00,0.09
-0.6660156,-6.304253E-4,7.6398626E-4,-0.0023074527,-0.16,1.0,0.09,8668,10071.10,0,0,165,0.56,-2.87,0.00,-0.16,1.00,0.09
0.6347656,3.6957394E-4,7.6398626E-4,-3.0745263E-4,-0.16,1.0,0.09,8682,10072.40,0,0,0,0.63,-2.87,0.14,-0.16,1.00,0.09
0.33398438,-0.0016304255,-0.0012360178,-0.0013074527,-0.16,1.0,0.09,8698,10072.10,0,0,165,0.49,-3.01,0.07,-0.16,1.00,0.09
0.33398438,0.0013695741,-2.3601577E-4,-3.0745263E-4,-0.16,1.0,0.09,8705,10072.10,0,0,0,0.70,-2.94,0.14,-0.16,1.00,0.09
0.6347656,0.0013695741,-2.3601577E-4,-0.0023074527,-0.16,1.0,0.09,8720,10072.40,0,0,165,0.70,-2.94,0.00,-0.16,1.00,0.09
-0.6660156,-6.304253E-4,7.6398626E-4,-0.0013074527,-0.16,1.0,0.09,8728,10071.10,0,0,0,0.56,-2.87,0.07,-0.16,1.00,0.09
0.33398438,3.6957394E-4,0.0017639846,-3.0745263E-4,-0.16,1.0,0.09,8746,10072.10,0,0,165,0.63,-2.80,0.14,-0.16,1.00,0.09
-0.6660156,3.6957394E-4,7.6398626E-4,-0.0013074527,-0.16,1.0,0.09,8757,10071.10,0,0,0,0.63,-2.87,0.07,-0.16,1.00,0.09
0.33398438,3.6957394E-4,-0.0012360178,-3.0745263E-4,-0.16,1.0,0.09,8765,10072.10,0,0,165,0.63,-3.01,0.14,-0.16,1.00,0.09
-0.6660156,3.6957394E-4,-2.3601577E-4,-0.0023074527,-0.16,1.0,0.09,8779,10071.10,0,0,0,0.63,-2.94,0.00,-0.16,1.00,0.09
-0.6660156,3.6957394E-4,-2.3601577E-4,-3.0745263E-4,-0.16,1.0,0.09,8794,10071.10,0,0,165,0.63,-2.94,0.14,-0.16,1.00,0.09
0.33398438,-0.0016304255,-2.3601577E-4,-0.0023074527,-0.16,1.0,0.09,8802,10072.10,0,0,0,0.49,-2.94,0.00,-0.16,1.00,0.09
1.6347656,0.0013695741,7.6398626E-4,-3.0745263E-4,-0.16,0.99,0.09,8817,10073.40,0,0,165,0.70,-2.87,0.14,-0.16,0.99,0.09
-0.36523438,-6.304253E-4,-2.3601577E-4,-3.0745263E-4,-0.16,1.0,0.09,8831,10071.40,0,0,0,0.56,-2.94,0.14,-0.16,1.00,0.09
0.33398438,3.6957394E-4,-2.3601577E-4,-0.003307453,-0.16,1.0,0.09,8839,10072.10,0,0,165,0.63,-2.94,-0.07,-0.16,1.00,0.09
0.33398438,-6.304253E-4,-2.3601577E-4,-3.0745263E-4,-0.16,1.0,0.09,8854,10072.10,0,0,0,0.56,-2.94,0.14,-0.16,1.00,0.09
0.33398438,-0.0016304255,-2.3601577E-4,-0.0013074527,-0.16,1.0,0.09,8869,10072.10,0,0,165,0.49,-2.94,0.07,-0.16,1.00,0.09
0.33398438,-6.304253E-4,-0.0012360178,-0.0023074527,-0.16,1.0,0.09,8876,10072.10,0,0,0,0.56,-3.01,0.00,-0.16,1.00,0.09
0.33398438,-0.0016304255,-2.3601577E-4,-0.0023074527,-0.16,1.0,0.09,8892,10072.10,0,0,165,0.49,-2.94,0.00,-0.16,1.00,0.09
-0.6660156,0.0013695741,-0.002236016,-0.0043074526,-0.16,1.0,0.09,8907,10071.10,0,0,0,0.70,-3.08,-0.14,-0.16,1.00,0.09
0.33398438,-0.0016304255,-0.0012360178,-0.003307453,-0.16,1.0,0.09,8914,10072.10,0,0,165,0.49,-3.01,-0.07,-0.16,1.00,0.09
1.3339844,-6.304253E-4,-2.3601577E-4,-0.0023074527,-0.16,1.0,0.09,8929,10073.10,0,0,0,0.56,-2.94,0.00,-0.16,1.00,0.09
0.33398438,3.6957394E-4,-2.3601577E-4,-0.0023074527,-0.16,1.0,0.09,8944,10072.10,0,0,165,0.63,-2.94,0.00,-0.16,1.00,0.09
0.33398438,-6.304253E-4,-2.3601577E-4,-0.003307453,-0.16,1.0,0.09,8952,10072.10,0,0,0,0.56,-2.94,-0.07,-0.16,1.00,0.09
-0.6660156,3.6957394E-4,7.6398626E-4,6.9254707E-4,-0.16,1.0,0.09,8966,10071.10,0,0,165,0.63,-2.87,0.21,-0.16,1.00,0.09
-0.6660156,-0.0016304255,-2.3601577E-4,-0.0023074527,-0.16,1.0,0.09,8981,10071.10,0,0,0,0.49,-2.94,0.00,-0.16,1.00,0.09
0.33398438,0.0013695741,-0.0012360178,-3.0745263E-4,-0.16,1.0,0.09,8988,10072.10,0,0,165,0.70,-3.01,0.14,-0.16,1.00,0.09
0.33398438,3.6957394E-4,-0.0012360178,-0.0013074527,-0.16,1.0,0.09,9004,10072.10,0,0,0,0.63,-3.01,0.07,-0.16,1.00,0.09
0.33398438,3.6957394E-4,-0.0012360178,-0.003307453,-0.16,1.0,0.09,9019,10072.10,0,0,165,0.63,-3.01,-0.07,-0.16,1.00,0.09
1.3339844,3.6957394E-4,-2.3601577E-4,-0.0023074527,-0.16,1.0,0.09,9026,10073.10,0,0,0,0.63,-2.94,0.00,-0.16,1.00,0.09
0.33398438,0.0013695741,-0.0012360178,-0.0023074527,-0.16,1.0,0.09,9042,10072.10,0,0,165,0.70,-3.01,0.00,-0.16,1.00,0.09
0.6347656,-6.304253E-4,7.6398626E-4,-0.0013074527,-0.16,1.0,0.09,9057,10072.40,0,0,0,0.56,-2.87,0.07,-0.16,1.00,0.09
0.33398438,3.6957394E-4,-2.3601577E-4,6.9254707E-4,-0.16,1.0,0.09,9064,10072.10,0,0,165,0.63,-2.94,0.21,-0.16,1.00,0.09
0.33398438,0.0013695741,7.6398626E-4,-3.0745263E-4,-0.16,1.0,0.09,9079,10072.10,0,0,0,0.70,-2.87,0.14,-0.16,1.00,0.09
0.33398438,0.0013695741,-2.3601577E-4,-3.0745263E-4,-0.16,1.0,0.09,9095,10072.10,0,0,165,0.70,-2.94,0.14,-0.16,1.00,0.09
0.33398438,3.6957394E-4,0.0017639846,-0.0013074527,-0.16,1.0,0.09,9102,10072.10,0,0,0,0.63,-2.80,0.07,-0.16,1.00,0.09
1.3339844,0.0013695741,7.6398626E-4,6.9254707E-4,-0.16,1.0,0.09,9117,10073.10,0,0,165,0.70,-2.87,0.21,-0.16,1.00,0.09
-1.6660156,-6.304253E-4,7.6398626E-4,-0.0043074526,-0.16,1.0,0.09,9131,10070.10,0,0,0,0.56,-2.87,-0.14,-0.16,1.00,0.09
1.3339844,0.0013695741,7.6398626E-4,-3.0745263E-4,-0.16,1.0,0.09,9139,10073.10,0,0,165,0.70,-2.87,0.14,-0.16,1.00,0.09
0.33398438,-0.002630426,-2.3601577E-4,-0.0013074527,-0.16,1.0,0.09,9154,10072.10,0,0,0,0.42,-2.94,0.07,-0.16,1.00,0.09
0.33398438,3.6957394E-4,-0.0012360178,-0.003307453,-0.16,1.0,0.09,9170,10072.10,0,0,165,0.63,-3.01,-0.07,-0.16,1.00,0.09
0.33398438,-0.0016304255,-2.3601577E-4,-3.0745263E-4,-0.16,1.0,0.09,9177,10072.10,0,0,0,0.49,-2.94,0.14,-0.16,1.00,0.09
0.33398438,-6.304253E-4,-2.3601577E-4,-0.003307453,-0.16,1.0,0.09,9201,10072.10,0,0,165,0.56,-2.94,-0.07,-0.16,1.00,0.09
-0.6660156,-6.304253E-4,-0.0012360178,-0.0013074527,-0.16,1.0,0.09,9206,10071.10,0,0,0,0.56,-3.01,0.07,-0.16,1.00,0.09
0.33398438,3.6957394E-4,7.6398626E-4,-0.0023074527,-0.16,1.0,0.09,9215,10072.10,0,0,165,0.63,-2.87,0.00,-0.16,1.00,0.09
0.33398438,-0.0016304255,7.6398626E-4,-0.0013074527,-0.16,1.0,0.09,9229,10072.10,0,0,0,0.49,-2.87,0.07,-0.16,1.00,0.09
0.33398438,0.0013695741,-2.3601577E-4,-0.003307453,-0.16,1.0,0.09,9245,10072.10,0,0,165,0.70,-2.94,-0.07,-0.16,1.00,0.09
1.3339844,-6.304253E-4,-2.3601577E-4,-0.0023074527,-0.16,1.0,0.09,9250,10073.10,0,0,0,0.56,-2.94,0.00,-0.16,1.00,0.09
0.6347656,3.6957394E-4,-2.3601577E-4,-0.0043074526,-0.16,1.0,0.09,9266,10072.40,0,0,165,0.63,-2.94,-0.14,-0.16,1.00,0.09
0.33398438,-6.304253E-4,-2.3601577E-4,-0.0023074527,-0.16,1.0,0.09,9281,10072.10,0,0,0,0.56,-2.94,0.00,-0.16,1.00,0.09
0.33398438,0.0013695741,-2.3601577E-4,6.9254707E-4,-0.16,1.0,0.09,9289,10072.10,0,0,165,0.70,-2.94,0.21,-0.16,1.00,0.09
0.33398438,3.6957394E-4,-2.3601577E-4,-0.0023074527,-0.16,1.0,0.09,9304,10072.10,0,0,0,0.63,-2.94,0.00,-0.16,1.00,0.09
-0.6660156,0.0013695741,7.6398626E-4,-0.0013074527,-0.16,1.0,0.09,9319,10071.10,0,0,165,0.70,-2.87,0.07,-0.16,1.00,0.09
0.33398438,3.6957394E-4,7.6398626E-4,-0.0013074527,-0.16,1.0,0.09,9326,10072.10,0,0,0,0.63,-2.87,0.07,-0.16,1.00,0.09
1.3339844,0.0013695741,0.0017639846,-3.0745263E-4,-0.16,1.0,0.09,9341,10073.10,0,0,165,0.70,-2.80,0.14,-0.16,1.00,0.09
0.6347656,3.6957394E-4,0.0017639846,6.9254707E-4,-0.16,1.0,0.09,9357,10072.40,0,0,0,0.63,-2.80,0.21,-0.16,1.00,0.09
0.33398438,0.0013695741,7.6398626E-4,-3.0745263E-4,-0.16,1.0,0.09,9364,10072.10,0,0,165,0.70,-2.87,0.14,-0.16,1.00,0.09
1.3339844,3.6957394E-4,7.6398626E-4,-0.0013074527,-0.16,1.0,0.09,9379,10073.10,0,0,0,0.63,-2.87,0.07,-0.16,1.00,0.09
0.6347656,3.6957394E-4,7.6398626E-4,-0.0023074527,-0.16,1.0,0.09,9394,10072.40,0,0,165,0.63,-2.87,0.00,-0.16,1.00,0.09
-0.6660156,0.0013695741,0.0017639846,-0.0013074527,-0.16,1.0,0.09,9402,10071.10,0,0,0,0.70,-2.80,0.07,-0.16,1.00,0.09
1.3339844,3.6957394E-4,7.6398626E-4,-0.0023074527,-0.15,1.0,0.09,9417,10073.10,0,0,165,0.63,-2.87,0.00,-0.15,1.00,0.09
1.3339844,-6.304253E-4,-2.3601577E-4,-0.0023074527,-0.16,1.0,0.09,9432,10073.10,0,0,0,0.56,-2.94,0.00,-0.16,1.00,0.09
0.33398438,3.6957394E-4,7.6398626E-4,6.9254707E-4,-0.16,1.0,0.09,9439,10072.10,0,0,165,0.63,-2.87,0.21,-0.16,1.00,0.09
0.33398438,0.0013695741,-2.3601577E-4,-0.0023074527,-0.16,1.0,0.09,9454,10072.10,0,0,0,0.70,-2.94,0.00,-0.16,1.00,0.09
0.33398438,0.0013695741,-0.0012360178,-3.0745263E-4,-0.16,1.0,0.09,9469,10072.10,0,0,165,0.70,-3.01,0.14,-0.16,1.00,0.09
0.33398438,3.6957394E-4,7.6398626E-4,-0.0013074527,-0.16,1.0,0.09,9476,10072.10,0,0,0,0.63,-2.87,0.07,-0.16,1.00,0.09
1.3339844,-6.304253E-4,-2.3601577E-4,-3.0745263E-4,-0.16,1.0,0.09,9492,10073.10,0,0,165,0.56,-2.94,0.14,-0.16,1.00,0.09
0.33398438,-6.304253E-4,-2.3601577E-4,-0.0013074527,-0.16,1.0,0.09,9506,10072.10,0,0,0,0.56,-2.94,0.07,-0.16,1.00,0.09
0.33398438,-6.304253E-4,-2.3601577E-4,-0.0013074527,-0.16,1.0,0.09,9513,10072.10,0,0,165,0.56,-2.94,0.07,-0.16,1.00,0.09
0.33398438,-6.304253E-4,-0.0012360178,-0.0013074527,-0.16,1.0,0.09,9532,10072.10,0,0,0,0.56,-3.01,0.07,-0.16,1.00,0.09
1.3339844,-6.304253E-4,-2.3601577E-4,-0.0023074527,-0.16,0.99,0.09,9543,10073.10,0,0,165,0.56,-2.94,0.00,-0.16,0.99,0.09
0.33398438,3.6957394E-4,-0.0012360178,-0.0013074527,-0.16,1.0,0.09,9554,10072.10,0,0,0,0.63,-3.01,0.07,-0.16,1.00,0.09
0.33398438,-6.304253E-4,-2.3601577E-4,-0.0013074527,-0.16,1.0,0.09,9566,10072.10,0,0,165,0.56,-2.94,0.07,-0.16,1.00,0.09
0.33398438,-6.304253E-4,7.6398626E-4,-0.003307453,-0.16,1.0,0.09,9582,10072.10,0,0,0,0.56,-2.87,-0.07,-0.16,1.00,0.09
0.33398438,-6.304253E-4,7.6398626E-4,-3.0745263E-4,-0.16,1.0,0.09,9589,10072.10,0,0,165,0.56,-2.87,0.14,-0.16,1.00,0.09
0.33398438,3.6957394E-4,7.6398626E-4,-0.0023074527,-0.16,1.0,0.09,9604,10072.10,0,0,0,0.63,-2.87,0.00,-0.16,1.00,0.09
0.33398438,3.6957394E-4,7.6398626E-4,-0.0013074527,-0.16,1.0,0.09,9619,10072.10,0,0,165,0.63,-2.87,0.07,-0.16,1.00,0.09
1.3339844,0.0013695741,-0.0012360178,-0.0023074527,-0.16,1.0,0.09,9627,10073.10,0,0,0,0.70,-3.01,0.00,-0.16,1.00,0.09
1.3339844,0.0013695741,-2.3601577E-4,-0.0023074527,-0.16,1.0,0.09,9642,10073.10,0,0,165,0.70,-2.94,0.00,-0.16,1.00,0.09
1.3339844,3.6957394E-4,0.0017639846,-0.0013074527,-0.16,1.0,0.09,9656,10073.10,0,0,0,0.63,-2.80,0.07,-0.16,1.00,0.09
0.33398438,3.6957394E-4,7.6398626E-4,-0.0023074527,-0.16,1.0,0.09,9666,10072.10,0,0,165,0.63,-2.87,0.00,-0.16,1.00,0.09
1.3339844,3.6957394E-4,-2.3601577E-4,-3.0745263E-4,-0.16,1.0,0.09,9684,10073.10,0,0,0,0.63,-2.94,0.14,-0.16,1.00,0.09
0.33398438,3.6957394E-4,7.6398626E-4,-0.003307453,-0.16,0.99,0.09,9695,10072.10,0,0,165,0.63,-2.87,-0.07,-0.16,0.99,0.09
0.6347656,0.0013695741,-2.3601577E-4,-0.0013074527,-0.16,1.0,0.09,9703,10072.40,0,0,0,0.70,-2.94,0.07,-0.16,1.00,0.09
1.3339844,-6.304253E-4,7.6398626E-4,-0.0023074527,-0.16,1.0,0.09,9716,10073.10,0,0,165,0.56,-2.87,0.00,-0.16,1.00,0.09
1.3339844,3.6957394E-4,-2.3601577E-4,6.9254707E-4,-0.16,1.0,0.09,9731,10073.10,0,0,0,0.63,-2.94,0.21,-0.16,1.00,0.09
0.33398438,3.6957394E-4,7.6398626E-4,-0.0013074527,-0.16,1.0,0.09,9747,10072.10,0,0,165,0.63,-2.87,0.07,-0.16,1.00,0.09
1.3339844,-6.304253E-4,-2.3601577E-4,-3.0745263E-4,-0.16,1.0,0.09,9754,10073.10,0,0,0,0.56,-2.94,0.14,-0.16,1.00,0.09
0.33398438,-6.304253E-4,7.6398626E-4,-0.0013074527,-0.16,1.0,0.09,9770,10072.10,0,0,165,0.56,-2.87,0.07,-0.16,1.00,0.09
0.33398438,-0.0016304255,-2.3601577E-4,-0.003307453,-0.16,1.0,0.09,9776,10072.10,0,0,0,0.49,-2.94,-0.07,-0.16,1.00,0.09
0.33398438,-6.304253E-4,-0.0012360178,-0.0013074527,-0.16,1.0,0.09,9791,10072.10,0,0,165,0.56,-3.01,0.07,-0.16,1.00,0.09
0.33398438,-6.304253E-4,-2.3601577E-4,-0.0023074527,-0.16,1.0,0.09,9806,10072.10,0,0,0,0.56,-2.94,0.00,-0.16,1.00,0.09
0.33398438,-6.304253E-4,-2.3601577E-4,-3.0745263E-4,-0.16,1.0,0.09,9815,10072.10,0,0,165,0.56,-2.94,0.14,-0.16,1.00,0.09
0.034179688,3.6957394E-4,-2.3601577E-4,-0.0023074527,-0.16,1.0,0.09,9828,10071.80,0,0,0,0.63,-2.94,0.00,-0.16,1.00,0.09
1.3339844,0.0023695743,7.6398626E-4,-3.0745263E-4,-0.16,1.0,0.09,9844,10073.10,0,0,165,0.77,-2.87,0.14,-0.16,1.00,0.09
0.33398438,-0.0016304255,-2.3601577E-4,-0.0023074527,-0.16,1.0,0.09,9851,10072.10,0,0,0,0.49,-2.94,0.00,-0.16,1.00,0.09
1.3339844,-0.0016304255,7.6398626E-4,-3.0745263E-4,-0.16,1.0,0.09,9867,10073.10,0,0,165,0.49,-2.87,0.14,-0.16,1.00,0.09
0.33398438,0.0013695741,-0.0012360178,6.9254707E-4,-0.16,1.0,0.09,9881,10072.10,0,0,0,0.70,-3.01,0.21,-0.16,1.00,0.09
0.33398438,3.6957394E-4,-2.3601577E-4,-0.003307453,-0.16,1.0,0.09,9889,10072.10,0,0,165,0.63,-2.94,-0.07,-0.16,1.00,0.09
0.33398438,-6.304253E-4,-2.3601577E-4,-0.0013074527,-0.16,0.99,0.09,9904,10072.10,0,0,0,0.56,-2.94,0.07,-0.16,0.99,0.09
0.33398438,3.6957394E-4,7.6398626E-4,-0.0013074527,-0.16,1.0,0.09,9919,10072.10,0,0,165,0.63,-2.87,0.07,-0.16,1.00,0.09
0.33398438,3.6957394E-4,7.6398626E-4,-0.0023074527,-0.16,1.0,0.09,9927,10072.10,0,0,0,0.63,-2.87,0.00,-0.16,1.00,0.09
1.3339844,0.0013695741,-2.3601577E-4,-0.0013074527,-0.16,1.0,0.09,9941,10073.10,0,0,165,0.70,-2.94,0.07,-0.16,1.00,0.09
1.3339844,0.0013695741,7.6398626E-4,-0.0013074527,-0.16,1.0,0.09,9956,10073.10,0,0,0,0.70,-2.87,0.07,-0.16,1.00,0.09
0.33398438,3.6957394E-4,7.6398626E-4,-0.0013074527,-0.16,1.0,0.09,9964,10072.10,0,0,165,0.63,-2.87,0.07,-0.16,1.00,0.09
0.33398438,0.0013695741,7.6398626E-4,-3.0745263E-4,-0.16,1.0,0.09,9979,10072.10,0,0,0,0.70,-2.87,0.14,-0.16,1.00,0.09
0.6347656,0.0013695741,7.6398626E-4,-0.0013074527,-0.16,0.99,0.09,9994,10072.40,0,0,165,0.70,-2.87,0.07,-0.16,0.99,0.09
0.034179688,-6.304253E-4,-0.0012360178,-0.0023074527,-0.16,1.0,0.09,10002,10071.80,0,0,0,0.56,-3.01,0.00,-0.16,1.00,0.09
0.33398438,3.6957394E-4,-2.3601577E-4,-0.003307453,-0.16,1.0,0.09,10017,10072.10,0,0,165,0.63,-2.94,-0.07,-0.16,1.00,0.09
0.33398438,3.6957394E-4,7.6398626E-4,-0.0023074527,-0.16,1.0,0.09,10034,10072.10,0,0,0,0.63,-2.87,0.00,-0.16,1.00,0.09
1.3339844,3.6957394E-4,-2.3601577E-4,-0.003307453,-0.16,1.0,0.09,10039,10073.10,0,0,165,0.63,-2.94,-0.07,-0.16,1.00,0.09
0.33398438,3.6957394E-4,-2.3601577E-4,-0.0013074527,-0.16,1.0,0.09,10054,10072.10,0,0,0,0.63,-2.94,0.07,-0.16,1.00,0.09
1.3339844,3.6957394E-4,-2.3601577E-4,-0.003307453,-0.16,1.0,0.09,10070,10073.10,0,0,165,0.63,-2.94,-0.07,-0.16,1.00,0.09
0.33398438,-6.304253E-4,-0.0012360178,-0.0013074527,-0.16,1.0,0.09,10083,10072.10,0,0,0,0.56,-3.01,0.07,-0.16,1.00,0.09
0.33398438,-6.304253E-4,-2.3601577E-4,-0.0023074527,-0.16,1.0,0.09,10092,10072.10,0,0,165,0.56,-2.94,0.00,-0.16,1.00,0.09
0.33398438,3.6957394E-4,7.6398626E-4,-0.0023074527,-0.16,0.99,0.09,10106,10072.10,0,0,0,0.63,-2.87,0.00,-0.16,0.99,0.09
2.234375,-6.304253E-4,7.6398626E-4,-3.0745263E-4,-0.16,1.0,0.09,10114,10074.00,0,0,165,0.56,-2.87,0.14,-0.16,1.00,0.09
0.33398438,-6.304253E-4,7.6398626E-4,-0.0023074527,-0.16,1.0,0.09,10132,10072.10,0,0,0,0.56,-2.87,0.00,-0.16,1.00,0.09
1.3339844,3.6957394E-4,7.6398626E-4,-3.0745263E-4,-0.16,1.0,0.09,10137,10073.10,0,0,165,0.63,-2.87,0.14,-0.16,1.00,0.09
0.33398438,-6.304253E-4,-2.3601577E-4,-0.003307453,-0.16,1.0,0.09,10151,10072.10,0,0,0,0.56,-2.94,-0.07,-0.16,1.00,0.09
0.33398438,-6.304253E-4,-0.0012360178,-3.0745263E-4,-0.16,1.0,0.09,10166,10072.10,0,0,165,0.56,-3.01,0.14,-0.16,1.00,0.09
1.3339844,0.0013695741,-2.3601577E-4,-0.003307453,-0.16,1.0,0.09,10174,10073.10,0,0,0,0.70,-2.94,-0.07,-0.16,1.00,0.09
1.6347656,3.6957394E-4,7.6398626E-4,-0.0023074527,-0.16,0.99,0.09,10189,10073.40,0,0,165,0.63,-2.87,0.00,-0.16,0.99,0.09
0.6347656,-6.304253E-4,7.6398626E-4,-0.0023074527,-0.16,1.0,0.09,10205,10072.40,0,0,0,0.56,-2.87,0.00,-0.16,1.00,0.09
1.3339844,3.6957394E-4,-0.0012360178,-0.0043074526,-0.16,1.0,0.09,10211,10073.10,0,0,165,0.63,-3.01,-0.14,-0.16,1.00,0.09
-0.6660156,0.0023695743,-2.3601577E-4,-0.0013074527,-0.16,1.0,0.09,10226,10071.10,0,0,0,0.77,-2.94,0.07,-0.16,1.00,0.09
1.3339844,3.6957394E-4,-2.3601577E-4,-3.0745263E-4,-0.16,1.0,0.09,10242,10073.10,0,0,165,0.63,-2.94,0.14,-0.16,1.00,0.09
1.3339844,0.0013695741,7.6398626E-4,-0.0013074527,-0.16,1.0,0.09,10249,10073.10,0,0,0,0.70,-2.87,0.07,-0.16,1.00,0.09
0.9345703,3.6957394E-4,7.6398626E-4,-0.0013074527,-0.16,1.0,0.09,10264,10072.70,0,0,165,0.63,-2.87,0.07,-0.16,1.00,0.09
0.034179688,0.0013695741,-2.3601577E-4,-0.0013074527,-0.16,1.0,0.09,10279,10071.80,0,0,0,0.70,-2.94,0.07,-0.16,1.00,0.09
0.33398438,-6.304253E-4,7.6398626E-4,-0.0013074527,-0.16,1.0,0.09,10286,10072.10,0,0,165,0.56,-2.87,0.07,-0.16,1.00,0.09
1.3339844,3.6957394E-4,-2.3601577E-4,-0.0013074527,-0.16,1.0,0.09,10306,10073.10,0,0,0,0.63,-2.94,0.07,-0.16,1.00,0.09
0.034179688,0.0013695741,-2.3601577E-4,-0.0023074527,-0.16,1.0,0.09,10321,10071.80,0,0,165,0.70,-2.94,0.00,-0.16,1.00,0.09
0.33398438,3.6957394E-4,-0.0012360178,-0.0023074527,-0.16,1.0,0.09,10324,10072.10,0,0,0,0.63,-3.01,0.00,-0.16,1.00,0.09
0.33398438,0.0013695741,-0.0012360178,-3.0745263E-4,-0.16,1.0,0.09,10339,10072.10,0,0,165,0.70,-3.01,0.14,-0.16,1.00,0.09
2.234375,-6.304253E-4,-2.3601577E-4,-0.0023074527,-0.16,1.0,0.09,10354,10074.00,0,0,0,0.56,-2.94,0.00,-0.16,1.00,0.09
0.034179688,0.0013695741,-2.3601577E-4,-0.0013074527,-0.16,1.0,0.09,10361,10071.80,0,0,165,0.70,-2.94,0.07,-0.16,1.00,0.09
0.9345703,3.6957394E-4,-2.3601577E-4,-0.0013074527,-0.16,1.0,0.09,10377,10072.70,0,0,0,0.63,-2.94,0.07,-0.16,1.00,0.09
0.33398438,-6.304253E-4,-2.3601577E-4,-0.0023074527,-0.16,1.0,0.09,10391,10072.10,0,0,165,0.56,-2.94,0.00,-0.16,1.00,0.09
0.33398438,-0.0016304255,-2.3601577E-4,-0.0013074527,-0.16,1.0,0.09,10399,10072.10,0,0,0,0.49,-2.94,0.07,-0.16,1.00,0.09
0.33398438,-0.0016304255,7.6398626E-4,-3.0745263E-4,-0.16,1.0,0.09,10414,10072.10,0,0,165,0.49,-2.87,0.14,-0.16,1.00,0.09
1.3339844,-6.304253E-4,-0.0012360178,-0.0013074527,-0.16,1.0,0.09,10429,10073.10,0,0,0,0.56,-3.01,0.07,-0.16,1.00,0.09
0.33398438,-0.0016304255,-2.3601577E-4,-0.003307453,-0.16,1.0,0.09,10436,10072.10,0,0,165,0.49,-2.94,-0.07,-0.16,1.00,0.09
1.3339844,0.0013695741,-2.3601577E-4,-0.0023074527,-0.16,0.99,0.09,10452,10073.10,0,0,0,0.70,-2.94,0.00,-0.16,0.99,0.09
1.3339844,3.6957394E-4,-2.3601577E-4,-3.0745263E-4,-0.16,1.0,0.09,10466,10073.10,0,0,165,0.63,-2.94,0.14,-0.16,1.00,0.09
0.33398438,-6.304253E-4,-0.0012360178,-0.0023074527,-0.16,1.0,0.09,10474,10072.10,0,0,0,0.56,-3.01,0.00,-0.16,1.00,0.09
0.33398438,-6.304253E-4,-2.3601577E-4,6.9254707E-4,-0.16,1.0,0.09,10489,10072.10,0,0,165,0.56,-2.94,0.21,-0.16,1.00,0.09
1.3339844,-6.304253E-4,-2.3601577E-4,-0.0023074527,-0.16,1.0,0.09,10504,10073.10,0,0,0,0.56,-2.94,0.00,-0.16,1.00,0.09
1.3339844,-6.304253E-4,7.6398626E-4,-3.0745263E-4,-0.16,1.0,0.09,10512,10073.10,0,0,165,0.56,-2.87,0.14,-0.16,1.00,0.09
0.33398438,-6.304253E-4,-2.3601577E-4,-0.0013074527,-0.16,1.0,0.09,10526,10072.10,0,0,0,0.56,-2.94,0.07,-0.16,1.00,0.09
1.3339844,-6.304253E-4,-2.3601577E-4,-0.0023074527,-0.16,1.0,0.09,10541,10073.10,0,0,165,0.56,-2.94,0.00,-0.16,1.00,0.09
0.33398438,3.6957394E-4,-2.3601577E-4,-0.0013074527,-0.16,1.0,0.09,10549,10072.10,0,0,0,0.63,-2.94,0.07,-0.16,1.00,0.09
0.33398438,-6.304253E-4,-2.3601577E-4,-0.0023074527,-0.16,1.0,0.09,10564,10072.10,0,0,165,0.56,-2.94,0.00,-0.16,1.00,0.09
1.3339844,-6.304253E-4,-2.3601577E-4,-0.0013074527,-0.16,1.0,0.09,10578,10073.10,0,0,0,0.56,-2.94,0.07,-0.16,1.00,0.09
1.3339844,-0.0016304255,-0.0012360178,-0.0023074527,-0.16,1.0,0.09,10587,10073.10,0,0,165,0.49,-3.01,0.00,-0.16,1.00,0.09
0.33398438,3.6957394E-4,-2.3601577E-4,-3.0745263E-4,-0.16,1.0,0.09,10601,10072.10,0,0,0,0.63,-2.94,0.14,-0.16,1.00,0.09
0.33398438,3.6957394E-4,7.6398626E-4,-0.0023074527,-0.16,1.0,0.09,10617,10072.10,0,0,165,0.63,-2.87,0.00,-0.16,1.00,0.09
1.3339844,3.6957394E-4,-2.3601577E-4,-0.0023074527,-0.16,1.0,0.09,10624,10073.10,0,0,0,0.63,-2.94,0.00,-0.16,1.00,0.09
1.3339844,3.6957394E-4,7.6398626E-4,-3.0745263E-4,-0.16,1.0,0.09,10639,10073.10,0,0,165,0.63,-2.87,0.14,-0.16,1.00,0.09
0.33398438,-0.0016304255,-0.0012360178,-0.0013074527,-0.16,1.0,0.09,10654,10072.10,0,0,0,0.49,-3.01,0.07,-0.16,1.00,0.09
0.034179688,3.6957394E-4,-2.3601577E-4,-3.0745263E-4,-0.16,1.0,0.09,10661,10071.80,0,0,165,0.63,-2.94,0.14,-0.16,1.00,0.09
0.9345703,-0.0016304255,-2.3601577E-4,-0.0023074527,-0.16,1.0,0.09,10676,10072.70,0,0,0,0.49,-2.94,0.00,-0.16,1.00,0.09
1.3339844,3.6957394E-4,-2.3601577E-4,-3.0745263E-4,-0.16,1.0,0.09,10690,10073.10,0,0,165,0.63,-2.94,0.14,-0.16,1.00,0.09
1.3339844,-6.304253E-4,7.6398626E-4,-0.0013074527,-0.16,1.0,0.09,10699,10073.10,0,0,0,0.56,-2.87,0.07,-0.16,1.00,0.09
0.33398438,3.6957394E-4,-0.0012360178,-3.0745263E-4,-0.16,1.0,0.09,10714,10072.10,0,0,165,0.63,-3.01,0.14,-0.16,1.00,0.09
0.9345703,3.6957394E-4,7.6398626E-4,-3.0745263E-4,-0.16,1.0,0.09,10728,10072.70,0,0,0,0.63,-2.87,0.14,-0.16,1.00,0.09
0.33398438,3.6957394E-4,-2.3601577E-4,-0.0013074527,-0.16,1.0,0.09,10737,10072.10,0,0,165,0.63,-2.94,0.07,-0.16,1.00,0.09
1.3339844,3.6957394E-4,-2.3601577E-4,-0.0013074527,-0.16,1.0,0.09,10753,10073.10,0,0,0,0.63,-2.94,0.07,-0.16,1.00,0.09
1.3339844,-6.304253E-4,-0.0012360178,-0.003307453,-0.16,1.0,0.09,10767,10073.10,0,0,165,0.56,-3.01,-0.07,-0.16,1.00,0.09
0.33398438,3.6957394E-4,-2.3601577E-4,0.0016925475,-0.16,0.99,0.09,10774,10072.10,0,0,0,0.63,-2.94,0.28,-0.16,0.99,0.09
1.3339844,0.0013695741,7.6398626E-4,-0.0023074527,-0.16,1.0,0.09,10789,10073.10,0,0,165,0.70,-2.87,0.00,-0.16,1.00,0.09
0.9345703,-6.304253E-4,-2.3601577E-4,-0.0013074527,-0.16,0.99,0.09,10807,10072.70,0,0,0,0.56,-2.94,0.07,-0.16,0.99,0.09
0.33398438,-6.304253E-4,-0.002236016,-0.003307453,-0.16,1.0,0.09,10812,10072.10,0,0,165,0.56,-3.08,-0.07,-0.16,1.00,0.09
0.9345703,-0.0016304255,-0.0012360178,-0.0023074527,-0.16,1.0,0.09,10827,10072.70,0,0,0,0.49,-3.01,0.00,-0.16,1.00,0.09
0.33398438,0.0023695743,7.6398626E-4,-3.0745263E-4,-0.16,1.0,0.09,10842,10072.10,0,0,165,0.77,-2.87,0.14,-0.16,1.00,0.09
0.33398438,-6.304253E-4,-2.3601577E-4,-0.0023074527,-0.16,1.0,0.09,10849,10072.10,0,0,0,0.56,-2.94,0.00,-0.16,1.00,0.09
0.33398438,0.0013695741,7.6398626E-4,-0.0013074527,-0.16,1.0,0.09,10864,10072.10,0,0,165,0.70,-2.87,0.07,-0.16,1.00,0.09
1.3339844,-6.304253E-4,-0.002236016,-0.0023074527,-0.16,1.0,0.09,10878,10073.10,0,0,0,0.56,-3.08,0.00,-0.16,1.00,0.09
0.034179688,3.6957394E-4,7.6398626E-4,-0.0023074527,-0.16,1.0,0.09,10887,10071.80,0,0,165,0.63,-2.87,0.00,-0.16,1.00,0.09
0.9345703,0.0013695741,-2.3601577E-4,-3.0745263E-4,-0.16,1.0,0.09,10904,10072.70,0,0,0,0.70,-2.94,0.14,-0.16,1.00,0.09
1.3339844,-6.304253E-4,-2.3601577E-4,-0.0023074527,-0.16,1.0,0.09,10909,10073.10,0,0,165,0.56,-2.94,0.00,-0.16,1.00,0.09
1.3339844,-6.304253E-4,7.6398626E-4,6.9254707E-4,-0.16,1.0,0.09,10924,10073.10,0,0,0,0.56,-2.87,0.21,-0.16,1.00,0.09
0.33398438,-6.304253E-4,7.6398626E-4,-0.0013074527,-0.16,1.0,0.09,10939,10072.10,0,0,165,0.56,-2.87,0.07,-0.16,1.00,0.09
1.3339844,0.0013695741,-2.3601577E-4,-0.0013074527,-0.16,1.0,0.09,10946,10073.10,0,0,0,0.70,-2.94,0.07,-0.16,1.00,0.09
1.3339844,3.6957394E-4,-2.3601577E-4,-0.0023074527,-0.16,1.0,0.09,10962,10073.10,0,0,165,0.63,-2.94,0.00,-0.16,1.00,0.09
1.3339844,3.6957394E-4,-0.002236016,-0.0023074527,-0.16,1.0,0.09,10977,10073.10,0,0,0,0.63,-3.08,0.00,-0.16,1.00,0.09
0.33398438,-6.304253E-4,-2.3601577E-4,-0.0013074527,-0.16,1.0,0.09,10984,10072.10,0,0,165,0.56,-2.94,0.07,-0.16,1.00,0.09
1.3339844,-6.304253E-4,7.6398626E-4,-0.0013074527,-0.15,0.99,0.09,11000,10073.10,0,0,0,0.56,-2.87,0.07,-0.15,0.99,0.09
0.33398438,3.6957394E-4,-2.3601577E-4,-3.0745263E-4,-0.16,1.0,0.09,11014,10072.10,0,0,165,0.63,-2.94,0.14,-0.16,1.00,0.09
1.3339844,3.6957394E-4,-2.3601577E-4,-0.0013074527,-0.16,1.0,0.09,11022,10073.10,0,0,0,0.63,-2.94,0.07,-0.16,1.00,0.09
0.9345703,3.6957394E-4,-2.3601577E-4,-0.0013074527,-0.16,1.0,0.09,11036,10072.70,0,0,165,0.63,-2.94,0.07,-0.16,1.00,0.09
2.234375,-6.304253E-4,7.6398626E-4,-0.0023074527,-0.16,1.0,0.09,11052,10074.00,0,0,0,0.56,-2.87,0.00,-0.16,1.00,0.09
1.3339844,3.6957394E-4,-0.0012360178,-0.0013074527,-0.16,1.0,0.09,11059,10073.10,0,0,165,0.63,-3.01,0.07,-0.16,1.00,0.09
0.33398438,-6.304253E-4,-0.0012360178,-3.0745263E-4,-0.16,1.0,0.09,11074,10072.10,0,0,0,0.56,-3.01,0.14,-0.16,1.00,0.09
1.3339844,3.6957394E-4,7.6398626E-4,-0.003307453,-0.16,0.99,0.09,11088,10073.10,0,0,165,0.63,-2.87,-0.07,-0.16,0.99,0.09
0.33398438,0.0013695741,-2.3601577E-4,-0.0013074527,-0.16,1.0,0.09,11096,10072.10,0,0,0,0.70,-2.94,0.07,-0.16,1.00,0.09
0.9345703,-6.304253E-4,-2.3601577E-4,-0.0023074527,-0.16,1.0,0.09,11111,10072.70,0,0,165,0.56,-2.94,0.00,-0.16,1.00,0.09
1.3339844,0.0013695741,-0.0012360178,-0.0023074527,-0.16,1.0,0.09,11127,10073.10,0,0,0,0.70,-3.01,0.00,-0.16,1.00,0.09
1.3339844,0.0013695741,7.6398626E-4,-0.0023074527,-0.16,1.0,0.09,11134,10073.10,0,0,165,0.70,-2.87,0.00,-0.16,1.00,0.09
0.33398438,0.0013695741,7.6398626E-4,-0.0013074527,-0.16,1.0,0.09,11149,10072.10,0,0,0,0.70,-2.87,0.07,-0.16,1.00,0.09
0.9345703,3.6957394E-4,0.0017639846,-0.0023074527,-0.16,1.0,0.09,11163,10072.70,0,0,165,0.63,-2.80,0.00,-0.16,1.00,0.09
0.9345703,0.0013695741,-2.3601577E-4,-0.0023074527,-0.16,1.0,0.09,11171,10072.70,0,0,0,0.70,-2.94,0.00,-0.16,1.00,0.09
0.9345703,3.6957394E-4,0.0017639846,-0.0013074527,-0.16,1.0,0.09,11188,10072.70,0,0,165,0.63,-2.80,0.07,-0.16,1.00,0.09
0.9345703,3.6957394E-4,7.6398626E-4,-0.0023074527,-0.16,1.0,0.09,11201,10072.70,0,0,0,0.63,-2.87,0.00,-0.16,1.00,0.09
1.3339844,-6.304253E-4,7.6398626E-4,-3.0745263E-4,-0.16,0.99,0.09,11209,10073.10,0,0,165,0.56,-2.87,0.14,-0.16,0.99,0.09
0.33398438,-6.304253E-4,7.6398626E-4,-0.0013074527,-0.16,1.0,0.09,11225,10072.10,0,0,0,0.56,-2.87,0.07,-0.16,1.00,0.09
1.3339844,-6.304253E-4,7.6398626E-4,-3.0745263E-4,-0.16,1.0,0.09,11232,10073.10,0,0,165,0.56,-2.87,0.14,-0.16,1.00,0.09
1.3339844,-6.304253E-4,-2.3601577E-4,-0.0013074527,-0.16,1.0,0.09,11247,10073.10,0,0,0,0.56,-2.94,0.07,-0.16,1.00,0.09
1.3339844,3.6957394E-4,7.6398626E-4,-0.0023074527,-0.16,1.0,0.09,11262,10073.10,0,0,165,0.63,-2.87,0.00,-0.16,1.00,0.09
1.3339844,-6.304253E-4,-2.3601577E-4,-0.0023074527,-0.16,0.99,0.09,11277,10073.10,0,0,0,0.56,-2.94,0.00,-0.16,0.99,0.09
1.3339844,-6.304253E-4,-2.3601577E-4,-0.003307453,-0.16,1.0,0.09,11284,10073.10,0,0,165,0.56,-2.94,-0.07,-0.16,1.00,0.09
1.3339844,3.6957394E-4,-2.3601577E-4,-0.0013074527,-0.16,1.0,0.09,11299,10073.10,0,0,0,0.63,-2.94,0.07,-0.16,1.00,0.09
0.33398438,-6.304253E-4,7.6398626E-4,-3.0745263E-4,-0.16,1.0,0.09,11309,10072.10,0,0,165,0.56,-2.87,0.14,-0.16,1.00,0.09
0.9345703,3.6957394E-4,-0.0012360178,-0.0013074527,-0.16,1.0,0.09,11321,10072.70,0,0,0,0.63,-3.01,0.07,-0.16,1.00,0.09
2.234375,-0.002630426,-0.002236016,-0.0023074527,-0.16,1.0,0.09,11337,10074.00,0,0,165,0.42,-3.08,0.00,-0.16,1.00,0.09
1.3339844,-6.304253E-4,-2.3601577E-4,-0.0023074527,-0.16,1.0,0.09,11344,10073.10,0,0,0,0.56,-2.94,0.00,-0.16,1.00,0.09
0.9345703,3.6957394E-4,-0.0012360178,-0.0023074527,-0.16,1.0,0.09,11359,10072.70,0,0,165,0.63,-3.01,0.00,-0.16,1.00,0.09
0.33398438,3.6957394E-4,-0.0012360178,-0.003307453,-0.16,1.0,0.09,11374,10072.10,0,0,0,0.63,-3.01,-0.07,-0.16,1.00,0.09
0.33398438,3.6957394E-4,-2.3601577E-4,-0.0013074527,-0.16,1.0,0.09,11382,10072.10,0,0,165,0.63,-2.94,0.07,-0.16,1.00,0.09
0.9345703,3.6957394E-4,-2.3601577E-4,-3.0745263E-4,-0.16,1.0,0.09,11397,10072.70,0,0,0,0.63,-2.94,0.14,-0.16,1.00,0.09
0.33398438,3.6957394E-4,-2.3601577E-4,-0.0013074527,-0.16,1.0,0.09,11412,10072.10,0,0,165,0.63,-2.94,0.07,-0.16,1.00,0.09
1.3339844,0.0013695741,-2.3601577E-4,-3.0745263E-4,-0.16,1.0,0.09,11418,10073.10,0,0,0,0.70,-2.94,0.14,-0.16,1.00,0.09
0.33398438,-6.304253E-4,7.6398626E-4,-0.0023074527,-0.16,0.99,0.09,11436,10072.10,0,0,165,0.56,-2.87,0.00,-0.16,0.99,0.09
0.9345703,3.6957394E-4,7.6398626E-4,-0.0013074527,-0.16,1.0,0.09,11449,10072.70,0,0,0,0.63,-2.87,0.07,-0.16,1.00,0.09
2.234375,-6.304253E-4,-0.0012360178,-0.0013074527,-0.16,1.0,0.09,11465,10074.00,0,0,165,0.56,-3.01,0.07,-0.16,1.00,0.09
0.034179688,3.6957394E-4,-2.3601577E-4,-0.0013074527,-0.16,1.0,0.09,11472,10071.80,0,0,0,0.63,-2.94,0.07,-0.16,1.00,0.09
0.9345703,-6.304253E-4,-0.0012360178,-0.0023074527,-0.16,1.0,0.09,11487,10072.70,0,0,165,0.56,-3.01,0.00,-0.16,1.00,0.09
1.3339844,0.0013695741,-0.0012360178,-3.0745263E-4,-0.16,0.99,0.09,11494,10073.10,0,0,0,0.70,-3.01,0.14,-0.16,0.99,0.09
1.9345703,-6.304253E-4,-2.3601577E-4,-0.0013074527,-0.16,1.0,0.09,11509,10073.70,0,0,165,0.56,-2.94,0.07,-0.16,1.00,0.09
0.034179688,-6.304253E-4,-2.3601577E-4,-0.0013074527,-0.16,1.0,0.09,11524,10071.80,0,0,0,0.56,-2.94,0.07,-0.16,1.00,0.09
0.9345703,-6.304253E-4,7.6398626E-4,-3.0745263E-4,-0.16,1.0,0.09,11539,10072.70,0,0,165,0.56,-2.87,0.14,-0.16,1.00,0.09
1.3339844,3.6957394E-4,-2.3601577E-4,-0.0013074527,-0.16,1.0,0.09,11546,10073.10,0,0,0,0.63,-2.94,0.07,-0.16,1.00,0.09
1.3339844,3.6957394E-4,-2.3601577E-4,-0.0013074527,-0.16,1.0,0.09,11561,10073.10,0,0,165,0.63,-2.94,0.07,-0.16,1.00,0.09
1.3339844,3.6957394E-4,-2.3601577E-4,-0.0013074527,-0.16,1.0,0.09,11569,10073.10,0,0,0,0.63,-2.94,0.07,-0.16,1.00,0.09
2.234375,-6.304253E-4,0.0017639846,0.0016925475,-0.16,0.99,0.09,11584,10074.00,0,0,165,0.56,-2.80,0.28,-0.16,0.99,0.09
0.9345703,-0.0016304255,7.6398626E-4,-0.0023074527,-0.16,1.0,0.09,11599,10072.70,0,0,0,0.49,-2.87,0.00,-0.16,1.00,0.09
1.3339844,-6.304253E-4,7.6398626E-4,-0.0023074527,-0.16,1.0,0.09,11607,10073.10,0,0,165,0.56,-2.87,0.00,-0.16,1.00,0.09
0.9345703,3.6957394E-4,-0.0012360178,-0.0023074527,-0.16,1.0,0.09,11622,10072.70,0,0,0,0.63,-3.01,0.00,-0.16,1.00,0.09
0.034179688,-0.002630426,7.6398626E-4,-0.003307453,-0.16,1.0,0.09,11637,10071.80,0,0,165,0.42,-2.87,-0.07,-0.16,1.00,0.09
1.9345703,3.6957394E-4,-2.3601577E-4,-0.0013074527,-0.16,0.99,0.09,11644,10073.70,0,0,0,0.63,-2.94,0.07,-0.16,0.99,0.09
1.3339844,-0.002630426,-0.0012360178,-0.0043074526,-0.16,1.0,0.09,11660,10073.10,0,0,165,0.42,-3.01,-0.14,-0.16,1.00,0.09
1.3339844,0.0023695743,-2.3601577E-4,-3.0745263E-4,-0.16,0.99,0.09,11674,10073.10,0,0,0,0.77,-2.94,0.14,-0.16,0.99,0.09
0.9345703,-0.0036304258,-0.002236016,-0.0023074527,-0.16,1.0,0.09,11682,10072.70,0,0,165,0.35,-3.08,0.00,-0.16,1.00,0.09
1.3339844,0.0033695735,7.6398626E-4,-3.0745263E-4,-0.16,1.0,0.09,11697,10073.10,0,0,0,0.84,-2.87,0.14,-0.16,1.00,0.09
0.9345703,-6.304253E-4,-2.3601577E-4,-0.0013074527,-0.16,1.0,0.09,11712,10072.70,0,0,165,0.56,-2.94,0.07,-0.16,1.00,0.09
0.9345703,-0.0016304255,-2.3601577E-4,-0.0023074527,-0.16,1.0,0.09,11722,10072.70,0,0,0,0.49,-2.94,0.00,-0.16,1.00,0.09
0.9345703,0.0013695741,-2.3601577E-4,-3.0745263E-4,-0.16,1.0,0.09,11734,10072.70,0,0,165,0.70,-2.94,0.14,-0.16,1.00,0.09
1.3339844,-6.304253E-4,-2.3601577E-4,-0.0023074527,-0.16,1.0,0.09,11749,10073.10,0,0,0,0.56,-2.94,0.00,-0.16,1.00,0.09
0.33398438,-6.304253E-4,-2.3601577E-4,-0.003307453,-0.16,1.0,0.09,11757,10072.10,0,0,165,0.56,-2.94,-0.07,-0.16,1.00,0.09
1.3339844,0.0023695743,7.6398626E-4,-0.0013074527,-0.16,1.0,0.09,11777,10073.10,0,0,0,0.77,-2.87,0.07,-0.16,1.00,0.09
0.034179688,-6.304253E-4,0.0017639846,-0.0013074527,-0.16,1.0,0.09,11789,10071.80,0,0,165,0.56,-2.80,0.07,-0.16,1.00,0.09
0.33398438,-0.0016304255,7.6398626E-4,-3.0745263E-4,-0.16,1.0,0.09,11794,10072.10,0,0,0,0.49,-2.87,0.14,-0.16,1.00,0.09
1.9345703,0.0023695743,-2.3601577E-4,-3.0745263E-4,-0.16,1.0,0.09,11816,10073.70,0,0,165,0.77,-2.94,0.14,-0.16,1.00,0.09
0.9345703,0.0013695741,-0.0012360178,-0.0023074527,-0.16,0.99,0.09,11824,10072.70,0,0,0,0.70,-3.01,0.00,-0.16,0.99,0.09
1.3339844,-0.0016304255,7.6398626E-4,-0.0013074527,-0.16,1.0,0.09,11831,10073.10,0,0,165,0.49,-2.87,0.07,-0.16,1.00,0.09
0.9345703,0.0023695743,-2.3601577E-4,0.0016925475,-0.16,0.99,0.09,11854,10072.70,0,0,0,0.77,-2.94,0.28,-0.16,0.99,0.09
1.3339844,-6.304253E-4,-2.3601577E-4,-0.0023074527,-0.16,1.0,0.09,11861,10073.10,0,0,165,0.56,-2.94,0.00,-0.16,1.00,0.09
1.3339844,-6.304253E-4,-2.3601577E-4,-0.0013074527,-0.16,1.0,0.09,11870,10073.10,0,0,0,0.56,-2.94,0.07,-0.16,1.00,0.09
0.9345703,0.0023695743,-2.3601577E-4,-3.0745263E-4,-0.16,1.0,0.09,11884,10072.70,0,0,165,0.77,-2.94,0.14,-0.16,1.00,0.09
1.3339844,-6.304253E-4,-2.3601577E-4,-0.0043074526,-0.16,1.0,0.09,11899,10073.10,0,0,0,0.56,-2.94,-0.14,-0.16,1.00,0.09
0.9345703,-6.304253E-4,-2.3601577E-4,-0.0013074527,-0.16,1.0,0.09,11907,10072.70,0,0,165,0.56,-2.94,0.07,-0.16,1.00,0.09
0.034179688,3.6957394E-4,7.6398626E-4,-0.003307453,-0.16,1.0,0.09,11921,10071.80,0,0,0,0.63,-2.87,-0.07,-0.16,1.00,0.09
0.9345703,3.6957394E-4,-2.3601577E-4,-0.0023074527,-0.16,0.99,0.09,11936,10072.70,0,0,165,0.63,-2.94,0.00,-0.16,0.99,0.09
1.9345703,-6.304253E-4,-0.0012360178,-0.0023074527,-0.16,1.0,0.09,11944,10073.70,0,0,0,0.56,-3.01,0.00,-0.16,1.00,0.09
1.9345703,3.6957394E-4,-2.3601577E-4,-0.0023074527,-0.16,0.99,0.09,11959,10073.70,0,0,165,0.63,-2.94,0.00,-0.16,0.99,0.09
0.33398438,-0.0016304255,-2.3601577E-4,-0.003307453,-0.16,1.0,0.09,11974,10072.10,0,0,0,0.49,-2.94,-0.07,-0.16,1.00,0.09
0.9345703,3.6957394E-4,7.6398626E-4,-0.0043074526,-0.16,1.0,0.09,11982,10072.70,0,0,165,0.63,-2.87,-0.14,-0.16,1.00,0.09
0.9345703,0.0013695741,0.0017639846,-0.0023074527,-0.16,1.0,0.09,11996,10072.70,0,0,0,0.70,-2.80,0.00,-0.16,1.00,0.09
1.3339844,-0.002630426,-2.3601577E-4,-0.003307453,-0.16,1.0,0.09,12016,10073.10,0,0,165,0.42,-2.94,-0.07,-0.16,1.00,0.09
0.9345703,0.0013695741,-2.3601577E-4,6.9254707E-4,-0.16,1.0,0.09,12020,10072.70,0,0,0,0.70,-2.94,0.21,-0.16,1.00,0.09
0.9345703,0.0013695741,-2.3601577E-4,-0.0013074527,-0.16,1.0,0.09,12034,10072.70,0,0,165,0.70,-2.94,0.07,-0.16,1.00,0.09
2.234375,3.6957394E-4,-2.3601577E-4,-0.0013074527,-0.16,1.0,0.09,12049,10074.00,0,0,0,0.63,-2.94,0.07,-0.16,1.00,0.09
0.034179688,3.6957394E-4,-2.3601577E-4,0.0016925475,-0.16,1.0,0.09,12056,10071.80,0,0,165,0.63,-2.94,0.28,-0.16,1.00,0.09
0.9345703,-6.304253E-4,7.6398626E-4,-0.0013074527,-0.16,1.0,0.09,12072,10072.70,0,0,0,0.56,-2.87,0.07,-0.16,1.00,0.09
1.9345703,0.0013695741,7.6398626E-4,6.9254707E-4,-0.16,1.0,0.09,12087,10073.70,0,0,165,0.70,-2.87,0.21,-0.16,1.00,0.09
0.9345703,3.6957394E-4,-2.3601577E-4,-0.0013074527,-0.16,1.0,0.09,12094,10072.70,0,0,0,0.63,-2.94,0.07,-0.16,1.00,0.09
0.9345703,0.0013695741,-2.3601577E-4,-0.003307453,-0.16,1.0,0.09,12109,10072.70,0,0,165,0.70,-2.94,-0.07,-0.16,1.00,0.09
0.9345703,0.0013695741,-0.0012360178,-0.003307453,-0.16,1.0,0.09,12124,10072.70,0,0,0,0.70,-3.01,-0.07,-0.16,1.00,0.09
0.034179688,0.0013695741,-2.3601577E-4,-0.0013074527,-0.16,1.0,0.09,12131,10071.80,0,0,165,0.70,-2.94,0.07,-0.16,1.00,0.09
1.9345703,-0.0016304255,-2.3601577E-4,-0.0013074527,-0.16,1.0,0.09,12147,10073.70,0,0,0,0.49,-2.94,0.07,-0.16,1.00,0.09
0.9345703,-6.304253E-4,7.6398626E-4,-0.0013074527,-0.16,1.0,0.09,12162,10072.70,0,0,165,0.56,-2.87,0.07,-0.16,1.00,0.09
0.9345703,3.6957394E-4,7.6398626E-4,-0.0013074527,-0.16,1.0,0.09,12171,10072.70,0,0,0,0.63,-2.87,0.07,-0.16,1.00,0.09
1.9345703,-0.0016304255,-0.0012360178,-0.0023074527,-0.16,1.0,0.09,12187,10073.70,0,0,165,0.49,-3.01,0.00,-0.16,1.00,0.09
0.9345703,3.6957394E-4,7.6398626E-4,-0.0013074527,-0.16,1.0,0.09,12206,10072.70,0,0,0,0.63,-2.87,0.07,-0.16,1.00,0.09
0.034179688,3.6957394E-4,-0.0012360178,-0.0013074527,-0.16,1.0,0.09,12206,10071.80,0,0,165,0.63,-3.01,0.07,-0.16,1.00,0.09
0.9345703,-0.0016304255,-2.3601577E-4,-0.003307453,-0.16,1.0,0.09,12221,10072.70,0,0,0,0.49,-2.94,-0.07,-0.16,1.00,0.09
1.3339844,3.6957394E-4,7.6398626E-4,-0.0023074527,-0.16,1.0,0.09,12236,10073.10,0,0,165,0.63,-2.87,0.00,-0.16,1.00,0.09
1.9345703,-6.304253E-4,-2.3601577E-4,-0.0023074527,-0.16,1.0,0.09,12254,10073.70,0,0,0,0.56,-2.94,0.00,-0.16,1.00,0.09
0.9345703,0.0013695741,-2.3601577E-4,-0.0013074527,-0.16,1.0,0.09,12259,10072.70,0,0,165,0.70,-2.94,0.07,-0.16,1.00,0.09
1.3339844,3.6957394E-4,7.6398626E-4,-0.0023074527,-0.16,1.0,0.09,12274,10073.10,0,0,0,0.63,-2.87,0.00,-0.16,1.00,0.09
0.9345703,3.6957394E-4,7.6398626E-4,-0.0023074527,-0.16,1.0,0.09,12286,10072.70,0,0,165,0.63,-2.87,0.00,-0.16,1.00,0.09
1.3339844,-0.0016304255,-2.3601577E-4,-3.0745263E-4,-0.16,1.0,0.09,12303,10073.10,0,0,0,0.49,-2.94,0.14,-0.16,1.00,0.09
1.9345703,0.0013695741,-2.3601577E-4,-0.003307453,-0.16,1.0,0.09,12313,10073.70,0,0,165,0.70,-2.94,-0.07,-0.16,1.00,0.09
0.9345703,-6.304253E-4,-2.3601577E-4,-3.0745263E-4,-0.16,1.0,0.09,12320,10072.70,0,0,0,0.56,-2.94,0.14,-0.16,1.00,0.09
1.3339844,3.6957394E-4,7.6398626E-4,-0.0023074527,-0.16,1.0,0.09,12334,10073.10,0,0,165,0.63,-2.87,0.00,-0.16,1.00,0.09
0.034179688,-0.0016304255,-0.0012360178,-3.0745263E-4,-0.16,1.0,0.09,12349,10071.80,0,0,0,0.49,-3.01,0.14,-0.16,1.00,0.09
1.3339844,-0.0016304255,-2.3601577E-4,-0.0023074527,-0.16,1.0,0.09,12356,10073.10,0,0,165,0.49,-2.94,0.00,-0.16,1.00,0.09
0.9345703,0.0013695741,7.6398626E-4,-3.0745263E-4,-0.16,1.0,0.09,12371,10072.70,0,0,0,0.70,-2.87,0.14,-0.16,1.00,0.09
0.9345703,0.0023695743,-2.3601577E-4,-0.0013074527,-0.16,1.0,0.09,12386,10072.70,0,0,165,0.77,-2.94,0.07,-0.16,1.00,0.09
0.9345703,-6.304253E-4,-2.3601577E-4,-0.0023074527,-0.16,1.0,0.09,12394,10072.70,0,0,0,0.56,-2.94,0.00,-0.16,1.00,0.09
0.9345703,0.0013695741,-2.3601577E-4,-0.0013074527,-0.16,1.0,0.09,12409,10072.70,0,0,165,0.70,-2.94,0.07,-0.16,1.00,0.09
0.9345703,-6.304253E-4,0.0017639846,-0.0023074527,-0.16,1.0,0.09,12424,10072.70,0,0,0,0.56,-2.80,0.00,-0.16,1.00,0.09
0.9345703,-6.304253E-4,-2.3601577E-4,-3.0745263E-4,-0.16,1.0,0.09,12432,10072.70,0,0,165,0.56,-2.94,0.14,-0.16,1.00,0.09
0.9345703,0.0013695741,-2.3601577E-4,-0.0013074527,-0.16,1.0,0.09,12457,10072.70,0,0,0,0.70,-2.94,0.07,-0.16,1.00,0.09
0.9345703,0.0013695741,7.6398626E-4,-3.0745263E-4,-0.16,1.0,0.09,12461,10072.70,0,0,165,0.70,-2.87,0.14,-0.16,1.00,0.09
0.9345703,-0.0016304255,-2.3601577E-4,-0.0013074527,-0.16,1.0,0.09,12473,10072.70,0,0,0,0.49,-2.94,0.07,-0.16,1.00,0.09
0.33398438,-6.304253E-4,7.6398626E-4,-0.0013074527,-0.16,1.0,0.09,12483,10072.10,0,0,165,0.56,-2.87,0.07,-0.16,1.00,0.09
0.9345703,0.0013695741,-0.0012360178,-3.0745263E-4,-0.16,0.99,0.08,12499,10072.70,0,0,0,0.70,-3.01,0.14,-0.16,0.99,0.08
1.9345703,-0.0016304255,7.6398626E-4,-0.0013074527,-0.16,1.0,0.09,12508,10073.70,0,0,165,0.49,-2.87,0.07,-0.16,1.00,0.09
0.9345703,0.0013695741,-0.0012360178,-0.0023074527,-0.16,0.99,0.09,12525,10072.70,0,0,0,0.70,-3.01,0.00,-0.16,0.99,0.09
0.9345703,-0.0016304255,-2.3601577E-4,-3.0745263E-4,-0.16,1.0,0.09,12543,10072.70,0,0,165,0.49,-2.94,0.14,-0.16,1.00,0.09
0.9345703,-0.0016304255,7.6398626E-4,-0.0053074528,-0.16,1.0,0.09,12544,10072.70,0,0,0,0.49,-2.87,-0.21,-0.16,1.00,0.09
0.9345703,-6.304253E-4,-2.3601577E-4,6.9254707E-4,-0.16,1.0,0.09,12559,10072.70,0,0,165,0.56,-2.94,0.21,-0.16,1.00,0.09
0.9345703,-6.304253E-4,7.6398626E-4,-0.0013074527,-0.16,1.12,0.09,12574,10072.70,0,0,0,0.56,-2.87,0.07,-0.16,1.12,0.09
1.9345703,3.6957394E-4,-2.3601577E-4,-0.0013074527,-0.16,0.99,0.09,12581,10073.70,0,0,165,0.63,-2.94,0.07,-0.16,0.99,0.09
0.9345703,-0.0016304255,7.6398626E-4,-3.0745263E-4,-0.16,1.0,0.09,12596,10072.70,0,0,0,0.49,-2.87,0.14,-0.16,1.00,0.09
1.9345703,3.6957394E-4,-2.3601577E-4,-3.0745263E-4,-0.16,1.0,0.09,12611,10073.70,0,0,165,0.63,-2.94,0.14,-0.16,1.00,0.09
0.9345703,3.6957394E-4,-0.0012360178,6.9254707E-4,-0.16,1.0,0.09,12620,10072.70,0,0,0,0.63,-3.01,0.21,-0.16,1.00,0.09
0.9345703,-6.304253E-4,-2.3601577E-4,-0.0023074527,-0.16,1.0,0.09,12635,10072.70,0,0,165,0.56,-2.94,0.00,-0.16,1.00,0.09
0.9345703,3.6957394E-4,-2.3601577E-4,-0.0023074527,-0.16,1.0,0.09,12649,10072.70,0,0,0,0.63,-2.94,0.00,-0.16,1.00,0.09
0.9345703,3.6957394E-4,0.0017639846,-0.003307453,-0.16,1.0,0.09,12656,10072.70,0,0,165,0.63,-2.80,-0.07,-0.16,1.00,0.09
1.9345703,3.6957394E-4,-0.0012360178,-0.0013074527,-0.16,1.0,0.09,12671,10073.70,0,0,0,0.63,-3.01,0.07,-0.16,1.00,0.09
0.9345703,0.0013695741,-2.3601577E-4,-3.0745263E-4,-0.16,1.0,0.09,12686,10072.70,0,0,165,0.70,-2.94,0.14,-0.16,1.00,0.09
0.9345703,-6.304253E-4,-2.3601577E-4,-0.003307453,-0.16,0.99,0.09,12694,10072.70,0,0,0,0.56,-2.94,-0.07,-0.16,0.99,0.09
0.9345703,3.6957394E-4,7.6398626E-4,-0.0013074527,-0.16,1.0,0.09,12709,10072.70,0,0,165,0.63,-2.87,0.07,-0.16,1.00,0.09
0.034179688,-6.304253E-4,-0.0012360178,-0.0013074527,-0.16,1.0,0.09,12724,10071.80,0,0,0,0.56,-3.01,0.07,-0.16,1.00,0.09
0.9345703,-6.304253E-4,-2.3601577E-4,-3.0745263E-4,-0.16,0.99,0.09,12731,10072.70,0,0,165,0.56,-2.94,0.14,-0.16,0.99,0.09
1.9345703,-0.0016304255,-2.3601577E-4,-0.0023074527,-0.16,1.0,0.09,12746,10073.70,0,0,0,0.49,-2.94,0.00,-0.16,1.00,0.09
1.9345703,-0.0016304255,-2.3601577E-4,-0.0013074527,-0.16,1.0,0.09,12761,10073.70,0,0,165,0.49,-2.94,0.07,-0.16,1.00,0.09
0.9345703,3.6957394E-4,-0.0012360178,-0.0023074527,-0.16,1.0,0.09,12770,10072.70,0,0,0,0.63,-3.01,0.00,-0.16,1.00,0.09
0.9345703,-6.304253E-4,-2.3601577E-4,-3.0745263E-4,-0.16,0.99,0.09,12784,10072.70,0,0,165,0.56,-2.94,0.14,-0.16,0.99,0.09
0.9345703,3.6957394E-4,-2.3601577E-4,-3.0745263E-4,-0.16,1.0,0.09,12799,10072.70,0,0,0,0.63,-2.94,0.14,-0.16,1.00,0.09
0.9345703,3.6957394E-4,-2.3601577E-4,-0.0023074527,-0.16,1.0,0.09,12806,10072.70,0,0,165,0.63,-2.94,0.00,-0.16,1.00,0.09
0.9345703,-6.304253E-4,7.6398626E-4,6.9254707E-4,-0.16,1.0,0.09,12821,10072.70,0,0,0,0.56,-2.87,0.21,-0.16,1.00,0.09
0.9345703,0.0013695741,-2.3601577E-4,-0.0023074527,-0.16,1.0,0.09,12837,10072.70,0,0,165,0.70,-2.94,0.00,-0.16,1.00,0.09
1.9345703,-6.304253E-4,-2.3601577E-4,-0.0013074527,-0.16,0.99,0.09,12844,10073.70,0,0,0,0.56,-2.94,0.07,-0.16,0.99,0.09
0.9345703,-0.0016304255,-2.3601577E-4,-0.0013074527,-0.16,1.0,0.09,12858,10072.70,0,0,165,0.49,-2.94,0.07,-0.16,1.00,0.09
0.9345703,0.0023695743,-2.3601577E-4,-3.0745263E-4,-0.16,1.0,0.09,12874,10072.70,0,0,0,0.77,-2.94,0.14,-0.16,1.00,0.09
1.3339844,0.0013695741,-0.0012360178,-0.0013074527,-0.16,1.0,0.09,12882,10073.10,0,0,165,0.70,-3.01,0.07,-0.16,1.00,0.09
0.9345703,-6.304253E-4,-2.3601577E-4,-0.0023074527,-0.16,1.0,0.09,12896,10072.70,0,0,0,0.56,-2.94,0.00,-0.16,1.00,0.09
0.034179688,3.6957394E-4,-0.0012360178,-3.0745263E-4,-0.16,1.0,0.09,12911,10071.80,0,0,165,0.63,-3.01,0.14,-0.16,1.00,0.09
0.9345703,-6.304253E-4,-2.3601577E-4,-0.003307453,-0.16,1.0,0.09,12919,10072.70,0,0,0,0.56,-2.94,-0.07,-0.16,1.00,0.09
1.9345703,3.6957394E-4,7.6398626E-4,-0.0013074527,-0.16,1.0,0.09,12934,10073.70,0,0,165,0.63,-2.87,0.07,-0.16,1.00,0.09
0.9345703,3.6957394E-4,7.6398626E-4,-3.0745263E-4,-0.16,1.0,0.09,12951,10072.70,0,0,0,0.63,-2.87,0.14,-0.16,1.00,0.09
1.9345703,3.6957394E-4,7.6398626E-4,-0.0023074527,-0.16,0.99,0.09,12956,10073.70,0,0,165,0.63,-2.87,0.00,-0.16,0.99,0.09
0.9345703,3.6957394E-4,-2.3601577E-4,0.0016925475,-0.16,1.0,0.09,12971,10072.70,0,0,0,0.63,-2.94,0.28,-0.16,1.00,0.09
0.9345703,3.6957394E-4,-2.3601577E-4,-0.0023074527,-0.16,1.0,0.09,12987,10072.70,0,0,165,0.63,-2.94,0.00,-0.16,1.00,0.09
0.9345703,0.0013695741,-2.3601577E-4,6.9254707E-4,-0.16,1.0,0.09,12994,10072.70,0,0,0,0.70,-2.94,0.21,-0.16,1.00,0.09
1.9345703,3.6957394E-4,-0.0012360178,-0.0023074527,-0.16,1.0,0.09,13009,10073.70,0,0,165,0.63,-3.01,0.00,-0.16,1.00,0.09
0.034179688,3.6957394E-4,-2.3601577E-4,-0.0023074527,-0.16,1.0,0.09,13024,10071.80,0,0,0,0.63,-2.94,0.00,-0.16,1.00,0.09
0.9345703,3.6957394E-4,7.6398626E-4,-0.0013074527,-0.16,1.0,0.09,13031,10072.70,0,0,165,0.63,-2.87,0.07,-0.16,1.00,0.09
2.9345703,-6.304253E-4,-2.3601577E-4,-0.0023074527,-0.16,1.0,0.09,13046,10074.70,0,0,0,0.56,-2.94,0.00,-0.16,1.00,0.09
0.9345703,-6.304253E-4,7.6398626E-4,-3.0745263E-4,-0.16,1.0,0.09,13061,10072.70,0,0,165,0.56,-2.87,0.14,-0.16,1.00,0.09
1.9345703,-6.304253E-4,-0.0012360178,-0.0023074527,-0.16,1.0,0.09,13070,10073.70,0,0,0,0.56,-3.01,0.00,-0.16,1.00,0.09
0.9345703,-6.304253E-4,7.6398626E-4,-0.0013074527,-0.16,1.0,0.09,13083,10072.70,0,0,165,0.56,-2.87,0.07,-0.16,1.00,0.09
0.034179688,3.6957394E-4,7.6398626E-4,-0.0023074527,-0.16,1.0,0.09,13099,10071.80,0,0,0,0.63,-2.87,0.00,-0.16,1.00,0.09
0.9345703,-6.304253E-4,-2.3601577E-4,-0.0013074527,-0.16,1.0,0.09,13106,10072.70,0,0,165,0.56,-2.94,0.07,-0.16,1.00,0.09
0.9345703,-0.0016304255,-2.3601577E-4,-3.0745263E-4,-0.16,1.0,0.09,13122,10072.70,0,0,0,0.49,-2.94,0.14,-0.16,1.00,0.09
0.9345703,-6.304253E-4,-0.0012360178,-0.0023074527,-0.16,1.0,0.09,13137,10072.70,0,0,165,0.56,-3.01,0.00,-0.16,1.00,0.09
1.9345703,-0.0016304255,-2.3601577E-4,-0.003307453,-0.16,1.0,0.09,13144,10073.70,0,0,0,0.49,-2.94,-0.07,-0.16,1.00,0.09
0.9345703,-6.304253E-4,-0.0012360178,-0.0043074526,-0.16,1.0,0.09,13159,10072.70,0,0,165,0.56,-3.01,-0.14,-0.16,1.00,0.09
0.9345703,3.6957394E-4,7.6398626E-4,-0.0013074527,-0.16,0.99,0.09,13174,10072.70,0,0,0,0.63,-2.87,0.07,-0.16,0.99,0.09
0.9345703,-6.304253E-4,-0.0012360178,-0.0023074527,-0.16,1.12,0.09,13182,10072.70,0,0,165,0.56,-3.01,0.00,-0.16,1.12,0.09
1.9345703,3.6957394E-4,7.6398626E-4,-3.0745263E-4,-0.16,0.99,0.09,13196,10073.70,0,0,0,0.63,-2.87,0.14,-0.16,0.99,0.09
1.9345703,-6.304253E-4,-2.3601577E-4,-3.0745263E-4,-0.16,1.0,0.09,13211,10073.70,0,0,165,0.56,-2.94,0.14,-0.16,1.00,0.09
0.6347656,-6.304253E-4,-2.3601577E-4,-3.0745263E-4,-0.16,1.0,0.09,13221,10072.40,0,0,0,0.56,-2.94,0.14,-0.16,1.00,0.09
1.9345703,3.6957394E-4,-2.3601577E-4,-0.0023074527,-0.16,1.0,0.09,13234,10073.70,0,0,165,0.63,-2.94,0.00,-0.16,1.00,0.09
0.6347656,-6.304253E-4,7.6398626E-4,-0.0023074527,-0.16,1.0,0.09,13249,10072.40,0,0,0,0.56,-2.87,0.00,-0.16,1.00,0.09
0.9345703,0.0023695743,-2.3601577E-4,-3.0745263E-4,-0.16,0.99,0.09,13256,10072.70,0,0,165,0.77,-2.94,0.14,-0.16,0.99,0.09
0.9345703,3.6957394E-4,-0.002236016,-0.0023074527,-0.16,1.0,0.09,13272,10072.70,0,0,0,0.63,-3.08,0.00,-0.16,1.00,0.09
1.9345703,-6.304253E-4,7.6398626E-4,-0.0013074527,-0.16,1.0,0.09,13287,10073.70,0,0,165,0.56,-2.87,0.07,-0.16,1.00,0.09
1.9345703,-6.304253E-4,-2.3601577E-4,-0.0023074527,-0.16,1.0,0.09,13294,10073.70,0,0,0,0.56,-2.94,0.00,-0.16,1.00,0.09
1.9345703,-6.304253E-4,-2.3601577E-4,-0.003307453,-0.16,1.0,0.09,13309,10073.70,0,0,165,0.56,-2.94,-0.07,-0.16,1.00,0.09
0.034179688,0.0013695741,-2.3601577E-4,-3.0745263E-4,-0.16,1.0,0.09,13323,10071.80,0,0,0,0.70,-2.94,0.14,-0.16,1.00,0.09
0.9345703,3.6957394E-4,-2.3601577E-4,-0.0023074527,-0.16,1.0,0.09,13331,10072.70,0,0,165,0.63,-2.94,0.00,-0.16,1.00,0.09
1.9345703,3.6957394E-4,-2.3601577E-4,-3.0745263E-4,-0.16,1.0,0.09,13347,10073.70,0,0,0,0.63,-2.94,0.14,-0.16,1.00,0.09
0.9345703,-0.0016304255,7.6398626E-4,-0.0023074527,-0.16,1.0,0.09,13363,10072.70,0,0,165,0.49,-2.87,0.00,-0.16,1.00,0.09
0.9345703,3.6957394E-4,-0.0012360178,-0.0013074527,-0.16,0.99,0.09,13369,10072.70,0,0,0,0.63,-3.01,0.07,-0.16,0.99,0.09
1.9345703,-6.304253E-4,7.6398626E-4,-0.0023074527,-0.16,1.0,0.09,13384,10073.70,0,0,165,0.56,-2.87,0.00,-0.16,1.00,0.09
0.9345703,3.6957394E-4,-2.3601577E-4,-0.003307453,-0.16,1.0,0.09,13399,10072.70,0,0,0,0.63,-2.94,-0.07,-0.16,1.00,0.09
0.9345703,0.0013695741,-0.0012360178,-3.0745263E-4,-0.16,1.0,0.09,13407,10072.70,0,0,165,0.70,-3.01,0.14,-0.16,1.00,0.09
1.9345703,3.6957394E-4,-2.3601577E-4,-0.0023074527,-0.16,1.0,0.09,13421,10073.70,0,0,0,0.63,-2.94,0.00,-0.16,1.00,0.09
1.9345703,3.6957394E-4,-2.3601577E-4,6.9254707E-4,-0.16,1.0,0.09,13437,10073.70,0,0,165,0.63,-2.94,0.21,-0.16,1.00,0.09
0.6347656,-6.304253E-4,7.6398626E-4,-0.0023074527,-0.16,1.0,0.09,13444,10072.40,0,0,0,0.56,-2.87,0.00,-0.16,1.00,0.09
1.9345703,3.6957394E-4,7.6398626E-4,-3.0745263E-4,-0.16,1.0,0.09,13459,10073.70,0,0,165,0.63,-2.87,0.14,-0.16,1.00,0.09
0.034179688,-6.304253E-4,7.6398626E-4,-0.0013074527,-0.16,1.0,0.09,13473,10071.80,0,0,0,0.56,-2.87,0.07,-0.16,1.00,0.09
0.9345703,-0.0016304255,-2.3601577E-4,-0.0023074527,-0.16,1.0,0.09,13481,10072.70,0,0,165,0.49,-2.94,0.00,-0.16,1.00,0.09
0.9345703,-6.304253E-4,7.6398626E-4,-3.0745263E-4,-0.16,0.99,0.09,13496,10072.70,0,0,0,0.56,-2.87,0.14,-0.16,0.99,0.09
0.9345703,-6.304253E-4,-0.0012360178,-0.0053074528,-0.16,1.0,0.09,13511,10072.70,0,0,165,0.56,-3.01,-0.21,-0.16,1.00,0.09
0.6347656,0.0013695741,-2.3601577E-4,-0.0013074527,-0.16,1.0,0.09,13521,10072.40,0,0,0,0.70,-2.94,0.07,-0.16,1.00,0.09
0.9345703,0.0033695735,-2.3601577E-4,-0.0023074527,-0.16,0.99,0.09,13535,10072.70,0,0,165,0.84,-2.94,0.00,-0.16,0.99,0.09
0.9345703,-0.0036304258,-2.3601577E-4,-0.0043074526,-0.16,1.0,0.09,13549,10072.70,0,0,0,0.35,-2.94,-0.14,-0.16,1.00,0.09
0.9345703,0.0023695743,7.6398626E-4,6.9254707E-4,-0.16,0.99,0.09,13556,10072.70,0,0,165,0.77,-2.87,0.21,-0.16,0.99,0.09
0.9345703,-0.0016304255,-2.3601577E-4,-3.0745263E-4,-0.16,1.0,0.09,13572,10072.70,0,0,0,0.49,-2.94,0.14,-0.16,1.00,0.09
1.9345703,-0.0016304255,-2.3601577E-4,-0.0013074527,-0.16,1.0,0.09,13588,10073.70,0,0,165,0.49,-2.94,0.07,-0.16,1.00,0.09
0.9345703,0.0023695743,7.6398626E-4,-0.0013074527,-0.16,1.0,0.09,13594,10072.70,0,0,0,0.77,-2.87,0.07,-0.16,1.00,0.09
0.9345703,-0.0016304255,7.6398626E-4,-3.0745263E-4,-0.16,1.0,0.09,13609,10072.70,0,0,165,0.49,-2.87,0.14,-0.16,1.00,0.09
0.034179688,-0.0036304258,-2.3601577E-4,-0.003307453,-0.16,1.0,0.09,13624,10071.80,0,0,0,0.35,-2.94,-0.07,-0.16,1.00,0.09
1.9345703,0.0033695735,7.6398626E-4,-0.0013074527,-0.16,0.99,0.09,13631,10073.70,0,0,165,0.84,-2.87,0.07,-0.16,0.99,0.09
0.9345703,-0.0016304255,-2.3601577E-4,-0.0023074527,-0.16,1.0,0.09,13646,10072.70,0,0,0,0.49,-2.94,0.00,-0.16,1.00,0.09
0.9345703,-0.0036304258,-2.3601577E-4,-0.003307453,-0.16,1.0,0.09,13661,10072.70,0,0,165,0.35,-2.94,-0.07,-0.16,1.00,0.09
0.9345703,0.0033695735,7.6398626E-4,6.9254707E-4,-0.16,1.0,0.09,13671,10072.70,0,0,0,0.84,-2.87,0.21,-0.16,1.00,0.09
0.9345703,-0.0016304255,-2.3601577E-4,-0.003307453,-0.16,1.0,0.09,13684,10072.70,0,0,165,0.49,-2.94,-0.07,-0.16,1.00,0.09
0.9345703,3.6957394E-4,-0.0012360178,-3.0745263E-4,-0.16,1.0,0.09,13699,10072.70,0,0,0,0.63,-3.01,0.14,-0.16,1.00,0.09
0.9345703,0.0023695743,0.0017639846,6.9254707E-4,-0.16,1.0,0.09,13706,10072.70,0,0,165,0.77,-2.80,0.21,-0.16,1.00,0.09
2.6347656,-0.0016304255,-0.0012360178,-0.0023074527,-0.16,1.0,0.09,13722,10074.40,0,0,0,0.49,-3.01,0.00,-0.16,1.00,0.09
0.9345703,-6.304253E-4,-0.0012360178,-3.0745263E-4,-0.16,1.0,0.09,13740,10072.70,0,0,165,0.56,-3.01,0.14,-0.16,1.00,0.09
0.9345703,0.0023695743,-2.3601577E-4,-0.0023074527,-0.16,1.0,0.09,13744,10072.70,0,0,0,0.77,-2.94,0.00,-0.16,1.00,0.09
2.234375,3.6957394E-4,-0.002236016,-0.003307453,-0.16,1.0,0.09,13759,10074.00,0,0,165,0.63,-3.08,-0.07,-0.16,1.00,0.09
0.6347656,-6.304253E-4,-2.3601577E-4,-0.003307453,-0.16,1.0,0.09,13774,10072.40,0,0,0,0.56,-2.94,-0.07,-0.16,1.00,0.09
0.9345703,0.0023695743,-0.0012360178,-0.0023074527,-0.16,0.99,0.09,13781,10072.70,0,0,165,0.77,-3.01,0.00,-0.16,0.99,0.09
0.9345703,-6.304253E-4,0.0017639846,-3.0745263E-4,-0.16,1.0,0.09,13797,10072.70,0,0,0,0.56,-2.80,0.14,-0.16,1.00,0.09
0.6347656,-0.0016304255,7.6398626E-4,-3.0745263E-4,-0.16,1.0,0.09,13811,10072.40,0,0,165,0.49,-2.87,0.14,-0.16,1.00,0.09
1.6347656,0.0023695743,7.6398626E-4,0.0016925475,-0.16,0.99,0.09,13825,10073.40,0,0,0,0.77,-2.87,0.28,-0.16,0.99,0.09
1.9345703,-0.0016304255,-2.3601577E-4,-0.0023074527,-0.16,1.0,0.09,13837,10073.70,0,0,165,0.49,-2.94,0.00,-0.16,1.00,0.09
0.034179688,3.6957394E-4,-2.3601577E-4,6.9254707E-4,-0.16,1.0,0.09,13849,10071.80,0,0,0,0.63,-2.94,0.21,-0.16,1.00,0.09
1.9345703,3.6957394E-4,-2.3601577E-4,-0.0023074527,-0.16,1.0,0.09,13859,10073.70,0,0,165,0.63,-2.94,0.00,-0.16,1.00,0.09
1.9345703,-6.304253E-4,-2.3601577E-4,-3.0745263E-4,-0.16,1.0,0.09,13873,10073.70,0,0,0,0.56,-2.94,0.14,-0.16,1.00,0.09
1.9345703,-6.304253E-4,-0.0012360178,-0.0013074527,-0.16,1.0,0.09,13887,10073.70,0,0,165,0.56,-3.01,0.07,-0.16,1.00,0.09
1.9345703,-6.304253E-4,-2.3601577E-4,-0.0023074527,-0.16,1.0,0.09,13894,10073.70,0,0,0,0.56,-2.94,0.00,-0.16,1.00,0.09
0.9345703,-0.0016304255,7.6398626E-4,-3.0745263E-4,-0.16,1.0,0.09,13908,10072.70,0,0,165,0.49,-2.87,0.14,-0.16,1.00,0.09
0.6347656,3.6957394E-4,-0.0012360178,-0.003307453,-0.16,1.0,0.09,13924,10072.40,0,0,0,0.63,-3.01,-0.07,-0.16,1.00,0.09
1.6347656,-6.304253E-4,7.6398626E-4,6.9254707E-4,-0.16,1.0,0.09,13931,10073.40,0,0,165,0.56,-2.87,0.21,-0.16,1.00,0.09
1.6347656,-6.304253E-4,0.0017639846,-0.0023074527,-0.16,1.0,0.09,13946,10073.40,0,0,0,0.56,-2.80,0.00,-0.16,1.00,0.09
1.9345703,3.6957394E-4,0.0017639846,0.0026925472,-0.16,1.0,0.09,13961,10073.70,0,0,165,0.63,-2.80,0.35,-0.16,1.00,0.09
1.9345703,-0.0016304255,-2.3601577E-4,-0.0023074527,-0.16,1.0,0.09,13969,10073.70,0,0,0,0.49,-2.94,0.00,-0.16,1.00,0.09
0.9345703,-0.0016304255,7.6398626E-4,-3.0745263E-4,-0.16,1.0,0.09,13984,10072.70,0,0,165,0.49,-2.87,0.14,-0.16,1.00,0.09
1.9345703,-6.304253E-4,-0.0012360178,-3.0745263E-4,-0.16,0.99,0.09,13999,10073.70,0,0,0,0.56,-3.01,0.14,-0.16,0.99,0.09
1.9345703,3.6957394E-4,-0.0012360178,-0.0043074526,-0.16,1.0,0.09,14007,10073.70,0,0,165,0.63,-3.01,-0.14,-0.16,1.00,0.09
1.6347656,-6.304253E-4,-2.3601577E-4,-0.0023074527,-0.16,1.0,0.09,14029,10073.40,0,0,0,0.56,-2.94,0.00,-0.16,1.00,0.09
1.9345703,3.6957394E-4,-0.0012360178,-0.0043074526,-0.16,0.99,0.09,14037,10073.70,0,0,165,0.63,-3.01,-0.14,-0.16,0.99,0.09
1.6347656,0.0013695741,-0.0012360178,-0.0013074527,-0.16,1.0,0.09,14044,10073.40,0,0,0,0.70,-3.01,0.07,-0.16,1.00,0.09
1.9345703,-6.304253E-4,7.6398626E-4,-0.0013074527,-0.16,1.0,0.09,14060,10073.70,0,0,165,0.56,-2.87,0.07,-0.16,1.00,0.09
0.6347656,0.0013695741,-2.3601577E-4,-0.0023074527,-0.16,1.0,0.09,14075,10072.40,0,0,0,0.70,-2.94,0.00,-0.16,1.00,0.09
1.6347656,3.6957394E-4,7.6398626E-4,-3.0745263E-4,-0.16,1.0,0.09,14082,10073.40,0,0,165,0.63,-2.87,0.14,-0.16,1.00,0.09
1.9345703,-0.0016304255,-2.3601577E-4,-0.003307453,-0.16,1.0,0.09,14097,10073.70,0,0,0,0.49,-2.94,-0.07,-0.16,1.00,0.09
1.6347656,0.0013695741,7.6398626E-4,-3.0745263E-4,-0.16,0.99,0.09,14112,10073.40,0,0,165,0.70,-2.87,0.14,-0.16,0.99,0.09
0.6347656,-6.304253E-4,-0.0012360178,-0.0013074527,-0.16,1.0,0.09,14119,10072.40,0,0,0,0.56,-3.01,0.07,-0.16,1.00,0.09
1.9345703,3.6957394E-4,-2.3601577E-4,-0.0023074527,-0.16,0.99,0.09,14134,10073.70,0,0,165,0.63,-2.94,0.00,-0.16,0.99,0.09
0.9345703,3.6957394E-4,-2.3601577E-4,-3.0745263E-4,-0.16,1.0,0.09,14149,10072.70,0,0,0,0.63,-2.94,0.14,-0.16,1.00,0.09
1.9345703,3.6957394E-4,-0.0012360178,-0.0023074527,-0.16,1.12,0.09,14157,10073.70,0,0,165,0.63,-3.01,0.00,-0.16,1.12,0.09
1.6347656,0.0013695741,7.6398626E-4,6.9254707E-4,-0.16,0.99,0.09,14171,10073.40,0,0,0,0.70,-2.87,0.21,-0.16,0.99,0.09
1.9345703,-6.304253E-4,-2.3601577E-4,-0.0013074527,-0.16,1.0,0.09,14186,10073.70,0,0,165,0.56,-2.94,0.07,-0.16,1.00,0.09
1.9345703,0.0023695743,-2.3601577E-4,0.0016925475,-0.16,1.0,0.09,14194,10073.70,0,0,0,0.77,-2.94,0.28,-0.16,1.00,0.09
0.9345703,-6.304253E-4,-2.3601577E-4,-3.0745263E-4,-0.16,1.0,0.09,14209,10072.70,0,0,165,0.56,-2.94,0.14,-0.16,1.00,0.09
-0.36523438,-0.0016304255,-2.3601577E-4,-3.0745263E-4,-0.16,1.0,0.09,14224,10071.40,0,0,0,0.49,-2.94,0.14,-0.16,1.00,0.09
1.9345703,0.0013695741,7.6398626E-4,-3.0745263E-4,-0.16,1.0,0.09,14231,10073.70,0,0,165,0.70,-2.87,0.14,-0.16,1.00,0.09
1.9345703,-6.304253E-4,-2.3601577E-4,-0.0013074527,-0.16,1.0,0.09,14246,10073.70,0,0,0,0.56,-2.94,0.07,-0.16,1.00,0.09
1.6347656,-6.304253E-4,-0.0012360178,-0.0023074527,-0.16,1.0,0.09,14261,10073.40,0,0,165,0.56,-3.01,0.00,-0.16,1.00,0.09
0.6347656,3.6957394E-4,-2.3601577E-4,-0.0043074526,-0.16,1.0,0.09,14271,10072.40,0,0,0,0.63,-2.94,-0.14,-0.16,1.00,0.09
1.9345703,3.6957394E-4,-0.002236016,-0.0013074527,-0.16,1.0,0.09,14284,10073.70,0,0,165,0.63,-3.08,0.07,-0.16,1.00,0.09
0.6347656,-0.002630426,-2.3601577E-4,-0.003307453,-0.16,1.0,0.09,14299,10072.40,0,0,0,0.42,-2.94,-0.07,-0.16,1.00,0.09
1.9345703,3.6957394E-4,-2.3601577E-4,-0.0013074527,-0.16,1.0,0.09,14307,10073.70,0,0,165,0.63,-2.94,0.07,-0.16,1.00,0.09
2.6347656,-6.304253E-4,-2.3601577E-4,-0.0013074527,-0.16,0.99,0.09,14322,10074.40,0,0,0,0.56,-2.94,0.07,-0.16,0.99,0.09
1.9345703,-6.304253E-4,7.6398626E-4,-0.0023074527,-0.16,1.0,0.09,14338,10073.70,0,0,165,0.56,-2.87,0.00,-0.16,1.00,0.09
0.6347656,0.0013695741,7.6398626E-4,-0.0013074527,-0.16,1.0,0.09,14344,10072.40,0,0,0,0.70,-2.87,0.07,-0.16,1.00,0.09
1.9345703,-6.304253E-4,0.0017639846,-0.0023074527,-0.16,0.99,0.09,14359,10073.70,0,0,165,0.56,-2.80,0.00,-0.16,0.99,0.09
1.9345703,-0.0016304255,-2.3601577E-4,-0.0023074527,-0.16,1.0,0.09,14373,10073.70,0,0,0,0.49,-2.94,0.00,-0.16,1.00,0.09
1.9345703,0.0013695741,-0.0012360178,-0.0023074527,-0.16,1.0,0.09,14381,10073.70,0,0,165,0.70,-3.01,0.00,-0.16,1.00,0.09
1.9345703,-0.0016304255,-0.0012360178,-0.003307453,-0.16,1.0,0.09,14397,10073.70,0,0,0,0.49,-3.01,-0.07,-0.16,1.00,0.09
0.9345703,3.6957394E-4,-2.3601577E-4,-0.003307453,-0.16,1.0,0.09,14411,10072.70,0,0,165,0.63,-2.94,-0.07,-0.16,1.00,0.09
0.9345703,0.0013695741,-0.0012360178,-3.0745263E-4,-0.16,1.0,0.09,14420,10072.70,0,0,0,0.70,-3.01,0.14,-0.16,1.00,0.09
1.9345703,-6.304253E-4,-0.0012360178,-0.0023074527,-0.16,1.0,0.09,14434,10073.70,0,0,165,0.56,-3.01,0.00,-0.16,1.00,0.09
0.6347656,-6.304253E-4,-2.3601577E-4,-0.0023074527,-0.16,1.0,0.09,14449,10072.40,0,0,0,0.56,-2.94,0.00,-0.16,1.00,0.09
0.6347656,0.0023695743,7.6398626E-4,-3.0745263E-4,-0.16,1.0,0.09,14457,10072.40,0,0,165,0.77,-2.87,0.14,-0.16,1.00,0.09
1.9345703,-6.304253E-4,0.0017639846,-0.003307453,-0.16,1.0,0.09,14471,10073.70,0,0,0,0.56,-2.80,-0.07,-0.16,1.00,0.09
0.6347656,-6.304253E-4,7.6398626E-4,-3.0745263E-4,-0.16,1.0,0.09,14487,10072.40,0,0,165,0.56,-2.87,0.14,-0.16,1.00,0.09
1.6347656,3.6957394E-4,-2.3601577E-4,-0.0023074527,-0.16,1.0,0.09,14494,10073.40,0,0,0,0.63,-2.94,0.00,-0.16,1.00,0.09
0.9345703,3.6957394E-4,7.6398626E-4,-0.0023074527,-0.16,1.0,0.09,14509,10072.70,0,0,165,0.63,-2.87,0.00,-0.16,1.00,0.09
0.9345703,0.0013695741,-0.0012360178,-3.0745263E-4,-0.16,1.0,0.09,14532,10072.70,0,0,0,0.70,-3.01,0.14,-0.16,1.00,0.09
0.9345703,3.6957394E-4,7.6398626E-4,-0.003307453,-0.16,1.0,0.09,14533,10072.70,0,0,165,0.63,-2.87,-0.07,-0.16,1.00,0.09
1.9345703,0.0013695741,-0.0012360178,-0.003307453,-0.16,1.0,0.09,14546,10073.70,0,0,0,0.70,-3.01,-0.07,-0.16,1.00,0.09
1.6347656,3.6957394E-4,-2.3601577E-4,-0.0013074527,-0.16,1.0,0.09,14562,10073.40,0,0,165,0.63,-2.94,0.07,-0.16,1.00,0.09
1.6347656,3.6957394E-4,-2.3601577E-4,6.9254707E-4,-0.16,1.0,0.09,14570,10073.40,0,0,0,0.63,-2.94,0.21,-0.16,1.00,0.09
1.9345703,3.6957394E-4,7.6398626E-4,6.9254707E-4,-0.16,1.0,0.09,14584,10073.70,0,0,165,0.63,-2.87,0.21,-0.16,1.00,0.09
1.9345703,-6.304253E-4,-2.3601577E-4,-0.0023074527,-0.16,1.0,0.09,14592,10073.70,0,0,0,0.56,-2.94,0.00,-0.16,1.00,0.09
1.6347656,0.0023695743,7.6398626E-4,-3.0745263E-4,-0.16,1.0,0.09,14607,10073.40,0,0,165,0.77,-2.87,0.14,-0.16,1.00,0.09
1.6347656,-6.304253E-4,-2.3601577E-4,-0.0013074527,-0.16,1.0,0.09,14622,10073.40,0,0,0,0.56,-2.94,0.07,-0.16,1.00,0.09
1.6347656,3.6957394E-4,-2.3601577E-4,-0.0023074527,-0.16,1.0,0.09,14629,10073.40,0,0,165,0.63,-2.94,0.00,-0.16,1.00,0.09
1.6347656,3.6957394E-4,7.6398626E-4,-0.0013074527,-0.16,1.0,0.09,14644,10073.40,0,0,0,0.63,-2.87,0.07,-0.16,1.00,0.09
1.6347656,3.6957394E-4,-2.3601577E-4,-0.0023074527,-0.16,1.0,0.09,14659,10073.40,0,0,165,0.63,-2.94,0.00,-0.16,1.00,0.09
1.6347656,-0.0016304255,-2.3601577E-4,-0.0023074527,-0.16,1.0,0.09,14666,10073.40,0,0,0,0.49,-2.94,0.00,-0.16,1.00,0.09
0.9345703,0.0013695741,-2.3601577E-4,-0.0023074527,-0.16,0.99,0.09,14681,10072.70,0,0,165,0.70,-2.94,0.00,-0.16,0.99,0.09
1.6347656,0.0013695741,-2.3601577E-4,-0.0023074527,-0.16,1.0,0.09,14697,10073.40,0,0,0,0.70,-2.94,0.00,-0.16,1.00,0.09
1.6347656,-6.304253E-4,-2.3601577E-4,-0.0013074527,-0.16,1.0,0.09,14705,10073.40,0,0,165,0.56,-2.94,0.07,-0.16,1.00,0.09
1.9345703,0.0013695741,-0.0012360178,-3.0745263E-4,-0.16,1.0,0.09,14720,10073.70,0,0,0,0.70,-3.01,0.14,-0.16,1.00,0.09
1.6347656,-0.0016304255,7.6398626E-4,-0.0013074527,-0.16,1.0,0.09,14734,10073.40,0,0,165,0.49,-2.87,0.07,-0.16,1.00,0.09
1.6347656,0.0013695741,-2.3601577E-4,-0.0013074527,-0.16,0.99,0.09,14742,10073.40,0,0,0,0.70,-2.94,0.07,-0.16,0.99,0.09
1.6347656,-6.304253E-4,-2.3601577E-4,-3.0745263E-4,-0.16,1.0,0.09,14757,10073.40,0,0,165,0.56,-2.94,0.14,-0.16,1.00,0.09
1.6347656,0.0013695741,-2.3601577E-4,-0.003307453,-0.16,0.99,0.09,14772,10073.40,0,0,0,0.70,-2.94,-0.07,-0.16,0.99,0.09
0.6347656,-6.304253E-4,-0.0012360178,-3.0745263E-4,-0.16,1.0,0.09,14779,10072.40,0,0,165,0.56,-3.01,0.14,-0.16,1.00,0.09
2.9345703,-6.304253E-4,-2.3601577E-4,-0.0043074526,-0.16,1.0,0.09,14794,10074.70,0,0,0,0.56,-2.94,-0.14,-0.16,1.00,0.09
1.9345703,-6.304253E-4,-0.002236016,-0.0023074527,-0.16,0.99,0.09,14809,10073.70,0,0,165,0.56,-3.08,0.00,-0.16,0.99,0.09
2.9345703,-0.002630426,-2.3601577E-4,-0.0023074527,-0.16,1.0,0.09,14816,10074.70,0,0,0,0.42,-2.94,0.00,-0.16,1.00,0.09
0.6347656,0.0013695741,-2.3601577E-4,-3.0745263E-4,-0.16,1.0,0.09,14831,10072.40,0,0,165,0.70,-2.94,0.14,-0.16,1.00,0.09
1.6347656,-6.304253E-4,7.6398626E-4,-0.0013074527,-0.16,1.0,0.09,14847,10073.40,0,0,0,0.56,-2.87,0.07,-0.16,1.00,0.09
1.6347656,-0.0016304255,-2.3601577E-4,-0.0013074527,-0.16,1.0,0.09,14856,10073.40,0,0,165,0.49,-2.94,0.07,-0.16,1.00,0.09
0.9345703,3.6957394E-4,-2.3601577E-4,6.9254707E-4,-0.16,1.0,0.09,14869,10072.70,0,0,0,0.63,-2.94,0.21,-0.16,1.00,0.09
1.9345703,-0.0016304255,-2.3601577E-4,-0.0023074527,-0.16,1.0,0.09,14884,10073.70,0,0,165,0.49,-2.94,0.00,-0.16,1.00,0.09
1.6347656,3.6957394E-4,-0.0012360178,-0.0013074527,-0.16,0.99,0.09,14891,10073.40,0,0,0,0.63,-3.01,0.07,-0.16,0.99,0.09
1.6347656,-0.002630426,-2.3601577E-4,-0.003307453,-0.16,1.0,0.09,14906,10073.40,0,0,165,0.42,-2.94,-0.07,-0.16,1.00,0.09
-0.36523438,3.6957394E-4,7.6398626E-4,-0.003307453,-0.16,0.99,0.09,14921,10071.40,0,0,0,0.63,-2.87,-0.07,-0.16,0.99,0.09
1.6347656,-0.0016304255,-0.0012360178,-0.003307453,-0.16,1.0,0.09,14929,10073.40,0,0,165,0.49,-3.01,-0.07,-0.16,1.00,0.09
2.6347656,-6.304253E-4,7.6398626E-4,-0.0013074527,-0.16,0.99,0.09,14944,10074.40,0,0,0,0.56,-2.87,0.07,-0.16,0.99,0.09
0.6347656,3.6957394E-4,-2.3601577E-4,-0.0013074527,-0.16,1.0,0.09,14959,10072.40,0,0,165,0.63,-2.94,0.07,-0.16,1.00,0.09
1.6347656,-6.304253E-4,-2.3601577E-4,-0.0023074527,-0.16,1.0,0.08,14966,10073.40,0,0,0,0.56,-2.94,0.00,-0.16,1.00,0.08
1.6347656,3.6957394E-4,7.6398626E-4,-0.0013074527,-0.16,1.0,0.09,14981,10073.40,0,0,165,0.63,-2.87,0.07,-0.16,1.00,0.09
1.6347656,-6.304253E-4,7.6398626E-4,-0.0013074527,-0.16,1.0,0.09,14996,10073.40,0,0,0,0.56,-2.87,0.07,-0.16,1.00,0.09
1.6347656,3.6957394E-4,7.6398626E-4,6.9254707E-4,-0.16,1.0,0.09,15004,10073.40,0,0,165,0.63,-2.87,0.21,-0.16,1.00,0.09
0.9345703,3.6957394E-4,7.6398626E-4,-3.0745263E-4,-0.16,1.0,0.09,15018,10072.70,0,0,0,0.63,-2.87,0.14,-0.16,1.00,0.09
1.9345703,-6.304253E-4,-2.3601577E-4,-0.0023074527,-0.16,1.0,0.09,15034,10073.70,0,0,165,0.56,-2.94,0.00,-0.16,1.00,0.09
1.9345703,3.6957394E-4,7.6398626E-4,-0.0013074527,-0.16,1.0,0.09,15042,10073.70,0,0,0,0.63,-2.87,0.07,-0.16,1.00,0.09
1.6347656,3.6957394E-4,-2.3601577E-4,-0.003307453,-0.16,1.0,0.09,15057,10073.40,0,0,165,0.63,-2.94,-0.07,-0.16,1.00,0.09
1.9345703,-6.304253E-4,-2.3601577E-4,-3.0745263E-4,-0.16,0.99,0.09,15071,10073.70,0,0,0,0.56,-2.94,0.14,-0.16,0.99,0.09
0.9345703,3.6957394E-4,-2.3601577E-4,-0.0013074527,-0.16,1.0,0.09,15079,10072.70,0,0,165,0.63,-2.94,0.07,-0.16,1.00,0.09
2.6347656,3.6957394E-4,0.0017639846,-3.0745263E-4,-0.16,1.0,0.09,15094,10074.40,0,0,0,0.63,-2.80,0.14,-0.16,1.00,0.09
1.6347656,-6.304253E-4,-2.3601577E-4,6.9254707E-4,-0.16,1.0,0.09,15109,10073.40,0,0,165,0.56,-2.94,0.21,-0.16,1.00,0.09
1.6347656,3.6957394E-4,-2.3601577E-4,-0.003307453,-0.16,1.0,0.09,15116,10073.40,0,0,0,0.63,-2.94,-0.07,-0.16,1.00,0.09
0.6347656,0.0013695741,-2.3601577E-4,-0.0023074527,-0.16,1.0,0.09,15132,10072.40,0,0,165,0.70,-2.94,0.00,-0.16,1.00,0.09
1.6347656,3.6957394E-4,-2.3601577E-4,-0.0023074527,-0.16,1.0,0.09,15146,10073.40,0,0,0,0.63,-2.94,0.00,-0.16,1.00,0.09
0.6347656,-6.304253E-4,-2.3601577E-4,-0.0013074527,-0.16,1.0,0.09,15154,10072.40,0,0,165,0.56,-2.94,0.07,-0.16,1.00,0.09
1.6347656,-6.304253E-4,7.6398626E-4,-0.0023074527,-0.16,1.0,0.09,15169,10073.40,0,0,0,0.56,-2.87,0.00,-0.16,1.00,0.09
1.6347656,3.6957394E-4,7.6398626E-4,-0.0013074527,-0.16,1.0,0.09,15177,10073.40,0,0,165,0.63,-2.87,0.07,-0.16,1.00,0.09
1.6347656,-0.002630426,-0.0012360178,-0.003307453,-0.16,1.0,0.09,15192,10073.40,0,0,0,0.42,-3.01,-0.07,-0.16,1.00,0.09
1.6347656,-6.304253E-4,-2.3601577E-4,-0.0023074527,-0.16,1.0,0.09,15207,10073.40,0,0,165,0.56,-2.94,0.00,-0.16,1.00,0.09
1.6347656,-6.304253E-4,0.0017639846,-0.0013074527,-0.16,1.0,0.09,15214,10073.40,0,0,0,0.56,-2.80,0.07,-0.16,1.00,0.09
0.6347656,-0.0016304255,-2.3601577E-4,-0.0023074527,-0.16,0.99,0.09,15228,10072.40,0,0,165,0.49,-2.94,0.00,-0.16,0.99,0.09
2.6347656,3.6957394E-4,-0.0012360178,-3.0745263E-4,-0.16,1.0,0.09,15244,10074.40,0,0,0,0.63,-3.01,0.14,-0.16,1.00,0.09
1.6347656,-6.304253E-4,-2.3601577E-4,-0.0023074527,-0.16,1.0,0.09,15253,10073.40,0,0,165,0.56,-2.94,0.00,-0.16,1.00,0.09
1.6347656,3.6957394E-4,-2.3601577E-4,-3.0745263E-4,-0.16,0.99,0.09,15266,10073.40,0,0,0,0.63,-2.94,0.14,-0.16,0.99,0.09
1.6347656,-0.0016304255,-2.3601577E-4,-0.0013074527,-0.16,1.0,0.09,15282,10073.40,0,0,165,0.49,-2.94,0.07,-0.16,1.00,0.09
1.6347656,3.6957394E-4,-2.3601577E-4,-3.0745263E-4,-0.16,1.0,0.09,15289,10073.40,0,0,0,0.63,-2.94,0.14,-0.16,1.00,0.09
1.6347656,3.6957394E-4,-2.3601577E-4,-0.0023074527,-0.16,1.0,0.09,15304,10073.40,0,0,165,0.63,-2.94,0.00,-0.16,1.00,0.09
1.6347656,-6.304253E-4,-2.3601577E-4,-0.003307453,-0.16,1.0,0.09,15318,10073.40,0,0,0,0.56,-2.94,-0.07,-0.16,1.00,0.09
2.6347656,-6.304253E-4,-2.3601577E-4,-0.0013074527,-0.16,1.0,0.09,15326,10074.40,0,0,165,0.56,-2.94,0.07,-0.16,1.00,0.09
1.6347656,-6.304253E-4,7.6398626E-4,-0.0013074527,-0.16,1.0,0.09,15341,10073.40,0,0,0,0.56,-2.87,0.07,-0.16,1.00,0.09
1.6347656,3.6957394E-4,-2.3601577E-4,-0.0023074527,-0.16,1.0,0.09,15357,10073.40,0,0,165,0.63,-2.94,0.00,-0.16,1.00,0.09
1.6347656,3.6957394E-4,0.0017639846,-3.0745263E-4,-0.16,1.0,0.09,15366,10073.40,0,0,0,0.63,-2.80,0.14,-0.16,1.00,0.09
1.6347656,3.6957394E-4,-2.3601577E-4,-0.0013074527,-0.16,1.0,0.09,15379,10073.40,0,0,165,0.63,-2.94,0.07,-0.16,1.00,0.09
2.6347656,0.0013695741,-2.3601577E-4,6.9254707E-4,-0.16,1.0,0.09,15394,10074.40,0,0,0,0.70,-2.94,0.21,-0.16,1.00,0.09
1.6347656,3.6957394E-4,7.6398626E-4,-0.0023074527,-0.16,1.0,0.09,15401,10073.40,0,0,165,0.63,-2.87,0.00,-0.16,1.00,0.09
1.6347656,3.6957394E-4,7.6398626E-4,-3.0745263E-4,-0.16,1.0,0.09,15416,10073.40,0,0,0,0.63,-2.87,0.14,-0.16,1.00,0.09
1.6347656,-6.304253E-4,-2.3601577E-4,-0.0023074527,-0.16,1.12,0.09,15431,10073.40,0,0,165,0.56,-2.94,0.00,-0.16,1.12,0.09
2.6347656,3.6957394E-4,7.6398626E-4,-0.0013074527,-0.16,1.0,0.09,15439,10074.40,0,0,0,0.63,-2.87,0.07,-0.16,1.00,0.09
0.6347656,3.6957394E-4,-2.3601577E-4,-0.0023074527,-0.16,1.0,0.09,15454,10072.40,0,0,165,0.63,-2.94,0.00,-0.16,1.00,0.09
1.6347656,-6.304253E-4,7.6398626E-4,-0.0023074527,-0.16,1.0,0.09,15469,10073.40,0,0,0,0.56,-2.87,0.00,-0.16,1.00,0.09
1.6347656,-0.0016304255,-2.3601577E-4,-0.0023074527,-0.16,1.0,0.09,15477,10073.40,0,0,165,0.49,-2.94,0.00,-0.16,1.00,0.09
1.6347656,-6.304253E-4,7.6398626E-4,-0.0023074527,-0.16,0.99,0.09,15492,10073.40,0,0,0,0.56,-2.87,0.00,-0.16,0.99,0.09
1.6347656,3.6957394E-4,7.6398626E-4,-3.0745263E-4,-0.16,1.0,0.09,15499,10073.40,0,0,165,0.63,-2.87,0.14,-0.16,1.00,0.09
1.6347656,0.0013695741,7.6398626E-4,6.9254707E-4,-0.16,1.0,0.09,15514,10073.40,0,0,0,0.70,-2.87,0.21,-0.16,1.00,0.09
1.6347656,0.0023695743,7.6398626E-4,-3.0745263E-4,-0.16,0.99,0.09,15530,10073.40,0,0,165,0.77,-2.87,0.14,-0.16,0.99,0.09
2.9345703,-6.304253E-4,-0.0012360178,-0.0013074527,-0.16,1.0,0.09,15536,10074.70,0,0,0,0.56,-3.01,0.07,-0.16,1.00,0.09
1.6347656,3.6957394E-4,7.6398626E-4,-0.0013074527,-0.16,1.0,0.09,15552,10073.40,0,0,165,0.63,-2.87,0.07,-0.16,1.00,0.09
1.6347656,3.6957394E-4,-2.3601577E-4,-0.0023074527,-0.16,1.0,0.09,15567,10073.40,0,0,0,0.63,-2.94,0.00,-0.16,1.00,0.09
1.6347656,3.6957394E-4,7.6398626E-4,-0.0043074526,-0.16,1.0,0.09,15574,10073.40,0,0,165,0.63,-2.87,-0.14,-0.16,1.00,0.09
1.3339844,3.6957394E-4,-0.0012360178,-0.0013074527,-0.16,1.0,0.09,15590,10073.10,0,0,0,0.63,-3.01,0.07,-0.16,1.00,0.09
1.6347656,-6.304253E-4,-0.0012360178,-0.003307453,-0.16,1.0,0.09,15603,10073.40,0,0,165,0.56,-3.01,-0.07,-0.16,1.00,0.09
1.6347656,-6.304253E-4,7.6398626E-4,-0.0013074527,-0.16,1.0,0.09,15611,10073.40,0,0,0,0.56,-2.87,0.07,-0.16,1.00,0.09
2.6347656,-6.304253E-4,-2.3601577E-4,-0.0023074527,-0.16,1.0,0.09,15626,10074.40,0,0,165,0.56,-2.94,0.00,-0.16,1.00,0.09
1.6347656,0.0013695741,-2.3601577E-4,-3.0745263E-4,-0.16,1.0,0.09,15642,10073.40,0,0,0,0.70,-2.94,0.14,-0.16,1.00,0.09
1.6347656,3.6957394E-4,7.6398626E-4,-3.0745263E-4,-0.16,1.0,0.09,15649,10073.40,0,0,165,0.63,-2.87,0.14,-0.16,1.00,0.09
2.6347656,3.6957394E-4,-2.3601577E-4,-0.0013074527,-0.16,1.0,0.09,15664,10074.40,0,0,0,0.63,-2.94,0.07,-0.16,1.00,0.09
0.9345703,-6.304253E-4,-2.3601577E-4,-3.0745263E-4,-0.16,0.99,0.09,15679,10072.70,0,0,165,0.56,-2.94,0.14,-0.16,0.99,0.09
1.3339844,-6.304253E-4,-2.3601577E-4,-0.0023074527,-0.16,1.0,0.09,15688,10073.10,0,0,0,0.56,-2.94,0.00,-0.16,1.00,0.09
1.6347656,3.6957394E-4,7.6398626E-4,-0.0013074527,-0.16,1.0,0.09,15701,10073.40,0,0,165,0.63,-2.87,0.07,-0.16,1.00,0.09
2.6347656,-6.304253E-4,-2.3601577E-4,-0.0023074527,-0.16,1.0,0.09,15717,10074.40,0,0,0,0.56,-2.94,0.00,-0.16,1.00,0.09
1.6347656,-0.0016304255,-0.0012360178,-0.003307453,-0.16,1.0,0.09,15724,10073.40,0,0,165,0.49,-3.01,-0.07,-0.16,1.00,0.09
1.6347656,0.0013695741,-2.3601577E-4,-0.0013074527,-0.16,1.0,0.09,15739,10073.40,0,0,0,0.70,-2.94,0.07,-0.16,1.00,0.09
1.6347656,3.6957394E-4,7.6398626E-4,-0.003307453,-0.16,1.0,0.09,15754,10073.40,0,0,165,0.63,-2.87,-0.07,-0.16,1.00,0.09
1.6347656,-6.304253E-4,-0.0012360178,-0.0013074527,-0.16,1.0,0.09,15761,10073.40,0,0,0,0.56,-3.01,0.07,-0.16,1.00,0.09
1.6347656,3.6957394E-4,7.6398626E-4,-0.0023074527,-0.16,1.0,0.09,15776,10073.40,0,0,165,0.63,-2.87,0.00,-0.16,1.00,0.09
2.6347656,-6.304253E-4,-2.3601577E-4,-0.0013074527,-0.16,0.99,0.09,15791,10074.40,0,0,0,0.56,-2.94,0.07,-0.16,0.99,0.09
1.6347656,3.6957394E-4,-2.3601577E-4,-0.0013074527,-0.16,1.0,0.09,15798,10073.40,0,0,165,0.63,-2.94,0.07,-0.16,1.00,0.09
1.6347656,-6.304253E-4,-2.3601577E-4,-0.0023074527,-0.16,0.99,0.09,15814,10073.40,0,0,0,0.56,-2.94,0.00,-0.16,0.99,0.09
1.6347656,-6.304253E-4,7.6398626E-4,-3.0745263E-4,-0.16,1.0,0.09,15829,10073.40,0,0,165,0.56,-2.87,0.14,-0.16,1.00,0.09
1.6347656,3.6957394E-4,7.6398626E-4,-0.0013074527,-0.16,1.0,0.09,15837,10073.40,0,0,0,0.63,-2.87,0.07,-0.16,1.00,0.09
2.6347656,0.0013695741,-0.0012360178,-0.003307453,-0.16,1.0,0.09,15851,10074.40,0,0,165,0.70,-3.01,-0.07,-0.16,1.00,0.09
1.6347656,-0.0016304255,-0.0012360178,-0.0023074527,-0.16,1.0,0.09,15866,10073.40,0,0,0,0.49,-3.01,0.00,-0.16,1.00,0.09
1.6347656,3.6957394E-4,-0.0012360178,-0.0023074527,-0.16,1.0,0.09,15874,10073.40,0,0,165,0.63,-3.01,0.00,-0.16,1.00,0.09
1.6347656,-6.304253E-4,7.6398626E-4,-3.0745263E-4,-0.16,1.0,0.09,15889,10073.40,0,0,0,0.56,-2.87,0.14,-0.16,1.00,0.09
1.6347656,3.6957394E-4,-2.3601577E-4,-3.0745263E-4,-0.16,1.0,0.09,15904,10073.40,0,0,165,0.63,-2.94,0.14,-0.16,1.00,0.09
1.6347656,-6.304253E-4,-2.3601577E-4,-0.0013074527,-0.16,1.0,0.09,15911,10073.40,0,0,0,0.56,-2.94,0.07,-0.16,1.00,0.09
2.6347656,3.6957394E-4,0.0017639846,-0.0013074527,-0.16,1.0,0.09,15927,10074.40,0,0,165,0.63,-2.80,0.07,-0.16,1.00,0.09
1.6347656,-6.304253E-4,0.0017639846,-3.0745263E-4,-0.16,1.0,0.09,15947,10073.40,0,0,0,0.56,-2.80,0.14,-0.16,1.00,0.09
1.6347656,0.0013695741,7.6398626E-4,-0.0013074527,-0.16,1.0,0.09,15949,10073.40,0,0,165,0.70,-2.87,0.07,-0.16,1.00,0.09
1.6347656,3.6957394E-4,0.0017639846,-0.0023074527,-0.16,0.99,0.09,15964,10073.40,0,0,0,0.63,-2.80,0.00,-0.16,0.99,0.09
2.234375,3.6957394E-4,-2.3601577E-4,-0.0013074527,-0.16,1.0,0.09,15979,10074.00,0,0,165,0.63,-2.94,0.07,-0.16,1.00,0.09
1.6347656,-0.0016304255,7.6398626E-4,-0.006307453,-0.16,1.0,0.09,15989,10073.40,0,0,0,0.49,-2.87,-0.28,-0.16,1.00,0.09
1.6347656,0.0053695748,-2.3601577E-4,0.0056925477,-0.16,0.99,0.09,16002,10073.40,0,0,165,0.98,-2.94,0.56,-0.16,0.99,0.09
1.6347656,-0.0076304255,0.0017639846,-0.009307453,-0.16,1.01,0.09,16016,10073.40,0,0,0,0.07,-2.80,-0.49,-0.16,1.01,0.09
2.6347656,0.0043695746,-0.0012360178,0.0046925475,-0.16,0.99,0.09,16024,10074.40,0,0,165,0.91,-3.01,0.49,-0.16,0.99,0.09
1.6347656,0.0013695741,7.6398626E-4,-0.0013074527,-0.16,1.0,0.09,16039,10073.40,0,0,0,0.70,-2.87,0.07,-0.16,1.00,0.09
1.6347656,-0.002630426,7.6398626E-4,-0.0043074526,-0.16,1.0,0.09,16055,10073.40,0,0,165,0.42,-2.87,-0.14,-0.16,1.00,0.09
1.6347656,0.0013695741,-2.3601577E-4,0.0026925472,-0.16,1.0,0.09,16062,10073.40,0,0,0,0.70,-2.94,0.35,-0.16,1.00,0.09
1.6347656,-0.0016304255,-2.3601577E-4,-0.0043074526,-0.16,1.0,0.09,16081,10073.40,0,0,165,0.49,-2.94,-0.14,-0.16,1.00,0.09
1.3339844,-0.002630426,-2.3601577E-4,-0.0023074527,-0.16,1.0,0.09,16091,10073.10,0,0,0,0.42,-2.94,0.00,-0.16,1.00,0.09
2.6347656,-6.304253E-4,-2.3601577E-4,-0.0023074527,-0.16,1.0,0.09,16099,10074.40,0,0,165,0.56,-2.94,0.00,-0.16,1.00,0.09
1.6347656,0.0033695735,-2.3601577E-4,-0.0023074527,-0.16,0.99,0.09,16114,10073.40,0,0,0,0.84,-2.94,0.00,-0.16,0.99,0.09
2.6347656,-0.0046304255,-2.3601577E-4,-0.0043074526,-0.16,1.0,0.09,16130,10074.40,0,0,165,0.28,-2.94,-0.14,-0.16,1.00,0.09
0.6347656,3.6957394E-4,-0.0012360178,-3.0745263E-4,-0.16,1.0,0.09,16138,10072.40,0,0,0,0.63,-3.01,0.14,-0.16,1.00,0.09
2.6347656,0.0013695741,7.6398626E-4,0.0016925475,-0.16,0.99,0.09,16151,10074.40,0,0,165,0.70,-2.87,0.28,-0.16,0.99,0.09
1.6347656,-0.0066304253,-2.3601577E-4,-0.003307453,-0.16,1.0,0.09,16166,10073.40,0,0,0,0.14,-2.94,-0.07,-0.16,1.00,0.09
2.6347656,0.0013695741,-2.3601577E-4,0.0016925475,-0.16,1.0,0.09,16175,10074.40,0,0,165,0.70,-2.94,0.28,-0.16,1.00,0.09
1.6347656,0.0013695741,7.6398626E-4,-0.0023074527,-0.16,0.99,0.09,16189,10073.40,0,0,0,0.70,-2.87,0.00,-0.16,0.99,0.09
1.6347656,-6.304253E-4,-2.3601577E-4,-3.0745263E-4,-0.16,0.88,0.09,16204,10073.40,0,0,165,0.56,-2.94,0.14,-0.16,0.88,0.09
1.6347656,-6.304253E-4,-0.0012360178,-0.0023074527,-0.16,1.0,0.09,16211,10073.40,0,0,0,0.56,-3.01,0.00,-0.16,1.00,0.09
1.6347656,0.0013695741,0.0017639846,-0.0013074527,-0.16,1.0,0.09,16226,10073.40,0,0,165,0.70,-2.80,0.07,-0.16,1.00,0.09
1.6347656,-0.0016304255,-2.3601577E-4,-0.0023074527,-0.16,1.0,0.09,16234,10073.40,0,0,0,0.49,-2.94,0.00,-0.16,1.00,0.09
1.6347656,-0.0016304255,-0.0012360178,-0.0023074527,-0.16,1.0,0.09,16249,10073.40,0,0,165,0.49,-3.01,0.00,-0.16,1.00,0.09
0.6347656,0.0023695743,-2.3601577E-4,-0.0023074527,-0.16,1.0,0.09,16264,10072.40,0,0,0,0.77,-2.94,0.00,-0.16,1.00,0.09
1.6347656,-0.002630426,7.6398626E-4,-0.0023074527,-0.16,1.0,0.09,16272,10073.40,0,0,165,0.42,-2.87,0.00,-0.16,1.00,0.09
1.6347656,3.6957394E-4,-2.3601577E-4,-3.0745263E-4,-0.16,1.0,0.09,16289,10073.40,0,0,0,0.63,-2.94,0.14,-0.16,1.00,0.09
2.6347656,3.6957394E-4,-0.0012360178,-0.0013074527,-0.16,1.0,0.09,16302,10074.40,0,0,165,0.63,-3.01,0.07,-0.16,1.00,0.09
1.6347656,3.6957394E-4,-0.0012360178,-0.003307453,-0.16,1.0,0.09,16309,10073.40,0,0,0,0.63,-3.01,-0.07,-0.16,1.00,0.09
1.6347656,3.6957394E-4,7.6398626E-4,-0.0023074527,-0.16,1.0,0.09,16324,10073.40,0,0,165,0.63,-2.87,0.00,-0.16,1.00,0.09
0.6347656,0.0033695735,-2.3601577E-4,-0.0013074527,-0.16,0.99,0.09,16342,10072.40,0,0,0,0.84,-2.94,0.07,-0.16,0.99,0.09
1.3339844,-0.0016304255,-2.3601577E-4,-3.0745263E-4,-0.16,1.0,0.09,16346,10073.10,0,0,165,0.49,-2.94,0.14,-0.16,1.00,0.09
1.6347656,3.6957394E-4,-0.0012360178,-0.003307453,-0.16,1.0,0.09,16362,10073.40,0,0,0,0.63,-3.01,-0.07,-0.16,1.00,0.09
2.6347656,-6.304253E-4,-2.3601577E-4,-0.0013074527,-0.16,1.0,0.09,16376,10074.40,0,0,165,0.56,-2.94,0.07,-0.16,1.00,0.09
1.3339844,-6.304253E-4,-0.0012360178,-0.25830746,-0.16,1.0,0.09,16384,10073.10,0,0,0,0.56,-3.01,-17.92,-0.16,1.00,0.09
1.6347656,3.6957394E-4,-2.3601577E-4,-0.0013074527,-0.16,1.0,0.09,16399,10073.40,0,0,165,0.63,-2.94,0.07,-0.16,1.00,0.09
1.6347656,3.6957394E-4,-2.3601577E-4,-0.0013074527,-0.16,1.0,0.09,16414,10073.40,0,0,0,0.63,-2.94,0.07,-0.16,1.00,0.09
1.6347656,-0.0016304255,-2.3601577E-4,-0.003307453,-0.16,1.0,0.09,16422,10073.40,0,0,165,0.49,-2.94,-0.07,-0.16,1.00,0.09
1.6347656,0.0023695743,-2.3601577E-4,-3.0745263E-4,-0.16,1.0,0.09,16438,10073.40,0,0,0,0.77,-2.94,0.14,-0.16,1.00,0.09
1.6347656,3.6957394E-4,7.6398626E-4,-0.0013074527,-0.16,0.99,0.09,16455,10073.40,0,0,165,0.63,-2.87,0.07,-0.16,0.99,0.09
2.234375,-0.0016304255,-2.3601577E-4,-0.0013074527,-0.16,1.0,0.09,16459,10074.00,0,0,0,0.49,-2.94,0.07,-0.16,1.00,0.09
2.234375,0.0013695741,7.6398626E-4,-3.0745263E-4,-0.16,1.0,0.09,16474,10074.00,0,0,165,0.70,-2.87,0.14,-0.16,1.00,0.09
1.3339844,3.6957394E-4,7.6398626E-4,-3.0745263E-4,-0.16,0.99,0.09,16489,10073.10,0,0,0,0.63,-2.87,0.14,-0.16,0.99,0.09
1.6347656,-0.002630426,-2.3601577E-4,-0.0023074527,-0.16,1.0,0.09,16496,10073.40,0,0,165,0.42,-2.94,0.00,-0.16,1.00,0.09
2.6347656,0.0013695741,-2.3601577E-4,-0.0043074526,-0.16,1.0,0.09,16512,10074.40,0,0,0,0.70,-2.94,-0.14,-0.16,1.00,0.09
0.6347656,3.6957394E-4,7.6398626E-4,-0.0013074527,-0.16,1.0,0.09,16526,10072.40,0,0,165,0.63,-2.87,0.07,-0.16,1.00,0.09
1.6347656,3.6957394E-4,-2.3601577E-4,-0.0043074526,-0.16,0.99,0.09,16534,10073.40,0,0,0,0.63,-2.94,-0.14,-0.16,0.99,0.09
1.6347656,0.0013695741,-2.3601577E-4,-0.0013074527,-0.16,1.0,0.09,16549,10073.40,0,0,165,0.70,-2.94,0.07,-0.16,1.00,0.09
1.6347656,0.0013695741,7.6398626E-4,6.9254707E-4,-0.16,1.0,0.09,16564,10073.40,0,0,0,0.70,-2.87,0.21,-0.16,1.00,0.09
1.6347656,-0.0016304255,-2.3601577E-4,-0.0023074527,-0.16,1.0,0.09,16572,10073.40,0,0,165,0.49,-2.94,0.00,-0.16,1.00,0.09
2.6347656,0.0033695735,-2.3601577E-4,-3.0745263E-4,-0.16,1.0,0.09,16587,10074.40,0,0,0,0.84,-2.94,0.14,-0.16,1.00,0.09
1.3339844,3.6957394E-4,7.6398626E-4,-0.0013074527,-0.16,0.99,0.09,16601,10073.10,0,0,165,0.63,-2.87,0.07,-0.16,0.99,0.09
1.6347656,3.6957394E-4,7.6398626E-4,6.9254707E-4,-0.16,1.0,0.09,16609,10073.40,0,0,0,0.63,-2.87,0.21,-0.16,1.00,0.09
0.33398438,-6.304253E-4,-2.3601577E-4,-0.003307453,-0.16,1.0,0.09,16624,10072.10,0,0,165,0.56,-2.94,-0.07,-0.16,1.00,0.09
0.6347656,-6.304253E-4,-2.3601577E-4,-0.0013074527,-0.16,0.99,0.09,16639,10072.40,0,0,0,0.56,-2.94,0.07,-0.16,0.99,0.09
2.6347656,3.6957394E-4,-2.3601577E-4,-0.0023074527,-0.16,1.0,0.09,16647,10074.40,0,0,165,0.63,-2.94,0.00,-0.16,1.00,0.09
1.6347656,0.0013695741,-2.3601577E-4,-0.0013074527,-0.16,1.0,0.09,16662,10073.40,0,0,0,0.70,-2.94,0.07,-0.16,1.00,0.09
1.3339844,3.6957394E-4,7.6398626E-4,-0.006307453,-0.16,1.0,0.09,16677,10073.10,0,0,165,0.63,-2.87,-0.28,-0.16,1.00,0.09
1.6347656,0.039369572,0.009763982,0.0036925469,-0.15,0.99,0.09,16684,10073.40,0,0,0,3.36,-2.24,0.42,-0.15,0.99,0.09
1.6347656,0.018369574,-0.007236019,0.0026925472,-0.16,0.99,0.09,16699,10073.40,0,0,165,1.89,-3.43,0.35,-0.16,0.99,0.09
0.6347656,0.018369574,-0.006236013,-0.0023074527,-0.16,1.01,0.08,16714,10072.40,0,0,0,1.89,-3.36,0.00,-0.16,1.01,0.08
1.6347656,0.025369577,0.0017639846,0.007692547,-0.16,1.0,0.09,16721,10073.40,0,0,165,2.38,-2.80,0.70,-0.16,1.00,0.09
2.6347656,0.12736958,-0.009236015,0.006692547,-0.17,0.99,0.14,16738,10074.40,0,0,0,9.52,-3.57,0.63,-0.17,0.99,0.14
1.3339844,0.16036958,-0.018236015,0.030692548,-0.16,1.02,0.1,16744,10073.10,0,0,165,11.83,-4.20,2.31,-0.16,1.02,0.10
1.6347656,0.11136957,-0.0052360147,0.02969255,-0.16,0.98,0.06,16759,10073.40,0,0,0,8.40,-3.29,2.24,-0.16,0.98,0.06
2.6347656,0.24736959,-0.11323602,-0.098307446,-0.4,0.48,0.7,16774,10074.40,0,0,165,17.92,-10.85,-6.72,-0.40,0.48,0.70
1.3339844,0.91836953,-0.407236,0.023692548,-0.26,1.32,-0.15,16781,10073.10,0,0,0,64.89,-31.43,1.82,-0.26,1.32,-0.15
1.6347656,2.1673696,-0.08723601,0.45269257,0.03,0.74,0.33,16796,10073.40,0,0,165,152.32,-9.03,31.85,0.03,0.74,0.33
1.6347656,0.36836958,-0.12023602,-0.006307453,-0.31,1.22,0.08,16812,10073.40,0,0,0,26.39,-11.34,-0.28,-0.31,1.22,0.08
1.6347656,0.56136954,-0.22123602,0.45069253,-0.24,1.2,0.04,16818,10073.40,0,0,165,39.90,-18.41,31.71,-0.24,1.20,0.04
1.6347656,0.39236957,-0.19423601,0.8076925,-0.21,1.34,-0.02,16834,10073.40,0,0,0,28.07,-16.52,56.70,-0.21,1.34,-0.02
1.6347656,0.23936959,-0.07223602,1.2106926,-0.1,1.51,-0.06,16849,10073.40,0,0,165,17.36,-7.98,84.91,-0.10,1.51,-0.06
1.6347656,0.34036958,0.05176398,1.8626926,-0.03,1.59,-0.17,16857,10073.40,0,0,0,24.43,0.70,130.55,-0.03,1.59,-0.17
1.6347656,0.23236959,0.07076398,2.6616926,-0.07,1.58,-0.12,16872,10073.40,0,0,165,16.87,2.03,186.48,-0.07,1.58,-0.12
2.6347656,0.07136957,0.061763983,3.2646925,-0.19,1.47,-0.13,16888,10074.40,0,0,0,5.60,1.40,228.69,-0.19,1.47,-0.13
1.6347656,-0.18563043,0.108763985,3.7236927,-0.18,1.39,-0.19,16894,10073.40,0,0,165,-12.39,4.69,260.82,-0.18,1.39,-0.19
1.6347656,-0.5486304,0.20976397,4.1426926,-0.02,1.33,-0.22,16909,10073.40,0,0,0,-37.80,11.76,290.15,-0.02,1.33,-0.22
1.6347656,-0.9236305,0.483764,4.3216925,0.1,1.44,-0.15,16924,10073.40,0,0,165,-64.05,30.94,302.68,0.10,1.44,-0.15
1.6347656,-1.3286304,0.49176398,4.677693,0.19,1.43,-0.15,16932,10073.40,0,0,0,-92.40,31.50,327.60,0.19,1.43,-0.15
2.234375,-1.4476304,0.28176397,4.869693,0.23,1.23,-0.19,16946,10074.00,0,0,165,-100.73,16.80,341.04,0.23,1.23,-0.19
0.6347656,-1.3836304,0.252764,4.881693,0.26,1.19,-0.16,16962,10072.40,0,0,0,-96.25,14.77,341.88,0.26,1.19,-0.16
1.6347656,-1.1306304,0.17376399,4.7686925,0.35,1.21,-0.07,16969,10073.40,0,0,165,-78.54,9.24,333.97,0.35,1.21,-0.07
2.234375,-0.9036305,0.19676399,4.5296926,0.52,1.19,0.04,16984,10074.00,0,0,0,-62.65,10.85,317.24,0.52,1.19,0.04
2.234375,-0.69463044,0.32476398,4.2626925,0.48,1.12,0.04,16999,10074.00,0,0,165,-48.02,19.81,298.55,0.48,1.12,0.04
1.3339844,-0.45963043,0.575764,3.3846924,0.37,0.98,-0.03,17007,10073.10,0,0,0,-31.57,37.38,237.09,0.37,0.98,-0.03
2.6347656,-0.3366304,0.61776394,2.8886926,0.58,0.9,-0.75,17021,10074.40,0,0,165,-22.96,40.32,202.37,0.58,0.90,-0.75
2.6347656,0.43436956,0.12076399,2.9296927,0.56,0.91,-0.21,17038,10074.40,0,0,0,31.01,5.53,205.24,0.56,0.91,-0.21
2.6347656,0.71836954,0.61576396,1.9296926,0.73,0.72,-0.25,17045,10074.40,0,0,165,50.89,40.18,135.24,0.73,0.72,-0.25
2.6347656,1.0913696,0.89076394,1.8736926,0.82,0.73,-0.38,17060,10074.40,0,0,0,77.00,59.43,131.32,0.82,0.73,-0.38
2.6347656,1.0973696,1.122764,1.6866926,0.81,0.71,-0.3,17074,10074.40,0,0,165,77.42,75.67,118.23,0.81,0.71,-0.30
1.6347656,1.2063696,1.2347641,1.5786926,0.88,0.63,-0.31,17082,10073.40,0,0,0,85.05,83.51,110.67,0.88,0.63,-0.31
2.6347656,1.2483696,1.145764,1.4066925,0.8,0.67,-0.27,17097,10074.40,0,0,165,87.99,77.28,98.63,0.80,0.67,-0.27
2.234375,1.6913697,1.164764,1.3716925,0.9,0.62,-0.28,17112,10074.00,0,0,0,119.00,78.61,96.18,0.90,0.62,-0.28
2.6347656,1.9383695,1.196764,1.1936926,0.97,0.45,-0.33,17119,10074.40,0,0,165,136.29,80.85,83.72,0.97,0.45,-0.33
3.5341797,2.1153693,1.335764,1.0176926,0.95,0.27,-0.35,17134,10075.30,0,0,0,148.68,90.58,71.40,0.95,0.27,-0.35
3.5341797,2.4003696,1.5047641,1.0376927,0.95,0.22,-0.33,17149,10075.30,0,0,165,168.63,102.41,72.80,0.95,0.22,-0.33
3.234375,2.6143694,1.539764,1.0636926,0.85,0.12,-0.27,17157,10075.00,0,0,0,183.61,104.86,74.62,0.85,0.12,-0.27
3.234375,2.6713696,1.6807641,0.8226925,0.73,0.07,-0.25,17172,10075.00,0,0,165,187.60,114.73,57.75,0.73,0.07,-0.25
2.234375,2.7353694,1.9217641,0.5346925,0.77,0.03,-0.21,17187,10074.00,0,0,0,192.08,131.60,37.59,0.77,0.03,-0.21
2.234375,2.7393694,2.184764,0.26269254,0.71,0.06,-0.15,17202,10074.00,0,0,165,192.36,150.01,18.55,0.71,0.06,-0.15
3.5341797,2.7753696,2.521764,0.006692547,0.66,0.14,-0.11,17209,10075.30,0,0,0,194.88,173.60,0.63,0.66,0.14,-0.11
2.234375,2.8703694,2.839764,-0.117307454,0.67,0.3,-0.06,17224,10074.00,0,0,165,201.53,195.86,-8.05,0.67,0.30,-0.06
2.234375,3.0283694,2.979764,-0.030307453,0.78,0.53,0.07,17231,10074.00,0,0,0,212.59,205.66,-1.96,0.78,0.53,0.07
2.6347656,3.0273695,2.943764,0.14269254,0.69,0.61,0.19,17246,10074.40,0,0,165,212.52,203.14,10.15,0.69,0.61,0.19
2.6347656,2.8923695,2.629764,0.38069254,0.77,0.68,0.19,17262,10074.40,0,0,0,203.07,181.16,26.81,0.77,0.68,0.19
3.234375,2.8443696,2.304764,0.5966925,0.64,0.74,0.25,17270,10075.00,0,0,165,199.71,158.41,41.93,0.64,0.74,0.25
2.6347656,2.9523695,2.259764,0.48369256,0.65,0.73,0.22,17284,10074.40,0,0,0,207.27,155.26,34.02,0.65,0.73,0.22
2.234375,2.7383695,2.4157639,0.39869255,0.75,0.86,0.28,17299,10074.00,0,0,165,192.29,166.18,28.07,0.75,0.86,0.28
1.6347656,2.4333696,2.4507642,0.56169254,0.83,1.02,0.28,17307,10073.40,0,0,0,170.94,168.63,39.48,0.83,1.02,0.28
1.6347656,2.2463696,2.2967641,0.7506925,0.85,1.02,0.26,17322,10073.40,0,0,165,157.85,157.85,52.71,0.85,1.02,0.26
0.6347656,2.1023695,2.2507641,0.9526925,0.73,1.06,0.21,17338,10072.40,0,0,0,147.77,154.63,66.85,0.73,1.06,0.21
2.234375,2.8223696,2.489764,0.91669255,0.74,1.0,0.19,17343,10074.00,0,0,165,198.17,171.36,64.33,0.74,1.00,0.19
1.6347656,2.7293696,3.091764,0.74569255,0.66,1.03,0.18,17359,10073.40,0,0,0,191.66,213.50,52.36,0.66,1.03,0.18
2.234375,2.6793694,2.975764,0.7116925,0.63,1.2,0.28,17374,10074.00,0,0,165,188.16,205.38,49.98,0.63,1.20,0.28
1.3339844,2.7273695,2.958764,0.84269255,0.64,1.24,0.27,17382,10073.10,0,0,0,191.52,204.19,59.15,0.64,1.24,0.27
2.234375,2.5923696,2.870764,0.9746925,0.71,1.28,0.33,17396,10074.00,0,0,165,182.07,198.03,68.39,0.71,1.28,0.33
1.3339844,2.3063695,2.887764,1.0926926,0.64,1.23,0.36,17411,10073.10,0,0,0,162.05,199.22,76.65,0.64,1.23,0.36
2.6347656,2.2963696,2.884764,1.2256926,0.6,1.15,0.37,17419,10074.40,0,0,165,161.35,199.01,85.96,0.60,1.15,0.37
1.6347656,2.2263694,2.932764,1.2696925,0.58,1.13,0.32,17434,10073.40,0,0,0,156.45,202.37,89.04,0.58,1.13,0.32
2.6347656,2.2293696,2.664764,1.2606926,0.53,1.06,0.28,17449,10074.40,0,0,165,156.66,183.61,88.41,0.53,1.06,0.28
2.234375,2.1203694,2.317764,1.2956926,0.47,0.97,0.18,17457,10074.00,0,0,0,149.03,159.32,90.86,0.47,0.97,0.18
2.6347656,3.2183695,2.4547641,0.89869255,0.47,0.77,0.29,17471,10074.40,0,0,165,225.89,168.91,63.07,0.47,0.77,0.29
2.234375,2.5093694,2.314764,0.82069254,0.42,0.88,0.45,17487,10074.00,0,0,0,176.26,159.11,57.61,0.42,0.88,0.45
1.6347656,2.7173696,2.110764,0.9496925,0.42,0.93,0.36,17494,10073.40,0,0,165,190.82,144.83,66.64,0.42,0.93,0.36
3.5341797,3.1503696,2.021764,0.83269256,0.54,0.72,0.32,17509,10075.30,0,0,0,221.13,138.60,58.45,0.54,0.72,0.32
2.234375,2.6363695,2.0237641,1.3486925,0.54,0.58,0.22,17525,10074.00,0,0,165,185.15,138.74,94.57,0.54,0.58,0.22
2.234375,2.2623694,2.182764,1.4026926,0.56,0.56,0.24,17532,10074.00,0,0,0,158.97,149.87,98.35,0.56,0.56,0.24
2.6347656,2.1203694,2.239764,1.2606926,0.54,0.6,0.25,17547,10074.40,0,0,165,149.03,153.86,88.41,0.54,0.60,0.25
3.5341797,3.0163696,2.128764,1.4016925,0.57,0.61,0.07,17561,10075.30,0,0,0,211.75,146.09,98.28,0.57,0.61,0.07
2.6347656,3.2943697,1.974764,1.3286926,0.59,0.57,0.27,17569,10074.40,0,0,165,231.21,135.31,93.17,0.59,0.57,0.27
1.3339844,2.7483695,1.9737641,1.2956926,0.57,0.65,0.35,17584,10073.10,0,0,0,192.99,135.24,90.86,0.57,0.65,0.35
2.234375,2.3953695,1.7697641,1.0376927,0.51,0.54,0.25,17599,10074.00,0,0,165,168.28,120.96,72.80,0.51,0.54,0.25
2.6347656,2.3203695,1.557764,0.76969254,0.63,0.65,0.32,17607,10074.40,0,0,0,163.03,106.12,54.04,0.63,0.65,0.32
3.234375,2.3063695,1.191764,0.45269257,0.63,0.56,0.3,17622,10075.00,0,0,165,162.05,80.50,31.85,0.63,0.56,0.30
2.6347656,2.4173696,1.135764,0.26269254,0.66,0.55,0.25,17637,10074.40,0,0,0,169.82,76.58,18.55,0.66,0.55,0.25
3.234375,2.6163695,1.201764,0.21569255,0.77,0.51,0.22,17644,10075.00,0,0,165,183.75,81.20,15.26,0.77,0.51,0.22
2.234375,2.5213695,1.674764,0.5156925,0.79,0.46,0.13,17658,10074.00,0,0,0,177.10,114.31,36.26,0.79,0.46,0.13
2.234375,2.5933695,1.766764,0.90469253,0.95,0.67,-0.14,17675,10074.00,0,0,165,182.14,120.75,63.49,0.95,0.67,-0.14
2.234375,2.6193695,1.687764,0.91269255,0.83,0.62,0.19,17681,10074.00,0,0,0,183.96,115.22,64.05,0.83,0.62,0.19
3.5341797,2.7923696,1.694764,1.0946926,0.69,0.69,0.21,17697,10075.30,0,0,165,196.07,115.71,76.79,0.69,0.69,0.21
1.3339844,2.8343694,1.610764,1.2066926,0.68,0.64,0.3,17712,10073.10,0,0,0,199.01,109.83,84.63,0.68,0.64,0.30
2.234375,2.6993694,1.4277639,1.0976926,0.64,0.56,0.32,17719,10074.00,0,0,165,189.56,97.02,77.00,0.64,0.56,0.32
2.234375,2.4423697,1.3767639,0.8786925,0.55,0.42,0.29,17734,10074.00,0,0,0,171.57,93.45,61.67,0.55,0.42,0.29
2.6347656,2.1703694,1.4867641,0.62069255,0.63,0.43,0.28,17749,10074.40,0,0,165,152.53,101.15,43.61,0.63,0.43,0.28
3.234375,1.9843695,1.500764,0.48469254,0.63,0.44,0.2,17756,10075.00,0,0,0,139.51,102.13,34.09,0.63,0.44,0.20
2.234375,1.9963697,1.5037639,0.45469254,0.67,0.5,0.18,17772,10074.00,0,0,165,140.35,102.34,31.99,0.67,0.50,0.18
3.234375,2.0153694,1.485764,0.43869257,0.62,0.53,0.23,17794,10075.00,0,0,0,141.68,101.08,30.87,0.62,0.53,0.23
2.234375,1.9333696,1.402764,0.41669255,0.61,0.6,0.29,17795,10074.00,0,0,165,135.94,95.27,29.33,0.61,0.60,0.29
1.3339844,1.6683697,1.2287639,0.46469253,0.59,0.57,0.35,17810,10073.10,0,0,0,117.39,83.09,32.69,0.59,0.57,0.35
2.234375,1.3483696,1.0587641,0.39269254,0.58,0.55,0.37,17826,10074.00,0,0,165,94.99,71.19,27.65,0.58,0.55,0.37
2.234375,1.0243696,0.96376395,0.15669253,0.57,0.5,0.35,17831,10074.00,0,0,0,72.31,64.54,11.13,0.57,0.50,0.35
2.234375,0.7213695,0.906764,-0.09630745,0.74,0.44,0.25,17846,10074.00,0,0,165,51.10,60.55,-6.58,0.74,0.44,0.25
2.234375,0.7073695,0.877764,-0.27130744,0.69,0.49,0.21,17874,10074.00,0,0,0,50.12,58.52,-18.83,0.69,0.49,0.21
2.6347656,0.79236954,0.83876395,-0.14630745,0.7,0.54,0.11,17876,10074.40,0,0,165,56.07,55.79,-10.08,0.70,0.54,0.11
2.234375,1.4543697,0.810764,0.015692547,0.74,0.6,0.19,17891,10074.00,0,0,0,102.41,53.83,1.26,0.74,0.60,0.19
2.234375,1.3413696,0.982764,-0.0073074526,0.69,0.61,0.25,17899,10074.00,0,0,165,94.50,65.87,-0.35,0.69,0.61,0.25
2.234375,1.1613697,0.92576396,-0.029307453,0.6,0.61,0.3,17906,10074.00,0,0,0,81.90,61.88,-1.89,0.60,0.61,0.30
2.6347656,1.1563697,0.877764,-0.0053074528,0.6,0.62,0.29,17922,10074.40,0,0,165,81.55,58.52,-0.21,0.60,0.62,0.29
3.5341797,0.94436955,0.848764,-0.092307456,0.6,0.64,0.25,17949,10075.30,0,0,0,66.71,56.49,-6.30,0.60,0.64,0.25
3.5341797,0.7073695,0.71276397,-0.12230745,0.64,0.68,0.25,17952,10075.30,0,0,165,50.12,46.97,-8.40,0.64,0.68,0.25
1.6347656,0.6043695,0.642764,-0.013307452,0.65,0.72,0.23,17959,10073.40,0,0,0,42.91,42.07,-0.77,0.65,0.72,0.23
3.5341797,0.5493696,0.568764,0.10369255,0.65,0.72,0.24,17974,10075.30,0,0,165,39.06,36.89,7.42,0.65,0.72,0.24
2.234375,0.53636956,0.423764,0.23769253,0.6,0.69,0.29,17982,10074.00,0,0,0,38.15,26.74,16.80,0.60,0.69,0.29
2.234375,0.49736956,0.29476398,0.24569255,0.65,0.64,0.23,17997,10074.00,0,0,165,35.42,17.71,17.36,0.65,0.64,0.23
3.234375,0.3133696,0.32976398,0.15869255,0.61,0.63,0.24,18011,10075.00,0,0,0,22.54,20.16,11.27,0.61,0.63,0.24
2.234375,0.2843696,0.283764,0.15269254,0.7,0.67,0.21,18019,10074.00,0,0,165,20.51,16.94,10.85,0.70,0.67,0.21
2.234375,0.23436958,0.282764,0.19469254,0.7,0.65,0.23,18034,10074.00,0,0,0,17.01,16.87,13.79,0.70,0.65,0.23
1.3339844,0.18636957,0.334764,0.20469254,0.76,0.59,0.22,18049,10073.10,0,0,165,13.65,20.51,14.49,0.76,0.59,0.22
2.234375,0.17836958,0.374764,0.13069254,0.81,0.59,0.2,18057,10074.00,0,0,0,13.09,23.31,9.31,0.81,0.59,0.20
3.234375,0.20136957,0.36976397,0.21069254,0.84,0.64,0.24,18072,10075.00,0,0,165,14.70,22.96,14.91,0.84,0.64,0.24
2.234375,0.3463696,0.35076398,0.38069254,0.85,0.69,0.28,18087,10074.00,0,0,0,24.85,21.63,26.81,0.85,0.69,0.28
2.234375,0.40336958,0.295764,0.5286925,0.86,0.65,0.3,18094,10074.00,0,0,165,28.84,17.78,37.17,0.86,0.65,0.30
3.234375,0.4753696,0.21076399,0.6466925,0.83,0.61,0.32,18109,10075.00,0,0,0,33.88,11.83,45.43,0.83,0.61,0.32
3.234375,0.41136956,0.17476398,0.69469255,0.82,0.55,0.32,18124,10075.00,0,0,165,29.40,9.31,48.79,0.82,0.55,0.32
2.234375,0.26136956,0.21776399,0.6516925,0.84,0.5,0.28,18131,10074.00,0,0,0,18.90,12.32,45.78,0.84,0.50,0.28
2.234375,0.07036958,0.346764,0.5126925,0.83,0.44,0.27,18147,10074.00,0,0,165,5.53,21.35,36.05,0.83,0.44,0.27
3.234375,0.018369574,0.489764,0.41169256,0.85,0.5,0.28,18162,10075.00,0,0,0,1.89,31.36,28.98,0.85,0.50,0.28
2.234375,0.068369575,0.55276394,0.41969258,0.84,0.54,0.31,18177,10074.00,0,0,165,5.39,35.77,29.54,0.84,0.54,0.31
2.234375,0.13036957,0.57176393,0.54169255,0.8,0.57,0.37,18184,10074.00,0,0,0,9.73,37.10,38.08,0.80,0.57,0.37
2.234375,0.17536958,0.52776396,0.6376925,0.73,0.6,0.41,18199,10074.00,0,0,165,12.88,34.02,44.80,0.73,0.60,0.41
1.3339844,-0.025630426,0.39476398,0.6096925,0.73,0.62,0.37,18206,10073.10,0,0,0,-1.19,24.71,42.84,0.73,0.62,0.37
1.3339844,-0.09463043,0.19576398,0.56069255,0.72,0.64,0.37,18221,10073.10,0,0,165,-6.02,10.78,39.41,0.72,0.64,0.37
1.3339844,-0.026630424,0.14776398,0.50969255,0.72,0.57,0.32,18238,10073.10,0,0,0,-1.26,7.42,35.84,0.72,0.57,0.32
2.234375,0.037369575,0.138764,0.43669254,0.76,0.56,0.27,18244,10074.00,0,0,165,3.22,6.79,30.73,0.76,0.56,0.27
2.234375,0.17936957,0.14276399,0.43569255,0.8,0.53,0.23,18259,10074.00,0,0,0,13.16,7.07,30.66,0.80,0.53,0.23
3.234375,0.094369575,0.19776398,0.33169255,0.78,0.51,0.24,18275,10075.00,0,0,165,7.21,10.92,23.38,0.78,0.51,0.24
3.5341797,-0.015630426,0.263764,0.20269254,0.76,0.56,0.27,18281,10075.30,0,0,0,-0.49,15.54,14.35,0.76,0.56,0.27
2.6347656,0.019369576,0.26476398,0.16769254,0.73,0.59,0.3,18306,10074.40,0,0,165,1.96,15.61,11.90,0.73,0.59,0.30
2.234375,-0.017630424,0.221764,0.10169255,0.7,0.56,0.34,18311,10074.00,0,0,0,-0.63,12.60,7.28,0.70,0.56,0.34
2.234375,-0.08463043,0.10376398,0.03169255,0.76,0.58,0.35,18319,10074.00,0,0,165,-5.32,4.34,2.38,0.76,0.58,0.35
3.234375,-0.035630427,-0.07423601,0.099692546,0.82,0.6,0.32,18334,10075.00,0,0,0,-1.89,-8.12,7.14,0.82,0.60,0.32
2.6347656,-0.026630424,-0.14023602,0.12869254,0.87,0.64,0.31,18376,10074.40,0,0,165,-1.26,-12.74,9.17,0.87,0.64,0.31
1.3339844,-0.08163042,-0.23123601,0.19669254,0.91,0.61,0.29,18377,10073.10,0,0,0,-5.11,-19.11,13.93,0.91,0.61,0.29
2.234375,0.053369578,-0.34223598,0.33369255,0.94,0.66,0.31,18378,10074.00,0,0,165,4.34,-26.88,23.52,0.94,0.66,0.31
2.6347656,0.25536957,-0.361236,0.55569255,0.75,0.56,0.32,18393,10074.40,0,0,0,18.48,-28.21,39.06,0.75,0.56,0.32
3.234375,0.24436957,-0.27023602,0.5006925,0.77,0.44,0.33,18394,10075.00,0,0,165,17.71,-21.84,35.21,0.77,0.44,0.33
3.5341797,0.20336957,-0.241236,0.32669255,0.76,0.44,0.34,18412,10075.30,0,0,0,14.84,-19.81,23.03,0.76,0.44,0.34
2.6347656,0.4163696,-0.227236,0.29769257,0.82,0.51,0.37,18428,10074.40,0,0,165,29.75,-18.83,21.00,0.82,0.51,0.37
2.234375,0.51336956,-0.23223603,0.33669254,0.8,0.51,0.39,18432,10074.00,0,0,0,36.54,-19.18,23.73,0.80,0.51,0.39
3.5341797,0.49736956,-0.21423602,0.40669253,0.87,0.55,0.35,18446,10075.30,0,0,165,35.42,-17.92,28.63,0.87,0.55,0.35
2.234375,0.6333695,-0.243236,0.5736925,0.87,0.56,0.36,18461,10074.00,0,0,0,44.94,-19.95,40.32,0.87,0.56,0.36
3.234375,0.68936956,-0.239236,0.7526925,0.86,0.59,0.34,18469,10075.00,0,0,165,48.86,-19.67,52.85,0.86,0.59,0.34
2.234375,0.6593695,-0.19523603,0.93269247,0.78,0.49,0.34,18484,10074.00,0,0,0,46.76,-16.59,65.45,0.78,0.49,0.34
2.234375,0.3583696,-0.060236014,0.8736925,0.78,0.42,0.3,18500,10074.00,0,0,165,25.69,-7.14,61.32,0.78,0.42,0.30
4.234375,0.18636957,0.025763983,0.67969257,0.8,0.38,0.29,18506,10076.00,0,0,0,13.65,-1.12,47.74,0.80,0.38,0.29
2.234375,0.068369575,0.06976399,0.40069255,0.78,0.33,0.28,18522,10074.00,0,0,165,5.39,1.96,28.21,0.78,0.33,0.28
4.234375,-0.12763043,0.12876399,0.045692544,0.76,0.24,0.26,18538,10076.00,0,0,0,-8.33,6.09,3.36,0.76,0.24,0.26
4.234375,-0.24163042,0.12476398,-0.30430743,0.78,0.34,0.28,18544,10076.00,0,0,165,-16.31,5.81,-21.14,0.78,0.34,0.28
3.234375,-0.15563042,0.033763982,-0.50530744,0.8,0.42,0.28,18559,10075.00,0,0,0,-10.29,-0.56,-35.21,0.80,0.42,0.28
3.5341797,-0.071630426,-0.039236017,-0.5983075,0.83,0.44,0.28,18574,10075.30,0,0,165,-4.41,-5.67,-41.72,0.83,0.44,0.28
2.234375,-0.10363042,-0.10323601,-0.65630746,0.87,0.49,0.27,18581,10074.00,0,0,0,-6.65,-10.15,-45.78,0.87,0.49,0.27
1.6347656,-0.19263043,-0.09823602,-0.62330747,0.9,0.57,0.27,18597,10073.40,0,0,165,-12.88,-9.80,-43.47,0.90,0.57,0.27
3.234375,-0.21663043,-0.10223601,-0.44630745,0.9,0.66,0.29,18612,10075.00,0,0,0,-14.56,-10.08,-31.08,0.90,0.66,0.29
2.234375,-0.21063043,-0.13323602,-0.21330747,0.89,0.69,0.29,18621,10074.00,0,0,165,-14.14,-12.25,-14.77,0.89,0.69,0.29
3.234375,-0.15963042,-0.181236,0.016692549,0.84,0.66,0.31,18634,10075.00,0,0,0,-10.57,-15.61,1.33,0.84,0.66,0.31
3.234375,-0.15163043,-0.213236,0.12169255,0.79,0.56,0.31,18657,10075.00,0,0,165,-10.01,-17.85,8.68,0.79,0.56,0.31
3.234375,-0.17263041,-0.229236,0.04969255,0.8,0.49,0.31,18658,10075.00,0,0,0,-11.48,-18.97,3.64,0.80,0.49,0.31
3.234375,-0.22563042,-0.21223602,-0.07230745,0.79,0.45,0.31,18672,10075.00,0,0,165,-15.19,-17.78,-4.90,0.79,0.45,0.31
2.234375,-0.33563042,-0.14223602,-0.27030745,0.83,0.35,0.29,18687,10074.00,0,0,0,-22.89,-12.88,-18.76,0.83,0.35,0.29
3.5341797,-0.35663044,-0.07023602,-0.49530742,0.89,0.38,0.3,18694,10075.30,0,0,165,-24.36,-7.84,-34.51,0.89,0.38,0.30
3.234375,-0.2596304,-0.010236017,-0.5763075,0.93,0.39,0.31,18709,10075.00,0,0,0,-17.57,-3.64,-40.18,0.93,0.39,0.31
3.234375,-0.21563043,0.009763982,-0.5163075,0.95,0.39,0.33,18724,10075.00,0,0,165,-14.49,-2.24,-35.98,0.95,0.39,0.33
3.5341797,-0.20763043,-0.006236013,-0.37430745,0.94,0.48,0.36,18731,10075.30,0,0,0,-13.93,-3.36,-26.04,0.94,0.48,0.36
4.234375,-0.19663042,0.075763986,-0.30430743,0.94,0.47,0.36,18746,10076.00,0,0,165,-13.16,2.38,-21.14,0.94,0.47,0.36
3.5341797,-0.17763042,0.12376398,-0.23830746,0.96,0.48,0.35,18761,10075.30,0,0,0,-11.83,5.74,-16.52,0.96,0.48,0.35
3.234375,-0.16163042,0.17176399,-0.20930746,0.94,0.44,0.36,18770,10075.00,0,0,165,-10.71,9.10,-14.49,0.94,0.44,0.36
2.234375,-0.11663043,0.19976398,-0.20030746,0.9,0.44,0.36,18784,10074.00,0,0,0,-7.56,11.06,-13.86,0.90,0.44,0.36
3.234375,-0.10963043,0.20076397,-0.21430746,0.88,0.42,0.36,18799,10075.00,0,0,165,-7.07,11.13,-14.84,0.88,0.42,0.36
2.234375,-0.07663043,0.21076399,-0.25230744,0.87,0.48,0.36,18806,10074.00,0,0,0,-4.76,11.83,-17.50,0.87,0.48,0.36
3.5341797,-0.018630426,0.21176398,-0.27030745,0.84,0.55,0.38,18822,10075.30,0,0,165,-0.70,11.90,-18.76,0.84,0.55,0.38
2.234375,-0.051630426,0.14276399,-0.22830746,0.82,0.57,0.37,18836,10074.00,0,0,0,-3.01,7.07,-15.82,0.82,0.57,0.37
3.234375,-0.12163042,0.11776399,-0.22030747,0.81,0.58,0.34,18843,10075.00,0,0,165,-7.91,5.32,-15.26,0.81,0.58,0.34
3.234375,-0.24763042,0.15476398,-0.27830744,0.82,0.57,0.32,18867,10075.00,0,0,0,-16.73,7.91,-19.32,0.82,0.57,0.32
2.234375,-0.29163042,0.14776398,-0.27630746,0.8,0.64,0.33,18881,10074.00,0,0,165,-19.81,7.42,-19.18,0.80,0.64,0.33
3.234375,-0.24163042,0.089763984,-0.18630746,0.78,0.59,0.32,18883,10075.00,0,0,0,-16.31,3.36,-12.88,0.78,0.59,0.32
3.234375,-0.21463042,0.050763983,-0.16030747,0.77,0.56,0.3,18896,10075.00,0,0,165,-14.42,0.63,-11.06,0.77,0.56,0.30
3.5341797,-0.20163043,0.07376398,-0.17630747,0.84,0.52,0.26,18919,10075.30,0,0,0,-13.51,2.24,-12.18,0.84,0.52,0.26
3.5341797,-0.09563043,0.10376398,-0.18330745,0.85,0.57,0.28,18921,10075.30,0,0,165,-6.09,4.34,-12.67,0.85,0.57,0.28
3.234375,-0.021630425,0.11276398,-0.109307446,0.84,0.57,0.3,18935,10075.00,0,0,0,-0.91,4.97,-7.49,0.84,0.57,0.30
3.234375,-0.05663042,0.12876399,-0.10030746,0.82,0.51,0.32,18949,10075.00,0,0,165,-3.36,6.09,-6.86,0.82,0.51,0.32
2.234375,-0.14963043,0.14976399,-0.21930745,0.81,0.46,0.32,18964,10074.00,0,0,0,-9.87,7.56,-15.19,0.81,0.46,0.32
3.234375,-0.19763042,0.191764,-0.31330746,0.78,0.52,0.35,18972,10075.00,0,0,165,-13.23,10.50,-21.77,0.78,0.52,0.35
3.234375,-0.25263044,-0.041236013,-0.08330745,0.59,0.66,0.42,18987,10075.00,0,0,0,-17.08,-5.81,-5.67,0.59,0.66,0.42
3.5341797,-0.6176305,-0.456236,0.30469257,0.43,0.54,0.49,18994,10075.30,0,0,165,-42.63,-34.86,21.49,0.43,0.54,0.49
3.5341797,-1.1806304,-0.57723606,0.24769254,0.44,0.54,0.29,19009,10075.30,0,0,0,-82.04,-43.33,17.50,0.44,0.54,0.29
2.234375,-1.6956303,-0.46023598,0.23769253,0.83,0.72,0.35,19024,10074.00,0,0,165,-118.09,-35.14,16.80,0.83,0.72,0.35
2.234375,-0.78363043,-0.30623603,-0.24430747,-0.27,0.12,0.62,19039,10074.00,0,0,0,-54.25,-24.36,-16.94,-0.27,0.12,0.62
1.6347656,-1.3696303,-0.22623602,-0.20830746,0.88,0.79,0.34,19046,10073.40,0,0,165,-95.27,-18.76,-14.42,0.88,0.79,0.34
2.234375,-1.1436304,-0.14023602,0.07669255,0.97,0.81,0.19,19069,10074.00,0,0,0,-79.45,-12.74,5.53,0.97,0.81,0.19
2.234375,-0.37463045,0.041763984,0.49669257,0.87,0.74,0.05,19072,10074.00,0,0,165,-25.62,0.00,34.93,0.87,0.74,0.05
3.234375,0.3283696,0.20076397,-0.16930746,0.63,0.52,0.26,19092,10075.00,0,0,0,23.59,11.13,-11.69,0.63,0.52,0.26
2.234375,0.65236956,0.16176398,0.12669253,0.63,0.75,0.4,19098,10074.00,0,0,165,46.27,8.40,9.03,0.63,0.75,0.40
2.6347656,1.0363697,0.12676398,0.04769255,0.51,0.35,0.38,19106,10074.40,0,0,0,73.15,5.95,3.50,0.51,0.35,0.38
6.1347656,2.1693697,0.37376398,-1.3493074,0.41,-0.08,0.34,19122,10077.90,0,0,165,152.46,23.24,-94.29,0.41,-0.08,0.34
3.234375,-0.37563044,-0.042236015,-1.1203074,0.72,0.44,0.57,19144,10075.00,0,0,0,-25.69,-5.88,-78.26,0.72,0.44,0.57
3.5341797,-0.061630424,-0.050236017,-0.7793075,0.87,0.46,0.28,19145,10075.30,0,0,165,-3.71,-6.44,-54.39,0.87,0.46,0.28
3.5341797,0.21336958,0.050763983,-0.5903075,1.02,0.55,0.28,19159,10075.30,0,0,0,15.54,0.63,-41.16,1.02,0.55,0.28
3.234375,0.44036958,0.219764,-0.25330743,1.01,0.58,0.33,19174,10075.00,0,0,165,31.43,12.46,-17.57,1.01,0.58,0.33
3.234375,0.46736956,0.332764,0.033692546,0.99,0.61,0.37,19182,10075.00,0,0,0,33.32,20.37,2.52,0.99,0.61,0.37
3.234375,0.41036958,0.389764,0.20569254,0.97,0.63,0.41,19204,10075.00,0,0,165,29.33,24.36,14.56,0.97,0.63,0.41
2.234375,0.32536957,0.305764,0.18269254,0.94,0.62,0.45,19211,10074.00,0,0,0,23.38,18.48,12.95,0.94,0.62,0.45
3.234375,0.2703696,0.27876398,0.16869254,0.88,0.55,0.44,19219,10075.00,0,0,165,19.53,16.59,11.97,0.88,0.55,0.44
3.234375,0.18236957,0.268764,0.0016925475,0.87,0.52,0.4,19234,10075.00,0,0,0,13.37,15.89,0.28,0.87,0.52,0.40
3.234375,0.25236958,0.296764,-0.12030745,0.85,0.51,0.39,19249,10075.00,0,0,165,18.27,17.85,-8.26,0.85,0.51,0.39
4.234375,0.22136958,0.357764,-0.23930746,0.86,0.6,0.4,19257,10076.00,0,0,0,16.10,22.12,-16.59,0.86,0.60,0.40
3.234375,0.22636959,0.384764,-0.20930746,0.84,0.64,0.4,19272,10075.00,0,0,165,16.45,24.01,-14.49,0.84,0.64,0.40
5.234375,0.15836957,0.382764,-0.17730746,0.8,0.64,0.4,19287,10077.00,0,0,0,11.69,23.87,-12.25,0.80,0.64,0.40
3.234375,0.11736958,0.351764,-0.14230746,0.72,0.6,0.41,19294,10075.00,0,0,165,8.82,21.70,-9.80,0.72,0.60,0.41
2.234375,0.12836958,0.314764,-0.10430745,0.71,0.58,0.37,19309,10074.00,0,0,0,9.59,19.11,-7.14,0.71,0.58,0.37
2.234375,0.11836958,0.301764,-0.06730746,0.72,0.59,0.36,19324,10074.00,0,0,165,8.89,18.20,-4.55,0.72,0.59,0.36
2.234375,0.123369575,0.31076398,-0.16030747,0.65,0.58,0.37,19331,10074.00,0,0,0,9.24,18.83,-11.06,0.65,0.58,0.37
3.234375,0.14536957,0.263764,-0.19230746,0.67,0.69,0.4,19346,10075.00,0,0,165,10.78,15.54,-13.30,0.67,0.69,0.40
2.234375,0.15436958,0.17376399,-0.04230745,0.66,0.72,0.36,19361,10074.00,0,0,0,11.41,9.24,-2.80,0.66,0.72,0.36
3.234375,0.2773696,0.14876398,0.0036925469,0.73,0.74,0.34,19369,10075.00,0,0,165,20.02,7.49,0.42,0.73,0.74,0.34
3.234375,0.24836957,0.175764,0.13869254,0.74,0.69,0.32,19385,10075.00,0,0,0,17.99,9.38,9.87,0.74,0.69,0.32
3.234375,0.18036957,0.235764,0.20969254,0.73,0.55,0.35,19399,10075.00,0,0,165,13.23,13.58,14.84,0.73,0.55,0.35
3.234375,-0.24463043,0.348764,0.14469254,0.73,0.56,0.32,19407,10075.00,0,0,0,-16.52,21.49,10.29,0.73,0.56,0.32
3.234375,0.007369575,0.390764,0.16969255,0.75,0.57,0.29,19421,10075.00,0,0,165,1.12,24.43,12.04,0.75,0.57,0.29
3.234375,0.13536957,0.414764,0.15869255,0.74,0.5,0.35,19436,10075.00,0,0,0,10.08,26.11,11.27,0.74,0.50,0.35
3.234375,-0.0066304253,0.39976397,0.077692546,0.65,0.55,0.43,19444,10075.00,0,0,165,0.14,25.06,5.60,0.65,0.55,0.43
4.234375,-0.045630425,0.320764,-0.027307453,0.6,0.56,0.49,19459,10076.00,0,0,0,-2.59,19.53,-1.75,0.60,0.56,0.49
3.234375,-0.10263042,0.24776399,-0.15230747,0.62,0.61,0.49,19474,10075.00,0,0,165,-6.58,14.42,-10.50,0.62,0.61,0.49
3.234375,-0.118630424,0.17076397,-0.15230747,0.65,0.66,0.44,19481,10075.00,0,0,0,-7.70,9.03,-10.50,0.65,0.66,0.44
4.234375,0.12636957,0.131764,0.0026925472,0.74,0.67,0.4,19496,10076.00,0,0,165,9.45,6.30,0.35,0.74,0.67,0.40
3.234375,0.06736958,0.10776398,0.13669254,0.7,0.65,0.39,19511,10075.00,0,0,0,5.32,4.62,9.73,0.70,0.65,0.39
3.9345703,0.07836958,0.10976399,0.26869255,0.71,0.7,0.42,19518,10075.70,0,0,165,6.09,4.76,18.97,0.71,0.70,0.42
3.234375,0.11236958,0.08776398,0.38069254,0.71,0.62,0.4,19534,10075.00,0,0,0,8.47,3.22,26.81,0.71,0.62,0.40
3.234375,0.18736959,0.056763984,0.38369256,0.73,0.54,0.39,19549,10075.00,0,0,165,13.72,1.05,27.02,0.73,0.54,0.39
3.234375,-0.09063042,0.14876398,0.22869255,0.71,0.54,0.43,19556,10075.00,0,0,0,-5.74,7.49,16.17,0.71,0.54,0.43
3.5341797,-0.15963042,0.277764,0.11569255,0.78,0.53,0.41,19572,10075.30,0,0,165,-10.57,16.52,8.26,0.78,0.53,0.41
2.234375,-0.11463042,0.26476398,0.13569254,0.79,0.58,0.45,19587,10074.00,0,0,0,-7.42,15.61,9.66,0.79,0.58,0.45
3.234375,-0.14863043,0.18576398,0.13069254,0.7,0.55,0.5,19594,10075.00,0,0,165,-9.80,10.08,9.31,0.70,0.55,0.50
3.234375,-0.3176304,0.067763984,0.044692546,0.66,0.61,0.49,19609,10075.00,0,0,0,-21.63,1.82,3.29,0.66,0.61,0.49
2.234375,-0.29863042,-0.09623601,-0.06730746,0.61,0.54,0.5,19632,10074.00,0,0,165,-20.30,-9.66,-4.55,0.61,0.54,0.50
3.234375,-0.22263041,-0.16623601,-0.20930746,0.64,0.57,0.47,19633,10075.00,0,0,0,-14.98,-14.56,-14.49,0.64,0.57,0.47
4.234375,-0.21663043,-0.172236,-0.16930746,0.74,0.65,0.38,19647,10076.00,0,0,165,-14.56,-14.98,-11.69,0.74,0.65,0.38
4.234375,-0.35363042,-0.08323602,-0.016307453,0.83,0.67,0.32,19661,10076.00,0,0,0,-24.15,-8.75,-0.98,0.83,0.67,0.32
2.234375,-0.32063043,0.019763984,0.22369254,0.85,0.83,0.34,19669,10074.00,0,0,165,-21.84,-1.54,15.82,0.85,0.83,0.34
3.234375,-0.023630425,-0.08623602,0.58969253,0.78,0.73,0.47,19684,10075.00,0,0,0,-1.05,-8.96,41.44,0.78,0.73,0.47
3.234375,-0.118630424,0.053763982,0.83369255,0.71,0.67,0.44,19699,10075.00,0,0,165,-7.70,0.84,58.52,0.71,0.67,0.44
2.234375,-0.12463042,-0.03423602,1.0096925,0.69,0.82,0.47,19707,10074.00,0,0,0,-8.12,-5.32,70.84,0.69,0.82,0.47
12.333984,-0.24063042,0.71376395,-0.7653075,0.68,-0.17,0.6,19722,10084.10,0,0,165,-16.24,47.04,-53.41,0.68,-0.17,0.60
5.234375,-0.6046305,0.089763984,-0.8013075,0.64,0.75,0.47,19737,10077.00,0,0,0,-41.72,3.36,-55.93,0.64,0.75,0.47
4.234375,-0.5206305,0.131764,-0.5983075,0.67,1.18,0.06,19743,10076.00,0,0,165,-35.84,6.30,-41.72,0.67,1.18,0.06
3.234375,-0.39763042,0.06276398,-0.23430745,0.65,0.4,0.53,19759,10075.00,0,0,0,-27.23,1.47,-16.24,0.65,0.40,0.53
2.9345703,-0.082630426,0.06976399,-0.31430745,0.69,0.52,0.52,19774,10074.70,0,0,165,-5.18,1.96,-21.84,0.69,0.52,0.52
3.234375,0.06636958,0.11676399,-0.32030743,0.68,0.5,0.55,19781,10075.00,0,0,0,5.25,5.25,-22.26,0.68,0.50,0.55
3.234375,0.22436957,0.079763986,-0.24030745,0.71,0.58,0.48,19796,10075.00,0,0,165,16.31,2.66,-16.66,0.71,0.58,0.48
5.234375,-0.60763043,0.13276398,-0.5613075,0.74,0.56,0.43,19811,10077.00,0,0,0,-41.93,6.37,-39.13,0.74,0.56,0.43
3.234375,-0.25163043,0.09676398,-0.45630744,0.74,0.59,0.4,19824,10075.00,0,0,165,-17.01,3.85,-31.78,0.74,0.59,0.40
3.9345703,0.0013695741,0.138764,-0.30130744,0.7,0.54,0.45,19834,10075.70,0,0,0,0.70,6.79,-20.93,0.70,0.54,0.45
4.234375,0.042369574,0.13976398,-0.21130747,0.68,0.52,0.48,19848,10076.00,0,0,165,3.57,6.86,-14.63,0.68,0.52,0.48
3.234375,0.068369575,0.12876399,-0.12230745,0.67,0.51,0.47,19872,10075.00,0,0,0,5.39,6.09,-8.40,0.67,0.51,0.47
5.234375,0.06636958,0.12176398,-0.05330745,0.66,0.52,0.48,19872,10077.00,0,0,165,5.25,5.60,-3.57,0.66,0.52,0.48
4.234375,-0.025630426,0.12676398,-0.077307455,0.68,0.57,0.45,19886,10076.00,0,0,0,-1.19,5.95,-5.25,0.68,0.57,0.45
3.234375,-0.05663042,0.09976398,-0.08630745,0.68,0.63,0.46,19894,10075.00,0,0,165,-3.36,4.06,-5.88,0.68,0.63,0.46
4.234375,-0.09963042,0.060763985,-0.16530746,0.71,0.63,0.48,19916,10076.00,0,0,0,-6.37,1.33,-11.41,0.71,0.63,0.48
4.234375,-0.018630426,0.057763986,-0.17430747,0.74,0.62,0.48,19924,10076.00,0,0,165,-0.70,1.12,-12.04,0.74,0.62,0.48
3.234375,0.09236958,0.11676399,-0.16630745,0.67,0.6,0.54,19931,10075.00,0,0,0,7.07,5.25,-11.48,0.67,0.60,0.54
3.5341797,0.14236957,0.202764,-0.36830747,0.71,0.65,0.51,19946,10075.30,0,0,165,10.57,11.27,-25.62,0.71,0.65,0.51
2.234375,0.37536955,0.16176398,-0.63330746,0.72,0.67,0.5,19969,10074.00,0,0,0,26.88,8.40,-44.17,0.72,0.67,0.50
4.234375,0.69836956,0.16176398,-0.88230747,0.69,0.61,0.55,19971,10076.00,0,0,165,49.49,8.40,-61.60,0.69,0.61,0.55
3.234375,0.44036958,0.22476399,-0.9783075,0.62,0.57,0.56,19985,10075.00,0,0,0,31.43,12.81,-68.32,0.62,0.57,0.56
4.234375,0.5903695,0.12676398,-1.0333074,0.69,0.79,0.53,20006,10076.00,0,0,165,41.93,5.95,-72.17,0.69,0.79,0.53
4.234375,0.34236956,0.175764,-1.2003074,0.55,0.58,0.59,20021,10076.00,0,0,0,24.57,9.38,-83.86,0.55,0.58,0.59
4.234375,1.1213696,0.284764,-1.3103074,0.59,0.72,0.57,20022,10076.00,0,0,165,79.10,17.01,-91.56,0.59,0.72,0.57
4.234375,1.4093696,0.235764,-1.5973074,0.64,0.9,0.55,20036,10076.00,0,0,0,99.26,13.58,-111.65,0.64,0.90,0.55
3.234375,2.1223695,0.15176398,-1.8063074,0.53,0.68,0.48,20044,10075.00,0,0,165,149.17,7.70,-126.28,0.53,0.68,0.48
3.234375,1.4383696,0.079763986,-1.3303074,0.49,0.68,0.49,20059,10075.00,0,0,0,101.29,2.66,-92.96,0.49,0.68,0.49
4.234375,1.4463695,0.226764,-1.0983075,0.52,0.81,0.5,20082,10076.00,0,0,165,101.85,12.95,-76.72,0.52,0.81,0.50
3.9345703,1.3383696,0.40676397,-0.89430743,0.45,0.65,0.55,20083,10075.70,0,0,0,94.29,25.55,-62.44,0.45,0.65,0.55
5.234375,1.0583696,0.679764,-0.40330744,0.41,0.55,0.53,20097,10077.00,0,0,165,74.69,44.66,-28.07,0.41,0.55,0.53
4.234375,0.79736954,0.65976393,-0.092307456,0.62,0.67,0.47,20111,10076.00,0,0,0,56.42,43.26,-6.30,0.62,0.67,0.47
4.234375,1.2253696,-0.17423603,-0.13030747,0.56,0.67,0.42,20119,10076.00,0,0,165,86.38,-15.12,-8.96,0.56,0.67,0.42
4.234375,1.0593697,-0.008236017,0.05869255,0.62,0.62,0.29,20134,10076.00,0,0,0,74.76,-3.50,4.27,0.62,0.62,0.29
5.234375,0.62136954,0.27876398,0.37569255,0.58,0.66,0.33,20149,10077.00,0,0,165,44.10,16.59,26.46,0.58,0.66,0.33
