Pressure_Rel,GyroX_Rel,GyroY_Rel,GyroZ_Rel,AccX_Rel,AccY_Rel,AccZ_Rel,Timestamp,Pressure_abs,HeartRate,Oxygen,Status,GyroX,GyroY,GyroZ,AccX,AccY,AccZ
0.0,0.0,0.0,0.0,0.0,0.0,0.0,6208,10088.30,0,0,0,-26.95,-15.33,21.14,-0.21,0.99,-0.00
0.0,0.0,0.0,0.0,0.0,0.0,0.0,6215,10087.40,0,0,0,-158.83,-186.27,14.28,-0.22,0.99,0.00
0.0,0.0,0.0,0.0,0.0,0.0,0.0,6231,10088.30,0,0,165,6.09,-22.82,0.77,-0.21,0.99,0.00
0.0,0.0,0.0,0.0,0.0,0.0,0.0,6238,10088.30,0,0,0,0.28,-3.08,0.21,-0.22,0.99,0.00
0.0,0.0,0.0,0.0,0.0,0.0,0.0,6252,10088.00,0,0,165,0.35,-3.08,0.21,-0.21,0.99,0.00
0.0,0.0,0.0,0.0,0.0,0.0,0.0,6268,10088.30,0,0,0,0.56,-3.01,0.14,-0.21,0.99,0.00
0.0,0.0,0.0,0.0,0.0,0.0,0.0,6275,10089.30,0,0,165,0.42,-3.08,0.21,-0.21,0.99,0.01
0.0,0.0,0.0,0.0,0.0,0.0,0.0,6290,10088.30,0,0,0,0.70,-3.08,0.21,-0.21,0.99,0.01
0.0,0.0,0.0,0.0,0.0,0.0,0.0,6305,10087.40,0,0,165,0.63,-2.94,0.14,-0.22,0.99,0.01
0.0,0.0,0.0,0.0,0.0,0.0,0.0,6312,10088.30,0,0,0,0.63,-3.01,0.00,-0.21,0.99,0.01
0.0,0.0,0.0,0.0,0.0,0.0,0.0,6327,10088.30,0,0,165,0.84,-3.01,0.00,-0.22,0.99,0.01
0.0,0.0,0.0,0.0,0.0,0.0,0.0,6343,10088.30,0,0,0,0.63,-3.01,-0.07,-0.22,0.99,0.00
0.0,0.0,0.0,0.0,0.0,0.0,0.0,6350,10088.30,0,0,165,0.49,-3.01,-0.07,-0.22,0.99,0.01
0.0,0.0,0.0,0.0,0.0,0.0,0.0,6365,10089.30,0,0,0,0.63,-3.01,0.00,-0.22,0.99,0.01
0.0,0.0,0.0,0.0,0.0,0.0,0.0,6380,10088.30,0,0,165,0.56,-3.01,0.00,-0.22,0.99,0.00
0.0,0.0,0.0,0.0,0.0,0.0,0.0,6387,10089.30,0,0,0,0.49,-3.01,0.00,-0.22,0.99,0.01
0.0,0.0,0.0,0.0,0.0,0.0,0.0,6402,10087.40,0,0,165,0.63,-2.94,0.00,-0.21,0.99,0.01
0.0,0.0,0.0,0.0,0.0,0.0,0.0,6424,10089.60,0,0,0,0.70,-2.94,0.14,-0.22,0.99,0.01
0.0,0.0,0.0,0.0,0.0,0.0,0.0,6426,10088.30,0,0,165,0.63,-2.87,0.07,-0.22,0.99,0.01
0.0,0.0,0.0,0.0,0.0,0.0,0.0,6439,10088.30,0,0,0,0.63,-3.01,0.00,-0.22,0.99,0.01
0.0,0.0,0.0,0.0,0.0,0.0,0.0,6450,10088.70,0,0,165,0.84,-2.94,0.28,-0.21,0.99,0.01
0.0,0.0,0.0,0.0,0.0,0.0,0.0,6462,10089.30,0,0,0,0.77,-3.01,17.85,-0.21,0.99,0.00
0.0,0.0,0.0,0.0,0.0,0.0,0.0,6477,10087.70,0,0,165,0.35,-2.94,0.07,-0.22,0.99,0.01
0.0,0.0,0.0,0.0,0.0,0.0,0.0,6485,10088.30,0,0,0,1.26,-3.01,0.28,-0.21,0.99,0.00
0.0,0.0,0.0,0.0,0.0,0.0,0.0,6500,10089.60,0,0,165,-0.14,-3.01,-0.49,-0.22,0.98,0.00
0.0,0.0,0.0,0.0,0.0,0.0,0.0,6516,10088.30,0,0,0,1.19,-2.87,0.42,-0.21,0.99,0.01
0.0,0.0,0.0,0.0,0.0,0.0,0.0,6522,10087.70,0,0,165,0.49,-3.15,0.07,-0.22,1.00,0.00
0.0,0.0,0.0,0.0,0.0,0.0,0.0,6537,10088.30,0,0,0,-0.28,-3.01,-0.21,-0.21,0.98,0.01
0.0,0.0,0.0,0.0,0.0,0.0,0.0,6553,10088.70,0,0,165,1.26,-3.01,0.77,-0.21,1.00,0.01
0.0,0.0,0.0,0.0,0.0,0.0,0.0,6560,10089.30,0,0,0,-0.28,-3.08,-0.56,-0.21,0.99,0.00
0.0,0.0,0.0,0.0,0.0,0.0,0.0,6575,10088.30,0,0,165,0.63,-3.01,0.21,-0.22,0.98,0.01
0.0,0.0,0.0,0.0,0.0,0.0,0.0,6590,10088.30,0,0,0,0.91,-3.01,0.28,-0.21,1.00,0.01
0.0,0.0,0.0,0.0,0.0,0.0,0.0,6598,10088.30,0,0,165,-0.21,-3.08,-0.42,-0.21,0.99,0.01
0.0,0.0,0.0,0.0,0.0,0.0,0.0,6612,10088.70,0,0,0,1.05,-3.01,0.35,-0.21,0.99,0.01
0.0,0.0,0.0,0.0,0.0,0.0,0.0,6627,10089.30,0,0,165,0.63,-2.94,-0.07,-0.22,0.99,0.01
0.0,0.0,0.0,0.0,0.0,0.0,0.0,6635,10088.70,0,0,0,0.42,-3.01,-0.07,-0.22,0.99,0.01
0.0,0.0,0.0,0.0,0.0,0.0,0.0,6651,10088.70,0,0,165,0.98,-2.94,0.28,-0.22,0.99,0.01
0.0,0.0,0.0,0.0,0.0,0.0,0.0,6665,10088.70,0,0,0,0.70,-2.94,0.00,-0.22,0.99,0.01
0.0,0.0,0.0,0.0,0.0,0.0,0.0,6673,10087.40,0,0,165,0.77,-3.01,0.07,-0.22,0.99,0.01
0.0,0.0,0.0,0.0,0.0,0.0,0.0,6687,10088.70,0,0,0,0.77,-2.94,0.14,-0.22,0.99,0.01
0.0,0.0,0.0,0.0,0.0,0.0,0.0,6702,10088.70,0,0,165,0.56,-2.94,0.07,-0.22,0.99,0.01
0.0,0.0,0.0,0.0,0.0,0.0,0.0,6710,10088.70,0,0,0,0.63,-2.94,0.14,-0.22,0.99,0.01
0.0,0.0,0.0,0.0,0.0,0.0,0.0,6725,10088.30,0,0,165,0.56,-2.94,0.14,-0.21,0.99,0.01
0.0,0.0,0.0,0.0,0.0,0.0,0.0,6740,10088.30,0,0,0,0.35,-2.94,-0.07,-0.21,0.99,0.00
0.0,0.0,0.0,0.0,0.0,0.0,0.0,6750,10088.30,0,0,165,0.56,-3.01,0.14,-0.22,0.99,0.01
0.0,0.0,0.0,0.0,0.0,0.0,0.0,6763,10089.60,0,0,0,0.49,-3.01,0.00,-0.22,0.99,0.00
0.0,0.0,0.0,0.0,0.0,0.0,0.0,6778,10088.70,0,0,165,0.63,-3.08,0.14,-0.22,0.99,0.01
0.0,0.0,0.0,0.0,0.0,0.0,0.0,6790,10088.70,0,0,0,0.63,-2.87,0.28,-0.21,0.99,0.01
0.0,0.0,0.0,0.0,0.0,0.0,0.0,6800,10088.70,0,0,165,0.49,-2.94,0.21,-0.21,0.99,0.01
0.0,0.0,0.0,0.0,0.0,0.0,0.0,6815,10088.30,0,0,0,0.70,-2.94,0.28,-0.21,0.99,0.01
0.0,0.0,0.0,0.0,0.0,0.0,0.0,6822,10087.40,0,0,165,0.56,-3.01,0.07,-0.21,0.99,0.00
0.0,0.0,0.0,0.0,0.0,0.0,0.0,6837,10088.30,0,0,0,0.63,-3.01,0.14,-0.21,0.99,0.01
0.0,0.0,0.0,0.0,0.0,0.0,0.0,6852,10089.60,0,0,165,0.56,-3.01,-0.07,-0.21,0.99,0.01
0.0,0.0,0.0,0.0,0.0,0.0,0.0,6860,10088.70,0,0,0,0.49,-2.94,0.07,-0.21,0.99,0.01
0.0,0.0,0.0,0.0,0.0,0.0,0.0,6875,10088.70,0,0,165,0.56,-3.08,0.21,-0.21,0.99,0.01
0.0,0.0,0.0,0.0,0.0,0.0,0.0,6890,10088.70,0,0,0,0.49,-3.01,0.14,-0.21,0.99,0.01
0.0,0.0,0.0,0.0,0.0,0.0,0.0,6898,10088.70,0,0,165,0.49,-3.08,0.14,-0.21,0.99,0.01
0.0,0.0,0.0,0.0,0.0,0.0,0.0,6913,10088.70,0,0,0,0.49,-3.01,0.00,-0.22,0.99,0.01
0.0,0.0,0.0,0.0,0.0,0.0,0.0,6927,10089.60,0,0,165,0.49,-3.08,0.07,-0.21,0.99,0.01
0.0,0.0,0.0,0.0,0.0,0.0,0.0,6935,10088.70,0,0,0,0.63,-3.01,0.07,-0.22,0.99,0.01
0.0,0.0,0.0,0.0,0.0,0.0,0.0,6949,10088.70,0,0,165,0.63,-3.01,0.00,-0.21,0.99,0.01
0.0,0.0,0.0,0.0,0.0,0.0,0.0,6967,10088.70,0,0,0,0.70,-2.94,0.00,-0.21,0.99,0.01
0.0,0.0,0.0,0.0,0.0,0.0,0.0,6972,10087.70,0,0,165,0.70,-3.08,0.00,-0.22,0.99,0.01
0.0,0.0,0.0,0.0,0.0,0.0,0.0,6991,10088.30,0,0,0,0.56,-2.94,0.07,-0.22,0.99,0.01
0.0,0.0,0.0,0.0,0.0,0.0,0.0,7002,10087.70,0,0,165,0.77,-2.94,0.00,-0.21,0.99,0.01
0.0,0.0,0.0,0.0,0.0,0.0,0.0,7010,10088.70,0,0,0,0.77,-2.94,0.21,-0.21,0.99,0.01
0.0,0.0,0.0,0.0,0.0,0.0,0.0,7025,10088.30,0,0,165,0.49,-2.94,0.07,-0.21,0.99,0.00
0.0,0.0,0.0,0.0,0.0,0.0,0.0,7048,10089.60,0,0,0,0.63,-3.01,0.14,-0.22,0.99,0.01
0.0,0.0,0.0,0.0,0.0,0.0,0.0,7050,10088.70,0,0,165,0.42,-3.01,0.14,-0.21,0.99,0.01
0.0,0.0,0.0,0.0,0.0,0.0,0.0,7070,10089.60,0,0,0,0.35,-3.01,0.14,-0.22,0.99,0.01
0.0,0.0,0.0,0.0,0.0,0.0,0.0,7077,10088.30,0,0,165,0.56,-2.94,0.14,-0.21,0.99,0.01
0.0,0.0,0.0,0.0,0.0,0.0,0.0,7085,10088.70,0,0,0,0.56,-3.01,0.00,-0.21,0.99,0.01
0.0,0.0,0.0,0.0,0.0,0.0,0.0,7100,10089.60,0,0,165,0.56,-3.01,0.14,-0.21,0.99,0.01
0.0,0.0,0.0,0.0,0.0,0.0,0.0,7117,10088.70,0,0,0,0.56,-2.94,0.14,-0.22,0.99,0.01
0.0,0.0,0.0,0.0,0.0,0.0,0.0,7122,10088.30,0,0,165,0.70,-3.01,0.07,-0.21,0.99,0.01
0.0,0.0,0.0,0.0,0.0,0.0,0.0,7137,10087.70,0,0,0,0.70,-2.94,0.14,-0.21,0.99,0.01
0.0,0.0,0.0,0.0,0.0,0.0,0.0,7153,10088.70,0,0,165,0.77,-2.94,0.14,-0.21,0.99,0.01
0.0,0.0,0.0,0.0,0.0,0.0,0.0,7167,10088.30,0,0,0,0.56,-3.01,0.21,-0.21,0.99,0.01
0.0,0.0,0.0,0.0,0.0,0.0,0.0,7174,10088.70,0,0,165,0.56,-3.01,0.07,-0.21,0.99,0.01
0.0,0.0,0.0,0.0,0.0,0.0,0.0,7190,10088.70,0,0,0,0.56,-3.08,0.07,-0.21,0.99,0.01
0.0,0.0,0.0,0.0,0.0,0.0,0.0,7197,10088.70,0,0,165,0.42,-3.01,-0.07,-0.21,0.99,0.01
0.0,0.0,0.0,0.0,0.0,0.0,0.0,7212,10088.30,0,0,0,0.42,-3.01,0.07,-0.21,0.99,0.01
0.0,0.0,0.0,0.0,0.0,0.0,0.0,7227,10088.70,0,0,165,0.49,-3.08,0.00,-0.22,0.99,0.01
0.0,0.0,0.0,0.0,0.0,0.0,0.0,7235,10088.70,0,0,0,0.35,-3.01,-0.07,-0.21,0.99,0.01
0.0,0.0,0.0,0.0,0.0,0.0,0.0,7250,10088.70,0,0,165,0.49,-3.08,0.07,-0.21,0.99,0.01
0.0,0.0,0.0,0.0,0.0,0.0,0.0,7265,10088.70,0,0,0,0.56,-3.01,0.14,-0.22,0.99,0.01
0.0,0.0,0.0,0.0,0.0,0.0,0.0,7272,10087.70,0,0,165,0.56,-2.94,0.21,-0.21,0.99,0.00
0.0,0.0,0.0,0.0,0.0,0.0,0.0,7287,10088.70,0,0,0,0.70,-2.94,0.14,-0.22,0.99,0.01
0.0,0.0,0.0,0.0,0.0,0.0,0.0,7302,10088.70,0,0,165,0.63,-3.01,0.14,-0.22,0.99,0.01
0.0,0.0,0.0,0.0,0.0,0.0,0.0,7309,10088.70,0,0,0,0.77,-3.01,0.14,-0.22,0.98,0.01
0.0,0.0,0.0,0.0,0.0,0.0,0.0,7325,10087.70,0,0,165,0.77,-2.87,0.14,-0.22,0.99,0.01
0.0,0.0,0.0,0.0,0.0,0.0,0.0,7340,10088.70,0,0,0,0.70,-2.94,0.07,-0.22,0.99,0.01
0.0,0.0,0.0,0.0,0.0,0.0,0.0,7348,10089.60,0,0,165,0.63,-3.08,0.21,-0.21,0.99,0.01
0.0,0.0,0.0,0.0,0.0,0.0,0.0,7363,10088.70,0,0,0,0.63,-3.01,0.07,-0.21,0.99,0.01
0.0,0.0,0.0,0.0,0.0,0.0,0.0,7377,10088.70,0,0,165,0.49,-3.08,0.07,-0.21,0.99,0.01
0.0,0.0,0.0,0.0,0.0,0.0,0.0,7385,10088.70,0,0,0,0.63,-3.08,0.21,-0.21,0.99,0.01
0.0,0.0,0.0,0.0,0.0,0.0,0.0,7403,10088.30,0,0,165,0.35,-3.01,0.07,-0.21,0.99,0.01
0.0,0.0,0.0,0.0,0.0,0.0,0.0,7417,10089.60,0,0,0,0.49,-3.01,0.14,-0.21,0.99,0.01
0.0,0.0,0.0,0.0,0.0,0.0,0.0,7431,10088.70,0,0,165,0.49,-3.01,0.14,-0.21,0.99,0.01
0.0,0.0,0.0,0.0,0.0,0.0,0.0,7438,10088.30,0,0,0,0.42,-3.01,0.00,-0.21,0.99,0.01
0.0,0.0,0.0,0.0,0.0,0.0,0.0,7452,10088.70,0,0,165,0.63,-3.01,0.14,-0.21,0.99,0.01
0.0,0.0,0.0,0.0,0.0,0.0,0.0,7459,10088.70,0,0,0,0.49,-3.01,0.00,-0.21,0.99,0.01
0.0,0.0,0.0,0.0,0.0,0.0,0.0,7474,10087.70,0,0,165,0.56,-3.15,-0.14,-0.21,0.99,0.01
0.0,0.0,0.0,0.0,0.0,0.0,0.0,7489,10087.70,0,0,0,0.70,-2.94,0.00,-0.21,0.99,0.01
0.0,0.0,0.0,0.0,0.0,0.0,0.0,7504,10088.70,0,0,165,0.70,-2.94,0.14,-0.21,0.99,0.01
0.0,0.0,0.0,0.0,0.0,0.0,0.0,7511,10089.60,0,0,0,0.63,-2.94,0.00,-0.21,0.99,0.01
0.0,0.0,0.0,0.0,0.0,0.0,0.0,7519,10088.70,0,0,165,0.63,-2.94,0.07,-0.21,0.99,0.01
0.0,0.0,0.0,0.0,0.0,0.0,0.0,7535,10089.60,0,0,0,0.63,-2.94,0.07,-0.21,0.99,0.01
0.0,0.0,0.0,0.0,0.0,0.0,0.0,7550,10088.70,0,0,165,0.42,-3.01,-0.07,-0.22,0.99,0.01
0.0,0.0,0.0,0.0,0.0,0.0,0.0,7557,10087.70,0,0,0,0.63,-3.01,0.07,-0.21,0.99,0.01
0.0,0.0,0.0,0.0,0.0,0.0,0.0,7572,10088.70,0,0,165,0.49,-3.01,0.00,-0.21,0.99,0.01
0.0,0.0,0.0,0.0,0.0,0.0,0.0,7588,10088.70,0,0,0,0.21,-3.15,-0.21,-0.21,0.99,0.01
0.0,0.0,0.0,0.0,0.0,0.0,0.0,7595,10088.70,0,0,165,-0.63,-3.15,-0.28,-0.20,1.00,0.01
0.0,0.0,0.0,0.0,0.0,0.0,0.0,7610,10088.70,0,0,0,-0.77,-3.50,-0.63,-0.21,0.99,0.01
0.0,0.0,0.0,0.0,0.0,0.0,0.0,7624,10088.70,0,0,165,-1.68,-3.64,0.14,-0.22,0.99,0.02
0.0,0.0,0.0,0.0,0.0,0.0,0.0,7633,10087.70,0,0,0,-1.89,-3.50,-0.49,-0.22,0.99,0.02
0.0,0.0,0.0,0.0,0.0,0.0,0.0,7647,10088.70,0,0,165,-0.98,-2.73,0.14,-0.22,0.99,0.02
0.0,0.0,0.0,0.0,0.0,0.0,0.0,7662,10089.60,0,0,0,0.63,-2.59,-0.42,-0.21,0.99,0.02
0.0,0.0,0.0,0.0,0.0,0.0,0.0,7669,10088.70,0,0,165,0.98,-2.73,-0.07,-0.22,0.99,0.02
0.0,0.0,0.0,0.0,0.0,0.0,0.0,7692,10087.70,0,0,0,0.14,-3.08,-0.07,-0.22,0.98,0.01
0.0,0.0,0.0,0.0,0.0,0.0,0.0,7707,10089.60,0,0,165,1.75,-3.01,0.49,-0.22,1.00,0.01
0.0,0.0,0.0,0.0,0.0,0.0,0.0,7714,10089.60,0,0,0,2.52,-2.31,-0.21,-0.22,0.99,0.01
0.0,0.0,0.0,0.0,0.0,0.0,0.0,7722,10089.60,0,0,165,4.55,-2.10,0.70,-0.22,0.98,-0.00
0.0,0.0,0.0,0.0,0.0,0.0,0.0,7737,10089.60,0,0,0,2.24,-2.59,0.63,-0.23,0.99,-0.01
0.0,0.0,0.0,0.0,0.0,0.0,0.0,7744,10089.60,0,0,165,0.00,-2.73,0.35,-0.22,0.98,-0.00
0.0,0.0,0.0,0.0,0.0,0.0,0.0,7759,10088.30,0,0,0,0.21,-2.45,0.63,-0.22,0.99,-0.00
0.0,0.0,0.0,0.0,0.0,0.0,0.0,7774,10088.70,0,0,165,0.98,-2.52,0.70,-0.17,1.00,0.00
0.0,0.0,0.0,0.0,0.0,0.0,0.0,7782,10088.70,0,0,0,1.47,-3.50,0.63,-0.21,0.97,-0.01
0.0,0.0,0.0,0.0,0.0,0.0,0.0,7798,10088.70,0,0,165,0.98,-4.20,0.84,-0.21,1.00,0.00
0.0,0.0,0.0,0.0,0.0,0.0,0.0,7812,10088.30,0,0,0,1.68,-3.50,0.28,-0.21,0.99,0.00
0.0,0.0,0.0,0.0,0.0,0.0,0.0,7819,10088.70,0,0,165,2.52,-2.10,0.63,-0.22,0.99,0.01
0.0,0.0,0.0,0.0,0.0,0.0,0.0,7834,10089.60,0,0,0,2.31,-2.31,0.63,-0.18,1.00,-0.00
0.0,0.0,0.0,0.0,0.0,0.0,0.0,7850,10088.70,0,0,165,-4.55,-3.64,-0.98,-0.20,0.97,0.01
0.0,0.0,0.0,0.0,0.0,0.0,0.0,7857,10088.70,0,0,0,-3.50,-4.55,0.84,-0.21,0.99,0.02
0.0,0.0,0.0,0.0,0.0,0.0,0.0,7872,10088.70,0,0,165,-3.36,-4.20,-0.70,-0.21,1.02,0.04
0.0,0.0,0.0,0.0,0.0,0.0,0.0,7887,10088.70,0,0,0,0.35,-3.29,-1.47,-0.20,0.99,0.04
0.0,0.0,0.0,0.0,0.0,0.0,0.0,7894,10088.70,0,0,165,2.59,-3.36,0.42,-0.22,1.00,0.03
0.3955078,-4.3925177E-4,6.5110624E-4,-0.0021464168,-0.22,0.99,0.01,11907,10089.60,0,0,165,0.56,-2.94,-0.07,-0.22,0.99,0.01
0.3955078,0.0015607476,6.5110624E-4,-1.4641671E-4,-0.22,0.99,0.01,11916,10089.60,0,0,0,0.70,-2.94,0.07,-0.22,0.99,0.01
1.0957031,5.6074746E-4,6.5110624E-4,-0.0011464168,-0.22,0.99,0.01,11934,10090.30,0,0,165,0.63,-2.94,0.00,-0.22,0.99,0.01
0.3955078,5.6074746E-4,6.5110624E-4,8.5358333E-4,-0.22,0.99,0.01,11944,10089.60,0,0,0,0.63,-2.94,0.14,-0.22,0.99,0.01
0.3955078,0.0025607478,0.0016511083,0.0028535835,-0.22,0.99,0.01,11952,10089.60,0,0,165,0.77,-2.87,0.28,-0.22,0.99,0.01
0.3955078,5.6074746E-4,-3.488958E-4,-0.0011464168,-0.22,0.99,0.01,11967,10089.60,0,0,0,0.63,-3.01,0.00,-0.22,0.99,0.01
0.3955078,0.003560747,6.5110624E-4,8.5358333E-4,-0.22,0.99,0.01,11982,10089.60,0,0,165,0.84,-2.94,0.14,-0.22,0.99,0.01
0.3955078,5.6074746E-4,-3.488958E-4,-1.4641671E-4,-0.21,0.99,0.01,11990,10089.60,0,0,0,0.63,-3.01,0.07,-0.21,0.99,0.01
1.3955078,-4.3925177E-4,6.5110624E-4,-1.4641671E-4,-0.22,0.99,0.01,12005,10090.60,0,0,165,0.56,-2.94,0.07,-0.22,0.99,0.01
0.3955078,0.0025607478,-0.0013488941,0.001853583,-0.21,0.99,0.01,12025,10089.60,0,0,0,0.77,-3.08,0.21,-0.21,0.99,0.01
0.3955078,-0.0054392526,-3.488958E-4,8.5358333E-4,-0.21,0.99,0.01,12027,10089.60,0,0,165,0.21,-3.01,0.14,-0.21,0.99,0.01
0.3955078,5.6074746E-4,-0.0013488941,0.004853583,-0.21,0.99,0.01,12042,10089.60,0,0,0,0.63,-3.08,0.42,-0.21,0.99,0.01
0.095703125,-0.009439252,-3.488958E-4,-0.003146417,-0.21,0.99,0.01,12057,10089.30,0,0,165,-0.07,-3.01,-0.14,-0.21,0.99,0.01
0.79589844,-4.3925177E-4,-0.0013488941,0.004853583,-0.21,0.99,0.01,12064,10090.00,0,0,0,0.56,-3.08,0.42,-0.21,0.99,0.01
0.3955078,-0.006439252,-0.0013488941,-0.0011464168,-0.21,0.99,0.01,12079,10089.60,0,0,165,0.14,-3.08,0.00,-0.21,0.99,0.01
0.3955078,-0.0054392526,-3.488958E-4,-0.003146417,-0.21,0.99,0.01,12094,10089.60,0,0,0,0.21,-3.01,-0.14,-0.21,0.99,0.01
1.3955078,0.004560748,6.5110624E-4,0.0038535832,-0.21,0.99,0.01,12102,10090.60,0,0,165,0.91,-2.94,0.35,-0.21,0.99,0.01
0.3955078,-0.004439252,-0.002348896,-0.005146417,-0.21,0.99,0.01,12117,10089.60,0,0,0,0.28,-3.15,-0.28,-0.21,0.99,0.01
0.3955078,0.003560747,6.5110624E-4,8.5358333E-4,-0.21,0.99,0.01,12133,10089.60,0,0,165,0.84,-2.94,0.14,-0.21,0.99,0.01
0.3955078,0.0065607475,6.5110624E-4,-1.4641671E-4,-0.21,0.99,0.01,12140,10089.60,0,0,0,1.05,-2.94,0.07,-0.21,0.99,0.01
0.3955078,5.6074746E-4,0.0016511083,-0.003146417,-0.22,0.99,0.01,12154,10089.60,0,0,165,0.63,-2.87,-0.14,-0.22,0.99,0.01
0.3955078,0.0075607486,6.5110624E-4,8.5358333E-4,-0.22,0.99,0.01,12169,10089.60,0,0,0,1.12,-2.94,0.14,-0.22,0.99,0.01
0.3955078,0.004560748,0.0016511083,-0.0011464168,-0.22,0.99,0.01,12177,10089.60,0,0,165,0.91,-2.87,0.00,-0.22,0.99,0.01
1.3955078,5.6074746E-4,0.0016511083,-0.0011464168,-0.22,0.99,0.01,12192,10090.60,0,0,0,0.63,-2.87,0.00,-0.22,0.99,0.01
0.095703125,0.004560748,0.0016511083,0.001853583,-0.22,0.99,0.01,12208,10089.30,0,0,165,0.91,-2.87,0.21,-0.22,0.99,0.01
0.3955078,-0.0024392526,-3.488958E-4,-0.0021464168,-0.22,0.99,0.01,12216,10089.60,0,0,0,0.42,-3.01,-0.07,-0.22,0.99,0.01
0.095703125,-0.0024392526,-3.488958E-4,8.5358333E-4,-0.22,0.99,0.01,12230,10089.30,0,0,165,0.42,-3.01,0.14,-0.22,0.99,0.01
1.0957031,0.0015607476,-3.488958E-4,0.001853583,-0.21,0.99,0.01,12245,10090.30,0,0,0,0.70,-3.01,0.21,-0.21,0.99,0.01
0.3955078,-0.0034392523,6.5110624E-4,-0.0011464168,-0.22,0.99,0.01,12251,10089.60,0,0,165,0.35,-2.94,0.00,-0.22,0.99,0.01
0.3955078,5.6074746E-4,6.5110624E-4,0.001853583,-0.21,0.99,0.01,12267,10089.60,0,0,0,0.63,-2.94,0.21,-0.21,0.99,0.01
-0.50390625,-4.3925177E-4,-3.488958E-4,0.001853583,-0.21,0.99,0.01,12282,10088.70,0,0,165,0.56,-3.01,0.21,-0.21,0.99,0.01
0.3955078,-0.0024392526,6.5110624E-4,-1.4641671E-4,-0.22,0.99,0.01,12298,10089.60,0,0,0,0.42,-2.94,0.07,-0.22,0.99,0.01
1.3955078,0.003560747,6.5110624E-4,0.0028535835,-0.22,0.99,0.01,12304,10090.60,0,0,165,0.84,-2.94,0.28,-0.22,0.99,0.01
-0.50390625,0.0015607476,0.0016511083,8.5358333E-4,-0.21,0.99,0.01,12326,10088.70,0,0,0,0.70,-2.87,0.14,-0.21,0.99,0.01
0.095703125,-0.0014392519,6.5110624E-4,-1.4641671E-4,-0.21,0.99,0.01,12327,10089.30,0,0,165,0.49,-2.94,0.07,-0.21,0.99,0.01
0.3955078,5.6074746E-4,6.5110624E-4,8.5358333E-4,-0.21,0.99,0.01,12342,10089.60,0,0,0,0.63,-2.94,0.14,-0.21,0.99,0.01
0.3955078,-0.0024392526,-0.0013488941,-0.0011464168,-0.21,0.99,0.01,12357,10089.60,0,0,165,0.42,-3.08,0.00,-0.21,0.99,0.01
0.3955078,-0.0014392519,-3.488958E-4,8.5358333E-4,-0.21,0.99,0.01,12367,10089.60,0,0,0,0.49,-3.01,0.14,-0.21,0.99,0.01
0.3955078,-0.004439252,-0.002348896,-0.0011464168,-0.21,0.99,0.01,12379,10089.60,0,0,165,0.28,-3.15,0.00,-0.21,0.99,0.01
1.3955078,-0.0024392526,-3.488958E-4,-0.0021464168,-0.21,0.99,0.01,12394,10090.60,0,0,0,0.42,-3.01,-0.07,-0.21,0.99,0.01
1.3955078,-0.0014392519,-3.488958E-4,-1.4641671E-4,-0.21,0.99,0.01,12402,10090.60,0,0,165,0.49,-3.01,0.07,-0.21,0.99,0.01
0.3955078,-0.0014392519,-0.0013488941,-0.0011464168,-0.21,0.99,0.01,12417,10089.60,0,0,0,0.49,-3.08,0.00,-0.21,0.99,0.01
0.3955078,-0.0024392526,-0.0013488941,-0.0011464168,-0.21,0.99,0.01,12432,10089.60,0,0,165,0.42,-3.08,0.00,-0.21,0.99,0.01
0.3955078,5.6074746E-4,-3.488958E-4,-0.0011464168,-0.21,0.99,0.01,12447,10089.60,0,0,0,0.63,-3.01,0.00,-0.21,0.99,0.01
0.3955078,0.0025607478,6.5110624E-4,-0.0021464168,-0.21,0.99,0.01,12454,10089.60,0,0,165,0.77,-2.94,-0.07,-0.21,0.99,0.01
0.3955078,0.0015607476,6.5110624E-4,-0.0011464168,-0.21,0.99,0.01,12469,10089.60,0,0,0,0.70,-2.94,0.00,-0.21,0.99,0.01
0.3955078,0.0015607476,6.5110624E-4,-0.0011464168,-0.22,0.99,0.01,12477,10089.60,0,0,165,0.70,-2.94,0.00,-0.22,0.99,0.01
0.3955078,0.003560747,6.5110624E-4,-1.4641671E-4,-0.22,0.99,0.01,12492,10089.60,0,0,0,0.84,-2.94,0.07,-0.22,0.99,0.01
0.3955078,0.004560748,6.5110624E-4,-0.0011464168,-0.22,0.99,0.01,12507,10089.60,0,0,165,0.91,-2.94,0.00,-0.22,0.99,0.01
0.3955078,0.0025607478,0.0026511066,-0.0011464168,-0.22,0.99,0.01,12514,10089.60,0,0,0,0.77,-2.80,0.00,-0.22,0.99,0.01
0.3955078,-4.3925177E-4,6.5110624E-4,8.5358333E-4,-0.22,0.99,0.01,12529,10089.60,0,0,165,0.56,-2.94,0.14,-0.22,0.99,0.01
1.3955078,-4.3925177E-4,6.5110624E-4,-1.4641671E-4,-0.22,0.99,0.01,12544,10090.60,0,0,0,0.56,-2.94,0.07,-0.22,0.99,0.01
0.3955078,-0.0014392519,0.0016511083,-1.4641671E-4,-0.21,0.99,0.01,12552,10089.60,0,0,165,0.49,-2.87,0.07,-0.21,0.99,0.01
0.3955078,-0.0024392526,-3.488958E-4,8.5358333E-4,-0.21,0.99,0.01,12575,10089.60,0,0,0,0.42,-3.01,0.14,-0.21,0.99,0.01
1.3955078,-0.004439252,-0.0013488941,-1.4641671E-4,-0.22,0.99,0.01,12582,10090.60,0,0,165,0.28,-3.08,0.07,-0.22,0.99,0.01
0.095703125,-0.0014392519,-3.488958E-4,8.5358333E-4,-0.21,0.99,0.01,12590,10089.30,0,0,0,0.49,-3.01,0.14,-0.21,0.99,0.01
1.0957031,-0.0014392519,6.5110624E-4,0.001853583,-0.21,0.99,0.01,12605,10090.30,0,0,165,0.49,-2.94,0.21,-0.21,0.99,0.01
1.3955078,-4.3925177E-4,-3.488958E-4,8.5358333E-4,-0.21,0.99,0.01,12620,10090.60,0,0,0,0.56,-3.01,0.14,-0.21,0.99,0.01
1.3955078,-0.0024392526,6.5110624E-4,0.001853583,-0.21,0.99,0.01,12627,10090.60,0,0,165,0.42,-2.94,0.21,-0.21,0.99,0.01
0.3955078,-0.0024392526,6.5110624E-4,8.5358333E-4,-0.21,0.99,0.01,12642,10089.60,0,0,0,0.42,-2.94,0.14,-0.21,0.99,0.01
0.095703125,5.6074746E-4,0.0016511083,0.001853583,-0.21,0.99,0.01,12656,10089.30,0,0,165,0.63,-2.87,0.21,-0.21,0.99,0.01
0.095703125,5.6074746E-4,6.5110624E-4,8.5358333E-4,-0.21,0.99,0.01,12671,10089.30,0,0,0,0.63,-2.94,0.14,-0.21,0.99,0.01
0.095703125,-4.3925177E-4,-0.0013488941,-0.0011464168,-0.21,0.99,0.01,12679,10089.30,0,0,165,0.56,-3.08,0.00,-0.21,0.99,0.01
0.095703125,-0.0024392526,-0.002348896,-1.4641671E-4,-0.21,0.99,0.01,12694,10089.30,0,0,0,0.42,-3.15,0.07,-0.21,0.99,0.01
-0.50390625,-0.0014392519,6.5110624E-4,-0.0011464168,-0.21,0.99,0.01,12702,10088.70,0,0,165,0.49,-2.94,0.00,-0.21,0.99,0.01
0.3955078,-4.3925177E-4,-3.488958E-4,-0.0041464167,-0.21,0.99,0.01,12717,10089.60,0,0,0,0.56,-3.01,-0.21,-0.21,0.99,0.01
0.3955078,-0.0024392526,-3.488958E-4,-0.003146417,-0.21,0.99,0.01,12732,10089.60,0,0,165,0.42,-3.01,-0.14,-0.21,0.99,0.01
-0.50390625,-4.3925177E-4,-3.488958E-4,-0.0011464168,-0.21,0.99,0.01,12739,10088.70,0,0,0,0.56,-3.01,0.00,-0.21,0.99,0.01
-0.50390625,-0.0014392519,-3.488958E-4,-0.003146417,-0.22,0.99,0.01,12755,10088.70,0,0,165,0.49,-3.01,-0.14,-0.22,0.99,0.01
1.3955078,0.0025607478,6.5110624E-4,8.5358333E-4,-0.21,0.99,0.01,12770,10090.60,0,0,0,0.77,-2.94,0.14,-0.21,0.99,0.01
1.0957031,5.6074746E-4,6.5110624E-4,-1.4641671E-4,-0.21,0.99,0.01,12777,10090.30,0,0,165,0.63,-2.94,0.07,-0.21,0.99,0.01
0.3955078,5.6074746E-4,0.0016511083,-1.4641671E-4,-0.22,0.99,0.01,12792,10089.60,0,0,0,0.63,-2.87,0.07,-0.22,0.99,0.01
1.3955078,0.0025607478,6.5110624E-4,-1.4641671E-4,-0.22,0.99,0.01,12807,10090.60,0,0,165,0.77,-2.94,0.07,-0.22,0.99,0.01
0.3955078,0.0025607478,6.5110624E-4,-0.0011464168,-0.22,0.99,0.01,12815,10089.60,0,0,0,0.77,-2.94,0.00,-0.22,0.99,0.01
1.3955078,0.0025607478,-3.488958E-4,8.5358333E-4,-0.21,0.99,0.01,12830,10090.60,0,0,165,0.77,-3.01,0.14,-0.21,0.99,0.01
0.3955078,0.0025607478,-3.488958E-4,8.5358333E-4,-0.22,0.99,0.01,12845,10089.60,0,0,0,0.77,-3.01,0.14,-0.22,0.99,0.01
0.3955078,5.6074746E-4,-3.488958E-4,-0.0011464168,-0.22,0.99,0.01,12852,10089.60,0,0,165,0.63,-3.01,0.00,-0.22,0.99,0.01
0.3955078,0.0015607476,6.5110624E-4,0.001853583,-0.21,0.99,0.01,12867,10089.60,0,0,0,0.70,-2.94,0.21,-0.21,0.99,0.01
1.3955078,-0.0024392526,6.5110624E-4,8.5358333E-4,-0.21,0.99,0.01,12883,10090.60,0,0,165,0.42,-2.94,0.14,-0.21,0.99,0.01
0.095703125,-0.0024392526,6.5110624E-4,8.5358333E-4,-0.21,0.99,0.01,12889,10089.30,0,0,0,0.42,-2.94,0.14,-0.21,0.99,0.01
-0.9042969,-0.004439252,6.5110624E-4,0.001853583,-0.21,0.99,0.01,12904,10088.30,0,0,165,0.28,-2.94,0.21,-0.21,0.99,0.01
0.095703125,-0.0024392526,6.5110624E-4,8.5358333E-4,-0.21,0.99,0.01,12920,10089.30,0,0,0,0.42,-2.94,0.14,-0.21,0.99,0.01
0.3955078,-0.0034392523,-0.0013488941,8.5358333E-4,-0.21,0.99,0.01,12927,10089.60,0,0,165,0.35,-3.08,0.14,-0.21,0.99,0.01
1.0957031,-0.0034392523,-3.488958E-4,-0.0011464168,-0.21,0.99,0.01,12942,10090.30,0,0,0,0.35,-3.01,0.00,-0.21,0.99,0.01
1.3955078,-0.0024392526,-3.488958E-4,-1.4641671E-4,-0.21,0.99,0.01,12957,10090.60,0,0,165,0.42,-3.01,0.07,-0.21,0.99,0.01
0.095703125,-4.3925177E-4,-3.488958E-4,-0.25714642,-0.21,0.99,0.01,12965,10089.30,0,0,0,0.56,-3.01,-17.92,-0.21,0.99,0.01
1.3955078,5.6074746E-4,6.5110624E-4,-0.0011464168,-0.21,0.99,0.01,12980,10090.60,0,0,165,0.63,-2.94,0.00,-0.21,0.99,0.01
1.0957031,5.6074746E-4,-0.0013488941,-0.0021464168,-0.21,0.99,0.01,12994,10090.30,0,0,0,0.63,-3.08,-0.07,-0.21,0.99,0.01
0.3955078,0.0015607476,6.5110624E-4,-1.4641671E-4,-0.21,0.99,0.01,13002,10089.60,0,0,165,0.70,-2.94,0.07,-0.21,0.99,0.01
0.3955078,-4.3925177E-4,0.0016511083,8.5358333E-4,-0.21,0.99,0.01,13017,10089.60,0,0,0,0.56,-2.87,0.14,-0.21,0.99,0.01
1.3955078,0.0015607476,6.5110624E-4,-0.0011464168,-0.21,0.99,0.01,13032,10090.60,0,0,165,0.70,-2.94,0.00,-0.21,0.99,0.01
0.095703125,5.6074746E-4,-0.0013488941,-1.4641671E-4,-0.21,0.99,0.01,13040,10089.30,0,0,0,0.63,-3.08,0.07,-0.21,0.99,0.01
0.3955078,5.6074746E-4,-0.0013488941,-1.4641671E-4,-0.21,0.99,0.01,13054,10089.60,0,0,165,0.63,-3.08,0.07,-0.21,0.99,0.01
0.3955078,-0.0014392519,-0.0013488941,-0.0021464168,-0.22,0.99,0.01,13069,10089.60,0,0,0,0.49,-3.08,-0.07,-0.22,0.99,0.01
-0.50390625,-0.0024392526,6.5110624E-4,-0.0021464168,-0.21,0.99,0.01,13077,10088.70,0,0,165,0.42,-2.94,-0.07,-0.21,0.99,0.01
0.095703125,-4.3925177E-4,6.5110624E-4,-1.4641671E-4,-0.22,0.99,0.01,13092,10089.30,0,0,0,0.56,-2.94,0.07,-0.22,0.99,0.01
0.3955078,-0.0014392519,-3.488958E-4,8.5358333E-4,-0.21,0.99,0.01,13107,10089.60,0,0,165,0.49,-3.01,0.14,-0.21,0.99,0.01
-0.9042969,5.6074746E-4,6.5110624E-4,-1.4641671E-4,-0.22,0.99,0.01,13115,10088.30,0,0,0,0.63,-2.94,0.07,-0.22,0.99,0.01
0.3955078,0.003560747,6.5110624E-4,8.5358333E-4,-0.21,0.99,0.01,13137,10089.60,0,0,165,0.84,-2.94,0.14,-0.21,0.99,0.01
0.095703125,0.0015607476,0.0016511083,0.001853583,-0.21,0.99,0.01,13145,10089.30,0,0,0,0.70,-2.87,0.21,-0.21,0.99,0.01
1.0957031,0.0015607476,0.0016511083,8.5358333E-4,-0.21,0.99,0.01,13152,10090.30,0,0,165,0.70,-2.87,0.14,-0.21,0.99,0.01
0.3955078,5.6074746E-4,0.0016511083,-1.4641671E-4,-0.21,0.99,0.01,13167,10089.60,0,0,0,0.63,-2.87,0.07,-0.21,0.99,0.01
0.095703125,5.6074746E-4,0.0016511083,0.001853583,-0.21,0.99,0.01,13175,10089.30,0,0,165,0.63,-2.87,0.21,-0.21,0.99,0.01
1.3955078,-4.3925177E-4,6.5110624E-4,8.5358333E-4,-0.21,0.99,0.01,13189,10090.60,0,0,0,0.56,-2.94,0.14,-0.21,0.99,0.01
0.095703125,-4.3925177E-4,-0.0013488941,8.5358333E-4,-0.21,0.99,0.01,13204,10089.30,0,0,165,0.56,-3.08,0.14,-0.21,0.99,0.01
0.095703125,-0.0014392519,6.5110624E-4,-0.0011464168,-0.21,0.99,0.01,13212,10089.30,0,0,0,0.49,-2.94,0.00,-0.21,0.99,0.01
-0.50390625,-0.0034392523,-0.0013488941,-0.003146417,-0.21,0.99,0.01,13227,10088.70,0,0,165,0.35,-3.08,-0.14,-0.21,0.99,0.01
1.3955078,-4.3925177E-4,-3.488958E-4,0.001853583,-0.21,0.99,0.01,13242,10090.60,0,0,0,0.56,-3.01,0.21,-0.21,0.99,0.01
-0.9042969,-0.0034392523,6.5110624E-4,-0.0021464168,-0.21,0.99,0.01,13250,10088.30,0,0,165,0.35,-2.94,-0.07,-0.21,0.99,0.01
0.3955078,-4.3925177E-4,-3.488958E-4,-1.4641671E-4,-0.21,0.99,0.01,13271,10089.60,0,0,0,0.56,-3.01,0.07,-0.21,0.99,0.01
1.3955078,5.6074746E-4,-3.488958E-4,-1.4641671E-4,-0.21,0.99,0.01,13280,10090.60,0,0,165,0.63,-3.01,0.07,-0.21,0.99,0.01
1.0957031,-0.004439252,-3.488958E-4,-0.0041464167,-0.21,0.99,0.01,13287,10090.30,0,0,0,0.28,-3.01,-0.21,-0.21,0.99,0.01
0.3955078,0.003560747,-0.0013488941,8.5358333E-4,-0.21,0.99,0.01,13302,10089.60,0,0,165,0.84,-3.08,0.14,-0.21,0.99,0.01
0.095703125,0.0015607476,-3.488958E-4,-0.003146417,-0.21,0.99,0.01,13317,10089.30,0,0,0,0.70,-3.01,-0.14,-0.21,0.99,0.01
0.095703125,-0.0014392519,-3.488958E-4,-0.0021464168,-0.21,0.99,0.01,13324,10089.30,0,0,165,0.49,-3.01,-0.07,-0.21,0.99,0.01
1.3955078,0.004560748,0.0016511083,0.001853583,-0.22,0.99,0.01,13348,10090.60,0,0,0,0.91,-2.87,0.21,-0.22,0.99,0.01
1.3955078,-4.3925177E-4,-3.488958E-4,-0.0021464168,-0.21,0.99,0.01,13354,10090.60,0,0,165,0.56,-3.01,-0.07,-0.21,0.99,0.01
1.3955078,-4.3925177E-4,6.5110624E-4,-0.0011464168,-0.21,0.99,0.01,13363,10090.60,0,0,0,0.56,-2.94,0.00,-0.21,0.99,0.01
0.095703125,5.6074746E-4,-3.488958E-4,8.5358333E-4,-0.21,0.99,0.01,13377,10089.30,0,0,165,0.63,-3.01,0.14,-0.21,0.99,0.01
1.3955078,-0.0014392519,0.0016511083,-1.4641671E-4,-0.22,0.99,0.01,13392,10090.60,0,0,0,0.49,-2.87,0.07,-0.22,0.99,0.01
0.3955078,5.6074746E-4,6.5110624E-4,8.5358333E-4,-0.21,0.99,0.01,13401,10089.60,0,0,165,0.63,-2.94,0.14,-0.21,0.99,0.01
0.3955078,-4.3925177E-4,-3.488958E-4,-1.4641671E-4,-0.21,0.99,0.01,13415,10089.60,0,0,0,0.56,-3.01,0.07,-0.21,0.99,0.01
0.3955078,-0.0014392519,6.5110624E-4,8.5358333E-4,-0.22,0.99,0.01,13432,10089.60,0,0,165,0.49,-2.94,0.14,-0.22,0.99,0.01
0.095703125,-4.3925177E-4,-3.488958E-4,0.001853583,-0.21,0.99,0.01,13437,10089.30,0,0,0,0.56,-3.01,0.21,-0.21,0.99,0.01
0.095703125,-4.3925177E-4,-3.488958E-4,-1.4641671E-4,-0.21,0.99,0.01,13456,10089.30,0,0,165,0.56,-3.01,0.07,-0.21,0.99,0.01
0.3955078,5.6074746E-4,6.5110624E-4,8.5358333E-4,-0.22,0.99,0.01,13471,10089.60,0,0,0,0.63,-2.94,0.14,-0.22,0.99,0.01
-1.2041016,0.0025607478,-3.488958E-4,-0.0011464168,-0.22,0.99,0.01,13474,10088.00,0,0,165,0.77,-3.01,0.00,-0.22,0.99,0.01
1.0957031,-0.0014392519,0.0016511083,-1.4641671E-4,-0.21,0.99,0.01,13489,10090.30,0,0,0,0.49,-2.87,0.07,-0.21,0.99,0.01
-0.9042969,0.0015607476,0.0016511083,8.5358333E-4,-0.21,0.99,0.01,13504,10088.30,0,0,165,0.70,-2.87,0.14,-0.21,0.99,0.01
0.3955078,-4.3925177E-4,-3.488958E-4,-1.4641671E-4,-0.21,0.99,0.01,13512,10089.60,0,0,0,0.56,-3.01,0.07,-0.21,0.99,0.01
0.095703125,-0.0014392519,6.5110624E-4,-1.4641671E-4,-0.21,0.99,0.01,13526,10089.30,0,0,165,0.49,-2.94,0.07,-0.21,0.99,0.01
1.0957031,-4.3925177E-4,-3.488958E-4,8.5358333E-4,-0.21,0.99,0.01,13562,10090.30,0,0,0,0.56,-3.01,0.14,-0.21,0.99,0.01
0.3955078,-0.0014392519,-3.488958E-4,-1.4641671E-4,-0.21,0.99,0.01,13562,10089.60,0,0,165,0.49,-3.01,0.07,-0.21,0.99,0.01
0.3955078,-0.0014392519,-3.488958E-4,-1.4641671E-4,-0.21,0.99,0.01,13565,10089.60,0,0,0,0.49,-3.01,0.07,-0.21,0.99,0.01
0.095703125,-0.0024392526,-0.0013488941,-1.4641671E-4,-0.21,0.99,0.01,13580,10089.30,0,0,165,0.42,-3.08,0.07,-0.21,0.99,0.01
0.3955078,-0.0014392519,6.5110624E-4,-0.0011464168,-0.21,0.99,0.01,13587,10089.60,0,0,0,0.49,-2.94,0.00,-0.21,0.99,0.01
0.095703125,0.0015607476,6.5110624E-4,-0.0011464168,-0.21,0.99,0.01,13602,10089.30,0,0,165,0.70,-2.94,0.00,-0.21,0.99,0.01
0.3955078,-0.0014392519,-3.488958E-4,-0.0011464168,-0.21,0.99,0.01,13616,10089.60,0,0,0,0.49,-3.01,0.00,-0.21,0.99,0.01
0.3955078,5.6074746E-4,6.5110624E-4,8.5358333E-4,-0.21,0.99,0.01,13624,10089.60,0,0,165,0.63,-2.94,0.14,-0.21,0.99,0.01
0.095703125,5.6074746E-4,6.5110624E-4,8.5358333E-4,-0.22,0.99,0.01,13648,10089.30,0,0,0,0.63,-2.94,0.14,-0.22,0.99,0.01
0.3955078,5.6074746E-4,6.5110624E-4,-1.4641671E-4,-0.21,0.99,0.01,13654,10089.60,0,0,165,0.63,-2.94,0.07,-0.21,0.99,0.01
1.0957031,0.0025607478,6.5110624E-4,8.5358333E-4,-0.22,0.99,0.01,13665,10090.30,0,0,0,0.77,-2.94,0.14,-0.22,0.99,0.01
0.095703125,-4.3925177E-4,-3.488958E-4,-0.0021464168,-0.22,0.99,0.01,13677,10089.30,0,0,165,0.56,-3.01,-0.07,-0.22,0.99,0.01
0.095703125,5.6074746E-4,-3.488958E-4,8.5358333E-4,-0.21,0.99,0.01,13692,10089.30,0,0,0,0.63,-3.01,0.14,-0.21,0.99,0.01
-0.50390625,0.0015607476,-0.0013488941,8.5358333E-4,-0.21,0.99,0.01,13700,10088.70,0,0,165,0.70,-3.08,0.14,-0.21,0.99,0.01
0.3955078,-4.3925177E-4,6.5110624E-4,-0.0011464168,-0.21,0.99,0.01,13715,10089.60,0,0,0,0.56,-2.94,0.00,-0.21,0.99,0.01
1.3955078,-4.3925177E-4,6.5110624E-4,-1.4641671E-4,-0.22,0.99,0.01,13737,10090.60,0,0,165,0.56,-2.94,0.07,-0.22,0.99,0.01
0.095703125,-0.0014392519,-0.0013488941,8.5358333E-4,-0.21,0.99,0.01,13738,10089.30,0,0,0,0.49,-3.08,0.14,-0.21,0.99,0.01
0.095703125,-0.0014392519,-3.488958E-4,-0.0011464168,-0.21,0.99,0.01,13752,10089.30,0,0,165,0.49,-3.01,0.00,-0.21,0.99,0.01
0.3955078,-0.0014392519,6.5110624E-4,0.001853583,-0.22,0.99,0.01,13767,10089.60,0,0,0,0.49,-2.94,0.21,-0.22,0.99,0.01
0.3955078,5.6074746E-4,0.0016511083,-1.4641671E-4,-0.21,0.99,0.01,13782,10089.60,0,0,165,0.63,-2.87,0.07,-0.21,0.99,0.01
0.3955078,-4.3925177E-4,6.5110624E-4,-0.0021464168,-0.21,0.99,0.01,13789,10089.60,0,0,0,0.56,-2.94,-0.07,-0.21,0.99,0.01
0.3955078,0.0025607478,6.5110624E-4,-0.0011464168,-0.22,0.99,0.01,13805,10089.60,0,0,165,0.77,-2.94,0.00,-0.22,0.99,0.01
0.3955078,-4.3925177E-4,-3.488958E-4,-0.0021464168,-0.21,0.99,0.01,13812,10089.60,0,0,0,0.56,-3.01,-0.07,-0.21,0.99,0.01
0.3955078,-4.3925177E-4,-3.488958E-4,-0.0021464168,-0.21,0.99,0.01,13827,10089.60,0,0,165,0.56,-3.01,-0.07,-0.21,0.99,0.01
0.3955078,0.0015607476,6.5110624E-4,-1.4641671E-4,-0.21,0.99,0.01,13842,10089.60,0,0,0,0.70,-2.94,0.07,-0.21,0.99,0.01
0.3955078,5.6074746E-4,6.5110624E-4,-0.0011464168,-0.22,0.99,0.01,13850,10089.60,0,0,165,0.63,-2.94,0.00,-0.22,0.99,0.01
0.095703125,0.0015607476,6.5110624E-4,-1.4641671E-4,-0.22,0.99,0.01,13865,10089.30,0,0,0,0.70,-2.94,0.07,-0.22,0.99,0.01
1.3955078,0.0015607476,-3.488958E-4,0.001853583,-0.21,0.99,0.01,13880,10090.60,0,0,165,0.70,-3.01,0.21,-0.21,0.99,0.01
0.3955078,-4.3925177E-4,6.5110624E-4,-0.0011464168,-0.21,0.99,0.01,13887,10089.60,0,0,0,0.56,-2.94,0.00,-0.21,0.99,0.01
0.3955078,-4.3925177E-4,6.5110624E-4,-0.0021464168,-0.21,0.99,0.01,13902,10089.60,0,0,165,0.56,-2.94,-0.07,-0.21,0.99,0.01
0.095703125,-0.0024392526,-3.488958E-4,-0.003146417,-0.21,0.99,0.01,13917,10089.30,0,0,0,0.42,-3.01,-0.14,-0.21,0.99,0.01
1.0957031,5.6074746E-4,-0.0013488941,-1.4641671E-4,-0.21,0.99,0.01,13924,10090.30,0,0,165,0.63,-3.08,0.07,-0.21,0.99,0.01
0.095703125,-0.0024392526,-3.488958E-4,-0.0011464168,-0.21,0.99,0.01,13939,10089.30,0,0,0,0.42,-3.01,0.00,-0.21,0.99,0.01
1.3955078,-0.0014392519,6.5110624E-4,0.001853583,-0.21,0.99,0.01,13954,10090.60,0,0,165,0.49,-2.94,0.21,-0.21,0.99,0.01
1.0957031,0.0015607476,-3.488958E-4,-1.4641671E-4,-0.21,0.99,0.01,13963,10090.30,0,0,0,0.70,-3.01,0.07,-0.21,0.99,0.01
0.3955078,-4.3925177E-4,0.0016511083,-1.4641671E-4,-0.22,0.99,0.01,13977,10089.60,0,0,165,0.56,-2.87,0.07,-0.22,0.99,0.01
0.095703125,0.0025607478,6.5110624E-4,0.001853583,-0.21,0.99,0.01,13992,10089.30,0,0,0,0.77,-2.94,0.21,-0.21,0.99,0.01
0.3955078,0.0015607476,-0.0013488941,8.5358333E-4,-0.21,0.99,0.01,13999,10089.60,0,0,165,0.70,-3.08,0.14,-0.21,0.99,0.01
0.3955078,5.6074746E-4,6.5110624E-4,-0.0011464168,-0.21,0.99,0.01,14015,10089.60,0,0,0,0.63,-2.94,0.00,-0.21,0.99,0.01
0.3955078,0.0025607478,-3.488958E-4,-1.4641671E-4,-0.21,0.99,0.01,14034,10089.60,0,0,165,0.77,-3.01,0.07,-0.21,0.99,0.01
0.095703125,5.6074746E-4,-3.488958E-4,-0.0011464168,-0.21,0.99,0.01,14037,10089.30,0,0,0,0.63,-3.01,0.00,-0.21,0.99,0.01
0.095703125,-4.3925177E-4,6.5110624E-4,-0.0011464168,-0.21,0.99,0.01,14052,10089.30,0,0,165,0.56,-2.94,0.00,-0.21,0.99,0.01
1.0957031,5.6074746E-4,6.5110624E-4,-1.4641671E-4,-0.21,0.99,0.01,14067,10090.30,0,0,0,0.63,-2.94,0.07,-0.21,0.99,0.01
0.3955078,-0.0014392519,6.5110624E-4,-1.4641671E-4,-0.21,0.99,0.01,14075,10089.60,0,0,165,0.49,-2.94,0.07,-0.21,0.99,0.01
1.3955078,5.6074746E-4,0.0026511066,-1.4641671E-4,-0.22,0.99,0.01,14091,10090.60,0,0,0,0.63,-2.80,0.07,-0.22,0.99,0.01
1.0957031,-0.0014392519,0.0016511083,-1.4641671E-4,-0.21,0.99,0.01,14105,10090.30,0,0,165,0.49,-2.87,0.07,-0.21,0.99,0.01
1.3955078,-4.3925177E-4,6.5110624E-4,0.001853583,-0.21,0.99,0.01,14112,10090.60,0,0,0,0.56,-2.94,0.21,-0.21,0.99,0.01
0.095703125,-4.3925177E-4,6.5110624E-4,-0.0011464168,-0.21,0.99,0.01,14127,10089.30,0,0,165,0.56,-2.94,0.00,-0.21,0.99,0.01
0.095703125,-0.0014392519,-3.488958E-4,-1.4641671E-4,-0.21,0.99,0.01,14142,10089.30,0,0,0,0.49,-3.01,0.07,-0.21,0.99,0.01
1.3955078,5.6074746E-4,6.5110624E-4,8.5358333E-4,-0.21,0.99,0.01,14150,10090.60,0,0,165,0.63,-2.94,0.14,-0.21,0.99,0.01
1.3955078,5.6074746E-4,-0.0013488941,-0.0021464168,-0.21,0.99,0.01,14165,10090.60,0,0,0,0.63,-3.08,-0.07,-0.21,0.99,0.01
0.095703125,-4.3925177E-4,-3.488958E-4,-0.0021464168,-0.22,0.99,0.01,14180,10089.30,0,0,165,0.56,-3.01,-0.07,-0.22,0.99,0.01
0.3955078,-4.3925177E-4,-0.0013488941,0.001853583,-0.21,0.99,0.01,14187,10089.60,0,0,0,0.56,-3.08,0.21,-0.21,0.99,0.01
0.095703125,-0.0014392519,-0.0013488941,-1.4641671E-4,-0.21,0.99,0.01,14202,10089.30,0,0,165,0.49,-3.08,0.07,-0.21,0.99,0.01
1.0957031,-0.0014392519,-3.488958E-4,8.5358333E-4,-0.21,0.99,0.01,14217,10090.30,0,0,0,0.49,-3.01,0.14,-0.21,0.99,0.01
0.3955078,-0.0024392526,0.0016511083,0.001853583,-0.21,0.99,0.01,14224,10089.60,0,0,165,0.42,-2.87,0.21,-0.21,0.99,0.01
1.0957031,-0.0014392519,6.5110624E-4,8.5358333E-4,-0.21,0.99,0.01,14239,10090.30,0,0,0,0.49,-2.94,0.14,-0.21,0.99,0.01
0.3955078,-0.0024392526,-3.488958E-4,-0.0011464168,-0.21,0.99,0.01,14254,10089.60,0,0,165,0.42,-3.01,0.00,-0.21,0.99,0.01
1.0957031,-0.0024392526,-0.0013488941,-0.0021464168,-0.21,0.99,0.01,14262,10090.30,0,0,0,0.42,-3.08,-0.07,-0.21,0.99,0.01
0.095703125,-0.0014392519,-0.0013488941,8.5358333E-4,-0.21,0.99,0.01,14277,10089.30,0,0,165,0.49,-3.08,0.14,-0.21,0.99,0.01
1.0957031,5.6074746E-4,-0.0013488941,8.5358333E-4,-0.21,0.99,0.01,14292,10090.30,0,0,0,0.63,-3.08,0.14,-0.21,0.99,0.01
0.3955078,5.6074746E-4,-0.0013488941,-1.4641671E-4,-0.21,0.99,0.01,14300,10089.60,0,0,165,0.63,-3.08,0.07,-0.21,0.99,0.01
1.3955078,0.003560747,6.5110624E-4,-0.0011464168,-0.22,0.99,0.01,14315,10090.60,0,0,0,0.84,-2.94,0.00,-0.22,0.99,0.01
0.095703125,-4.3925177E-4,0.0016511083,-1.4641671E-4,-0.21,0.99,0.01,14330,10089.30,0,0,165,0.56,-2.87,0.07,-0.21,0.99,0.01
1.0957031,0.0015607476,-3.488958E-4,8.5358333E-4,-0.21,0.99,0.01,14337,10090.30,0,0,0,0.70,-3.01,0.14,-0.21,0.99,0.01
0.095703125,0.0025607478,6.5110624E-4,-1.4641671E-4,-0.22,0.99,0.01,14352,10089.30,0,0,165,0.77,-2.94,0.07,-0.22,0.99,0.01
1.3955078,5.6074746E-4,-3.488958E-4,-1.4641671E-4,-0.21,0.99,0.01,14367,10090.60,0,0,0,0.63,-3.01,0.07,-0.21,0.99,0.01
1.0957031,5.6074746E-4,6.5110624E-4,-1.4641671E-4,-0.21,0.99,0.01,14375,10090.30,0,0,165,0.63,-2.94,0.07,-0.21,0.99,0.01
1.0957031,-4.3925177E-4,-0.0013488941,-0.0021464168,-0.22,0.99,0.01,14389,10090.30,0,0,0,0.56,-3.08,-0.07,-0.22,0.99,0.01
1.3955078,-0.0014392519,-3.488958E-4,-0.0011464168,-0.21,0.99,0.01,14404,10090.60,0,0,165,0.49,-3.01,0.00,-0.21,0.99,0.01
0.095703125,5.6074746E-4,-3.488958E-4,-0.0011464168,-0.21,0.99,0.01,14412,10089.30,0,0,0,0.63,-3.01,0.00,-0.21,0.99,0.01
1.3955078,-0.0014392519,6.5110624E-4,-1.4641671E-4,-0.22,0.99,0.01,14427,10090.60,0,0,165,0.49,-2.94,0.07,-0.22,0.99,0.01
1.3955078,5.6074746E-4,-3.488958E-4,0.001853583,-0.22,0.99,0.01,14442,10090.60,0,0,0,0.63,-3.01,0.21,-0.22,0.99,0.01
1.0957031,-0.0014392519,-3.488958E-4,0.001853583,-0.21,0.99,0.01,14450,10090.30,0,0,165,0.49,-3.01,0.21,-0.21,0.99,0.01
1.0957031,-0.0024392526,-3.488958E-4,-1.4641671E-4,-0.21,0.99,0.01,14465,10090.30,0,0,0,0.42,-3.01,0.07,-0.21,0.99,0.01
0.095703125,5.6074746E-4,6.5110624E-4,-1.4641671E-4,-0.21,0.99,0.01,14479,10089.30,0,0,165,0.63,-2.94,0.07,-0.21,0.99,0.01
1.3955078,-0.0014392519,-0.0013488941,-1.4641671E-4,-0.21,0.99,0.01,14486,10090.60,0,0,0,0.49,-3.08,0.07,-0.21,0.99,0.01
1.0957031,-0.0014392519,-3.488958E-4,-0.0021464168,-0.21,0.99,0.01,14501,10090.30,0,0,165,0.49,-3.01,-0.07,-0.21,0.99,0.01
1.3955078,0.0015607476,-3.488958E-4,0.0028535835,-0.21,0.99,0.01,14517,10090.60,0,0,0,0.70,-3.01,0.28,-0.21,0.99,0.01
0.3955078,-4.3925177E-4,-3.488958E-4,-1.4641671E-4,-0.21,0.99,0.01,14524,10089.60,0,0,165,0.56,-3.01,0.07,-0.21,0.99,0.01
0.3955078,-0.0024392526,-0.0013488941,-1.4641671E-4,-0.21,0.99,0.01,14539,10089.60,0,0,0,0.42,-3.08,0.07,-0.21,0.99,0.01
0.3955078,5.6074746E-4,-3.488958E-4,0.0028535835,-0.21,0.99,0.01,14554,10089.60,0,0,165,0.63,-3.01,0.28,-0.21,0.99,0.01
1.0957031,-0.0024392526,-3.488958E-4,-1.4641671E-4,-0.21,0.99,0.01,14563,10090.30,0,0,0,0.42,-3.01,0.07,-0.21,0.99,0.01
1.0957031,-0.0014392519,-0.0013488941,-1.4641671E-4,-0.21,0.98,0.01,14578,10090.30,0,0,165,0.49,-3.08,0.07,-0.21,0.98,0.01
0.095703125,0.0025607478,6.5110624E-4,8.5358333E-4,-0.21,0.99,0.01,14592,10089.30,0,0,0,0.77,-2.94,0.14,-0.21,0.99,0.01
-0.9042969,-0.0034392523,-3.488958E-4,-0.0021464168,-0.21,0.99,0.01,14600,10088.30,0,0,165,0.35,-3.01,-0.07,-0.21,0.99,0.01
1.0957031,5.6074746E-4,-3.488958E-4,8.5358333E-4,-0.22,0.99,0.01,14615,10090.30,0,0,0,0.63,-3.01,0.14,-0.22,0.99,0.01
0.095703125,5.6074746E-4,-3.488958E-4,-0.0011464168,-0.21,0.99,0.01,14637,10089.30,0,0,165,0.63,-3.01,0.00,-0.21,0.99,0.01
2.0957031,-0.004439252,-0.0013488941,-0.005146417,-0.21,0.99,0.01,14638,10091.30,0,0,0,0.28,-3.08,-0.28,-0.21,0.99,0.01
0.095703125,0.0075607486,-3.488958E-4,0.004853583,-0.22,1.0,0.01,14652,10089.30,0,0,165,1.12,-3.01,0.42,-0.22,1.00,0.01
1.0957031,-0.004439252,6.5110624E-4,-0.008146417,-0.22,0.99,0.01,14667,10090.30,0,0,0,0.28,-2.94,-0.49,-0.22,0.99,0.01
0.095703125,-4.3925177E-4,0.0026511066,0.001853583,-0.21,0.99,0.01,14674,10089.30,0,0,165,0.56,-2.80,0.21,-0.21,0.99,0.01
1.0957031,0.004560748,0.0016511083,0.001853583,-0.21,0.99,0.01,14689,10090.30,0,0,0,0.91,-2.87,0.21,-0.21,0.99,0.01
1.3955078,-0.0034392523,-3.488958E-4,-0.0021464168,-0.22,0.99,0.01,14704,10090.60,0,0,165,0.35,-3.01,-0.07,-0.22,0.99,0.01
0.3955078,5.6074746E-4,0.0016511083,8.5358333E-4,-0.22,0.99,0.01,14712,10089.60,0,0,0,0.63,-2.87,0.14,-0.22,0.99,0.01
0.3955078,0.0015607476,0.0016511083,-0.0021464168,-0.21,0.99,0.01,14727,10089.60,0,0,165,0.70,-2.87,-0.07,-0.21,0.99,0.01
0.095703125,-0.006439252,-3.488958E-4,-0.003146417,-0.22,0.99,0.01,14742,10089.30,0,0,0,0.14,-3.01,-0.14,-0.22,0.99,0.01
1.0957031,5.6074746E-4,-0.0013488941,-1.4641671E-4,-0.21,0.99,0.01,14749,10090.30,0,0,165,0.63,-3.08,0.07,-0.21,0.99,0.01
0.095703125,0.0015607476,-3.488958E-4,-1.4641671E-4,-0.22,0.99,0.01,14765,10089.30,0,0,0,0.70,-3.01,0.07,-0.22,0.99,0.01
0.3955078,-0.0024392526,-3.488958E-4,-0.0011464168,-0.21,0.99,0.01,14779,10089.60,0,0,165,0.42,-3.01,0.00,-0.21,0.99,0.01
1.3955078,0.0015607476,0.0016511083,0.0028535835,-0.21,0.99,0.01,14787,10090.60,0,0,0,0.70,-2.87,0.28,-0.21,0.99,0.01
2.3955078,0.0025607478,6.5110624E-4,0.0028535835,-0.21,0.99,0.01,14802,10091.60,0,0,165,0.77,-2.94,0.28,-0.21,0.99,0.01
1.0957031,-0.0034392523,6.5110624E-4,-0.003146417,-0.21,0.99,0.01,14817,10090.30,0,0,0,0.35,-2.94,-0.14,-0.21,0.99,0.01
1.0957031,0.0025607478,-3.488958E-4,0.0028535835,-0.21,0.99,0.01,14824,10090.30,0,0,165,0.77,-3.01,0.28,-0.21,0.99,0.01
1.3955078,-0.0014392519,-3.488958E-4,-0.0021464168,-0.21,0.99,0.01,14839,10090.60,0,0,0,0.49,-3.01,-0.07,-0.21,0.99,0.01
1.3955078,-0.004439252,-3.488958E-4,-0.003146417,-0.21,0.99,0.01,14854,10090.60,0,0,165,0.28,-3.01,-0.14,-0.21,0.99,0.01
1.3955078,0.003560747,-0.0013488941,8.5358333E-4,-0.21,0.99,0.01,14862,10090.60,0,0,0,0.84,-3.08,0.14,-0.21,0.99,0.01
1.0957031,-0.0034392523,-3.488958E-4,-0.003146417,-0.21,0.99,0.01,14877,10090.30,0,0,165,0.35,-3.01,-0.14,-0.21,0.99,0.01
0.095703125,-0.0024392526,6.5110624E-4,-0.0011464168,-0.21,0.99,0.01,14892,10089.30,0,0,0,0.42,-2.94,0.00,-0.21,0.99,0.01
1.0957031,0.0025607478,6.5110624E-4,8.5358333E-4,-0.21,0.99,0.01,14899,10090.30,0,0,165,0.77,-2.94,0.14,-0.21,0.99,0.01
1.3955078,-4.3925177E-4,6.5110624E-4,-0.0041464167,-0.21,0.99,0.01,14915,10090.60,0,0,0,0.56,-2.94,-0.21,-0.21,0.99,0.01
-0.9042969,5.6074746E-4,0.0026511066,0.001853583,-0.21,0.99,0.01,14930,10088.30,0,0,165,0.63,-2.80,0.21,-0.21,0.99,0.01
2.0957031,0.0025607478,6.5110624E-4,8.5358333E-4,-0.21,0.99,0.01,14937,10091.30,0,0,0,0.77,-2.94,0.14,-0.21,0.99,0.01
1.3955078,-0.0014392519,0.0016511083,-0.0011464168,-0.22,0.99,0.01,14952,10090.60,0,0,165,0.49,-2.87,0.00,-0.22,0.99,0.01
1.0957031,5.6074746E-4,-3.488958E-4,-0.0021464168,-0.21,0.99,0.01,14967,10090.30,0,0,0,0.63,-3.01,-0.07,-0.21,0.99,0.01
0.3955078,-4.3925177E-4,6.5110624E-4,-0.0011464168,-0.21,0.99,0.01,14975,10089.60,0,0,165,0.56,-2.94,0.00,-0.21,0.99,0.01
1.0957031,-0.0014392519,-3.488958E-4,-0.003146417,-0.22,0.99,0.01,14990,10090.30,0,0,0,0.49,-3.01,-0.14,-0.22,0.99,0.01
1.0957031,5.6074746E-4,-3.488958E-4,-0.0021464168,-0.22,0.99,0.01,15004,10090.30,0,0,165,0.63,-3.01,-0.07,-0.22,0.99,0.01
0.095703125,-4.3925177E-4,0.0016511083,8.5358333E-4,-0.21,0.99,0.01,15012,10089.30,0,0,0,0.56,-2.87,0.14,-0.21,0.99,0.01
0.3955078,0.0015607476,-3.488958E-4,8.5358333E-4,-0.21,0.99,0.01,15027,10089.60,0,0,165,0.70,-3.01,0.14,-0.21,0.99,0.01
0.3955078,5.6074746E-4,6.5110624E-4,-0.0011464168,-0.21,0.99,0.01,15042,10089.60,0,0,0,0.63,-2.94,0.00,-0.21,0.99,0.01
1.0957031,5.6074746E-4,0.0016511083,8.5358333E-4,-0.21,0.99,0.01,15050,10090.30,0,0,165,0.63,-2.87,0.14,-0.21,0.99,0.01
0.095703125,-0.0024392526,-3.488958E-4,8.5358333E-4,-0.21,0.99,0.01,15065,10089.30,0,0,0,0.42,-3.01,0.14,-0.21,0.99,0.01
1.0957031,-0.0024392526,-3.488958E-4,-0.0011464168,-0.21,0.99,0.01,15079,10090.30,0,0,165,0.42,-3.01,0.00,-0.21,0.99,0.01
1.0957031,-4.3925177E-4,-3.488958E-4,-1.4641671E-4,-0.21,0.99,0.01,15087,10090.30,0,0,0,0.56,-3.01,0.07,-0.21,0.99,0.01
0.095703125,-0.0024392526,6.5110624E-4,-0.0011464168,-0.21,0.99,0.01,15102,10089.30,0,0,165,0.42,-2.94,0.00,-0.21,0.99,0.01
1.0957031,-0.0014392519,-3.488958E-4,-0.0011464168,-0.21,0.99,0.01,15117,10090.30,0,0,0,0.49,-3.01,0.00,-0.21,0.99,0.01
1.3955078,5.6074746E-4,-0.0013488941,-1.4641671E-4,-0.21,0.99,0.01,15125,10090.60,0,0,165,0.63,-3.08,0.07,-0.21,0.99,0.01
1.0957031,-0.0014392519,-3.488958E-4,8.5358333E-4,-0.21,0.99,0.01,15139,10090.30,0,0,0,0.49,-3.01,0.14,-0.21,0.99,0.01
0.095703125,0.0015607476,6.5110624E-4,0.001853583,-0.21,0.99,0.01,15155,10089.30,0,0,165,0.70,-2.94,0.21,-0.21,0.99,0.01
1.0957031,0.0015607476,0.0016511083,8.5358333E-4,-0.21,0.99,0.01,15162,10090.30,0,0,0,0.70,-2.87,0.14,-0.21,0.99,0.01
1.0957031,5.6074746E-4,-0.0013488941,-0.0011464168,-0.21,0.99,0.01,15177,10090.30,0,0,165,0.63,-3.08,0.00,-0.21,0.99,0.01
1.0957031,5.6074746E-4,6.5110624E-4,-0.0011464168,-0.22,0.99,0.01,15192,10090.30,0,0,0,0.63,-2.94,0.00,-0.22,0.99,0.01
0.095703125,0.0015607476,-3.488958E-4,-0.0011464168,-0.21,0.99,0.01,15200,10089.30,0,0,165,0.70,-3.01,0.00,-0.21,0.99,0.01
1.3955078,5.6074746E-4,-3.488958E-4,-0.0011464168,-0.21,0.99,0.01,15216,10090.60,0,0,0,0.63,-3.01,0.00,-0.21,0.99,0.01
0.095703125,0.0015607476,6.5110624E-4,-1.4641671E-4,-0.22,0.99,0.01,15230,10089.30,0,0,165,0.70,-2.94,0.07,-0.22,0.99,0.01
1.3955078,0.0015607476,-3.488958E-4,8.5358333E-4,-0.21,0.99,0.01,15237,10090.60,0,0,0,0.70,-3.01,0.14,-0.21,0.99,0.01
2.0957031,-4.3925177E-4,6.5110624E-4,8.5358333E-4,-0.21,0.99,0.01,15252,10091.30,0,0,165,0.56,-2.94,0.14,-0.21,0.99,0.01
1.3955078,5.6074746E-4,-3.488958E-4,0.001853583,-0.21,0.99,0.01,15267,10090.60,0,0,0,0.63,-3.01,0.21,-0.21,0.99,0.01
1.0957031,0.003560747,0.0016511083,-0.0011464168,-0.22,0.99,0.01,15274,10090.30,0,0,165,0.84,-2.87,0.00,-0.22,0.99,0.01
1.0957031,-4.3925177E-4,6.5110624E-4,-0.0011464168,-0.21,0.99,0.01,15289,10090.30,0,0,0,0.56,-2.94,0.00,-0.21,0.99,0.01
1.3955078,5.6074746E-4,0.0016511083,8.5358333E-4,-0.21,0.99,0.01,15304,10090.60,0,0,165,0.63,-2.87,0.14,-0.21,0.99,0.01
1.0957031,5.6074746E-4,-3.488958E-4,-1.4641671E-4,-0.21,0.99,0.01,15311,10090.30,0,0,0,0.63,-3.01,0.07,-0.21,0.99,0.01
1.3955078,-4.3925177E-4,-3.488958E-4,-1.4641671E-4,-0.21,0.99,0.01,15327,10090.60,0,0,165,0.56,-3.01,0.07,-0.21,0.99,0.01
1.3955078,0.0015607476,0.0016511083,0.001853583,-0.21,0.99,0.01,15342,10090.60,0,0,0,0.70,-2.87,0.21,-0.21,0.99,0.01
1.0957031,-4.3925177E-4,-0.0013488941,-0.0011464168,-0.21,0.99,0.01,15350,10090.30,0,0,165,0.56,-3.08,0.00,-0.21,0.99,0.01
1.3955078,-0.0014392519,6.5110624E-4,-1.4641671E-4,-0.21,0.99,0.01,15366,10090.60,0,0,0,0.49,-2.94,0.07,-0.21,0.99,0.01
0.3955078,0.0015607476,-0.0013488941,8.5358333E-4,-0.21,0.99,0.01,15380,10089.60,0,0,165,0.70,-3.08,0.14,-0.21,0.99,0.01
1.0957031,-0.0034392523,6.5110624E-4,-1.4641671E-4,-0.21,0.99,0.01,15387,10090.30,0,0,0,0.35,-2.94,0.07,-0.21,0.99,0.01
1.0957031,5.6074746E-4,-0.0013488941,-1.4641671E-4,-0.21,0.99,0.01,15403,10090.30,0,0,165,0.63,-3.08,0.07,-0.21,0.99,0.01
0.3955078,-4.3925177E-4,-3.488958E-4,-1.4641671E-4,-0.21,0.99,0.01,15416,10089.60,0,0,0,0.56,-3.01,0.07,-0.21,0.99,0.01
0.095703125,-0.0024392526,-3.488958E-4,-0.0011464168,-0.21,0.99,0.01,15424,10089.30,0,0,165,0.42,-3.01,0.00,-0.21,0.99,0.01
0.095703125,-0.0014392519,-3.488958E-4,-1.4641671E-4,-0.21,0.99,0.01,15439,10089.30,0,0,0,0.49,-3.01,0.07,-0.21,0.99,0.01
1.0957031,-0.0024392526,-0.0013488941,-0.0011464168,-0.21,0.99,0.01,15454,10090.30,0,0,165,0.42,-3.08,0.00,-0.21,0.99,0.01
0.095703125,-4.3925177E-4,-3.488958E-4,0.2538536,-0.21,0.99,0.01,15462,10089.30,0,0,0,0.56,-3.01,17.85,-0.21,0.99,0.01
1.3955078,0.0025607478,6.5110624E-4,-1.4641671E-4,-0.21,0.99,0.01,15476,10090.60,0,0,165,0.77,-2.94,0.07,-0.21,0.99,0.01
0.3955078,0.0015607476,-3.488958E-4,-0.0011464168,-0.21,0.99,0.01,15492,10089.60,0,0,0,0.70,-3.01,0.00,-0.21,0.99,0.01
0.095703125,5.6074746E-4,6.5110624E-4,-0.0021464168,-0.21,0.99,0.01,15500,10089.30,0,0,165,0.63,-2.94,-0.07,-0.21,0.99,0.01
0.3955078,0.0015607476,6.5110624E-4,-1.4641671E-4,-0.21,0.99,0.01,15515,10089.60,0,0,0,0.70,-2.94,0.07,-0.21,0.99,0.01
1.0957031,0.0015607476,-3.488958E-4,8.5358333E-4,-0.21,0.99,0.01,15529,10090.30,0,0,165,0.70,-3.01,0.14,-0.21,0.99,0.01
1.3955078,5.6074746E-4,-3.488958E-4,8.5358333E-4,-0.22,0.99,0.01,15537,10090.60,0,0,0,0.63,-3.01,0.14,-0.22,0.99,0.01
1.0957031,0.0015607476,-0.0013488941,8.5358333E-4,-0.21,0.99,0.01,15552,10090.30,0,0,165,0.70,-3.08,0.14,-0.21,0.99,0.01
1.0957031,5.6074746E-4,6.5110624E-4,-0.0011464168,-0.22,0.99,0.01,15567,10090.30,0,0,0,0.63,-2.94,0.00,-0.22,0.99,0.01
1.3955078,5.6074746E-4,-0.0013488941,-1.4641671E-4,-0.22,0.99,0.01,15575,10090.60,0,0,165,0.63,-3.08,0.07,-0.22,0.99,0.01
1.3955078,5.6074746E-4,-3.488958E-4,-1.4641671E-4,-0.22,0.99,0.01,15590,10090.60,0,0,0,0.63,-3.01,0.07,-0.22,0.99,0.01
1.0957031,5.6074746E-4,-3.488958E-4,-1.4641671E-4,-0.21,0.99,0.01,15605,10090.30,0,0,165,0.63,-3.01,0.07,-0.21,0.99,0.01
0.095703125,-4.3925177E-4,6.5110624E-4,8.5358333E-4,-0.22,0.99,0.01,15612,10089.30,0,0,0,0.56,-2.94,0.14,-0.22,0.99,0.01
1.3955078,5.6074746E-4,6.5110624E-4,8.5358333E-4,-0.22,0.99,0.01,15627,10090.60,0,0,165,0.63,-2.94,0.14,-0.22,0.99,0.01
0.095703125,5.6074746E-4,6.5110624E-4,-1.4641671E-4,-0.21,0.99,0.01,15642,10089.30,0,0,0,0.63,-2.94,0.07,-0.21,0.99,0.01
1.0957031,-0.0014392519,0.0016511083,-1.4641671E-4,-0.21,0.99,0.01,15650,10090.30,0,0,165,0.49,-2.87,0.07,-0.21,0.99,0.01
1.3955078,-0.0014392519,-3.488958E-4,-1.4641671E-4,-0.21,0.99,0.01,15665,10090.60,0,0,0,0.49,-3.01,0.07,-0.21,0.99,0.01
0.095703125,-0.0014392519,-3.488958E-4,8.5358333E-4,-0.21,0.99,0.01,15680,10089.30,0,0,165,0.49,-3.01,0.14,-0.21,0.99,0.01
1.3955078,-4.3925177E-4,-3.488958E-4,-0.0011464168,-0.22,0.99,0.01,15687,10090.60,0,0,0,0.56,-3.01,0.00,-0.22,0.99,0.01
1.0957031,-0.0024392526,6.5110624E-4,-0.0011464168,-0.21,0.99,0.01,15702,10090.30,0,0,165,0.42,-2.94,0.00,-0.21,0.99,0.01
-1.8037109,-0.0014392519,6.5110624E-4,-0.0011464168,-0.21,0.99,0.01,15709,10087.40,0,0,0,0.49,-2.94,0.00,-0.21,0.99,0.01
1.3955078,-4.3925177E-4,6.5110624E-4,-1.4641671E-4,-0.21,0.99,0.01,15725,10090.60,0,0,165,0.56,-2.94,0.07,-0.21,0.99,0.01
-0.9042969,-4.3925177E-4,-3.488958E-4,-1.4641671E-4,-0.21,0.99,0.01,15741,10088.30,0,0,0,0.56,-3.01,0.07,-0.21,0.99,0.01
1.3955078,0.0015607476,6.5110624E-4,-1.4641671E-4,-0.21,0.99,0.01,15752,10090.60,0,0,165,0.70,-2.94,0.07,-0.21,0.99,0.01
1.0957031,5.6074746E-4,6.5110624E-4,8.5358333E-4,-0.21,0.99,0.01,15762,10090.30,0,0,0,0.63,-2.94,0.14,-0.21,0.99,0.01
1.3955078,5.6074746E-4,6.5110624E-4,-1.4641671E-4,-0.21,0.99,0.01,15777,10090.60,0,0,165,0.63,-2.94,0.07,-0.21,0.99,0.01
1.3955078,-4.3925177E-4,6.5110624E-4,-0.0011464168,-0.21,0.99,0.01,15787,10090.60,0,0,0,0.56,-2.94,0.00,-0.21,0.99,0.01
1.0957031,0.0015607476,0.0016511083,-1.4641671E-4,-0.21,0.99,0.01,15799,10090.30,0,0,165,0.70,-2.87,0.07,-0.21,0.99,0.01
0.3955078,5.6074746E-4,-3.488958E-4,-0.0011464168,-0.21,0.99,0.01,15815,10089.60,0,0,0,0.63,-3.01,0.00,-0.21,0.99,0.01
0.3955078,0.0015607476,0.0016511083,-1.4641671E-4,-0.22,0.99,0.01,15821,10089.60,0,0,165,0.70,-2.87,0.07,-0.22,0.99,0.01
1.0957031,-4.3925177E-4,-3.488958E-4,-0.0011464168,-0.22,0.99,0.01,15836,10090.30,0,0,0,0.56,-3.01,0.00,-0.22,0.99,0.01
0.3955078,5.6074746E-4,6.5110624E-4,-1.4641671E-4,-0.22,0.99,0.01,15844,10089.60,0,0,165,0.63,-2.94,0.07,-0.22,0.99,0.01
0.095703125,0.0025607478,-0.0013488941,-0.0011464168,-0.22,0.99,0.01,15859,10089.30,0,0,0,0.77,-3.08,0.00,-0.22,0.99,0.01
1.0957031,-4.3925177E-4,-0.0013488941,-0.0021464168,-0.21,0.99,0.01,15874,10090.30,0,0,165,0.56,-3.08,-0.07,-0.21,0.99,0.01
1.3955078,0.0015607476,0.0016511083,-1.4641671E-4,-0.21,0.99,0.01,15882,10090.60,0,0,0,0.70,-2.87,0.07,-0.21,0.99,0.01
1.3955078,5.6074746E-4,-3.488958E-4,8.5358333E-4,-0.21,0.99,0.01,15899,10090.60,0,0,165,0.63,-3.01,0.14,-0.21,0.99,0.01
1.3955078,-4.3925177E-4,0.0016511083,-1.4641671E-4,-0.22,0.99,0.01,15912,10090.60,0,0,0,0.56,-2.87,0.07,-0.22,0.99,0.01
1.0957031,-4.3925177E-4,0.0016511083,8.5358333E-4,-0.21,0.99,0.01,15920,10090.30,0,0,165,0.56,-2.87,0.14,-0.21,0.99,0.01
1.3955078,5.6074746E-4,0.0016511083,8.5358333E-4,-0.21,0.99,0.01,15934,10090.60,0,0,0,0.63,-2.87,0.14,-0.21,0.99,0.01
1.0957031,0.0015607476,6.5110624E-4,-1.4641671E-4,-0.22,0.99,0.01,15942,10090.30,0,0,165,0.70,-2.94,0.07,-0.22,0.99,0.01
0.3955078,-0.0014392519,6.5110624E-4,8.5358333E-4,-0.21,0.99,0.01,15957,10089.60,0,0,0,0.49,-2.94,0.14,-0.21,0.99,0.01
1.0957031,-0.0014392519,-3.488958E-4,8.5358333E-4,-0.22,0.99,0.01,15972,10090.30,0,0,165,0.49,-3.01,0.14,-0.22,0.99,0.01
1.3955078,-4.3925177E-4,6.5110624E-4,8.5358333E-4,-0.21,0.99,0.01,15979,10090.60,0,0,0,0.56,-2.94,0.14,-0.21,0.99,0.01
0.3955078,-4.3925177E-4,6.5110624E-4,-0.0021464168,-0.21,0.99,0.01,15994,10089.60,0,0,165,0.56,-2.94,-0.07,-0.21,0.99,0.01
1.0957031,-0.0014392519,-3.488958E-4,-0.0011464168,-0.21,0.99,0.01,16016,10090.30,0,0,0,0.49,-3.01,0.00,-0.21,0.99,0.01
1.0957031,-4.3925177E-4,-0.0013488941,-1.4641671E-4,-0.21,0.99,0.01,16018,10090.30,0,0,165,0.56,-3.08,0.07,-0.21,0.99,0.01
0.095703125,-0.0014392519,-3.488958E-4,-0.0021464168,-0.21,0.99,0.01,16032,10089.30,0,0,0,0.49,-3.01,-0.07,-0.21,0.99,0.01
0.3955078,-0.0014392519,6.5110624E-4,8.5358333E-4,-0.21,0.99,0.01,16055,10089.60,0,0,165,0.49,-2.94,0.14,-0.21,0.99,0.01
1.0957031,0.0015607476,-0.0013488941,-1.4641671E-4,-0.21,0.99,0.01,16056,10090.30,0,0,0,0.70,-3.08,0.07,-0.21,0.99,0.01
1.0957031,-0.0014392519,6.5110624E-4,-1.4641671E-4,-0.21,0.99,0.01,16069,10090.30,0,0,165,0.49,-2.94,0.07,-0.21,0.99,0.01
1.0957031,-0.0014392519,-3.488958E-4,8.5358333E-4,-0.21,0.99,0.01,16076,10090.30,0,0,0,0.49,-3.01,0.14,-0.21,0.99,0.01
0.095703125,-4.3925177E-4,6.5110624E-4,-1.4641671E-4,-0.21,0.99,0.01,16091,10089.30,0,0,165,0.56,-2.94,0.07,-0.21,0.99,0.01
1.3955078,-0.0014392519,0.0016511083,-0.0021464168,-0.22,0.99,0.01,16107,10090.60,0,0,0,0.49,-2.87,-0.07,-0.22,0.99,0.01
0.3955078,0.0015607476,0.0016511083,-1.4641671E-4,-0.21,0.99,0.01,16115,10089.60,0,0,165,0.70,-2.87,0.07,-0.21,0.99,0.01
1.3955078,0.0015607476,-0.0013488941,-0.003146417,-0.21,0.99,0.01,16130,10090.60,0,0,0,0.70,-3.08,-0.14,-0.21,0.99,0.01
1.0957031,-0.0014392519,-3.488958E-4,-0.0021464168,-0.22,0.99,0.01,16144,10090.30,0,0,165,0.49,-3.01,-0.07,-0.22,0.99,0.01
1.3955078,0.0025607478,-3.488958E-4,8.5358333E-4,-0.22,0.99,0.01,16152,10090.60,0,0,0,0.77,-3.01,0.14,-0.22,0.99,0.01
1.0957031,-4.3925177E-4,-3.488958E-4,-0.0021464168,-0.22,0.99,0.01,16167,10090.30,0,0,165,0.56,-3.01,-0.07,-0.22,0.99,0.01
2.0957031,0.0025607478,6.5110624E-4,-1.4641671E-4,-0.22,0.99,0.01,16182,10091.30,0,0,0,0.77,-2.94,0.07,-0.22,0.99,0.01
0.3955078,-4.3925177E-4,6.5110624E-4,-1.4641671E-4,-0.21,0.99,0.01,16190,10089.60,0,0,165,0.56,-2.94,0.07,-0.21,0.99,0.01
1.3955078,-0.0014392519,-3.488958E-4,8.5358333E-4,-0.21,0.99,0.01,16204,10090.60,0,0,0,0.49,-3.01,0.14,-0.21,0.99,0.01
1.0957031,0.0015607476,0.0016511083,0.001853583,-0.22,0.99,0.01,16220,10090.30,0,0,165,0.70,-2.87,0.21,-0.22,0.99,0.01
0.3955078,5.6074746E-4,-3.488958E-4,8.5358333E-4,-0.21,0.99,0.01,16227,10089.60,0,0,0,0.63,-3.01,0.14,-0.21,0.99,0.01
0.095703125,-4.3925177E-4,-3.488958E-4,-1.4641671E-4,-0.21,0.99,0.01,16242,10089.30,0,0,165,0.56,-3.01,0.07,-0.21,0.99,0.01
0.095703125,5.6074746E-4,-3.488958E-4,8.5358333E-4,-0.22,0.99,0.01,16257,10089.30,0,0,0,0.63,-3.01,0.14,-0.22,0.99,0.01
1.0957031,-0.0024392526,-3.488958E-4,-1.4641671E-4,-0.21,0.99,0.01,16265,10090.30,0,0,165,0.42,-3.01,0.07,-0.21,0.99,0.01
1.0957031,-4.3925177E-4,-3.488958E-4,-1.4641671E-4,-0.21,0.99,0.01,16281,10090.30,0,0,0,0.56,-3.01,0.07,-0.21,0.99,0.01
1.3955078,5.6074746E-4,-3.488958E-4,8.5358333E-4,-0.21,0.99,0.01,16295,10090.60,0,0,165,0.63,-3.01,0.14,-0.21,0.99,0.01
0.095703125,-4.3925177E-4,-3.488958E-4,-0.0011464168,-0.21,0.99,0.01,16302,10089.30,0,0,0,0.56,-3.01,0.00,-0.21,0.99,0.01
0.79589844,5.6074746E-4,6.5110624E-4,8.5358333E-4,-0.21,0.99,0.01,16317,10090.00,0,0,165,0.63,-2.94,0.14,-0.21,0.99,0.01
2.3955078,5.6074746E-4,6.5110624E-4,8.5358333E-4,-0.21,0.99,0.01,16332,10091.60,0,0,0,0.63,-2.94,0.14,-0.21,0.99,0.01
1.3955078,0.0015607476,6.5110624E-4,0.001853583,-0.21,0.99,0.01,16339,10090.60,0,0,165,0.70,-2.94,0.21,-0.21,0.99,0.01
0.095703125,-0.0014392519,-0.002348896,-0.0011464168,-0.21,0.99,0.01,16354,10089.30,0,0,0,0.49,-3.15,0.00,-0.21,0.99,0.01
1.0957031,5.6074746E-4,-3.488958E-4,8.5358333E-4,-0.21,0.99,0.01,16370,10090.30,0,0,165,0.63,-3.01,0.14,-0.21,0.99,0.01
1.0957031,5.6074746E-4,-3.488958E-4,-0.0011464168,-0.21,0.99,0.01,16377,10090.30,0,0,0,0.63,-3.01,0.00,-0.21,0.99,0.01
0.095703125,-4.3925177E-4,-0.0013488941,-0.0021464168,-0.21,0.99,0.01,16392,10089.30,0,0,165,0.56,-3.08,-0.07,-0.21,0.99,0.01
0.095703125,-4.3925177E-4,6.5110624E-4,-1.4641671E-4,-0.21,0.99,0.01,16407,10089.30,0,0,0,0.56,-2.94,0.07,-0.21,0.99,0.01
0.095703125,0.0015607476,-3.488958E-4,-0.0011464168,-0.21,0.99,0.01,16415,10089.30,0,0,165,0.70,-3.01,0.00,-0.21,0.99,0.01
1.0957031,0.0025607478,-3.488958E-4,-0.0011464168,-0.21,0.99,0.01,16430,10090.30,0,0,0,0.77,-3.01,0.00,-0.21,0.99,0.01
1.3955078,5.6074746E-4,-3.488958E-4,8.5358333E-4,-0.22,0.99,0.01,16444,10090.60,0,0,165,0.63,-3.01,0.14,-0.22,0.99,0.01
0.095703125,0.0015607476,6.5110624E-4,-1.4641671E-4,-0.21,0.99,0.01,16452,10089.30,0,0,0,0.70,-2.94,0.07,-0.21,0.99,0.01
1.0957031,5.6074746E-4,6.5110624E-4,-0.0011464168,-0.21,0.99,0.01,16467,10090.30,0,0,165,0.63,-2.94,0.00,-0.21,0.99,0.01
2.3955078,5.6074746E-4,-3.488958E-4,-1.4641671E-4,-0.22,0.99,0.01,16482,10091.60,0,0,0,0.63,-3.01,0.07,-0.22,0.99,0.01
2.0957031,5.6074746E-4,-3.488958E-4,-0.0011464168,-0.22,0.99,0.01,16489,10091.30,0,0,165,0.63,-3.01,0.00,-0.22,0.99,0.01
1.0957031,-0.0014392519,6.5110624E-4,-0.003146417,-0.21,0.99,0.01,16505,10090.30,0,0,0,0.49,-2.94,-0.14,-0.21,0.99,0.01
1.0957031,-0.0014392519,-3.488958E-4,-1.4641671E-4,-0.21,0.99,0.01,16520,10090.30,0,0,165,0.49,-3.01,0.07,-0.21,0.99,0.01
0.095703125,-4.3925177E-4,6.5110624E-4,-1.4641671E-4,-0.21,0.99,0.01,16527,10089.30,0,0,0,0.56,-2.94,0.07,-0.21,0.99,0.01
1.0957031,-4.3925177E-4,6.5110624E-4,-1.4641671E-4,-0.21,0.99,0.01,16542,10090.30,0,0,165,0.56,-2.94,0.07,-0.21,0.99,0.01
2.0957031,-4.3925177E-4,-3.488958E-4,8.5358333E-4,-0.21,0.99,0.01,16557,10091.30,0,0,0,0.56,-3.01,0.14,-0.21,0.99,0.01
1.3955078,-0.0014392519,6.5110624E-4,-1.4641671E-4,-0.21,0.99,0.01,16564,10090.60,0,0,165,0.49,-2.94,0.07,-0.21,0.99,0.01
0.095703125,-4.3925177E-4,6.5110624E-4,8.5358333E-4,-0.21,0.99,0.01,16579,10089.30,0,0,0,0.56,-2.94,0.14,-0.21,0.99,0.01
1.0957031,5.6074746E-4,-3.488958E-4,0.001853583,-0.21,0.99,0.01,16594,10090.30,0,0,165,0.63,-3.01,0.21,-0.21,0.99,0.01
1.0957031,-0.0024392526,6.5110624E-4,-0.0021464168,-0.22,0.99,0.01,16602,10090.30,0,0,0,0.42,-2.94,-0.07,-0.22,0.99,0.01
1.0957031,-0.0014392519,-3.488958E-4,8.5358333E-4,-0.21,0.99,0.01,16618,10090.30,0,0,165,0.49,-3.01,0.14,-0.21,0.99,0.01
1.0957031,5.6074746E-4,-3.488958E-4,8.5358333E-4,-0.21,0.99,0.01,16633,10090.30,0,0,0,0.63,-3.01,0.14,-0.21,0.99,0.01
1.0957031,-4.3925177E-4,6.5110624E-4,-0.0021464168,-0.21,0.99,0.01,16639,10090.30,0,0,165,0.56,-2.94,-0.07,-0.21,0.99,0.01
1.0957031,5.6074746E-4,-3.488958E-4,-1.4641671E-4,-0.21,0.99,0.01,16654,10090.30,0,0,0,0.63,-3.01,0.07,-0.21,0.99,0.01
2.3955078,5.6074746E-4,-3.488958E-4,-1.4641671E-4,-0.21,0.99,0.01,16670,10091.60,0,0,165,0.63,-3.01,0.07,-0.21,0.99,0.01
1.3955078,-4.3925177E-4,6.5110624E-4,-1.4641671E-4,-0.21,0.99,0.01,16677,10090.60,0,0,0,0.56,-2.94,0.07,-0.21,0.99,0.01
1.0957031,5.6074746E-4,6.5110624E-4,8.5358333E-4,-0.22,0.99,0.01,16692,10090.30,0,0,165,0.63,-2.94,0.14,-0.22,0.99,0.01
1.3955078,5.6074746E-4,-3.488958E-4,8.5358333E-4,-0.21,0.99,0.01,16708,10090.60,0,0,0,0.63,-3.01,0.14,-0.21,0.99,0.01
-0.9042969,-4.3925177E-4,6.5110624E-4,8.5358333E-4,-0.22,0.99,0.01,16715,10088.30,0,0,165,0.56,-2.94,0.14,-0.22,0.99,0.01
1.0957031,0.0015607476,6.5110624E-4,8.5358333E-4,-0.21,0.99,0.01,16730,10090.30,0,0,0,0.70,-2.94,0.14,-0.21,0.99,0.01
2.0957031,-4.3925177E-4,6.5110624E-4,-0.003146417,-0.21,0.99,0.01,16744,10091.30,0,0,165,0.56,-2.94,-0.14,-0.21,0.99,0.01
1.0957031,-0.0034392523,-3.488958E-4,-1.4641671E-4,-0.21,0.99,0.01,16752,10090.30,0,0,0,0.35,-3.01,0.07,-0.21,0.99,0.01
2.0957031,-4.3925177E-4,6.5110624E-4,-1.4641671E-4,-0.21,0.99,0.01,16767,10091.30,0,0,165,0.56,-2.94,0.07,-0.21,0.99,0.01
1.0957031,-0.0014392519,-3.488958E-4,-1.4641671E-4,-0.21,0.99,0.01,16782,10090.30,0,0,0,0.49,-3.01,0.07,-0.21,0.99,0.01
1.0957031,0.0015607476,6.5110624E-4,-1.4641671E-4,-0.22,0.99,0.01,16789,10090.30,0,0,165,0.70,-2.94,0.07,-0.22,0.99,0.01
0.095703125,-4.3925177E-4,6.5110624E-4,0.001853583,-0.21,0.99,0.01,16804,10089.30,0,0,0,0.56,-2.94,0.21,-0.21,0.99,0.01
1.0957031,-4.3925177E-4,-3.488958E-4,-1.4641671E-4,-0.21,0.99,0.01,16819,10090.30,0,0,165,0.56,-3.01,0.07,-0.21,0.99,0.01
1.0957031,-4.3925177E-4,-3.488958E-4,-1.4641671E-4,-0.21,0.99,0.01,16827,10090.30,0,0,0,0.56,-3.01,0.07,-0.21,0.99,0.01
1.0957031,-0.0014392519,6.5110624E-4,-0.0021464168,-0.21,0.99,0.01,16850,10090.30,0,0,165,0.49,-2.94,-0.07,-0.21,0.99,0.01
1.0957031,5.6074746E-4,-0.0013488941,-0.0021464168,-0.21,0.99,0.01,16857,10090.30,0,0,0,0.63,-3.08,-0.07,-0.21,0.99,0.01
1.0957031,-4.3925177E-4,6.5110624E-4,0.001853583,-0.22,0.99,0.01,16864,10090.30,0,0,165,0.56,-2.94,0.21,-0.22,0.99,0.01
1.0957031,-0.0014392519,-3.488958E-4,8.5358333E-4,-0.21,0.99,0.01,16887,10090.30,0,0,0,0.49,-3.01,0.14,-0.21,0.99,0.01
1.3955078,-4.3925177E-4,6.5110624E-4,8.5358333E-4,-0.21,0.99,0.01,16894,10090.60,0,0,165,0.56,-2.94,0.14,-0.21,0.99,0.01
0.095703125,-4.3925177E-4,-3.488958E-4,-1.4641671E-4,-0.21,0.99,0.01,16902,10089.30,0,0,0,0.56,-3.01,0.07,-0.21,0.99,0.01
1.0957031,-4.3925177E-4,-3.488958E-4,-1.4641671E-4,-0.21,0.99,0.01,16917,10090.30,0,0,165,0.56,-3.01,0.07,-0.21,0.99,0.01
1.0957031,-4.3925177E-4,6.5110624E-4,8.5358333E-4,-0.21,0.99,0.01,16932,10090.30,0,0,0,0.56,-2.94,0.14,-0.21,0.99,0.01
1.0957031,5.6074746E-4,6.5110624E-4,-1.4641671E-4,-0.21,0.99,0.01,16940,10090.30,0,0,165,0.63,-2.94,0.07,-0.21,0.99,0.01
1.3955078,5.6074746E-4,6.5110624E-4,8.5358333E-4,-0.21,0.99,0.01,16955,10090.60,0,0,0,0.63,-2.94,0.14,-0.21,0.99,0.01
1.3955078,5.6074746E-4,-0.0013488941,-0.0021464168,-0.21,0.99,0.01,16970,10090.60,0,0,165,0.63,-3.08,-0.07,-0.21,0.99,0.01
1.0957031,-4.3925177E-4,-0.0013488941,-1.4641671E-4,-0.21,0.99,0.01,16977,10090.30,0,0,0,0.56,-3.08,0.07,-0.21,0.99,0.01
1.0957031,5.6074746E-4,-3.488958E-4,-0.0011464168,-0.21,0.99,0.01,16992,10090.30,0,0,165,0.63,-3.01,0.00,-0.21,0.99,0.01
1.0957031,0.0015607476,0.0016511083,-1.4641671E-4,-0.21,0.99,0.01,17015,10090.30,0,0,0,0.70,-2.87,0.07,-0.21,0.99,0.01
1.0957031,5.6074746E-4,-3.488958E-4,-1.4641671E-4,-0.21,0.99,0.01,17016,10090.30,0,0,165,0.63,-3.01,0.07,-0.21,0.99,0.01
1.0957031,5.6074746E-4,6.5110624E-4,8.5358333E-4,-0.21,0.99,0.01,17030,10090.30,0,0,0,0.63,-2.94,0.14,-0.21,0.99,0.01
1.0957031,-4.3925177E-4,6.5110624E-4,-1.4641671E-4,-0.22,0.99,0.01,17037,10090.30,0,0,165,0.56,-2.94,0.07,-0.22,0.99,0.01
1.0957031,-0.0024392526,-0.0013488941,-1.4641671E-4,-0.21,0.99,0.01,17052,10090.30,0,0,0,0.42,-3.08,0.07,-0.21,0.99,0.01
2.0957031,0.0015607476,-3.488958E-4,0.001853583,-0.21,0.99,0.01,17067,10091.30,0,0,165,0.70,-3.01,0.21,-0.21,0.99,0.01
1.0957031,-4.3925177E-4,6.5110624E-4,-1.4641671E-4,-0.21,0.99,0.01,17075,10090.30,0,0,0,0.56,-2.94,0.07,-0.21,0.99,0.01
1.0957031,-0.0024392526,-3.488958E-4,-0.0021464168,-0.21,0.99,0.01,17090,10090.30,0,0,165,0.42,-3.01,-0.07,-0.21,0.99,0.01
1.0957031,0.0015607476,-0.0013488941,8.5358333E-4,-0.21,0.99,0.01,17104,10090.30,0,0,0,0.70,-3.08,0.14,-0.21,0.99,0.01
0.095703125,-0.0014392519,-3.488958E-4,-0.0011464168,-0.21,0.99,0.01,17112,10089.30,0,0,165,0.49,-3.01,0.00,-0.21,0.99,0.01
1.0957031,5.6074746E-4,-3.488958E-4,-0.0011464168,-0.21,0.99,0.01,17127,10090.30,0,0,0,0.63,-3.01,0.00,-0.21,0.99,0.01
1.0957031,5.6074746E-4,-3.488958E-4,-0.0011464168,-0.21,0.99,0.01,17142,10090.30,0,0,165,0.63,-3.01,0.00,-0.21,0.99,0.01
1.0957031,5.6074746E-4,-0.0013488941,-0.0011464168,-0.21,0.99,0.01,17150,10090.30,0,0,0,0.63,-3.08,0.00,-0.21,0.99,0.01
0.095703125,-4.3925177E-4,6.5110624E-4,8.5358333E-4,-0.21,0.99,0.01,17165,10089.30,0,0,165,0.56,-2.94,0.14,-0.21,0.99,0.01
1.0957031,-0.0014392519,-3.488958E-4,-1.4641671E-4,-0.21,0.99,0.01,17180,10090.30,0,0,0,0.49,-3.01,0.07,-0.21,0.99,0.01
1.0957031,-4.3925177E-4,-3.488958E-4,8.5358333E-4,-0.21,0.99,0.01,17187,10090.30,0,0,165,0.56,-3.01,0.14,-0.21,0.99,0.01
1.0957031,-0.0024392526,-0.0013488941,-1.4641671E-4,-0.21,0.99,0.01,17202,10090.30,0,0,0,0.42,-3.08,0.07,-0.21,0.99,0.01
1.0957031,-4.3925177E-4,-3.488958E-4,-0.0011464168,-0.21,0.99,0.01,17218,10090.30,0,0,165,0.56,-3.01,0.00,-0.21,0.99,0.01
1.0957031,-4.3925177E-4,6.5110624E-4,-1.4641671E-4,-0.21,0.99,0.01,17225,10090.30,0,0,0,0.56,-2.94,0.07,-0.21,0.99,0.01
2.0957031,-4.3925177E-4,-0.0013488941,-1.4641671E-4,-0.21,0.99,0.01,17239,10091.30,0,0,165,0.56,-3.08,0.07,-0.21,0.99,0.01
0.095703125,5.6074746E-4,-3.488958E-4,8.5358333E-4,-0.21,0.99,0.01,17255,10089.30,0,0,0,0.63,-3.01,0.14,-0.21,0.99,0.01
1.0957031,-4.3925177E-4,-3.488958E-4,-0.0011464168,-0.21,0.99,0.01,17262,10090.30,0,0,165,0.56,-3.01,0.00,-0.21,0.99,0.01
2.0957031,-4.3925177E-4,6.5110624E-4,8.5358333E-4,-0.21,0.99,0.01,17277,10091.30,0,0,0,0.56,-2.94,0.14,-0.21,0.99,0.01
2.3955078,0.0015607476,0.0016511083,8.5358333E-4,-0.22,0.99,0.01,17292,10091.60,0,0,165,0.70,-2.87,0.14,-0.22,0.99,0.01
0.095703125,5.6074746E-4,6.5110624E-4,8.5358333E-4,-0.21,0.99,0.01,17299,10089.30,0,0,0,0.63,-2.94,0.14,-0.21,0.99,0.01
2.3955078,-4.3925177E-4,-3.488958E-4,8.5358333E-4,-0.21,0.99,0.01,17315,10091.60,0,0,165,0.56,-3.01,0.14,-0.21,0.99,0.01
1.0957031,5.6074746E-4,-3.488958E-4,-1.4641671E-4,-0.21,0.99,0.01,17330,10090.30,0,0,0,0.63,-3.01,0.07,-0.21,0.99,0.01
1.0957031,-4.3925177E-4,6.5110624E-4,-1.4641671E-4,-0.21,0.99,0.01,17337,10090.30,0,0,165,0.56,-2.94,0.07,-0.21,0.99,0.01
1.0957031,5.6074746E-4,6.5110624E-4,-1.4641671E-4,-0.22,0.99,0.01,17352,10090.30,0,0,0,0.63,-2.94,0.07,-0.22,0.99,0.01
1.0957031,5.6074746E-4,-3.488958E-4,-0.0011464168,-0.21,0.99,0.01,17367,10090.30,0,0,165,0.63,-3.01,0.00,-0.21,0.99,0.01
1.0957031,-4.3925177E-4,6.5110624E-4,-0.0011464168,-0.21,0.99,0.01,17374,10090.30,0,0,0,0.56,-2.94,0.00,-0.21,0.99,0.01
1.0957031,5.6074746E-4,-3.488958E-4,8.5358333E-4,-0.21,0.99,0.01,17390,10090.30,0,0,165,0.63,-3.01,0.14,-0.21,0.99,0.01
-0.9042969,-0.0014392519,6.5110624E-4,8.5358333E-4,-0.21,0.99,0.01,17404,10088.30,0,0,0,0.49,-2.94,0.14,-0.21,0.99,0.01
1.0957031,-4.3925177E-4,-3.488958E-4,-0.0011464168,-0.21,0.99,0.01,17412,10090.30,0,0,165,0.56,-3.01,0.00,-0.21,0.99,0.01
0.095703125,0.0015607476,6.5110624E-4,0.001853583,-0.21,0.99,0.01,17427,10089.30,0,0,0,0.70,-2.94,0.21,-0.21,0.99,0.01
1.0957031,5.6074746E-4,6.5110624E-4,-1.4641671E-4,-0.21,0.99,0.01,17442,10090.30,0,0,165,0.63,-2.94,0.07,-0.21,0.99,0.01
1.0957031,5.6074746E-4,6.5110624E-4,8.5358333E-4,-0.21,0.99,0.01,17450,10090.30,0,0,0,0.63,-2.94,0.14,-0.21,0.99,0.01
2.0957031,0.0015607476,-3.488958E-4,8.5358333E-4,-0.21,0.99,0.01,17466,10091.30,0,0,165,0.70,-3.01,0.14,-0.21,0.99,0.01
-0.9042969,-0.0024392526,-0.0013488941,-0.003146417,-0.21,0.99,0.01,17479,10088.30,0,0,0,0.42,-3.08,-0.14,-0.21,0.99,0.01
2.0957031,0.0015607476,-0.0013488941,-0.0021464168,-0.21,0.99,0.01,17487,10091.30,0,0,165,0.70,-3.08,-0.07,-0.21,0.99,0.01
2.0957031,-4.3925177E-4,-3.488958E-4,-0.0011464168,-0.21,0.99,0.01,17502,10091.30,0,0,0,0.56,-3.01,0.00,-0.21,0.99,0.01
1.3955078,5.6074746E-4,6.5110624E-4,-1.4641671E-4,-0.22,0.99,0.01,17524,10090.60,0,0,165,0.63,-2.94,0.07,-0.22,0.99,0.01
1.0957031,0.0025607478,-3.488958E-4,-1.4641671E-4,-0.21,0.99,0.01,17525,10090.30,0,0,0,0.77,-3.01,0.07,-0.21,0.99,0.01
1.0957031,-0.0054392526,0.0016511083,-0.0021464168,-0.21,0.99,0.01,17539,10090.30,0,0,165,0.21,-2.87,-0.07,-0.21,0.99,0.01
1.0957031,0.0075607486,0.0016511083,0.004853583,-0.21,0.99,0.01,17554,10090.30,0,0,0,1.12,-2.87,0.42,-0.21,0.99,0.01
1.0957031,-4.3925177E-4,-3.488958E-4,-0.0011464168,-0.21,0.99,0.01,17562,10090.30,0,0,165,0.56,-3.01,0.00,-0.21,0.99,0.01
1.0957031,-0.004439252,-3.488958E-4,-0.003146417,-0.21,0.98,0.01,17577,10090.30,0,0,0,0.28,-3.01,-0.14,-0.21,0.98,0.01
1.3955078,0.0065607475,-3.488958E-4,0.0028535835,-0.21,0.99,0.01,17592,10090.60,0,0,165,1.05,-3.01,0.28,-0.21,0.99,0.01
1.0957031,-0.0054392526,-0.0013488941,-0.0041464167,-0.22,0.99,0.01,17599,10090.30,0,0,0,0.21,-3.08,-0.21,-0.22,0.99,0.01
2.0957031,-4.3925177E-4,6.5110624E-4,0.001853583,-0.21,0.99,0.01,17615,10091.30,0,0,165,0.56,-2.94,0.21,-0.21,0.99,0.01
2.0957031,0.0025607478,-0.0013488941,0.001853583,-0.21,0.99,0.01,17630,10091.30,0,0,0,0.77,-3.08,0.21,-0.21,0.99,0.01
1.0957031,-0.004439252,-3.488958E-4,-0.005146417,-0.22,0.98,0.01,17637,10090.30,0,0,165,0.28,-3.01,-0.28,-0.22,0.98,0.01
1.0957031,0.008560749,0.0016511083,0.0038535832,-0.21,0.99,0.01,17652,10090.30,0,0,0,1.19,-2.87,0.35,-0.21,0.99,0.01
1.0957031,0.0015607476,-3.488958E-4,-0.0021464168,-0.21,0.99,0.01,17667,10090.30,0,0,165,0.70,-3.01,-0.07,-0.21,0.99,0.01
1.0957031,-0.0024392526,6.5110624E-4,-0.0021464168,-0.21,0.99,0.01,17674,10090.30,0,0,0,0.42,-2.94,-0.07,-0.21,0.99,0.01
1.3955078,0.0015607476,-0.0013488941,8.5358333E-4,-0.21,0.99,0.01,17689,10090.60,0,0,165,0.70,-3.08,0.14,-0.21,0.99,0.01
1.0957031,-4.3925177E-4,6.5110624E-4,-0.0011464168,-0.21,0.99,0.01,17705,10090.30,0,0,0,0.56,-2.94,0.00,-0.21,0.99,0.01
1.0957031,-0.0014392519,6.5110624E-4,8.5358333E-4,-0.21,0.99,0.01,17712,10090.30,0,0,165,0.49,-2.94,0.14,-0.21,0.99,0.01
1.0957031,0.0015607476,-3.488958E-4,-1.4641671E-4,-0.21,0.99,0.01,17727,10090.30,0,0,0,0.70,-3.01,0.07,-0.21,0.99,0.01
0.095703125,-0.0014392519,-3.488958E-4,-0.0011464168,-0.21,0.99,0.01,17742,10089.30,0,0,165,0.49,-3.01,0.00,-0.21,0.99,0.01
1.0957031,0.0015607476,6.5110624E-4,-0.0011464168,-0.22,0.99,0.01,17750,10090.30,0,0,0,0.70,-2.94,0.00,-0.22,0.99,0.01
1.0957031,5.6074746E-4,0.0016511083,-1.4641671E-4,-0.21,0.99,0.01,17765,10090.30,0,0,165,0.63,-2.87,0.07,-0.21,0.99,0.01
0.095703125,-0.0014392519,6.5110624E-4,-1.4641671E-4,-0.22,0.99,0.01,17779,10089.30,0,0,0,0.49,-2.94,0.07,-0.22,0.99,0.01
0.095703125,0.0015607476,0.0016511083,8.5358333E-4,-0.22,0.99,0.01,17787,10089.30,0,0,165,0.70,-2.87,0.14,-0.22,0.99,0.01
1.0957031,-4.3925177E-4,6.5110624E-4,-0.0011464168,-0.21,0.99,0.01,17802,10090.30,0,0,0,0.56,-2.94,0.00,-0.21,0.99,0.01
0.095703125,0.0015607476,-3.488958E-4,8.5358333E-4,-0.21,0.99,0.01,17817,10089.30,0,0,165,0.70,-3.01,0.14,-0.21,0.99,0.01
1.0957031,-4.3925177E-4,-0.0013488941,-1.4641671E-4,-0.21,0.99,0.01,17825,10090.30,0,0,0,0.56,-3.08,0.07,-0.21,0.99,0.01
1.0957031,-0.0014392519,-3.488958E-4,-0.0021464168,-0.21,0.99,0.01,17839,10090.30,0,0,165,0.49,-3.01,-0.07,-0.21,0.99,0.01
1.3955078,0.0015607476,-3.488958E-4,-0.0011464168,-0.21,0.99,0.01,17854,10090.60,0,0,0,0.70,-3.01,0.00,-0.21,0.99,0.01
2.0957031,-0.0014392519,6.5110624E-4,-0.0021464168,-0.21,0.99,0.01,17862,10091.30,0,0,165,0.49,-2.94,-0.07,-0.21,0.99,0.01
2.0957031,5.6074746E-4,-3.488958E-4,8.5358333E-4,-0.21,0.99,0.01,17877,10091.30,0,0,0,0.63,-3.01,0.14,-0.21,0.99,0.01
2.0957031,5.6074746E-4,0.0016511083,8.5358333E-4,-0.21,0.99,0.01,17885,10091.30,0,0,165,0.63,-2.87,0.14,-0.21,0.99,0.01
1.0957031,-0.0014392519,-0.0013488941,-1.4641671E-4,-0.21,0.99,0.01,17900,10090.30,0,0,0,0.49,-3.08,0.07,-0.21,0.99,0.01
1.0957031,0.0015607476,6.5110624E-4,8.5358333E-4,-0.21,0.99,0.01,17914,10090.30,0,0,165,0.70,-2.94,0.14,-0.21,0.99,0.01
1.0957031,-4.3925177E-4,6.5110624E-4,-1.4641671E-4,-0.21,0.99,0.01,17921,10090.30,0,0,0,0.56,-2.94,0.07,-0.21,0.99,0.01
1.3955078,-0.0014392519,6.5110624E-4,-1.4641671E-4,-0.22,0.99,0.01,17937,10090.60,0,0,165,0.49,-2.94,0.07,-0.22,0.99,0.01
2.0957031,5.6074746E-4,6.5110624E-4,8.5358333E-4,-0.21,0.99,0.01,17952,10091.30,0,0,0,0.63,-2.94,0.14,-0.21,0.99,0.01
1.0957031,0.0015607476,-0.0013488941,-1.4641671E-4,-0.22,0.99,0.01,17959,10090.30,0,0,165,0.70,-3.08,0.07,-0.22,0.99,0.01
1.0957031,-4.3925177E-4,-3.488958E-4,-0.0011464168,-0.21,0.99,0.01,17974,10090.30,0,0,0,0.56,-3.01,0.00,-0.21,0.99,0.01
1.0957031,-4.3925177E-4,-3.488958E-4,-0.0011464168,-0.21,0.99,0.01,17990,10090.30,0,0,165,0.56,-3.01,0.00,-0.21,0.99,0.01
1.0957031,-4.3925177E-4,-3.488958E-4,-0.0011464168,-0.21,0.99,0.01,17997,10090.30,0,0,0,0.56,-3.01,0.00,-0.21,0.99,0.01
1.0957031,-4.3925177E-4,-3.488958E-4,-1.4641671E-4,-0.21,0.99,0.01,18012,10090.30,0,0,165,0.56,-3.01,0.07,-0.21,0.99,0.01
1.0957031,5.6074746E-4,6.5110624E-4,-0.0011464168,-0.21,0.99,0.01,18027,10090.30,0,0,0,0.63,-2.94,0.00,-0.21,0.99,0.01
1.0957031,-4.3925177E-4,6.5110624E-4,-1.4641671E-4,-0.21,0.99,0.01,18035,10090.30,0,0,165,0.56,-2.94,0.07,-0.21,0.99,0.01
1.3955078,5.6074746E-4,-3.488958E-4,8.5358333E-4,-0.21,0.99,0.01,18050,10090.60,0,0,0,0.63,-3.01,0.14,-0.21,0.99,0.01
1.0957031,0.0025607478,6.5110624E-4,-1.4641671E-4,-0.21,0.99,0.01,18065,10090.30,0,0,165,0.77,-2.94,0.07,-0.21,0.99,0.01
0.095703125,-4.3925177E-4,6.5110624E-4,-0.0011464168,-0.21,0.99,0.01,18072,10089.30,0,0,0,0.56,-2.94,0.00,-0.21,0.99,0.01
2.0957031,0.0015607476,-3.488958E-4,-1.4641671E-4,-0.21,0.99,0.01,18087,10091.30,0,0,165,0.70,-3.01,0.07,-0.21,0.99,0.01
0.095703125,-0.0014392519,-3.488958E-4,-0.0011464168,-0.21,0.99,0.01,18109,10089.30,0,0,0,0.49,-3.01,0.00,-0.21,0.99,0.01
1.0957031,-4.3925177E-4,-3.488958E-4,-1.4641671E-4,-0.21,0.99,0.01,18111,10090.30,0,0,165,0.56,-3.01,0.07,-0.21,0.99,0.01
2.3955078,5.6074746E-4,6.5110624E-4,8.5358333E-4,-0.21,0.99,0.01,18124,10091.60,0,0,0,0.63,-2.94,0.14,-0.21,0.99,0.01
1.0957031,-4.3925177E-4,6.5110624E-4,-1.4641671E-4,-0.21,0.99,0.01,18140,10090.30,0,0,165,0.56,-2.94,0.07,-0.21,0.99,0.01
2.0957031,5.6074746E-4,6.5110624E-4,8.5358333E-4,-0.21,0.99,0.01,18147,10091.30,0,0,0,0.63,-2.94,0.14,-0.21,0.99,0.01
1.0957031,-4.3925177E-4,6.5110624E-4,8.5358333E-4,-0.21,0.99,0.01,18162,10090.30,0,0,165,0.56,-2.94,0.14,-0.21,0.99,0.01
1.0957031,0.0025607478,6.5110624E-4,-1.4641671E-4,-0.21,0.99,0.01,18169,10090.30,0,0,0,0.77,-2.94,0.07,-0.21,0.99,0.01
1.0957031,0.0015607476,-0.0013488941,8.5358333E-4,-0.21,0.99,0.01,18185,10090.30,0,0,165,0.70,-3.08,0.14,-0.21,0.99,0.01
2.0957031,-0.0024392526,6.5110624E-4,-1.4641671E-4,-0.21,0.99,0.01,18199,10091.30,0,0,0,0.42,-2.94,0.07,-0.21,0.99,0.01
1.0957031,5.6074746E-4,-0.0013488941,0.001853583,-0.21,0.99,0.01,18207,10090.30,0,0,165,0.63,-3.08,0.21,-0.21,0.99,0.01
1.0957031,-4.3925177E-4,6.5110624E-4,-1.4641671E-4,-0.21,0.99,0.01,18222,10090.30,0,0,0,0.56,-2.94,0.07,-0.21,0.99,0.01
1.0957031,-0.0024392526,6.5110624E-4,-0.003146417,-0.21,0.99,0.01,18237,10090.30,0,0,165,0.42,-2.94,-0.14,-0.21,0.99,0.01
1.0957031,0.0015607476,-3.488958E-4,0.001853583,-0.21,0.99,0.01,18244,10090.30,0,0,0,0.70,-3.01,0.21,-0.21,0.99,0.01
2.0957031,-0.0014392519,-3.488958E-4,-0.003146417,-0.21,0.99,0.01,18259,10091.30,0,0,165,0.49,-3.01,-0.14,-0.21,0.99,0.01
1.0957031,-0.0014392519,6.5110624E-4,-0.0011464168,-0.21,0.99,0.01,18274,10090.30,0,0,0,0.49,-2.94,0.00,-0.21,0.99,0.01
1.3955078,0.004560748,6.5110624E-4,0.0038535832,-0.21,0.99,0.01,18283,10090.60,0,0,165,0.91,-2.94,0.35,-0.21,0.99,0.01
1.0957031,-0.0034392523,6.5110624E-4,-0.003146417,-0.21,0.99,0.01,18297,10090.30,0,0,0,0.35,-2.94,-0.14,-0.21,0.99,0.01
1.0957031,-0.0024392526,6.5110624E-4,0.001853583,-0.21,0.99,0.01,18304,10090.30,0,0,165,0.42,-2.94,0.21,-0.21,0.99,0.01
2.0957031,0.003560747,6.5110624E-4,8.5358333E-4,-0.21,0.99,0.01,18319,10091.30,0,0,0,0.84,-2.94,0.14,-0.21,0.99,0.01
1.0957031,-0.0014392519,-3.488958E-4,-0.0021464168,-0.21,0.99,0.01,18334,10090.30,0,0,165,0.49,-3.01,-0.07,-0.21,0.99,0.01
2.0957031,0.0025607478,-0.0013488941,0.0028535835,-0.21,0.99,0.01,18342,10091.30,0,0,0,0.77,-3.08,0.28,-0.21,0.99,0.01
2.0957031,-4.3925177E-4,-3.488958E-4,0.2538536,-0.21,0.99,0.01,18357,10091.30,0,0,165,0.56,-3.01,17.85,-0.21,0.99,0.01
2.0957031,-0.0014392519,6.5110624E-4,-1.4641671E-4,-0.21,0.99,0.01,18372,10091.30,0,0,0,0.49,-2.94,0.07,-0.21,0.99,0.01
1.0957031,0.0055607483,-3.488958E-4,0.001853583,-0.22,0.99,0.01,18379,10090.30,0,0,165,0.98,-3.01,0.21,-0.22,0.99,0.01
0.095703125,-0.0034392523,-3.488958E-4,-0.0011464168,-0.21,0.99,0.01,18394,10089.30,0,0,0,0.35,-3.01,0.00,-0.21,0.99,0.01
1.3955078,5.6074746E-4,6.5110624E-4,-1.4641671E-4,-0.21,0.99,0.01,18409,10090.60,0,0,165,0.63,-2.94,0.07,-0.21,0.99,0.01
0.095703125,0.0015607476,0.0016511083,-1.4641671E-4,-0.21,0.99,0.01,18417,10089.30,0,0,0,0.70,-2.87,0.07,-0.21,0.99,0.01
1.0957031,-0.0014392519,6.5110624E-4,-0.0011464168,-0.21,0.99,0.01,18432,10090.30,0,0,165,0.49,-2.94,0.00,-0.21,0.99,0.01
2.0957031,0.0015607476,0.0016511083,0.0028535835,-0.21,0.99,0.01,18446,10091.30,0,0,0,0.70,-2.87,0.28,-0.21,0.99,0.01
1.0957031,-4.3925177E-4,6.5110624E-4,-0.0011464168,-0.21,0.99,0.01,18454,10090.30,0,0,165,0.56,-2.94,0.00,-0.21,0.99,0.01
2.0957031,-0.0024392526,-3.488958E-4,8.5358333E-4,-0.21,0.99,0.01,18477,10091.30,0,0,0,0.42,-3.01,0.14,-0.21,0.99,0.01
2.0957031,0.0015607476,-3.488958E-4,8.5358333E-4,-0.21,0.99,0.01,18485,10091.30,0,0,165,0.70,-3.01,0.14,-0.21,0.99,0.01
1.0957031,-4.3925177E-4,6.5110624E-4,-1.4641671E-4,-0.21,0.99,0.01,18492,10090.30,0,0,0,0.56,-2.94,0.07,-0.21,0.99,0.01
0.79589844,-4.3925177E-4,6.5110624E-4,-1.4641671E-4,-0.21,0.99,0.01,18507,10090.00,0,0,165,0.56,-2.94,0.07,-0.21,0.99,0.01
1.0957031,0.0015607476,-3.488958E-4,-1.4641671E-4,-0.21,0.99,0.01,18522,10090.30,0,0,0,0.70,-3.01,0.07,-0.21,0.99,0.01
1.0957031,-0.0014392519,-3.488958E-4,-0.0021464168,-0.21,0.99,0.01,18537,10090.30,0,0,165,0.49,-3.01,-0.07,-0.21,0.99,0.01
2.3955078,-4.3925177E-4,6.5110624E-4,8.5358333E-4,-0.21,0.99,0.01,18545,10091.60,0,0,0,0.56,-2.94,0.14,-0.21,0.99,0.01
1.0957031,0.0015607476,6.5110624E-4,8.5358333E-4,-0.21,0.99,0.01,18559,10090.30,0,0,165,0.70,-2.94,0.14,-0.21,0.99,0.01
1.0957031,-0.0024392526,-3.488958E-4,-0.0011464168,-0.21,0.99,0.01,18567,10090.30,0,0,0,0.42,-3.01,0.00,-0.21,0.99,0.01
1.6962891,5.6074746E-4,-3.488958E-4,0.001853583,-0.21,0.99,0.01,18582,10090.90,0,0,165,0.63,-3.01,0.21,-0.21,0.99,0.01
2.0957031,-4.3925177E-4,-3.488958E-4,-1.4641671E-4,-0.21,0.99,0.01,18597,10091.30,0,0,0,0.56,-3.01,0.07,-0.21,0.99,0.01
0.095703125,-4.3925177E-4,6.5110624E-4,-1.4641671E-4,-0.21,0.99,0.01,18604,10089.30,0,0,165,0.56,-2.94,0.07,-0.21,0.99,0.01
2.0957031,0.0015607476,-3.488958E-4,-1.4641671E-4,-0.21,0.99,0.01,18619,10091.30,0,0,0,0.70,-3.01,0.07,-0.21,0.99,0.01
1.0957031,-4.3925177E-4,6.5110624E-4,-0.0021464168,-0.21,0.99,0.01,18634,10090.30,0,0,165,0.56,-2.94,-0.07,-0.21,0.99,0.01
1.0957031,5.6074746E-4,6.5110624E-4,-1.4641671E-4,-0.21,0.99,0.01,18641,10090.30,0,0,0,0.63,-2.94,0.07,-0.21,0.99,0.01
2.0957031,0.0015607476,6.5110624E-4,0.001853583,-0.21,0.99,0.01,18657,10091.30,0,0,165,0.70,-2.94,0.21,-0.21,0.99,0.01
1.0957031,-0.0014392519,6.5110624E-4,-0.0011464168,-0.21,0.99,0.01,18671,10090.30,0,0,0,0.49,-2.94,0.00,-0.21,0.99,0.01
1.0957031,-4.3925177E-4,6.5110624E-4,8.5358333E-4,-0.21,0.99,0.01,18680,10090.30,0,0,165,0.56,-2.94,0.14,-0.21,0.99,0.01
1.3955078,5.6074746E-4,6.5110624E-4,-0.0011464168,-0.21,0.99,0.01,18694,10090.60,0,0,0,0.63,-2.94,0.00,-0.21,0.99,0.01
2.0957031,-0.0024392526,6.5110624E-4,8.5358333E-4,-0.21,0.99,0.01,18702,10091.30,0,0,165,0.42,-2.94,0.14,-0.21,0.99,0.01
1.0957031,-4.3925177E-4,0.0016511083,8.5358333E-4,-0.21,0.99,0.01,18717,10090.30,0,0,0,0.56,-2.87,0.14,-0.21,0.99,0.01
1.3955078,-0.0024392526,-0.0013488941,-0.0011464168,-0.21,0.99,0.01,18740,10090.60,0,0,165,0.42,-3.08,0.00,-0.21,0.99,0.01
1.0957031,0.0015607476,-3.488958E-4,-1.4641671E-4,-0.21,0.99,0.01,18741,10090.30,0,0,0,0.70,-3.01,0.07,-0.21,0.99,0.01
2.0957031,-4.3925177E-4,-3.488958E-4,-0.0011464168,-0.21,0.99,0.01,18755,10091.30,0,0,165,0.56,-3.01,0.00,-0.21,0.99,0.01
1.0957031,-0.0024392526,-3.488958E-4,-0.0011464168,-0.21,0.99,0.01,18770,10090.30,0,0,0,0.42,-3.01,0.00,-0.21,0.99,0.01
1.0957031,-4.3925177E-4,6.5110624E-4,0.001853583,-0.21,0.99,0.01,18777,10090.30,0,0,165,0.56,-2.94,0.21,-0.21,0.99,0.01
1.0957031,-4.3925177E-4,6.5110624E-4,-1.4641671E-4,-0.21,0.99,0.01,18792,10090.30,0,0,0,0.56,-2.94,0.07,-0.21,0.99,0.01
2.0957031,5.6074746E-4,-3.488958E-4,8.5358333E-4,-0.21,0.99,0.01,18807,10091.30,0,0,165,0.63,-3.01,0.14,-0.21,0.99,0.01
1.0957031,-4.3925177E-4,-3.488958E-4,0.001853583,-0.21,0.99,0.01,18815,10090.30,0,0,0,0.56,-3.01,0.21,-0.21,0.99,0.01
2.3955078,-0.0014392519,-0.0013488941,-1.4641671E-4,-0.21,0.99,0.01,18830,10091.60,0,0,165,0.49,-3.08,0.07,-0.21,0.99,0.01
1.0957031,-4.3925177E-4,-0.0013488941,-1.4641671E-4,-0.21,0.99,0.01,18844,10090.30,0,0,0,0.56,-3.08,0.07,-0.21,0.99,0.01
2.0957031,0.0015607476,-3.488958E-4,8.5358333E-4,-0.21,0.99,0.01,18852,10091.30,0,0,165,0.70,-3.01,0.14,-0.21,0.99,0.01
2.0957031,-0.0014392519,6.5110624E-4,-0.0011464168,-0.22,0.99,0.01,18867,10091.30,0,0,0,0.49,-2.94,0.00,-0.22,0.99,0.01
1.0957031,-0.0014392519,6.5110624E-4,-1.4641671E-4,-0.21,0.99,0.01,18882,10090.30,0,0,165,0.49,-2.94,0.07,-0.21,0.99,0.01
1.0957031,5.6074746E-4,6.5110624E-4,8.5358333E-4,-0.21,0.99,0.01,18889,10090.30,0,0,0,0.63,-2.94,0.14,-0.21,0.99,0.01
2.0957031,5.6074746E-4,0.0016511083,-0.0011464168,-0.21,0.99,0.01,18904,10091.30,0,0,165,0.63,-2.87,0.00,-0.21,0.99,0.01
1.0957031,5.6074746E-4,6.5110624E-4,-1.4641671E-4,-0.21,0.99,0.01,18919,10090.30,0,0,0,0.63,-2.94,0.07,-0.21,0.99,0.01
1.0957031,0.0015607476,6.5110624E-4,-1.4641671E-4,-0.22,0.99,0.01,18927,10090.30,0,0,165,0.70,-2.94,0.07,-0.22,0.99,0.01
1.0957031,0.0015607476,6.5110624E-4,8.5358333E-4,-0.21,0.99,0.01,18942,10090.30,0,0,0,0.70,-2.94,0.14,-0.21,0.99,0.01
1.0957031,0.0015607476,-3.488958E-4,-0.0011464168,-0.21,0.99,0.01,18957,10090.30,0,0,165,0.70,-3.01,0.00,-0.21,0.99,0.01
1.0957031,0.0015607476,-3.488958E-4,8.5358333E-4,-0.21,0.99,0.01,18965,10090.30,0,0,0,0.70,-3.01,0.14,-0.21,0.99,0.01
2.0957031,5.6074746E-4,-3.488958E-4,-0.0021464168,-0.21,0.99,0.01,18980,10091.30,0,0,165,0.63,-3.01,-0.07,-0.21,0.99,0.01
2.0957031,-4.3925177E-4,-3.488958E-4,-0.0011464168,-0.22,0.99,0.01,18994,10091.30,0,0,0,0.56,-3.01,0.00,-0.22,0.99,0.01
2.0957031,0.0015607476,-0.0013488941,-1.4641671E-4,-0.21,0.99,0.01,19002,10091.30,0,0,165,0.70,-3.08,0.07,-0.21,0.99,0.01
1.0957031,-4.3925177E-4,-3.488958E-4,0.001853583,-0.21,0.99,0.01,19017,10090.30,0,0,0,0.56,-3.01,0.21,-0.21,0.99,0.01
2.0957031,-0.0014392519,-3.488958E-4,-1.4641671E-4,-0.21,0.99,0.01,19032,10091.30,0,0,165,0.49,-3.01,0.07,-0.21,0.99,0.01
1.0957031,-0.0014392519,-3.488958E-4,-0.0011464168,-0.21,0.99,0.01,19039,10090.30,0,0,0,0.49,-3.01,0.00,-0.21,0.99,0.01
1.0957031,5.6074746E-4,6.5110624E-4,-0.0011464168,-0.21,0.99,0.01,19054,10090.30,0,0,165,0.63,-2.94,0.00,-0.21,0.99,0.01
1.3955078,0.0025607478,-3.488958E-4,0.001853583,-0.21,0.99,0.01,19069,10090.60,0,0,0,0.77,-3.01,0.21,-0.21,0.99,0.01
1.0957031,-0.0014392519,-0.0013488941,-0.0011464168,-0.21,0.99,0.01,19076,10090.30,0,0,165,0.49,-3.08,0.00,-0.21,0.99,0.01
1.0957031,-0.0014392519,6.5110624E-4,0.001853583,-0.21,0.99,0.01,19092,10090.30,0,0,0,0.49,-2.94,0.21,-0.21,0.99,0.01
2.0957031,0.0015607476,-3.488958E-4,-0.0011464168,-0.21,0.99,0.01,19107,10091.30,0,0,165,0.70,-3.01,0.00,-0.21,0.99,0.01
2.0957031,-4.3925177E-4,-3.488958E-4,-0.0021464168,-0.21,0.99,0.01,19115,10091.30,0,0,0,0.56,-3.01,-0.07,-0.21,0.99,0.01
1.0957031,5.6074746E-4,6.5110624E-4,0.001853583,-0.21,0.99,0.01,19130,10090.30,0,0,165,0.63,-2.94,0.21,-0.21,0.99,0.01
0.095703125,-4.3925177E-4,-3.488958E-4,-1.4641671E-4,-0.21,0.99,0.01,19144,10089.30,0,0,0,0.56,-3.01,0.07,-0.21,0.99,0.01
-0.20410156,-0.0024392526,-3.488958E-4,-0.0011464168,-0.21,0.99,0.01,19152,10089.00,0,0,165,0.42,-3.01,0.00,-0.21,0.99,0.01
2.0957031,5.6074746E-4,6.5110624E-4,0.001853583,-0.21,0.99,0.01,19167,10091.30,0,0,0,0.63,-2.94,0.21,-0.21,0.99,0.01
2.0957031,-4.3925177E-4,6.5110624E-4,8.5358333E-4,-0.21,0.99,0.01,19183,10091.30,0,0,165,0.56,-2.94,0.14,-0.21,0.99,0.01
1.0957031,5.6074746E-4,6.5110624E-4,-1.4641671E-4,-0.21,0.99,0.01,19190,10090.30,0,0,0,0.63,-2.94,0.07,-0.21,0.99,0.01
1.0957031,-4.3925177E-4,-3.488958E-4,8.5358333E-4,-0.21,0.99,0.01,19212,10090.30,0,0,165,0.56,-3.01,0.14,-0.21,0.99,0.01
2.0957031,-4.3925177E-4,-3.488958E-4,-1.4641671E-4,-0.21,0.99,0.01,19219,10091.30,0,0,0,0.56,-3.01,0.07,-0.21,0.99,0.01
1.0957031,-4.3925177E-4,6.5110624E-4,8.5358333E-4,-0.21,0.99,0.01,19227,10090.30,0,0,165,0.56,-2.94,0.14,-0.21,0.99,0.01
2.0957031,5.6074746E-4,6.5110624E-4,-1.4641671E-4,-0.21,0.99,0.01,19242,10091.30,0,0,0,0.63,-2.94,0.07,-0.21,0.99,0.01
1.0957031,5.6074746E-4,-3.488958E-4,8.5358333E-4,-0.21,0.99,0.01,19257,10090.30,0,0,165,0.63,-3.01,0.14,-0.21,0.99,0.01
1.6962891,-4.3925177E-4,-3.488958E-4,8.5358333E-4,-0.21,0.99,0.01,19265,10090.90,0,0,0,0.56,-3.01,0.14,-0.21,0.99,0.01
2.0957031,-4.3925177E-4,6.5110624E-4,-0.0021464168,-0.21,0.99,0.01,19280,10091.30,0,0,165,0.56,-2.94,-0.07,-0.21,0.99,0.01
1.0957031,-4.3925177E-4,6.5110624E-4,-1.4641671E-4,-0.21,0.99,0.01,19294,10090.30,0,0,0,0.56,-2.94,0.07,-0.21,0.99,0.01
1.0957031,0.0025607478,-3.488958E-4,-1.4641671E-4,-0.21,0.99,0.01,19301,10090.30,0,0,165,0.77,-3.01,0.07,-0.21,0.99,0.01
1.0957031,5.6074746E-4,-3.488958E-4,0.001853583,-0.22,0.99,0.01,19317,10090.30,0,0,0,0.63,-3.01,0.21,-0.22,0.99,0.01
2.3955078,-4.3925177E-4,-3.488958E-4,-1.4641671E-4,-0.21,0.99,0.01,19332,10091.60,0,0,165,0.56,-3.01,0.07,-0.21,0.99,0.01
1.0957031,5.6074746E-4,6.5110624E-4,8.5358333E-4,-0.21,0.99,0.01,19340,10090.30,0,0,0,0.63,-2.94,0.14,-0.21,0.99,0.01
1.0957031,0.0025607478,-3.488958E-4,-0.0011464168,-0.21,0.99,0.01,19354,10090.30,0,0,165,0.77,-3.01,0.00,-0.21,0.99,0.01
2.0957031,-0.004439252,-3.488958E-4,-1.4641671E-4,-0.21,0.99,0.01,19370,10091.30,0,0,0,0.28,-3.01,0.07,-0.21,0.99,0.01
1.0957031,0.0015607476,6.5110624E-4,0.0028535835,-0.21,0.99,0.01,19377,10090.30,0,0,165,0.70,-2.94,0.28,-0.21,0.99,0.01
1.0957031,-0.0014392519,6.5110624E-4,-0.0011464168,-0.21,0.99,0.01,19392,10090.30,0,0,0,0.49,-2.94,0.00,-0.21,0.99,0.01
2.0957031,-0.0024392526,-3.488958E-4,-1.4641671E-4,-0.21,0.99,0.01,19407,10091.30,0,0,165,0.42,-3.01,0.07,-0.21,0.99,0.01
1.0957031,0.004560748,-3.488958E-4,8.5358333E-4,-0.21,0.99,0.01,19415,10090.30,0,0,0,0.91,-3.01,0.14,-0.21,0.99,0.01
1.0957031,-0.0034392523,-3.488958E-4,-0.0011464168,-0.21,0.99,0.01,19430,10090.30,0,0,165,0.35,-3.01,0.00,-0.21,0.99,0.01
-0.9042969,5.6074746E-4,-0.0013488941,-1.4641671E-4,-0.21,0.99,0.01,19444,10088.30,0,0,0,0.63,-3.08,0.07,-0.21,0.99,0.01
1.0957031,0.003560747,6.5110624E-4,8.5358333E-4,-0.21,0.99,0.01,19452,10090.30,0,0,165,0.84,-2.94,0.14,-0.21,0.99,0.01
2.0957031,-0.0014392519,-3.488958E-4,-0.0021464168,-0.21,0.99,0.01,19466,10091.30,0,0,0,0.49,-3.01,-0.07,-0.21,0.99,0.01
0.095703125,0.0015607476,6.5110624E-4,-1.4641671E-4,-0.22,0.99,0.01,19483,10089.30,0,0,165,0.70,-2.94,0.07,-0.22,0.99,0.01
1.0957031,-4.3925177E-4,6.5110624E-4,-0.0011464168,-0.21,0.99,0.01,19489,10090.30,0,0,0,0.56,-2.94,0.00,-0.21,0.99,0.01
1.0957031,-0.0014392519,-3.488958E-4,-0.0011464168,-0.21,0.99,0.01,19504,10090.30,0,0,165,0.49,-3.01,0.00,-0.21,0.99,0.01
0.79589844,5.6074746E-4,6.5110624E-4,0.001853583,-0.21,0.99,0.01,19519,10090.00,0,0,0,0.63,-2.94,0.21,-0.21,0.99,0.01
2.0957031,0.0015607476,-3.488958E-4,-0.0011464168,-0.21,0.99,0.01,19527,10091.30,0,0,165,0.70,-3.01,0.00,-0.21,0.99,0.01
1.0957031,-0.0014392519,0.0016511083,8.5358333E-4,-0.21,0.99,0.01,19542,10090.30,0,0,0,0.49,-2.87,0.14,-0.21,0.99,0.01
2.0957031,-4.3925177E-4,6.5110624E-4,8.5358333E-4,-0.21,0.99,0.01,19556,10091.30,0,0,165,0.56,-2.94,0.14,-0.21,0.99,0.01
1.0957031,-4.3925177E-4,-3.488958E-4,-0.0011464168,-0.21,0.99,0.01,19564,10090.30,0,0,0,0.56,-3.01,0.00,-0.21,0.99,0.01
2.0957031,5.6074746E-4,6.5110624E-4,-1.4641671E-4,-0.21,0.99,0.01,19580,10091.30,0,0,165,0.63,-2.94,0.07,-0.21,0.99,0.01
1.0957031,5.6074746E-4,6.5110624E-4,-1.4641671E-4,-0.21,0.99,0.01,19594,10090.30,0,0,0,0.63,-2.94,0.07,-0.21,0.99,0.01
1.0957031,-0.0024392526,-0.0013488941,-0.003146417,-0.21,0.99,0.01,19602,10090.30,0,0,165,0.42,-3.08,-0.14,-0.21,0.99,0.01
1.0957031,0.0015607476,6.5110624E-4,0.001853583,-0.21,0.99,0.01,19617,10090.30,0,0,0,0.70,-2.94,0.21,-0.21,0.99,0.01
0.79589844,-0.0014392519,6.5110624E-4,-0.0021464168,-0.21,0.99,0.01,19632,10090.00,0,0,165,0.49,-2.94,-0.07,-0.21,0.99,0.01
2.0957031,-4.3925177E-4,-0.0013488941,-1.4641671E-4,-0.22,0.99,0.01,19639,10091.30,0,0,0,0.56,-3.08,0.07,-0.22,0.99,0.01
2.0957031,5.6074746E-4,0.0016511083,0.001853583,-0.21,0.99,0.01,19655,10091.30,0,0,165,0.63,-2.87,0.21,-0.21,0.99,0.01
0.79589844,-0.0014392519,-0.0013488941,-1.4641671E-4,-0.21,0.99,0.01,19670,10090.00,0,0,0,0.49,-3.08,0.07,-0.21,0.99,0.01
1.0957031,5.6074746E-4,-3.488958E-4,0.0028535835,-0.22,0.99,0.01,19677,10090.30,0,0,165,0.63,-3.01,0.28,-0.22,0.99,0.01
2.0957031,-0.0034392523,-3.488958E-4,-0.0021464168,-0.21,0.99,0.01,19692,10091.30,0,0,0,0.35,-3.01,-0.07,-0.21,0.99,0.01
1.0957031,0.0015607476,6.5110624E-4,8.5358333E-4,-0.22,0.99,0.01,19707,10090.30,0,0,165,0.70,-2.94,0.14,-0.22,0.99,0.01
1.0957031,5.6074746E-4,6.5110624E-4,-0.0021464168,-0.21,0.99,0.01,19722,10090.30,0,0,0,0.63,-2.94,-0.07,-0.21,0.99,0.01
0.095703125,5.6074746E-4,6.5110624E-4,-0.0021464168,-0.21,0.99,0.01,19730,10089.30,0,0,165,0.63,-2.94,-0.07,-0.21,0.99,0.01
2.0957031,-4.3925177E-4,0.0016511083,-1.4641671E-4,-0.22,0.99,0.01,19744,10091.30,0,0,0,0.56,-2.87,0.07,-0.22,0.99,0.01
1.0957031,-4.3925177E-4,-3.488958E-4,-0.0011464168,-0.21,0.99,0.01,19752,10090.30,0,0,165,0.56,-3.01,0.00,-0.21,0.99,0.01
3.0957031,5.6074746E-4,6.5110624E-4,-1.4641671E-4,-0.21,0.99,0.01,19767,10092.30,0,0,0,0.63,-2.94,0.07,-0.21,0.99,0.01
2.0957031,0.0025607478,0.0016511083,8.5358333E-4,-0.21,0.99,0.01,19783,10091.30,0,0,165,0.77,-2.87,0.14,-0.21,0.99,0.01
2.0957031,-0.0014392519,0.0016511083,8.5358333E-4,-0.21,0.99,0.01,19790,10091.30,0,0,0,0.49,-2.87,0.14,-0.21,0.99,0.01
1.0957031,-0.0014392519,6.5110624E-4,-0.0011464168,-0.21,0.99,0.01,19804,10090.30,0,0,165,0.49,-2.94,0.00,-0.21,0.99,0.01
1.0957031,5.6074746E-4,-0.0013488941,-1.4641671E-4,-0.21,0.99,0.01,19819,10090.30,0,0,0,0.63,-3.08,0.07,-0.21,0.99,0.01
1.0957031,5.6074746E-4,6.5110624E-4,0.001853583,-0.21,0.99,0.01,19827,10090.30,0,0,165,0.63,-2.94,0.21,-0.21,0.99,0.01
1.0957031,-0.0024392526,-3.488958E-4,-0.0011464168,-0.21,0.99,0.01,19842,10090.30,0,0,0,0.42,-3.01,0.00,-0.21,0.99,0.01
2.0957031,5.6074746E-4,6.5110624E-4,-1.4641671E-4,-0.21,0.99,0.01,19857,10091.30,0,0,165,0.63,-2.94,0.07,-0.21,0.99,0.01
1.0957031,5.6074746E-4,6.5110624E-4,-1.4641671E-4,-0.21,0.99,0.01,19865,10090.30,0,0,0,0.63,-2.94,0.07,-0.21,0.99,0.01
1.0957031,-4.3925177E-4,-3.488958E-4,8.5358333E-4,-0.21,0.99,0.01,19879,10090.30,0,0,165,0.56,-3.01,0.14,-0.21,0.99,0.01
2.0957031,5.6074746E-4,-3.488958E-4,-1.4641671E-4,-0.21,0.99,0.01,19894,10091.30,0,0,0,0.63,-3.01,0.07,-0.21,0.99,0.01
1.0957031,-0.0014392519,0.0016511083,-1.4641671E-4,-0.21,0.99,0.01,19901,10090.30,0,0,165,0.49,-2.87,0.07,-0.21,0.99,0.01
2.0957031,0.0015607476,6.5110624E-4,8.5358333E-4,-0.21,0.99,0.01,19917,10091.30,0,0,0,0.70,-2.94,0.14,-0.21,0.99,0.01
2.0957031,-4.3925177E-4,-3.488958E-4,-0.0011464168,-0.21,0.99,0.01,19933,10091.30,0,0,165,0.56,-3.01,0.00,-0.21,0.99,0.01
2.0957031,-0.0024392526,6.5110624E-4,8.5358333E-4,-0.21,0.99,0.01,19940,10091.30,0,0,0,0.42,-2.94,0.14,-0.21,0.99,0.01
0.095703125,0.0025607478,-3.488958E-4,0.001853583,-0.21,0.99,0.01,19955,10089.30,0,0,165,0.77,-3.01,0.21,-0.21,0.99,0.01
1.0957031,-0.0024392526,-3.488958E-4,-0.0021464168,-0.21,0.99,0.01,19969,10090.30,0,0,0,0.42,-3.01,-0.07,-0.21,0.99,0.01
1.0957031,-0.0024392526,-3.488958E-4,8.5358333E-4,-0.22,0.99,0.01,19977,10090.30,0,0,165,0.42,-3.01,0.14,-0.22,0.99,0.01
1.0957031,0.0015607476,-3.488958E-4,8.5358333E-4,-0.21,0.99,0.01,19992,10090.30,0,0,0,0.70,-3.01,0.14,-0.21,0.99,0.01
2.0957031,-0.0014392519,6.5110624E-4,-1.4641671E-4,-0.21,0.99,0.01,20007,10091.30,0,0,165,0.49,-2.94,0.07,-0.21,0.99,0.01
1.0957031,5.6074746E-4,-3.488958E-4,-1.4641671E-4,-0.21,0.99,0.01,20014,10090.30,0,0,0,0.63,-3.01,0.07,-0.21,0.99,0.01
1.0957031,0.0015607476,0.0016511083,8.5358333E-4,-0.21,0.99,0.01,20030,10090.30,0,0,165,0.70,-2.87,0.14,-0.21,0.99,0.01
2.0957031,-0.0024392526,-3.488958E-4,-0.0021464168,-0.21,0.99,0.01,20044,10091.30,0,0,0,0.42,-3.01,-0.07,-0.21,0.99,0.01
1.0957031,0.0025607478,6.5110624E-4,8.5358333E-4,-0.21,0.99,0.01,20052,10090.30,0,0,165,0.77,-2.94,0.14,-0.21,0.99,0.01
2.0957031,-4.3925177E-4,-3.488958E-4,-0.003146417,-0.21,0.99,0.01,20067,10091.30,0,0,0,0.56,-3.01,-0.14,-0.21,0.99,0.01
1.0957031,-0.0034392523,-0.0013488941,-0.0021464168,-0.22,0.99,0.01,20083,10090.30,0,0,165,0.35,-3.08,-0.07,-0.22,0.99,0.01
2.0957031,-4.3925177E-4,6.5110624E-4,8.5358333E-4,-0.21,0.99,0.01,20090,10091.30,0,0,0,0.56,-2.94,0.14,-0.21,0.99,0.01
2.0957031,-4.3925177E-4,6.5110624E-4,8.5358333E-4,-0.21,0.99,0.01,20104,10091.30,0,0,165,0.56,-2.94,0.14,-0.21,0.99,0.01
1.6962891,5.6074746E-4,0.0016511083,-1.4641671E-4,-0.21,0.99,0.01,20119,10090.90,0,0,0,0.63,-2.87,0.07,-0.21,0.99,0.01
1.0957031,0.0015607476,6.5110624E-4,-1.4641671E-4,-0.22,0.99,0.01,20127,10090.30,0,0,165,0.70,-2.94,0.07,-0.22,0.99,0.01
2.0957031,-0.004439252,6.5110624E-4,-0.0021464168,-0.21,0.99,0.01,20150,10091.30,0,0,0,0.28,-2.94,-0.07,-0.21,0.99,0.01
1.0957031,0.004560748,0.0016511083,0.0028535835,-0.21,0.99,0.01,20156,10090.30,0,0,165,0.91,-2.87,0.28,-0.21,0.99,0.01
1.0957031,-0.0014392519,6.5110624E-4,-0.003146417,-0.21,0.99,0.01,20172,10090.30,0,0,0,0.49,-2.94,-0.14,-0.21,0.99,0.01
0.79589844,-0.0014392519,-3.488958E-4,-0.0011464168,-0.21,0.99,0.01,20180,10090.00,0,0,165,0.49,-3.01,0.00,-0.21,0.99,0.01
2.0957031,0.0025607478,-3.488958E-4,0.001853583,-0.21,0.99,0.01,20202,10091.30,0,0,0,0.77,-3.01,0.21,-0.21,0.99,0.01
2.0957031,-4.3925177E-4,6.5110624E-4,-0.003146417,-0.21,0.99,0.01,20203,10091.30,0,0,165,0.56,-2.94,-0.14,-0.21,0.99,0.01
0.79589844,-4.3925177E-4,6.5110624E-4,-1.4641671E-4,-0.21,0.99,0.01,20217,10090.00,0,0,0,0.56,-2.94,0.07,-0.21,0.99,0.01
2.0957031,0.0015607476,6.5110624E-4,0.0028535835,-0.21,0.99,0.01,20232,10091.30,0,0,165,0.70,-2.94,0.28,-0.21,0.99,0.01
2.0957031,-4.3925177E-4,-3.488958E-4,8.5358333E-4,-0.21,0.99,0.01,20240,10091.30,0,0,0,0.56,-3.01,0.14,-0.21,0.99,0.01
1.0957031,-0.0014392519,0.0016511083,-1.4641671E-4,-0.21,0.99,0.01,20254,10090.30,0,0,165,0.49,-2.87,0.07,-0.21,0.99,0.01
0.095703125,0.004560748,0.0016511083,0.0038535832,-0.21,0.99,0.01,20269,10089.30,0,0,0,0.91,-2.87,0.35,-0.21,0.99,0.01
1.0957031,-0.004439252,-0.0013488941,8.5358333E-4,-0.21,0.99,0.01,20277,10090.30,0,0,165,0.28,-3.08,0.14,-0.21,0.99,0.01
2.0957031,-4.3925177E-4,6.5110624E-4,-0.0011464168,-0.21,0.99,0.01,20292,10091.30,0,0,0,0.56,-2.94,0.00,-0.21,0.99,0.01
2.0957031,0.0025607478,6.5110624E-4,-1.4641671E-4,-0.21,0.99,0.01,20307,10091.30,0,0,165,0.77,-2.94,0.07,-0.21,0.99,0.01
2.0957031,-4.3925177E-4,-3.488958E-4,-0.0011464168,-0.21,0.99,0.01,20315,10091.30,0,0,0,0.56,-3.01,0.00,-0.21,0.99,0.01
2.0957031,-0.0014392519,-3.488958E-4,8.5358333E-4,-0.21,0.99,0.01,20330,10091.30,0,0,165,0.49,-3.01,0.14,-0.21,0.99,0.01
2.0957031,-4.3925177E-4,6.5110624E-4,-1.4641671E-4,-0.21,0.99,0.01,20344,10091.30,0,0,0,0.56,-2.94,0.07,-0.21,0.99,0.01
1.0957031,5.6074746E-4,6.5110624E-4,-1.4641671E-4,-0.21,0.99,0.01,20352,10090.30,0,0,165,0.63,-2.94,0.07,-0.21,0.99,0.01
1.0957031,0.0015607476,6.5110624E-4,8.5358333E-4,-0.22,0.99,0.01,20367,10090.30,0,0,0,0.70,-2.94,0.14,-0.22,0.99,0.01
2.0957031,0.0015607476,6.5110624E-4,8.5358333E-4,-0.22,0.99,0.01,20383,10091.30,0,0,165,0.70,-2.94,0.14,-0.22,0.99,0.01
1.0957031,5.6074746E-4,6.5110624E-4,-1.4641671E-4,-0.21,0.99,0.01,20390,10090.30,0,0,0,0.63,-2.94,0.07,-0.21,0.99,0.01
2.0957031,0.0015607476,-3.488958E-4,8.5358333E-4,-0.21,0.99,0.01,20412,10091.30,0,0,165,0.70,-3.01,0.14,-0.21,0.99,0.01
2.0957031,-0.0014392519,-3.488958E-4,-0.0011464168,-0.21,0.99,0.01,20419,10091.30,0,0,0,0.49,-3.01,0.00,-0.21,0.99,0.01
2.0957031,-4.3925177E-4,6.5110624E-4,-0.0011464168,-0.21,0.99,0.01,20427,10091.30,0,0,165,0.56,-2.94,0.00,-0.21,0.99,0.01
1.0957031,-0.0014392519,0.0016511083,-1.4641671E-4,-0.21,0.99,0.01,20442,10090.30,0,0,0,0.49,-2.87,0.07,-0.21,0.99,0.01
1.0957031,-0.0024392526,-3.488958E-4,-0.0011464168,-0.21,0.99,0.01,20457,10090.30,0,0,165,0.42,-3.01,0.00,-0.21,0.99,0.01
1.0957031,5.6074746E-4,-3.488958E-4,0.001853583,-0.21,0.99,0.01,20466,10090.30,0,0,0,0.63,-3.01,0.21,-0.21,0.99,0.01
2.3955078,-0.0014392519,-3.488958E-4,0.001853583,-0.21,0.99,0.01,20480,10091.60,0,0,165,0.49,-3.01,0.21,-0.21,0.99,0.01
2.0957031,-4.3925177E-4,6.5110624E-4,8.5358333E-4,-0.21,0.99,0.01,20494,10091.30,0,0,0,0.56,-2.94,0.14,-0.21,0.99,0.01
2.0957031,0.0015607476,6.5110624E-4,8.5358333E-4,-0.22,0.99,0.01,20501,10091.30,0,0,165,0.70,-2.94,0.14,-0.22,0.99,0.01
2.0957031,-4.3925177E-4,-0.0013488941,-0.0021464168,-0.21,0.99,0.01,20516,10091.30,0,0,0,0.56,-3.08,-0.07,-0.21,0.99,0.01
1.0957031,-4.3925177E-4,-0.0013488941,-1.4641671E-4,-0.21,0.99,0.01,20532,10090.30,0,0,165,0.56,-3.08,0.07,-0.21,0.99,0.01
0.79589844,-0.0014392519,6.5110624E-4,-1.4641671E-4,-0.21,0.99,0.01,20539,10090.00,0,0,0,0.49,-2.94,0.07,-0.21,0.99,0.01
3.0957031,0.0015607476,6.5110624E-4,8.5358333E-4,-0.21,0.99,0.01,20555,10092.30,0,0,165,0.70,-2.94,0.14,-0.21,0.99,0.01
1.6962891,-0.0014392519,-0.0013488941,-1.4641671E-4,-0.21,0.99,0.01,20570,10090.90,0,0,0,0.49,-3.08,0.07,-0.21,0.99,0.01
2.0957031,-4.3925177E-4,6.5110624E-4,-0.0021464168,-0.21,0.99,0.01,20576,10091.30,0,0,165,0.56,-2.94,-0.07,-0.21,0.99,0.01
2.0957031,5.6074746E-4,0.0016511083,-1.4641671E-4,-0.21,0.99,0.01,20592,10091.30,0,0,0,0.63,-2.87,0.07,-0.21,0.99,0.01
1.0957031,-4.3925177E-4,6.5110624E-4,8.5358333E-4,-0.22,0.99,0.01,20607,10090.30,0,0,165,0.56,-2.94,0.14,-0.22,0.99,0.01
2.0957031,0.003560747,0.0016511083,0.0038535832,-0.22,1.0,0.01,20614,10091.30,0,0,0,0.84,-2.87,0.35,-0.22,1.00,0.01
1.0957031,-0.007439252,0.0016511083,-0.005146417,-0.21,0.98,0.01,20630,10090.30,0,0,165,0.07,-2.87,-0.28,-0.21,0.98,0.01
0.095703125,0.0025607478,6.5110624E-4,0.010853582,-0.22,0.99,0.01,20644,10089.30,0,0,0,0.77,-2.94,0.84,-0.22,0.99,0.01
2.0957031,-0.0024392526,-0.0013488941,-0.003146417,-0.22,0.99,0.01,20652,10091.30,0,0,165,0.42,-3.08,-0.14,-0.22,0.99,0.01
3.0957031,-0.0054392526,-3.488958E-4,-0.003146417,-0.21,0.99,0.01,20667,10092.30,0,0,0,0.21,-3.01,-0.14,-0.21,0.99,0.01
2.0957031,0.0025607478,6.5110624E-4,8.5358333E-4,-0.21,0.99,0.0,20683,10091.30,0,0,165,0.77,-2.94,0.14,-0.21,0.99,0.00
2.0957031,-4.3925177E-4,-3.488958E-4,-0.0041464167,-0.21,0.99,0.01,20690,10091.30,0,0,0,0.56,-3.01,-0.21,-0.21,0.99,0.01
1.0957031,-0.0034392523,0.0016511083,-1.4641671E-4,-0.22,0.98,0.01,20705,10090.30,0,0,165,0.35,-2.87,0.07,-0.22,0.98,0.01
2.0957031,0.010560749,6.5110624E-4,0.0068535837,-0.21,0.99,0.01,20720,10091.30,0,0,0,1.33,-2.94,0.56,-0.21,0.99,0.01
1.6962891,-0.014439251,-3.488958E-4,-0.007146416,-0.21,0.99,0.01,20727,10090.90,0,0,165,-0.42,-3.01,-0.42,-0.21,0.99,0.01
1.0957031,0.0055607483,-3.488958E-4,0.004853583,-0.21,0.98,0.01,20742,10090.30,0,0,0,0.98,-3.01,0.42,-0.21,0.98,0.01
1.0957031,-4.3925177E-4,6.5110624E-4,-1.4641671E-4,-0.22,0.99,0.01,20757,10090.30,0,0,165,0.56,-2.94,0.07,-0.22,0.99,0.01
1.0957031,0.004560748,-0.0013488941,-1.4641671E-4,-0.21,0.99,0.01,20764,10090.30,0,0,0,0.91,-3.08,0.07,-0.21,0.99,0.01
2.0957031,-0.004439252,-0.0013488941,0.0028535835,-0.22,0.99,0.01,20780,10091.30,0,0,165,0.28,-3.08,0.28,-0.22,0.99,0.01
1.0957031,0.0025607478,-3.488958E-4,-0.0011464168,-0.21,0.99,0.01,20794,10090.30,0,0,0,0.77,-3.01,0.00,-0.21,0.99,0.01
1.0957031,-0.0014392519,-3.488958E-4,8.5358333E-4,-0.22,0.99,0.01,20802,10090.30,0,0,165,0.49,-3.01,0.14,-0.22,0.99,0.01
1.0957031,0.003560747,0.0016511083,0.0038535832,-0.21,0.99,0.01,20817,10090.30,0,0,0,0.84,-2.87,0.35,-0.21,0.99,0.01
3.0957031,0.0055607483,6.5110624E-4,0.001853583,-0.21,0.99,0.01,20832,10092.30,0,0,165,0.98,-2.94,0.21,-0.21,0.99,0.01
1.0957031,-0.007439252,6.5110624E-4,-0.0011464168,-0.22,0.99,0.01,20839,10090.30,0,0,0,0.07,-2.94,0.00,-0.22,0.99,0.01
2.0957031,0.0065607475,0.0016511083,0.004853583,-0.21,0.99,0.01,20854,10091.30,0,0,165,1.05,-2.87,0.42,-0.21,0.99,0.01
1.6962891,-0.0014392519,-3.488958E-4,-0.0011464168,-0.21,0.99,0.01,20869,10090.90,0,0,0,0.49,-3.01,0.00,-0.21,0.99,0.01
1.0957031,0.0025607478,6.5110624E-4,8.5358333E-4,-0.22,0.99,0.01,20876,10090.30,0,0,165,0.77,-2.94,0.14,-0.22,0.99,0.01
1.0957031,-0.0024392526,6.5110624E-4,-1.4641671E-4,-0.21,0.99,0.01,20892,10090.30,0,0,0,0.42,-2.94,0.07,-0.21,0.99,0.01
1.0957031,5.6074746E-4,6.5110624E-4,-0.0021464168,-0.21,0.99,0.01,20908,10090.30,0,0,165,0.63,-2.94,-0.07,-0.21,0.99,0.01
2.0957031,5.6074746E-4,-3.488958E-4,0.001853583,-0.21,0.99,0.01,20915,10091.30,0,0,0,0.63,-3.01,0.21,-0.21,0.99,0.01
2.0957031,-4.3925177E-4,-3.488958E-4,0.0028535835,-0.21,0.99,0.01,20929,10091.30,0,0,165,0.56,-3.01,0.28,-0.21,0.99,0.01
0.095703125,-4.3925177E-4,6.5110624E-4,-1.4641671E-4,-0.21,0.99,0.01,20944,10089.30,0,0,0,0.56,-2.94,0.07,-0.21,0.99,0.01
1.0957031,-0.0024392526,6.5110624E-4,-0.0021464168,-0.21,0.99,0.01,20951,10090.30,0,0,165,0.42,-2.94,-0.07,-0.21,0.99,0.01
1.0957031,0.0025607478,0.0016511083,8.5358333E-4,-0.21,0.99,0.01,20967,10090.30,0,0,0,0.77,-2.87,0.14,-0.21,0.99,0.01
1.0957031,-0.0014392519,-0.0013488941,-1.4641671E-4,-0.21,0.99,0.01,20982,10090.30,0,0,165,0.49,-3.08,0.07,-0.21,0.99,0.01
2.0957031,-0.0034392523,6.5110624E-4,-1.4641671E-4,-0.21,0.99,0.01,20989,10091.30,0,0,0,0.35,-2.94,0.07,-0.21,0.99,0.01
2.0957031,0.0065607475,-3.488958E-4,0.004853583,-0.22,0.99,0.01,21004,10091.30,0,0,165,1.05,-3.01,0.42,-0.22,0.99,0.01
1.0957031,-0.008439252,6.5110624E-4,-0.010146417,-0.21,0.99,0.01,21034,10090.30,0,0,0,0.00,-2.94,-0.63,-0.21,0.99,0.01
1.0957031,0.012560748,-0.0013488941,0.009853583,-0.21,1.0,0.01,21036,10090.30,0,0,165,1.47,-3.08,0.77,-0.21,1.00,0.01
2.0957031,-0.013439252,-3.488958E-4,-0.010146417,-0.22,0.98,0.01,21042,10091.30,0,0,0,-0.35,-3.01,-0.63,-0.22,0.98,0.01
2.0957031,0.011560747,6.5110624E-4,0.0078535825,-0.21,0.99,0.01,21050,10091.30,0,0,165,1.40,-2.94,0.63,-0.21,0.99,0.01
1.6962891,-4.3925177E-4,6.5110624E-4,-0.0011464168,-0.22,1.0,0.01,21065,10090.90,0,0,0,0.56,-2.94,0.00,-0.22,1.00,0.01
0.095703125,-0.004439252,0.0016511083,-0.0061464165,-0.21,0.98,0.01,21079,10089.30,0,0,165,0.28,-2.87,-0.35,-0.21,0.98,0.01
1.0957031,0.008560749,6.5110624E-4,0.008853583,-0.22,1.0,0.01,21086,10090.30,0,0,0,1.19,-2.94,0.70,-0.22,1.00,0.01
1.0957031,-0.0024392526,-3.488958E-4,-0.007146416,-0.21,0.99,0.0,21101,10090.30,0,0,165,0.42,-3.01,-0.42,-0.21,0.99,0.00
1.6962891,0.0015607476,6.5110624E-4,0.0028535835,-0.21,0.99,0.01,21117,10090.90,0,0,0,0.70,-2.94,0.28,-0.21,0.99,0.01
1.0957031,0.0055607483,0.0016511083,8.5358333E-4,-0.22,0.99,0.01,21124,10090.30,0,0,165,0.98,-2.87,0.14,-0.22,0.99,0.01
2.0957031,-0.0054392526,-0.0013488941,-0.0011464168,-0.22,0.99,0.01,21139,10091.30,0,0,0,0.21,-3.08,0.00,-0.22,0.99,0.01
3.0957031,-0.004439252,-3.488958E-4,-0.0041464167,-0.21,0.98,0.01,21154,10092.30,0,0,165,0.28,-3.01,-0.21,-0.21,0.98,0.01
1.0957031,0.0055607483,-3.488958E-4,0.0038535832,-0.22,0.99,0.01,21162,10090.30,0,0,0,0.98,-3.01,0.35,-0.22,0.99,0.01
2.0957031,-0.0054392526,-0.0013488941,-0.0041464167,-0.21,0.99,0.01,21176,10091.30,0,0,165,0.21,-3.08,-0.21,-0.21,0.99,0.01
2.0957031,-0.0024392526,-0.0013488941,-1.4641671E-4,-0.21,0.99,0.01,21192,10091.30,0,0,0,0.42,-3.08,0.07,-0.21,0.99,0.01
1.6962891,0.0015607476,0.0016511083,0.0038535832,-0.22,0.99,0.01,21200,10090.90,0,0,165,0.70,-2.87,0.35,-0.22,0.99,0.01
1.6962891,-0.0014392519,0.0016511083,-0.0011464168,-0.21,0.99,0.01,21215,10090.90,0,0,0,0.49,-2.87,0.00,-0.21,0.99,0.01
2.0957031,5.6074746E-4,6.5110624E-4,0.0038535832,-0.21,0.99,0.01,21229,10091.30,0,0,165,0.63,-2.94,0.35,-0.21,0.99,0.01
1.0957031,0.0015607476,-3.488958E-4,-1.4641671E-4,-0.21,0.99,0.01,21237,10090.30,0,0,0,0.70,-3.01,0.07,-0.21,0.99,0.01
2.0957031,-0.0014392519,-3.488958E-4,-1.4641671E-4,-0.22,0.99,0.01,21252,10091.30,0,0,165,0.49,-3.01,0.07,-0.22,0.99,0.01
1.0957031,0.003560747,-3.488958E-4,0.001853583,-0.21,0.99,0.01,21267,10090.30,0,0,0,0.84,-3.01,0.21,-0.21,0.99,0.01
2.0957031,5.6074746E-4,6.5110624E-4,-0.0021464168,-0.21,0.99,0.01,21274,10091.30,0,0,165,0.63,-2.94,-0.07,-0.21,0.99,0.01
1.0957031,0.0025607478,6.5110624E-4,0.0028535835,-0.22,0.99,0.01,21290,10090.30,0,0,0,0.77,-2.94,0.28,-0.22,0.99,0.01
1.6962891,-0.006439252,-0.0013488941,-0.0061464165,-0.21,0.99,0.01,21304,10090.90,0,0,165,0.14,-3.08,-0.35,-0.21,0.99,0.01
2.0957031,-4.3925177E-4,-3.488958E-4,0.0028535835,-0.21,0.99,0.01,21312,10091.30,0,0,0,0.56,-3.01,0.28,-0.21,0.99,0.01
1.0957031,-0.0014392519,0.0016511083,-0.0021464168,-0.21,0.99,0.01,21328,10090.30,0,0,165,0.49,-2.87,-0.07,-0.21,0.99,0.01
3.0957031,5.6074746E-4,6.5110624E-4,-1.4641671E-4,-0.22,0.99,0.01,21342,10092.30,0,0,0,0.63,-2.94,0.07,-0.22,0.99,0.01
2.0957031,5.6074746E-4,6.5110624E-4,0.001853583,-0.21,0.99,0.01,21350,10091.30,0,0,165,0.63,-2.94,0.21,-0.21,0.99,0.01
0.79589844,-0.0014392519,-3.488958E-4,-0.0011464168,-0.22,0.99,0.01,21364,10090.00,0,0,0,0.49,-3.01,0.00,-0.22,0.99,0.01
1.6962891,-4.3925177E-4,6.5110624E-4,8.5358333E-4,-0.21,0.99,0.01,21379,10090.90,0,0,165,0.56,-2.94,0.14,-0.21,0.99,0.01
2.0957031,0.0015607476,-3.488958E-4,-0.0011464168,-0.21,0.99,0.01,21387,10091.30,0,0,0,0.70,-3.01,0.00,-0.21,0.99,0.01
1.0957031,-0.0014392519,-3.488958E-4,-0.0011464168,-0.21,0.99,0.01,21402,10090.30,0,0,165,0.49,-3.01,0.00,-0.21,0.99,0.01
2.0957031,0.003560747,-3.488958E-4,8.5358333E-4,-0.21,0.99,0.01,21416,10091.30,0,0,0,0.84,-3.01,0.14,-0.21,0.99,0.01
2.0957031,-0.0014392519,6.5110624E-4,8.5358333E-4,-0.21,0.99,0.01,21424,10091.30,0,0,165,0.49,-2.94,0.14,-0.21,0.99,0.01
3.0957031,-4.3925177E-4,6.5110624E-4,-0.0011464168,-0.21,0.99,0.01,21439,10092.30,0,0,0,0.56,-2.94,0.00,-0.21,0.99,0.01
1.6962891,-0.0014392519,6.5110624E-4,0.0028535835,-0.22,0.99,0.01,21454,10090.90,0,0,165,0.49,-2.94,0.28,-0.22,0.99,0.01
1.0957031,5.6074746E-4,-3.488958E-4,-1.4641671E-4,-0.21,0.99,0.01,21461,10090.30,0,0,0,0.63,-3.01,0.07,-0.21,0.99,0.01
1.6962891,-0.0014392519,-3.488958E-4,-0.0011464168,-0.21,0.99,0.01,21477,10090.90,0,0,165,0.49,-3.01,0.00,-0.21,0.99,0.01
1.0957031,0.0015607476,-3.488958E-4,8.5358333E-4,-0.21,0.99,0.01,21492,10090.30,0,0,0,0.70,-3.01,0.14,-0.21,0.99,0.01
1.0957031,-0.0014392519,-3.488958E-4,-1.4641671E-4,-0.21,0.99,0.01,21506,10090.30,0,0,165,0.49,-3.01,0.07,-0.21,0.99,0.01
1.0957031,-0.004439252,-0.0013488941,-0.0021464168,-0.21,0.99,0.01,21514,10090.30,0,0,0,0.28,-3.08,-0.07,-0.21,0.99,0.01
1.6962891,0.003560747,6.5110624E-4,8.5358333E-4,-0.21,0.99,0.01,21521,10090.90,0,0,165,0.84,-2.94,0.14,-0.21,0.99,0.01
1.6962891,-4.3925177E-4,6.5110624E-4,-0.0021464168,-0.21,0.99,0.01,21537,10090.90,0,0,0,0.56,-2.94,-0.07,-0.21,0.99,0.01
2.0957031,5.6074746E-4,-3.488958E-4,8.5358333E-4,-0.22,0.99,0.01,21552,10091.30,0,0,165,0.63,-3.01,0.14,-0.22,0.99,0.01
1.0957031,-4.3925177E-4,-0.0013488941,-1.4641671E-4,-0.21,0.99,0.01,21559,10090.30,0,0,0,0.56,-3.08,0.07,-0.21,0.99,0.01
3.0957031,-4.3925177E-4,-3.488958E-4,-0.0011464168,-0.21,0.99,0.01,21574,10092.30,0,0,165,0.56,-3.01,0.00,-0.21,0.99,0.01
2.0957031,0.0015607476,6.5110624E-4,-1.4641671E-4,-0.21,0.99,0.01,21590,10091.30,0,0,0,0.70,-2.94,0.07,-0.21,0.99,0.01
1.0957031,0.0015607476,6.5110624E-4,-1.4641671E-4,-0.21,0.99,0.01,21597,10090.30,0,0,165,0.70,-2.94,0.07,-0.21,0.99,0.01
2.0957031,5.6074746E-4,-3.488958E-4,-1.4641671E-4,-0.21,0.99,0.01,21612,10091.30,0,0,0,0.63,-3.01,0.07,-0.21,0.99,0.01
2.0957031,-0.0024392526,-3.488958E-4,-0.0011464168,-0.21,0.99,0.01,21627,10091.30,0,0,165,0.42,-3.01,0.00,-0.21,0.99,0.01
2.0957031,0.003560747,-3.488958E-4,0.004853583,-0.21,0.99,0.01,21635,10091.30,0,0,0,0.84,-3.01,0.42,-0.21,0.99,0.01
1.0957031,-0.009439252,6.5110624E-4,-0.0091464175,-0.21,0.98,0.01,21649,10090.30,0,0,165,-0.07,-2.94,-0.56,-0.21,0.98,0.01
1.0957031,0.008560749,6.5110624E-4,0.0058535836,-0.22,0.99,0.01,21665,10090.30,0,0,0,1.19,-2.94,0.49,-0.22,0.99,0.01
1.6962891,-0.004439252,-0.0013488941,-0.007146416,-0.22,0.99,0.01,21672,10090.90,0,0,165,0.28,-3.08,-0.42,-0.22,0.99,0.01
1.6962891,0.0015607476,-0.0013488941,0.001853583,-0.22,0.99,0.01,21687,10090.90,0,0,0,0.70,-3.08,0.21,-0.22,0.99,0.01
2.0957031,0.0015607476,0.0016511083,-1.4641671E-4,-0.21,0.99,0.01,21701,10091.30,0,0,165,0.70,-2.87,0.07,-0.21,0.99,0.01
2.0957031,0.0015607476,6.5110624E-4,-0.0011464168,-0.21,0.99,0.01,21709,10091.30,0,0,0,0.70,-2.94,0.00,-0.21,0.99,0.01
2.0957031,0.0015607476,0.0016511083,0.0028535835,-0.22,0.99,0.01,21724,10091.30,0,0,165,0.70,-2.87,0.28,-0.22,0.99,0.01
3.696289,0.0025607478,6.5110624E-4,-0.0021464168,-0.21,0.99,0.01,21739,10092.90,0,0,0,0.77,-2.94,-0.07,-0.21,0.99,0.01
2.0957031,-0.009439252,-3.488958E-4,-0.0021464168,-0.22,0.99,0.01,21746,10091.30,0,0,165,-0.07,-3.01,-0.07,-0.22,0.99,0.01
2.0957031,0.003560747,0.0016511083,8.5358333E-4,-0.21,0.98,0.01,21761,10091.30,0,0,0,0.84,-2.87,0.14,-0.21,0.98,0.01
2.0957031,-4.3925177E-4,-3.488958E-4,0.001853583,-0.22,1.0,0.01,21777,10091.30,0,0,165,0.56,-3.01,0.21,-0.22,1.00,0.01
1.0957031,-0.004439252,-0.0013488941,-0.005146417,-0.21,0.98,0.01,21785,10090.30,0,0,0,0.28,-3.08,-0.28,-0.21,0.98,0.01
2.0957031,5.6074746E-4,6.5110624E-4,0.0038535832,-0.22,0.99,0.01,21799,10091.30,0,0,165,0.63,-2.94,0.35,-0.22,0.99,0.01
3.0957031,-0.0014392519,-3.488958E-4,-1.4641671E-4,-0.21,0.99,0.01,21815,10092.30,0,0,0,0.49,-3.01,0.07,-0.21,0.99,0.01
1.0957031,-4.3925177E-4,-3.488958E-4,-0.0021464168,-0.21,0.99,0.01,21822,10090.30,0,0,165,0.56,-3.01,-0.07,-0.21,0.99,0.01
1.3955078,5.6074746E-4,-3.488958E-4,0.001853583,-0.21,0.99,0.01,21836,10090.60,0,0,0,0.63,-3.01,0.21,-0.21,0.99,0.01
2.0957031,-0.0014392519,6.5110624E-4,-0.0021464168,-0.21,0.99,0.01,21852,10091.30,0,0,165,0.49,-2.94,-0.07,-0.21,0.99,0.01
2.0957031,-4.3925177E-4,-3.488958E-4,8.5358333E-4,-0.21,0.99,0.01,21859,10091.30,0,0,0,0.56,-3.01,0.14,-0.21,0.99,0.01
2.0957031,0.0055607483,6.5110624E-4,-1.4641671E-4,-0.21,0.99,0.01,21874,10091.30,0,0,165,0.98,-2.94,0.07,-0.21,0.99,0.01
1.6962891,-0.0034392523,-0.002348896,-0.0011464168,-0.21,0.99,0.01,21889,10090.90,0,0,0,0.35,-3.15,0.00,-0.21,0.99,0.01
2.0957031,0.0015607476,-0.0013488941,-1.4641671E-4,-0.21,0.99,0.01,21897,10091.30,0,0,165,0.70,-3.08,0.07,-0.21,0.99,0.01
2.0957031,5.6074746E-4,6.5110624E-4,-0.0011464168,-0.21,0.99,0.01,21912,10091.30,0,0,0,0.63,-2.94,0.00,-0.21,0.99,0.01
2.0957031,0.004560748,0.0016511083,0.001853583,-0.22,0.99,0.01,21927,10091.30,0,0,165,0.91,-2.87,0.21,-0.22,0.99,0.01
0.79589844,-0.0014392519,-3.488958E-4,-1.4641671E-4,-0.22,0.99,0.01,21934,10090.00,0,0,0,0.49,-3.01,0.07,-0.22,0.99,0.01
2.0957031,-4.3925177E-4,6.5110624E-4,8.5358333E-4,-0.22,0.99,0.01,21949,10091.30,0,0,165,0.56,-2.94,0.14,-0.22,0.99,0.01
1.6962891,0.0015607476,6.5110624E-4,-1.4641671E-4,-0.21,0.99,0.01,21965,10090.90,0,0,0,0.70,-2.94,0.07,-0.21,0.99,0.01
2.0957031,5.6074746E-4,6.5110624E-4,8.5358333E-4,-0.21,0.99,0.01,21971,10091.30,0,0,165,0.63,-2.94,0.14,-0.21,0.99,0.01
1.0957031,5.6074746E-4,-3.488958E-4,-1.4641671E-4,-0.22,0.99,0.01,21986,10090.30,0,0,0,0.63,-3.01,0.07,-0.22,0.99,0.01
2.0957031,-0.0024392526,-0.0013488941,-0.0011464168,-0.21,0.99,0.01,22001,10091.30,0,0,165,0.42,-3.08,0.00,-0.21,0.99,0.01
0.79589844,0.0015607476,6.5110624E-4,8.5358333E-4,-0.21,0.99,0.01,22009,10090.00,0,0,0,0.70,-2.94,0.14,-0.21,0.99,0.01
2.0957031,5.6074746E-4,-3.488958E-4,-0.0011464168,-0.21,0.99,0.01,22024,10091.30,0,0,165,0.63,-3.01,0.00,-0.21,0.99,0.01
0.79589844,-0.0014392519,-3.488958E-4,-1.4641671E-4,-0.21,0.99,0.01,22039,10090.00,0,0,0,0.49,-3.01,0.07,-0.21,0.99,0.01
2.0957031,-4.3925177E-4,-3.488958E-4,-1.4641671E-4,-0.21,0.99,0.01,22046,10091.30,0,0,165,0.56,-3.01,0.07,-0.21,0.99,0.01
2.0957031,0.0015607476,-3.488958E-4,-1.4641671E-4,-0.21,0.99,0.01,22061,10091.30,0,0,0,0.70,-3.01,0.07,-0.21,0.99,0.01
2.0957031,-4.3925177E-4,6.5110624E-4,-0.0011464168,-0.21,0.99,0.01,22077,10091.30,0,0,165,0.56,-2.94,0.00,-0.21,0.99,0.01
1.0957031,-4.3925177E-4,-3.488958E-4,8.5358333E-4,-0.21,0.99,0.01,22085,10090.30,0,0,0,0.56,-3.01,0.14,-0.21,0.99,0.01
2.0957031,-4.3925177E-4,6.5110624E-4,0.001853583,-0.21,0.99,0.01,22100,10091.30,0,0,165,0.56,-2.94,0.21,-0.21,0.99,0.01
2.0957031,-0.0024392526,0.0016511083,-0.0021464168,-0.21,0.99,0.01,22115,10091.30,0,0,0,0.42,-2.87,-0.07,-0.21,0.99,0.01
3.0957031,0.0015607476,6.5110624E-4,-1.4641671E-4,-0.21,0.99,0.01,22122,10092.30,0,0,165,0.70,-2.94,0.07,-0.21,0.99,0.01
1.6962891,-4.3925177E-4,-3.488958E-4,-0.0011464168,-0.21,0.99,0.01,22137,10090.90,0,0,0,0.56,-3.01,0.00,-0.21,0.99,0.01
1.6962891,-4.3925177E-4,-3.488958E-4,-0.003146417,-0.21,0.99,0.01,22152,10090.90,0,0,165,0.56,-3.01,-0.14,-0.21,0.99,0.01
0.79589844,5.6074746E-4,-3.488958E-4,-0.0011464168,-0.21,0.99,0.01,22159,10090.00,0,0,0,0.63,-3.01,0.00,-0.21,0.99,0.01
2.696289,5.6074746E-4,6.5110624E-4,-1.4641671E-4,-0.21,0.99,0.01,22174,10091.90,0,0,165,0.63,-2.94,0.07,-0.21,0.99,0.01
2.0957031,5.6074746E-4,0.0016511083,-1.4641671E-4,-0.21,0.99,0.01,22189,10091.30,0,0,0,0.63,-2.87,0.07,-0.21,0.99,0.01
1.0957031,-4.3925177E-4,6.5110624E-4,-1.4641671E-4,-0.22,0.99,0.01,22197,10090.30,0,0,165,0.56,-2.94,0.07,-0.22,0.99,0.01
2.0957031,5.6074746E-4,6.5110624E-4,0.001853583,-0.21,0.99,0.01,22212,10091.30,0,0,0,0.63,-2.94,0.21,-0.21,0.99,0.01
0.79589844,0.0015607476,0.0016511083,8.5358333E-4,-0.21,0.99,0.01,22227,10090.00,0,0,165,0.70,-2.87,0.14,-0.21,0.99,0.01
1.6962891,-4.3925177E-4,-3.488958E-4,8.5358333E-4,-0.21,0.99,0.01,22234,10090.90,0,0,0,0.56,-3.01,0.14,-0.21,0.99,0.01
2.0957031,-4.3925177E-4,-3.488958E-4,-0.0021464168,-0.21,0.99,0.01,22250,10091.30,0,0,165,0.56,-3.01,-0.07,-0.21,0.99,0.01
1.6962891,5.6074746E-4,-0.0013488941,-0.0021464168,-0.21,0.99,0.01,22265,10090.90,0,0,0,0.63,-3.08,-0.07,-0.21,0.99,0.01
0.79589844,0.0025607478,-0.0013488941,-1.4641671E-4,-0.21,0.99,0.01,22272,10090.00,0,0,165,0.77,-3.08,0.07,-0.21,0.99,0.01
1.6962891,-4.3925177E-4,0.0016511083,-1.4641671E-4,-0.21,0.99,0.01,22287,10090.90,0,0,0,0.56,-2.87,0.07,-0.21,0.99,0.01
2.696289,0.0025607478,6.5110624E-4,0.001853583,-0.21,0.99,0.01,22302,10091.90,0,0,165,0.77,-2.94,0.21,-0.21,0.99,0.01
1.6962891,-0.0014392519,0.0016511083,-1.4641671E-4,-0.21,0.99,0.01,22309,10090.90,0,0,0,0.49,-2.87,0.07,-0.21,0.99,0.01
2.0957031,5.6074746E-4,0.0016511083,8.5358333E-4,-0.21,0.99,0.01,22324,10091.30,0,0,165,0.63,-2.87,0.14,-0.21,0.99,0.01
0.79589844,-4.3925177E-4,-3.488958E-4,-1.4641671E-4,-0.21,0.99,0.01,22339,10090.00,0,0,0,0.56,-3.01,0.07,-0.21,0.99,0.01
1.0957031,-0.0014392519,6.5110624E-4,-0.0011464168,-0.21,0.99,0.01,22354,10090.30,0,0,165,0.49,-2.94,0.00,-0.21,0.99,0.01
1.6962891,5.6074746E-4,-3.488958E-4,-1.4641671E-4,-0.21,0.99,0.01,22362,10090.90,0,0,0,0.63,-3.01,0.07,-0.21,0.99,0.01
3.0957031,5.6074746E-4,-3.488958E-4,-0.0011464168,-0.21,0.99,0.01,22377,10092.30,0,0,165,0.63,-3.01,0.00,-0.21,0.99,0.01
2.0957031,-4.3925177E-4,-3.488958E-4,-0.0021464168,-0.21,0.99,0.01,22384,10091.30,0,0,0,0.56,-3.01,-0.07,-0.21,0.99,0.01
1.6962891,5.6074746E-4,6.5110624E-4,8.5358333E-4,-0.21,0.99,0.01,22399,10090.90,0,0,165,0.63,-2.94,0.14,-0.21,0.99,0.01
1.6962891,5.6074746E-4,-3.488958E-4,-1.4641671E-4,-0.21,0.99,0.01,22415,10090.90,0,0,0,0.63,-3.01,0.07,-0.21,0.99,0.01
1.6962891,0.0015607476,-3.488958E-4,-1.4641671E-4,-0.21,0.99,0.01,22429,10090.90,0,0,165,0.70,-3.01,0.07,-0.21,0.99,0.01
1.6962891,-4.3925177E-4,6.5110624E-4,8.5358333E-4,-0.21,0.99,0.01,22436,10090.90,0,0,0,0.56,-2.94,0.14,-0.21,0.99,0.01
2.0957031,-4.3925177E-4,-3.488958E-4,-0.0011464168,-0.21,0.99,0.01,22452,10091.30,0,0,165,0.56,-3.01,0.00,-0.21,0.99,0.01
1.0957031,-0.0014392519,6.5110624E-4,-1.4641671E-4,-0.21,0.99,0.01,22459,10090.30,0,0,0,0.49,-2.94,0.07,-0.21,0.99,0.01
2.0957031,-4.3925177E-4,6.5110624E-4,-0.0011464168,-0.21,0.99,0.01,22474,10091.30,0,0,165,0.56,-2.94,0.00,-0.21,0.99,0.01
2.0957031,-0.0014392519,-3.488958E-4,-0.0011464168,-0.22,0.99,0.01,22482,10091.30,0,0,0,0.49,-3.01,0.00,-0.22,0.99,0.01
2.3955078,5.6074746E-4,6.5110624E-4,-0.0011464168,-0.21,0.99,0.01,22497,10091.60,0,0,165,0.63,-2.94,0.00,-0.21,0.99,0.01
2.0957031,-4.3925177E-4,6.5110624E-4,-0.0011464168,-0.21,0.99,0.01,22512,10091.30,0,0,0,0.56,-2.94,0.00,-0.21,0.99,0.01
1.6962891,-0.0014392519,6.5110624E-4,8.5358333E-4,-0.21,0.99,0.01,22520,10090.90,0,0,165,0.49,-2.94,0.14,-0.21,0.99,0.01
2.696289,0.0015607476,6.5110624E-4,-1.4641671E-4,-0.21,0.99,0.01,22534,10091.90,0,0,0,0.70,-2.94,0.07,-0.21,0.99,0.01
1.0957031,5.6074746E-4,-0.0013488941,-0.0011464168,-0.21,0.99,0.01,22549,10090.30,0,0,165,0.63,-3.08,0.00,-0.21,0.99,0.01
2.0957031,0.0015607476,-3.488958E-4,-0.0011464168,-0.21,0.99,0.01,22557,10091.30,0,0,0,0.70,-3.01,0.00,-0.21,0.99,0.01
1.6962891,0.0015607476,0.0016511083,0.001853583,-0.21,0.99,0.01,22571,10090.90,0,0,165,0.70,-2.87,0.21,-0.21,0.99,0.01
1.6962891,-4.3925177E-4,6.5110624E-4,-1.4641671E-4,-0.21,0.99,0.01,22586,10090.90,0,0,0,0.56,-2.94,0.07,-0.21,0.99,0.01
1.6962891,-4.3925177E-4,6.5110624E-4,8.5358333E-4,-0.21,0.99,0.01,22594,10090.90,0,0,165,0.56,-2.94,0.14,-0.21,0.99,0.01
1.6962891,-0.0014392519,-3.488958E-4,-0.0011464168,-0.21,0.99,0.01,22609,10090.90,0,0,0,0.49,-3.01,0.00,-0.21,0.99,0.01
1.6962891,-4.3925177E-4,6.5110624E-4,-0.0011464168,-0.21,0.99,0.01,22624,10090.90,0,0,165,0.56,-2.94,0.00,-0.21,0.99,0.01
2.0957031,-4.3925177E-4,-0.0013488941,-0.003146417,-0.21,0.99,0.01,22632,10091.30,0,0,0,0.56,-3.08,-0.14,-0.21,0.99,0.01
1.6962891,-4.3925177E-4,-0.0013488941,-0.0011464168,-0.21,0.99,0.01,22647,10090.90,0,0,165,0.56,-3.08,0.00,-0.21,0.99,0.01
2.0957031,-0.0014392519,-3.488958E-4,-1.4641671E-4,-0.21,0.99,0.01,22662,10091.30,0,0,0,0.49,-3.01,0.07,-0.21,0.99,0.01
1.6962891,5.6074746E-4,-3.488958E-4,8.5358333E-4,-0.21,0.99,0.01,22670,10090.90,0,0,165,0.63,-3.01,0.14,-0.21,0.99,0.01
0.79589844,5.6074746E-4,-3.488958E-4,-0.0011464168,-0.21,0.99,0.01,22684,10090.00,0,0,0,0.63,-3.01,0.00,-0.21,0.99,0.01
2.0957031,0.0015607476,6.5110624E-4,0.001853583,-0.21,0.99,0.01,22699,10091.30,0,0,165,0.70,-2.94,0.21,-0.21,0.99,0.01
2.0957031,5.6074746E-4,0.0016511083,8.5358333E-4,-0.21,0.99,0.01,22707,10091.30,0,0,0,0.63,-2.87,0.14,-0.21,0.99,0.01
0.79589844,-0.0014392519,-3.488958E-4,-1.4641671E-4,-0.21,0.99,0.01,22722,10090.00,0,0,165,0.49,-3.01,0.07,-0.21,0.99,0.01
1.6962891,5.6074746E-4,-3.488958E-4,8.5358333E-4,-0.21,0.99,0.01,22737,10090.90,0,0,0,0.63,-3.01,0.14,-0.21,0.99,0.01
1.0957031,-0.0014392519,-3.488958E-4,-0.0021464168,-0.21,0.99,0.01,22744,10090.30,0,0,165,0.49,-3.01,-0.07,-0.21,0.99,0.01
1.6962891,-0.0014392519,-3.488958E-4,-0.0021464168,-0.21,0.99,0.01,22760,10090.90,0,0,0,0.49,-3.01,-0.07,-0.21,0.99,0.01
1.6962891,5.6074746E-4,-3.488958E-4,-1.4641671E-4,-0.21,0.99,0.01,22774,10090.90,0,0,165,0.63,-3.01,0.07,-0.21,0.99,0.01
2.0957031,-0.0014392519,-3.488958E-4,-0.0011464168,-0.21,0.99,0.01,22782,10091.30,0,0,0,0.49,-3.01,0.00,-0.21,0.99,0.01
3.0957031,5.6074746E-4,6.5110624E-4,-1.4641671E-4,-0.21,0.99,0.01,22797,10092.30,0,0,165,0.63,-2.94,0.07,-0.21,0.99,0.01
2.0957031,5.6074746E-4,6.5110624E-4,8.5358333E-4,-0.21,0.99,0.01,22812,10091.30,0,0,0,0.63,-2.94,0.14,-0.21,0.99,0.01
1.6962891,0.0015607476,6.5110624E-4,8.5358333E-4,-0.21,0.99,0.01,22819,10090.90,0,0,165,0.70,-2.94,0.14,-0.21,0.99,0.01
1.0957031,-0.0014392519,6.5110624E-4,-1.4641671E-4,-0.21,0.99,0.01,22834,10090.30,0,0,0,0.49,-2.94,0.07,-0.21,0.99,0.01
1.6962891,0.0015607476,6.5110624E-4,-0.0011464168,-0.22,0.99,0.01,22849,10090.90,0,0,165,0.70,-2.94,0.00,-0.22,0.99,0.01
1.6962891,5.6074746E-4,6.5110624E-4,-1.4641671E-4,-0.21,0.99,0.01,22856,10090.90,0,0,0,0.63,-2.94,0.07,-0.21,0.99,0.01
2.0957031,-4.3925177E-4,6.5110624E-4,-0.0011464168,-0.21,0.99,0.01,22872,10091.30,0,0,165,0.56,-2.94,0.00,-0.21,0.99,0.01
1.0957031,0.0025607478,-3.488958E-4,-0.0011464168,-0.21,0.99,0.01,22887,10090.30,0,0,0,0.77,-3.01,0.00,-0.21,0.99,0.01
1.6962891,-0.0014392519,6.5110624E-4,-0.0011464168,-0.21,0.99,0.01,22894,10090.90,0,0,165,0.49,-2.94,0.00,-0.21,0.99,0.01
1.6962891,-4.3925177E-4,-3.488958E-4,-0.0011464168,-0.21,0.99,0.01,22909,10090.90,0,0,0,0.56,-3.01,0.00,-0.21,0.99,0.01
2.0957031,0.0015607476,0.0016511083,8.5358333E-4,-0.21,0.99,0.01,22924,10091.30,0,0,165,0.70,-2.87,0.14,-0.21,0.99,0.01
1.6962891,-4.3925177E-4,0.0016511083,8.5358333E-4,-0.21,0.99,0.01,22931,10090.90,0,0,0,0.56,-2.87,0.14,-0.21,0.99,0.01
2.0957031,0.0015607476,-3.488958E-4,-1.4641671E-4,-0.21,0.99,0.01,22948,10091.30,0,0,165,0.70,-3.01,0.07,-0.21,0.99,0.01
2.0957031,-4.3925177E-4,6.5110624E-4,-0.0021464168,-0.21,0.99,0.01,22961,10091.30,0,0,0,0.56,-2.94,-0.07,-0.21,0.99,0.01
1.0957031,-0.0014392519,-0.0013488941,-0.0011464168,-0.21,0.99,0.01,22969,10090.30,0,0,165,0.49,-3.08,0.00,-0.21,0.99,0.01
2.0957031,-0.0014392519,-0.0013488941,8.5358333E-4,-0.21,0.99,0.01,22984,10091.30,0,0,0,0.49,-3.08,0.14,-0.21,0.99,0.01
0.79589844,-0.0014392519,-0.0013488941,-0.003146417,-0.21,0.99,0.01,22999,10090.00,0,0,165,0.49,-3.08,-0.14,-0.21,0.99,0.01
0.79589844,5.6074746E-4,0.0016511083,-0.0021464168,-0.21,0.99,0.01,23009,10090.00,0,0,0,0.63,-2.87,-0.07,-0.21,0.99,0.01
3.0957031,0.0015607476,-3.488958E-4,-0.0011464168,-0.21,0.99,0.01,23025,10092.30,0,0,165,0.70,-3.01,0.00,-0.21,0.99,0.01
1.0957031,-4.3925177E-4,0.0016511083,-1.4641671E-4,-0.21,0.99,0.01,23040,10090.30,0,0,0,0.56,-2.87,0.07,-0.21,0.99,0.01
1.0957031,-0.0024392526,-3.488958E-4,-1.4641671E-4,-0.21,0.99,0.01,23044,10090.30,0,0,165,0.42,-3.01,0.07,-0.21,0.99,0.01
2.0957031,-0.0014392519,-3.488958E-4,8.5358333E-4,-0.21,0.99,0.01,23059,10091.30,0,0,0,0.49,-3.01,0.14,-0.21,0.99,0.01
1.6962891,-0.0014392519,6.5110624E-4,8.5358333E-4,-0.21,0.99,0.01,23074,10090.90,0,0,165,0.49,-2.94,0.14,-0.21,0.99,0.01
1.6962891,0.0015607476,6.5110624E-4,-1.4641671E-4,-0.21,0.99,0.01,23082,10090.90,0,0,0,0.70,-2.94,0.07,-0.21,0.99,0.01
1.6962891,5.6074746E-4,-3.488958E-4,-1.4641671E-4,-0.21,0.99,0.01,23097,10090.90,0,0,165,0.63,-3.01,0.07,-0.21,0.99,0.01
1.6962891,0.0025607478,-3.488958E-4,-1.4641671E-4,-0.21,0.99,0.01,23112,10090.90,0,0,0,0.77,-3.01,0.07,-0.21,0.99,0.01
1.6962891,-0.0014392519,-3.488958E-4,-0.0021464168,-0.21,0.99,0.01,23119,10090.90,0,0,165,0.49,-3.01,-0.07,-0.21,0.99,0.01
2.0957031,-4.3925177E-4,6.5110624E-4,8.5358333E-4,-0.22,0.99,0.01,23134,10091.30,0,0,0,0.56,-2.94,0.14,-0.22,0.99,0.01
