Pressure_Rel,GyroX_Rel,GyroY_Rel,GyroZ_Rel,AccX_Rel,AccY_Rel,AccZ_Rel,Timestamp,Pressure_abs,HeartRate,Oxygen,Status,GyroX,GyroY,GyroZ,AccX,AccY,AccZ
0.0,0.0,0.0,0.0,0.0,0.0,0.0,6099,10150.90,0,0,0,-25.34,-13.09,18.97,-0.10,0.99,0.18
0.0,0.0,0.0,0.0,0.0,0.0,0.0,6112,10151.90,0,0,0,-157.01,-112.77,13.86,-0.10,0.99,0.18
0.0,0.0,0.0,0.0,0.0,0.0,0.0,6123,10151.90,0,0,165,5.95,-2.10,0.84,-0.10,0.99,0.19
0.0,0.0,0.0,0.0,0.0,0.0,0.0,6135,10151.90,0,0,0,0.42,-3.50,0.21,-0.10,0.99,0.18
0.0,0.0,0.0,0.0,0.0,0.0,0.0,6150,10151.90,0,0,165,0.49,-3.36,0.14,-0.10,0.99,0.19
0.0,0.0,0.0,0.0,0.0,0.0,0.0,6158,10151.90,0,0,0,0.49,-3.22,0.14,-0.10,0.99,0.19
0.0,0.0,0.0,0.0,0.0,0.0,0.0,6172,10150.90,0,0,165,0.56,-3.08,0.00,-0.10,0.99,0.19
0.0,0.0,0.0,0.0,0.0,0.0,0.0,6191,10150.90,0,0,0,0.56,-2.87,0.00,-0.10,0.99,0.18
0.0,0.0,0.0,0.0,0.0,0.0,0.0,6195,10150.90,0,0,165,0.56,-2.94,-0.07,-0.10,0.99,0.18
0.0,0.0,0.0,0.0,0.0,0.0,0.0,6210,10150.90,0,0,0,0.35,-2.87,17.85,-0.10,0.99,0.18
0.0,0.0,0.0,0.0,0.0,0.0,0.0,6225,10151.90,0,0,165,0.28,-3.01,0.00,-0.10,0.99,0.18
0.0,0.0,0.0,0.0,0.0,0.0,0.0,6233,10150.90,0,0,0,0.07,-2.94,0.00,-0.10,0.99,0.19
0.0,0.0,0.0,0.0,0.0,0.0,0.0,6247,10152.90,0,0,165,0.14,-3.08,0.07,-0.10,0.99,0.19
0.0,0.0,0.0,0.0,0.0,0.0,0.0,6263,10152.20,0,0,0,0.21,-3.01,-0.07,-0.10,0.99,0.19
0.0,0.0,0.0,0.0,0.0,0.0,0.0,6270,10151.20,0,0,165,0.42,-2.73,0.07,-0.10,0.99,0.19
0.0,0.0,0.0,0.0,0.0,0.0,0.0,6284,10151.90,0,0,0,0.42,-2.73,0.14,-0.10,0.99,0.19
0.0,0.0,0.0,0.0,0.0,0.0,0.0,6299,10152.20,0,0,165,0.42,-2.73,0.00,-0.10,0.99,0.19
0.0,0.0,0.0,0.0,0.0,0.0,0.0,6307,10151.20,0,0,0,0.56,-2.80,0.07,-0.11,0.99,0.19
0.0,0.0,0.0,0.0,0.0,0.0,0.0,6323,10152.20,0,0,165,0.63,-2.87,0.07,-0.10,0.99,0.18
0.0,0.0,0.0,0.0,0.0,0.0,0.0,6338,10152.20,0,0,0,0.42,-3.01,0.07,-0.10,0.99,0.18
0.0,0.0,0.0,0.0,0.0,0.0,0.0,6344,10150.90,0,0,165,0.35,-3.22,0.07,-0.10,0.99,0.18
0.0,0.0,0.0,0.0,0.0,0.0,0.0,6360,10150.90,0,0,0,0.35,-3.29,0.14,-0.10,0.99,0.18
0.0,0.0,0.0,0.0,0.0,0.0,0.0,6374,10150.90,0,0,165,0.35,-3.29,0.21,-0.10,0.99,0.19
0.0,0.0,0.0,0.0,0.0,0.0,0.0,6382,10150.90,0,0,0,0.35,-3.36,0.14,-0.10,0.99,0.19
0.0,0.0,0.0,0.0,0.0,0.0,0.0,6397,10151.20,0,0,165,0.42,-3.29,0.14,-0.10,0.99,0.19
0.0,0.0,0.0,0.0,0.0,0.0,0.0,6413,10151.20,0,0,0,0.42,-3.15,0.07,-0.10,0.99,0.19
0.0,0.0,0.0,0.0,0.0,0.0,0.0,6420,10150.90,0,0,165,0.56,-3.15,0.21,-0.10,0.99,0.19
0.0,0.0,0.0,0.0,0.0,0.0,0.0,6435,10152.20,0,0,0,0.56,-3.08,0.07,-0.10,1.00,0.19
0.0,0.0,0.0,0.0,0.0,0.0,0.0,6450,10151.20,0,0,165,0.42,-3.08,0.07,-0.10,0.99,0.19
0.0,0.0,0.0,0.0,0.0,0.0,0.0,6458,10150.90,0,0,0,0.49,-3.01,0.14,-0.10,0.99,0.19
0.0,0.0,0.0,0.0,0.0,0.0,0.0,6474,10152.20,0,0,165,0.42,-3.08,0.07,-0.10,1.00,0.18
0.0,0.0,0.0,0.0,0.0,0.0,0.0,6489,10150.90,0,0,0,0.49,-2.87,0.00,-0.10,0.99,0.19
0.0,0.0,0.0,0.0,0.0,0.0,0.0,6495,10151.20,0,0,165,0.35,-2.87,0.07,-0.10,0.99,0.18
0.0,0.0,0.0,0.0,0.0,0.0,0.0,6510,10151.20,0,0,0,0.28,-2.87,-0.07,-0.10,0.99,0.19
0.0,0.0,0.0,0.0,0.0,0.0,0.0,6525,10152.20,0,0,165,0.21,-2.80,0.07,-0.10,0.99,0.19
0.0,0.0,0.0,0.0,0.0,0.0,0.0,6532,10152.20,0,0,0,0.21,-2.80,-0.07,-0.10,0.99,0.18
0.0,0.0,0.0,0.0,0.0,0.0,0.0,6548,10152.20,0,0,165,0.07,-2.80,0.00,-0.10,0.99,0.19
0.0,0.0,0.0,0.0,0.0,0.0,0.0,6562,10151.20,0,0,0,0.28,-2.73,-0.07,-0.10,0.99,0.19
0.0,0.0,0.0,0.0,0.0,0.0,0.0,6570,10151.90,0,0,165,0.35,-2.73,0.07,-0.10,0.99,0.19
0.0,0.0,0.0,0.0,0.0,0.0,0.0,6585,10150.30,0,0,0,0.21,-2.73,0.14,-0.10,0.99,0.19
0.0,0.0,0.0,0.0,0.0,0.0,0.0,6600,10151.20,0,0,165,0.35,-2.80,0.14,-0.10,0.99,0.19
0.0,0.0,0.0,0.0,0.0,0.0,0.0,6607,10151.20,0,0,0,0.21,-2.80,0.21,-0.10,0.99,0.19
0.0,0.0,0.0,0.0,0.0,0.0,0.0,6624,10152.20,0,0,165,0.49,-2.87,0.07,-0.10,0.99,0.19
0.0,0.0,0.0,0.0,0.0,0.0,0.0,6638,10151.20,0,0,0,0.56,-2.87,-0.07,-0.10,0.99,0.19
0.0,0.0,0.0,0.0,0.0,0.0,0.0,6645,10152.20,0,0,165,0.42,-2.94,0.07,-0.10,0.99,0.19
0.0,0.0,0.0,0.0,0.0,0.0,0.0,6660,10151.20,0,0,0,0.35,-3.15,0.07,-0.10,0.99,0.19
0.0,0.0,0.0,0.0,0.0,0.0,0.0,6675,10151.90,0,0,165,0.63,-3.15,0.14,-0.10,0.99,0.19
0.0,0.0,0.0,0.0,0.0,0.0,0.0,6683,10152.20,0,0,0,0.35,-3.15,0.07,-0.10,0.99,0.19
0.0,0.0,0.0,0.0,0.0,0.0,0.0,6697,10152.20,0,0,165,0.49,-3.08,0.21,-0.10,0.99,0.19
0.0,0.0,0.0,0.0,0.0,0.0,0.0,6712,10151.20,0,0,0,0.42,-3.08,0.14,-0.10,0.99,0.19
0.0,0.0,0.0,0.0,0.0,0.0,0.0,6719,10151.20,0,0,165,0.56,-3.08,0.14,-0.10,0.99,0.19
0.0,0.0,0.0,0.0,0.0,0.0,0.0,6735,10152.20,0,0,0,0.49,-3.08,0.07,-0.10,0.99,0.18
0.0,0.0,0.0,0.0,0.0,0.0,0.0,6750,10151.20,0,0,165,0.42,-3.01,0.14,-0.10,0.99,0.19
0.0,0.0,0.0,0.0,0.0,0.0,0.0,6758,10152.20,0,0,0,0.42,-2.94,0.14,-0.10,0.99,0.19
0.0,0.0,0.0,0.0,0.0,0.0,0.0,6774,10151.20,0,0,165,0.35,-2.87,0.14,-0.10,0.99,0.18
0.0,0.0,0.0,0.0,0.0,0.0,0.0,6789,10152.20,0,0,0,0.28,-2.94,0.00,-0.09,0.99,0.19
0.0,0.0,0.0,0.0,0.0,0.0,0.0,6795,10151.20,0,0,165,0.21,-2.94,0.00,-0.10,0.99,0.19
0.0,0.0,0.0,0.0,0.0,0.0,0.0,6810,10151.20,0,0,0,0.28,-2.87,0.07,-0.10,0.99,0.19
0.0,0.0,0.0,0.0,0.0,0.0,0.0,6825,10151.20,0,0,165,0.21,-2.80,0.07,-0.10,0.99,0.19
0.0,0.0,0.0,0.0,0.0,0.0,0.0,6832,10152.20,0,0,0,0.28,-2.80,0.00,-0.10,0.99,0.19
0.0,0.0,0.0,0.0,0.0,0.0,0.0,6848,10152.20,0,0,165,0.21,-2.80,0.14,-0.10,0.99,0.19
0.0,0.0,0.0,0.0,0.0,0.0,0.0,6863,10152.20,0,0,0,0.21,-2.80,0.00,-0.10,0.99,0.19
0.0,0.0,0.0,0.0,0.0,0.0,0.0,6870,10152.20,0,0,165,0.07,-2.80,-0.07,-0.10,0.99,0.19
0.0,0.0,0.0,0.0,0.0,0.0,0.0,6885,10151.20,0,0,0,0.28,-2.59,0.00,-0.10,0.99,0.19
0.0,0.0,0.0,0.0,0.0,0.0,0.0,6900,10152.20,0,0,165,0.21,-2.52,0.00,-0.10,0.99,0.19
0.0,0.0,0.0,0.0,0.0,0.0,0.0,6908,10151.20,0,0,0,0.35,-2.59,0.00,-0.10,0.99,0.19
0.0,0.0,0.0,0.0,0.0,0.0,0.0,6923,10152.20,0,0,165,0.35,-2.45,0.21,-0.10,0.99,0.19
0.0,0.0,0.0,0.0,0.0,0.0,0.0,6939,10151.20,0,0,0,0.42,-2.59,0.14,-0.10,0.99,0.19
0.0,0.0,0.0,0.0,0.0,0.0,0.0,6946,10151.20,0,0,165,0.49,-2.45,0.07,-0.10,0.99,0.19
0.0,0.0,0.0,0.0,0.0,0.0,0.0,6960,10152.20,0,0,0,1.47,-2.73,-0.42,-0.09,1.00,0.18
0.0,0.0,0.0,0.0,0.0,0.0,0.0,6975,10152.20,0,0,165,-1.05,-2.87,-0.98,-0.11,0.99,0.19
0.0,0.0,0.0,0.0,0.0,0.0,0.0,6982,10151.20,0,0,0,-0.70,-3.85,1.33,-0.10,0.97,0.19
0.0,0.0,0.0,0.0,0.0,0.0,0.0,6998,10152.20,0,0,165,0.84,-2.73,0.00,-0.11,1.01,0.20
0.0,0.0,0.0,0.0,0.0,0.0,0.0,7012,10150.30,0,0,0,1.89,-2.31,0.28,-0.11,1.00,0.19
0.0,0.0,0.0,0.0,0.0,0.0,0.0,7020,10152.20,0,0,165,1.05,-2.24,-0.49,-0.10,0.98,0.18
0.0,0.0,0.0,0.0,0.0,0.0,0.0,7035,10151.60,0,0,0,0.07,-3.08,-0.21,-0.11,0.99,0.18
0.0,0.0,0.0,0.0,0.0,0.0,0.0,7050,10152.20,0,0,165,-1.05,-3.22,1.12,-0.11,1.00,0.18
0.0,0.0,0.0,0.0,0.0,0.0,0.0,7057,10151.20,0,0,0,17.64,-3.29,0.70,-0.10,0.99,0.18
0.0,0.0,0.0,0.0,0.0,0.0,0.0,7073,10152.20,0,0,165,1.26,-3.50,-0.70,-0.11,1.00,0.18
0.0,0.0,0.0,0.0,0.0,0.0,0.0,7087,10152.20,0,0,0,1.05,-3.57,0.07,-0.10,0.99,0.19
0.84472656,2.2360263E-4,7.764064E-4,0.0016211201,-0.1,0.99,0.19,11108,10152.60,0,0,165,0.42,-2.94,0.00,-0.10,0.99,0.19
-0.15527344,-7.7639706E-4,7.764064E-4,0.0016211201,-0.1,0.99,0.19,11130,10151.60,0,0,0,0.35,-2.94,0.00,-0.10,0.99,0.19
0.84472656,0.0012236033,0.0017764084,0.0016211201,-0.1,0.99,0.19,11143,10152.60,0,0,165,0.49,-2.87,0.00,-0.10,0.99,0.19
-0.15527344,2.2360263E-4,7.764064E-4,6.211201E-4,-0.1,0.99,0.19,11145,10151.60,0,0,0,0.42,-2.94,-0.07,-0.10,0.99,0.19
-0.15527344,0.0012236033,7.764064E-4,0.0026211203,-0.1,0.99,0.19,11160,10151.60,0,0,165,0.49,-2.94,0.07,-0.10,0.99,0.19
-0.15527344,2.2360263E-4,-2.2359565E-4,0.0016211201,-0.1,0.99,0.19,11175,10151.60,0,0,0,0.42,-3.01,0.00,-0.10,0.99,0.19
1.1455078,2.2360263E-4,-2.2359565E-4,0.0026211203,-0.1,0.99,0.19,11182,10152.90,0,0,165,0.42,-3.01,0.07,-0.10,0.99,0.19
-0.15527344,2.2360263E-4,-2.2359565E-4,0.0026211203,-0.1,0.99,0.19,11197,10151.60,0,0,0,0.42,-3.01,0.07,-0.10,0.99,0.19
-0.15527344,2.2360263E-4,-0.001223594,0.0036211202,-0.1,0.99,0.19,11212,10151.60,0,0,165,0.42,-3.08,0.14,-0.10,0.99,0.19
0.14550781,2.2360263E-4,-0.001223594,0.0016211201,-0.1,0.99,0.19,11221,10151.90,0,0,0,0.42,-3.08,0.00,-0.10,0.99,0.19
-0.15527344,0.0022236034,-0.001223594,0.0026211203,-0.1,0.99,0.19,11235,10151.60,0,0,165,0.56,-3.08,0.07,-0.10,0.99,0.19
-1.1552734,2.2360263E-4,-0.002223596,0.0016211201,-0.1,0.99,0.19,11250,10150.60,0,0,0,0.42,-3.15,0.00,-0.10,0.99,0.19
-0.15527344,2.2360263E-4,-0.001223594,0.0026211203,-0.1,0.99,0.19,11257,10151.60,0,0,165,0.42,-3.08,0.07,-0.10,0.99,0.19
-0.15527344,-7.7639706E-4,-0.002223596,0.0036211202,-0.1,0.99,0.19,11272,10151.60,0,0,0,0.35,-3.15,0.14,-0.10,0.99,0.19
0.14550781,0.0022236034,-2.2359565E-4,0.0036211202,-0.1,0.99,0.19,11287,10151.90,0,0,165,0.56,-3.01,0.14,-0.10,0.99,0.19
-0.15527344,-7.7639706E-4,-0.001223594,0.0026211203,-0.1,0.99,0.19,11294,10151.60,0,0,0,0.35,-3.08,0.07,-0.10,0.99,0.19
-0.15527344,0.0012236033,7.764064E-4,0.0026211203,-0.1,0.99,0.19,11309,10151.60,0,0,165,0.49,-2.94,0.07,-0.10,0.99,0.19
0.84472656,2.2360263E-4,-2.2359565E-4,0.0026211203,-0.1,0.99,0.19,11324,10152.60,0,0,0,0.42,-3.01,0.07,-0.10,0.99,0.19
0.84472656,-7.7639706E-4,-0.001223594,0.0026211203,-0.1,0.99,0.19,11332,10152.60,0,0,165,0.35,-3.08,0.07,-0.10,0.99,0.19
0.84472656,-0.0017763968,0.0017764084,0.0026211203,-0.1,0.99,0.19,11347,10152.60,0,0,0,0.28,-2.87,0.07,-0.10,0.99,0.19
-0.15527344,-7.7639706E-4,7.764064E-4,0.0036211202,-0.1,0.99,0.19,11362,10151.60,0,0,165,0.35,-2.94,0.14,-0.10,0.99,0.19
-0.15527344,-7.7639706E-4,7.764064E-4,0.00462112,-0.1,0.99,0.19,11370,10151.60,0,0,0,0.35,-2.94,0.21,-0.10,0.99,0.19
0.14550781,0.0012236033,0.0017764084,0.0036211202,-0.1,0.99,0.19,11385,10151.90,0,0,165,0.49,-2.87,0.14,-0.10,0.99,0.19
0.84472656,2.2360263E-4,-2.2359565E-4,6.211201E-4,-0.1,0.99,0.19,11400,10152.60,0,0,0,0.42,-3.01,-0.07,-0.10,0.99,0.19
0.14550781,-7.7639706E-4,-2.2359565E-4,0.0016211201,-0.1,0.99,0.19,11407,10151.90,0,0,165,0.35,-3.01,0.00,-0.10,0.99,0.19
-0.15527344,2.2360263E-4,0.0017764084,6.211201E-4,-0.1,0.99,0.19,11422,10151.60,0,0,0,0.42,-2.87,-0.07,-0.10,0.99,0.19
-0.15527344,-7.7639706E-4,7.764064E-4,6.211201E-4,-0.1,0.99,0.19,11437,10151.60,0,0,165,0.35,-2.94,-0.07,-0.10,0.99,0.19
-0.15527344,0.0012236033,7.764064E-4,0.0016211201,-0.1,0.99,0.19,11453,10151.60,0,0,0,0.49,-2.94,0.00,-0.10,0.99,0.19
0.84472656,0.0012236033,7.764064E-4,0.0016211201,-0.1,0.99,0.19,11460,10152.60,0,0,165,0.49,-2.94,0.00,-0.10,0.99,0.19
0.84472656,0.0012236033,0.0017764084,0.0036211202,-0.1,0.99,0.19,11476,10152.60,0,0,0,0.49,-2.87,0.14,-0.10,0.99,0.19
-0.15527344,2.2360263E-4,0.0027764067,0.0026211203,-0.1,0.99,0.19,11483,10151.60,0,0,165,0.42,-2.80,0.07,-0.10,0.99,0.19
0.84472656,2.2360263E-4,7.764064E-4,0.0026211203,-0.1,0.99,0.19,11498,10152.60,0,0,0,0.42,-2.94,0.07,-0.10,0.99,0.19
0.84472656,-0.0017763968,-2.2359565E-4,0.0026211203,-0.1,0.99,0.19,11513,10152.60,0,0,165,0.28,-3.01,0.07,-0.10,0.99,0.19
1.1455078,2.2360263E-4,7.764064E-4,0.0026211203,-0.1,0.99,0.19,11522,10152.90,0,0,0,0.42,-2.94,0.07,-0.10,0.99,0.19
-0.15527344,-7.7639706E-4,7.764064E-4,0.0026211203,-0.1,0.99,0.19,11534,10151.60,0,0,165,0.35,-2.94,0.07,-0.10,0.99,0.19
-0.15527344,2.2360263E-4,-0.001223594,0.0026211203,-0.1,0.99,0.19,11550,10151.60,0,0,0,0.42,-3.08,0.07,-0.10,0.99,0.19
0.84472656,-7.7639706E-4,-2.2359565E-4,0.0036211202,-0.1,0.99,0.19,11557,10152.60,0,0,165,0.35,-3.01,0.14,-0.10,0.99,0.19
-0.15527344,0.0012236033,-2.2359565E-4,0.0036211202,-0.1,0.99,0.19,11573,10151.60,0,0,0,0.49,-3.01,0.14,-0.10,0.99,0.19
0.84472656,0.0012236033,-0.002223596,0.0036211202,-0.1,0.99,0.19,11587,10152.60,0,0,165,0.49,-3.15,0.14,-0.10,0.99,0.19
0.14550781,0.0012236033,-2.2359565E-4,0.00462112,-0.1,0.99,0.19,11595,10151.90,0,0,0,0.49,-3.01,0.21,-0.10,0.99,0.19
0.84472656,2.2360263E-4,-2.2359565E-4,0.0026211203,-0.1,0.99,0.19,11610,10152.60,0,0,165,0.42,-3.01,0.07,-0.10,0.99,0.19
-0.15527344,2.2360263E-4,-0.002223596,0.0036211202,-0.1,0.99,0.19,11626,10151.60,0,0,0,0.42,-3.15,0.14,-0.10,0.99,0.19
0.84472656,-7.7639706E-4,-0.002223596,0.0016211201,-0.1,0.99,0.19,11632,10152.60,0,0,165,0.35,-3.15,0.00,-0.10,0.99,0.19
0.14550781,0.0012236033,-2.2359565E-4,0.0016211201,-0.1,0.99,0.19,11647,10151.90,0,0,0,0.49,-3.01,0.00,-0.10,0.99,0.19
0.84472656,-7.7639706E-4,7.764064E-4,0.0026211203,-0.1,0.99,0.19,11662,10152.60,0,0,165,0.35,-2.94,0.07,-0.10,0.99,0.19
-0.15527344,2.2360263E-4,7.764064E-4,0.0026211203,-0.1,0.99,0.19,11671,10151.60,0,0,0,0.42,-2.94,0.07,-0.10,0.99,0.19
-0.15527344,0.0012236033,7.764064E-4,0.0026211203,-0.1,0.99,0.19,11685,10151.60,0,0,165,0.49,-2.94,0.07,-0.10,0.99,0.19
2.1455078,2.2360263E-4,7.764064E-4,0.0036211202,-0.1,0.99,0.19,11700,10153.90,0,0,0,0.42,-2.94,0.14,-0.10,0.99,0.19
0.84472656,0.0022236034,7.764064E-4,0.0016211201,-0.1,0.99,0.19,11707,10152.60,0,0,165,0.56,-2.94,0.00,-0.10,0.99,0.19
-0.15527344,-7.7639706E-4,-2.2359565E-4,0.0016211201,-0.1,0.99,0.19,11722,10151.60,0,0,0,0.35,-3.01,0.00,-0.10,0.99,0.19
-0.15527344,2.2360263E-4,7.764064E-4,0.0016211201,-0.1,0.99,0.19,11738,10151.60,0,0,165,0.42,-2.94,0.00,-0.10,0.99,0.19
0.14550781,-0.0017763968,-2.2359565E-4,6.211201E-4,-0.1,0.99,0.19,11745,10151.90,0,0,0,0.28,-3.01,-0.07,-0.10,0.99,0.19
-0.15527344,-7.7639706E-4,7.764064E-4,6.211201E-4,-0.1,0.99,0.19,11761,10151.60,0,0,165,0.35,-2.94,-0.07,-0.10,0.99,0.19
-0.15527344,2.2360263E-4,7.764064E-4,0.0026211203,-0.1,0.99,0.19,11775,10151.60,0,0,0,0.42,-2.94,0.07,-0.10,0.99,0.19
-0.15527344,-7.7639706E-4,7.764064E-4,0.0036211202,-0.1,0.99,0.19,11782,10151.60,0,0,165,0.35,-2.94,0.14,-0.10,0.99,0.19
-0.15527344,2.2360263E-4,0.0017764084,0.00462112,-0.1,0.99,0.19,11797,10151.60,0,0,0,0.42,-2.87,0.21,-0.10,0.99,0.19
0.84472656,2.2360263E-4,7.764064E-4,0.0036211202,-0.1,0.99,0.19,11813,10152.60,0,0,165,0.42,-2.94,0.14,-0.10,0.99,0.19
0.84472656,-0.0017763968,7.764064E-4,0.0026211203,-0.1,0.99,0.19,11822,10152.60,0,0,0,0.28,-2.94,0.07,-0.10,0.99,0.19
-1.1552734,-7.7639706E-4,7.764064E-4,0.0036211202,-0.1,0.99,0.19,11835,10150.60,0,0,165,0.35,-2.94,0.14,-0.10,0.99,0.19
0.14550781,2.2360263E-4,7.764064E-4,6.211201E-4,-0.1,0.99,0.19,11851,10151.90,0,0,0,0.42,-2.94,-0.07,-0.10,0.99,0.19
1.1455078,-7.7639706E-4,7.764064E-4,0.0036211202,-0.1,0.99,0.19,11858,10152.90,0,0,165,0.35,-2.94,0.14,-0.10,0.99,0.19
-0.15527344,-7.7639706E-4,-2.2359565E-4,0.0036211202,-0.1,0.99,0.19,11872,10151.60,0,0,0,0.35,-3.01,0.14,-0.10,0.99,0.19
-0.15527344,2.2360263E-4,-2.2359565E-4,0.0036211202,-0.1,0.99,0.19,11889,10151.60,0,0,165,0.42,-3.01,0.14,-0.10,0.99,0.19
0.14550781,-0.0017763968,7.764064E-4,0.0036211202,-0.1,0.99,0.19,11896,10151.90,0,0,0,0.28,-2.94,0.14,-0.10,0.99,0.19
-0.15527344,0.0012236033,7.764064E-4,0.0026211203,-0.1,0.99,0.19,11910,10151.60,0,0,165,0.49,-2.94,0.07,-0.10,0.99,0.19
1.1455078,0.0022236034,-0.001223594,0.00462112,-0.1,0.99,0.19,11926,10152.90,0,0,0,0.56,-3.08,0.21,-0.10,0.99,0.19
-0.15527344,2.2360263E-4,-0.001223594,0.0016211201,-0.1,0.99,0.19,11932,10151.60,0,0,165,0.42,-3.08,0.00,-0.10,0.99,0.19
1.1455078,0.0012236033,-0.001223594,0.0036211202,-0.1,0.99,0.19,11947,10152.90,0,0,0,0.49,-3.08,0.14,-0.10,0.99,0.19
-0.15527344,0.0022236034,7.764064E-4,0.0026211203,-0.1,0.99,0.19,11962,10151.60,0,0,165,0.56,-2.94,0.07,-0.10,0.99,0.19
0.14550781,0.0012236033,7.764064E-4,0.0026211203,-0.1,0.99,0.19,11969,10151.90,0,0,0,0.49,-2.94,0.07,-0.10,0.99,0.19
0.84472656,0.0022236034,7.764064E-4,0.0016211201,-0.1,0.99,0.19,11985,10152.60,0,0,165,0.56,-2.94,0.00,-0.10,0.99,0.19
0.84472656,2.2360263E-4,-2.2359565E-4,0.0026211203,-0.1,0.99,0.19,12000,10152.60,0,0,0,0.42,-3.01,0.07,-0.10,0.99,0.19
-0.15527344,0.0012236033,7.764064E-4,0.0026211203,-0.1,0.99,0.19,12007,10151.60,0,0,165,0.49,-2.94,0.07,-0.10,0.99,0.19
0.84472656,-7.7639706E-4,-2.2359565E-4,0.0026211203,-0.1,0.99,0.19,12022,10152.60,0,0,0,0.35,-3.01,0.07,-0.10,0.99,0.19
1.1455078,2.2360263E-4,-2.2359565E-4,0.0026211203,-0.1,0.99,0.19,12037,10152.90,0,0,165,0.42,-3.01,0.07,-0.10,0.99,0.19
-0.15527344,-0.0017763968,-0.001223594,0.0016211201,-0.1,0.99,0.19,12045,10151.60,0,0,0,0.28,-3.08,0.00,-0.10,0.99,0.19
0.14550781,2.2360263E-4,-0.001223594,0.0016211201,-0.1,0.99,0.19,12060,10151.90,0,0,165,0.42,-3.08,0.00,-0.10,0.99,0.19
0.84472656,-0.0017763968,-0.001223594,6.211201E-4,-0.1,0.99,0.19,12075,10152.60,0,0,0,0.28,-3.08,-0.07,-0.10,0.99,0.19
-0.15527344,-7.7639706E-4,-2.2359565E-4,0.0016211201,-0.1,0.99,0.19,12082,10151.60,0,0,165,0.35,-3.01,0.00,-0.10,0.99,0.19
0.14550781,-7.7639706E-4,7.764064E-4,0.0016211201,-0.1,0.99,0.19,12098,10151.90,0,0,0,0.35,-2.94,0.00,-0.10,0.99,0.19
0.84472656,-7.7639706E-4,-2.2359565E-4,0.0026211203,-0.1,0.99,0.19,12112,10152.60,0,0,165,0.35,-3.01,0.07,-0.10,0.99,0.19
-0.15527344,-7.7639706E-4,7.764064E-4,0.00462112,-0.1,0.99,0.19,12120,10151.60,0,0,0,0.35,-2.94,0.21,-0.10,0.99,0.19
-0.15527344,-0.0017763968,7.764064E-4,0.00462112,-0.1,0.99,0.19,12134,10151.60,0,0,165,0.28,-2.94,0.21,-0.10,0.99,0.19
0.14550781,-7.7639706E-4,-2.2359565E-4,0.0026211203,-0.1,0.99,0.19,12149,10151.90,0,0,0,0.35,-3.01,0.07,-0.10,0.99,0.19
-0.15527344,-0.0017763968,-2.2359565E-4,0.0016211201,-0.1,0.99,0.19,12157,10151.60,0,0,165,0.28,-3.01,0.00,-0.10,0.99,0.19
-0.15527344,-7.7639706E-4,7.764064E-4,0.0016211201,-0.1,0.99,0.19,12172,10151.60,0,0,0,0.35,-2.94,0.00,-0.10,0.99,0.19
-0.15527344,-7.7639706E-4,-2.2359565E-4,0.00462112,-0.1,0.99,0.19,12188,10151.60,0,0,165,0.35,-3.01,0.21,-0.10,0.99,0.19
-0.15527344,2.2360263E-4,7.764064E-4,0.0026211203,-0.1,0.99,0.19,12195,10151.60,0,0,0,0.42,-2.94,0.07,-0.10,0.99,0.19
-0.15527344,-7.7639706E-4,-2.2359565E-4,0.0026211203,-0.1,0.99,0.19,12210,10151.60,0,0,165,0.35,-3.01,0.07,-0.10,0.99,0.19
-0.15527344,-0.0017763968,-2.2359565E-4,0.0036211202,-0.1,0.99,0.19,12225,10151.60,0,0,0,0.28,-3.01,0.14,-0.10,0.99,0.19
1.1455078,0.0012236033,7.764064E-4,0.0026211203,-0.1,0.99,0.19,12232,10152.90,0,0,165,0.49,-2.94,0.07,-0.10,0.99,0.19
-0.8544922,-7.7639706E-4,-2.2359565E-4,0.0036211202,-0.1,0.99,0.19,12248,10150.90,0,0,0,0.35,-3.01,0.14,-0.10,0.99,0.19
0.14550781,-7.7639706E-4,7.764064E-4,0.0026211203,-0.1,0.99,0.19,12263,10151.90,0,0,165,0.35,-2.94,0.07,-0.10,0.99,0.19
-0.15527344,0.0022236034,7.764064E-4,0.0016211201,-0.1,0.99,0.19,12270,10151.60,0,0,0,0.56,-2.94,0.00,-0.10,0.99,0.19
0.14550781,-7.7639706E-4,-0.001223594,0.0016211201,-0.1,0.99,0.19,12285,10151.90,0,0,165,0.35,-3.08,0.00,-0.10,0.99,0.19
-0.15527344,0.0012236033,-2.2359565E-4,0.0016211201,-0.1,0.99,0.19,12300,10151.60,0,0,0,0.49,-3.01,0.00,-0.10,0.99,0.19
0.84472656,0.0012236033,-0.001223594,0.0026211203,-0.1,0.99,0.19,12307,10152.60,0,0,165,0.49,-3.08,0.07,-0.10,0.99,0.19
-0.15527344,0.0012236033,-2.2359565E-4,0.0016211201,-0.1,0.99,0.19,12322,10151.60,0,0,0,0.49,-3.01,0.00,-0.10,0.99,0.19
0.14550781,0.0012236033,-0.002223596,0.0036211202,-0.1,0.99,0.19,12338,10151.90,0,0,165,0.49,-3.15,0.14,-0.10,0.99,0.19
-0.8544922,0.0022236034,-2.2359565E-4,0.0036211202,-0.1,0.99,0.19,12345,10150.90,0,0,0,0.56,-3.01,0.14,-0.10,0.99,0.19
-0.15527344,-7.7639706E-4,-2.2359565E-4,0.0036211202,-0.1,0.99,0.19,12359,10151.60,0,0,165,0.35,-3.01,0.14,-0.10,0.99,0.19
-0.15527344,2.2360263E-4,-0.001223594,0.0016211201,-0.1,0.99,0.19,12375,10151.60,0,0,0,0.42,-3.08,0.00,-0.10,0.99,0.19
1.1455078,-7.7639706E-4,-0.001223594,0.0026211203,-0.1,0.99,0.19,12382,10152.90,0,0,165,0.35,-3.08,0.07,-0.10,0.99,0.19
1.1455078,-7.7639706E-4,-0.001223594,0.0026211203,-0.1,0.99,0.19,12397,10152.90,0,0,0,0.35,-3.08,0.07,-0.10,0.99,0.19
0.84472656,2.2360263E-4,-0.001223594,0.0026211203,-0.1,0.99,0.19,12412,10152.60,0,0,165,0.42,-3.08,0.07,-0.10,0.99,0.19
0.14550781,2.2360263E-4,-0.002223596,0.0036211202,-0.1,0.99,0.19,12419,10151.90,0,0,0,0.42,-3.15,0.14,-0.10,0.99,0.19
1.1455078,0.0022236034,0.0017764084,0.0036211202,-0.1,0.99,0.19,12435,10152.90,0,0,165,0.56,-2.87,0.14,-0.10,0.99,0.19
1.1455078,2.2360263E-4,-2.2359565E-4,0.0036211202,-0.1,0.99,0.19,12449,10152.90,0,0,0,0.42,-3.01,0.14,-0.10,0.99,0.19
0.84472656,-0.0017763968,-2.2359565E-4,0.0026211203,-0.1,0.99,0.19,12457,10152.60,0,0,165,0.28,-3.01,0.07,-0.10,0.99,0.19
-0.15527344,-7.7639706E-4,7.764064E-4,0.0036211202,-0.1,0.99,0.19,12472,10151.60,0,0,0,0.35,-2.94,0.14,-0.10,0.99,0.19
0.14550781,0.0012236033,7.764064E-4,0.0036211202,-0.1,0.99,0.19,12487,10151.90,0,0,165,0.49,-2.94,0.14,-0.10,0.99,0.19
0.84472656,-7.7639706E-4,7.764064E-4,0.0026211203,-0.1,0.99,0.19,12495,10152.60,0,0,0,0.35,-2.94,0.07,-0.10,0.99,0.19
0.14550781,0.0012236033,7.764064E-4,0.0026211203,-0.1,0.99,0.19,12510,10151.90,0,0,165,0.49,-2.94,0.07,-0.10,0.99,0.19
0.14550781,-7.7639706E-4,0.0017764084,0.0016211201,-0.1,0.99,0.19,12525,10151.90,0,0,0,0.35,-2.87,0.00,-0.10,0.99,0.19
0.14550781,2.2360263E-4,7.764064E-4,0.0026211203,-0.1,0.99,0.19,12533,10151.90,0,0,165,0.42,-2.94,0.07,-0.10,0.99,0.19
0.84472656,2.2360263E-4,0.0027764067,0.0016211201,-0.1,0.99,0.19,12548,10152.60,0,0,0,0.42,-2.80,0.00,-0.10,0.99,0.19
1.1455078,0.0012236033,0.0017764084,0.0026211203,-0.1,0.99,0.19,12555,10152.90,0,0,165,0.49,-2.87,0.07,-0.10,0.99,0.19
1.1455078,0.0012236033,0.0017764084,0.0016211201,-0.1,0.99,0.19,12570,10152.90,0,0,0,0.49,-2.87,0.00,-0.10,0.99,0.19
-0.15527344,0.0012236033,7.764064E-4,0.0026211203,-0.1,0.99,0.19,12585,10151.60,0,0,165,0.49,-2.94,0.07,-0.10,0.99,0.19
-0.15527344,-7.7639706E-4,-0.001223594,0.0036211202,-0.1,0.99,0.19,12592,10151.60,0,0,0,0.35,-3.08,0.14,-0.10,0.99,0.19
1.1455078,-7.7639706E-4,7.764064E-4,0.0026211203,-0.1,0.99,0.19,12607,10152.90,0,0,165,0.35,-2.94,0.07,-0.10,0.99,0.19
0.14550781,2.2360263E-4,7.764064E-4,6.211201E-4,-0.1,0.99,0.19,12622,10151.90,0,0,0,0.42,-2.94,-0.07,-0.10,0.99,0.19
0.84472656,0.0012236033,-0.001223594,0.0036211202,-0.1,0.99,0.19,12629,10152.60,0,0,165,0.49,-3.08,0.14,-0.10,0.99,0.19
1.1455078,2.2360263E-4,-2.2359565E-4,0.0026211203,-0.1,0.99,0.19,12645,10152.90,0,0,0,0.42,-3.01,0.07,-0.10,0.99,0.19
0.14550781,2.2360263E-4,-2.2359565E-4,0.0036211202,-0.1,0.99,0.19,12660,10151.90,0,0,165,0.42,-3.01,0.14,-0.10,0.99,0.19
0.14550781,0.0012236033,-2.2359565E-4,0.0036211202,-0.1,0.99,0.19,12667,10151.90,0,0,0,0.49,-3.01,0.14,-0.10,0.99,0.19
-1.1552734,0.0022236034,-0.001223594,0.0036211202,-0.1,0.99,0.19,12682,10150.60,0,0,165,0.56,-3.08,0.14,-0.10,0.99,0.19
1.1455078,2.2360263E-4,-2.2359565E-4,0.0026211203,-0.1,0.99,0.19,12697,10152.90,0,0,0,0.42,-3.01,0.07,-0.10,0.99,0.19
-0.15527344,0.0012236033,-0.001223594,0.0036211202,-0.1,0.99,0.19,12705,10151.60,0,0,165,0.49,-3.08,0.14,-0.10,0.99,0.19
-0.15527344,2.2360263E-4,-0.001223594,0.0036211202,-0.1,0.99,0.19,12727,10151.60,0,0,0,0.42,-3.08,0.14,-0.10,0.99,0.19
0.84472656,2.2360263E-4,-2.2359565E-4,0.0016211201,-0.1,0.99,0.19,12734,10152.60,0,0,165,0.42,-3.01,0.00,-0.10,0.99,0.19
-0.15527344,-7.7639706E-4,-2.2359565E-4,0.0036211202,-0.1,1.0,0.19,12742,10151.60,0,0,0,0.35,-3.01,0.14,-0.10,1.00,0.19
0.84472656,-7.7639706E-4,-2.2359565E-4,0.0036211202,-0.1,0.99,0.19,12757,10152.60,0,0,165,0.35,-3.01,0.14,-0.10,0.99,0.19
0.14550781,0.0022236034,-2.2359565E-4,0.0026211203,-0.1,0.99,0.19,12772,10151.90,0,0,0,0.56,-3.01,0.07,-0.10,0.99,0.19
0.14550781,2.2360263E-4,-2.2359565E-4,0.00462112,-0.1,0.99,0.19,12779,10151.90,0,0,165,0.42,-3.01,0.21,-0.10,0.99,0.19
-1.1552734,0.0012236033,-2.2359565E-4,0.0026211203,-0.1,0.99,0.19,12795,10150.60,0,0,0,0.49,-3.01,0.07,-0.10,0.99,0.19
0.14550781,2.2360263E-4,-2.2359565E-4,0.0026211203,-0.1,0.99,0.19,12809,10151.90,0,0,165,0.42,-3.01,0.07,-0.10,0.99,0.19
-0.15527344,-7.7639706E-4,0.0017764084,6.211201E-4,-0.1,0.99,0.19,12817,10151.60,0,0,0,0.35,-2.87,-0.07,-0.10,0.99,0.19
0.14550781,0.0012236033,0.0017764084,0.0016211201,-0.1,0.99,0.19,12833,10151.90,0,0,165,0.49,-2.87,0.00,-0.10,0.99,0.19
1.1455078,-7.7639706E-4,-2.2359565E-4,0.0026211203,-0.1,0.99,0.19,12848,10152.90,0,0,0,0.35,-3.01,0.07,-0.10,0.99,0.19
1.1455078,-7.7639706E-4,-2.2359565E-4,0.0026211203,-0.1,0.99,0.19,12854,10152.90,0,0,165,0.35,-3.01,0.07,-0.10,0.99,0.19
-0.15527344,2.2360263E-4,7.764064E-4,0.0036211202,-0.1,0.99,0.19,12876,10151.60,0,0,0,0.42,-2.94,0.14,-0.10,0.99,0.19
-1.1552734,2.2360263E-4,7.764064E-4,0.0026211203,-0.1,0.99,0.19,12888,10150.60,0,0,165,0.42,-2.94,0.07,-0.10,0.99,0.19
0.14550781,-7.7639706E-4,7.764064E-4,0.0026211203,-0.1,0.99,0.19,12892,10151.90,0,0,0,0.35,-2.94,0.07,-0.10,0.99,0.19
0.14550781,2.2360263E-4,0.0017764084,0.0026211203,-0.1,0.99,0.19,12907,10151.90,0,0,165,0.42,-2.87,0.07,-0.10,0.99,0.19
0.14550781,2.2360263E-4,7.764064E-4,0.0026211203,-0.1,0.99,0.19,12922,10151.90,0,0,0,0.42,-2.94,0.07,-0.10,0.99,0.19
1.1455078,0.0012236033,7.764064E-4,0.0026211203,-0.1,0.99,0.19,12930,10152.90,0,0,165,0.49,-2.94,0.07,-0.10,0.99,0.19
1.1455078,2.2360263E-4,7.764064E-4,0.0026211203,-0.1,0.99,0.19,12945,10152.90,0,0,0,0.42,-2.94,0.07,-0.10,0.99,0.19
-0.15527344,-7.7639706E-4,-2.2359565E-4,6.211201E-4,-0.1,0.99,0.19,12967,10151.60,0,0,165,0.35,-3.01,-0.07,-0.10,0.99,0.19
0.14550781,-7.7639706E-4,-2.2359565E-4,0.0016211201,-0.1,0.99,0.19,12968,10151.90,0,0,0,0.35,-3.01,0.00,-0.10,0.99,0.19
-0.15527344,-7.7639706E-4,-0.001223594,0.0026211203,-0.1,0.99,0.19,12983,10151.60,0,0,165,0.35,-3.08,0.07,-0.10,0.99,0.19
-0.15527344,0.0012236033,-0.001223594,0.00462112,-0.1,0.99,0.19,12997,10151.60,0,0,0,0.49,-3.08,0.21,-0.10,0.99,0.19
0.14550781,0.0012236033,-2.2359565E-4,0.00462112,-0.1,0.99,0.19,13005,10151.90,0,0,165,0.49,-3.01,0.21,-0.10,0.99,0.19
0.84472656,2.2360263E-4,-2.2359565E-4,0.0036211202,-0.1,0.99,0.19,13021,10152.60,0,0,0,0.42,-3.01,0.14,-0.10,0.99,0.19
0.14550781,0.0012236033,-0.001223594,0.0026211203,-0.1,0.99,0.19,13038,10151.90,0,0,165,0.49,-3.08,0.07,-0.10,0.99,0.19
1.1455078,-0.0017763968,-2.2359565E-4,0.0016211201,-0.1,0.99,0.19,13042,10152.90,0,0,0,0.28,-3.01,0.00,-0.10,0.99,0.19
-1.1552734,2.2360263E-4,-2.2359565E-4,0.0016211201,-0.1,0.99,0.19,13057,10150.60,0,0,165,0.42,-3.01,0.00,-0.10,0.99,0.19
0.14550781,2.2360263E-4,-2.2359565E-4,0.0026211203,-0.1,0.99,0.19,13072,10151.90,0,0,0,0.42,-3.01,0.07,-0.10,0.99,0.19
0.14550781,-7.7639706E-4,-2.2359565E-4,6.211201E-4,-0.1,0.99,0.19,13080,10151.90,0,0,165,0.35,-3.01,-0.07,-0.10,0.99,0.19
-0.15527344,2.2360263E-4,-2.2359565E-4,0.0036211202,-0.1,1.0,0.19,13095,10151.60,0,0,0,0.42,-3.01,0.14,-0.10,1.00,0.19
-1.1552734,0.0022236034,7.764064E-4,0.0026211203,-0.1,0.99,0.19,13109,10150.60,0,0,165,0.56,-2.94,0.07,-0.10,0.99,0.19
-0.15527344,0.0012236033,-2.2359565E-4,0.0026211203,-0.1,0.99,0.19,13123,10151.60,0,0,0,0.49,-3.01,0.07,-0.10,0.99,0.19
0.14550781,-0.0027763972,-2.2359565E-4,-0.0013788796,-0.1,0.99,0.19,13135,10151.90,0,0,165,0.21,-3.01,-0.21,-0.10,0.99,0.19
0.14550781,0.0012236033,-2.2359565E-4,0.0016211201,-0.1,0.99,0.19,13147,10151.90,0,0,0,0.49,-3.01,0.00,-0.10,0.99,0.19
0.84472656,0.0022236034,7.764064E-4,0.0016211201,-0.1,0.99,0.19,13155,10152.60,0,0,165,0.56,-2.94,0.00,-0.10,0.99,0.19
0.84472656,2.2360263E-4,7.764064E-4,0.25662112,-0.1,0.99,0.19,13173,10152.60,0,0,0,0.42,-2.94,17.85,-0.10,0.99,0.19
0.14550781,2.2360263E-4,7.764064E-4,0.0036211202,-0.1,0.99,0.19,13211,10151.90,0,0,165,0.42,-2.94,0.14,-0.10,0.99,0.19
-0.15527344,2.2360263E-4,-0.001223594,0.0026211203,-0.1,0.99,0.19,13212,10151.60,0,0,0,0.42,-3.08,0.07,-0.10,0.99,0.19
0.14550781,0.0012236033,-2.2359565E-4,0.0016211201,-0.1,0.99,0.19,13213,10151.90,0,0,165,0.49,-3.01,0.00,-0.10,0.99,0.19
1.1455078,0.0012236033,-2.2359565E-4,0.0036211202,-0.1,0.99,0.19,13222,10152.90,0,0,0,0.49,-3.01,0.14,-0.10,0.99,0.19
1.1455078,2.2360263E-4,7.764064E-4,0.00462112,-0.1,0.99,0.19,13230,10152.90,0,0,165,0.42,-2.94,0.21,-0.10,0.99,0.19
1.1455078,-0.0017763968,-2.2359565E-4,0.0026211203,-0.1,0.99,0.19,13245,10152.90,0,0,0,0.28,-3.01,0.07,-0.10,0.99,0.19
1.1455078,-7.7639706E-4,-2.2359565E-4,0.0036211202,-0.1,0.99,0.19,13259,10152.90,0,0,165,0.35,-3.01,0.14,-0.10,0.99,0.19
1.1455078,-7.7639706E-4,-2.2359565E-4,0.0026211203,-0.1,0.99,0.19,13266,10152.90,0,0,0,0.35,-3.01,0.07,-0.10,0.99,0.19
0.84472656,2.2360263E-4,-0.001223594,0.0016211201,-0.1,0.99,0.19,13282,10152.60,0,0,165,0.42,-3.08,0.00,-0.10,0.99,0.19
0.14550781,2.2360263E-4,7.764064E-4,0.0016211201,-0.1,0.99,0.19,13298,10151.90,0,0,0,0.42,-2.94,0.00,-0.10,0.99,0.19
0.14550781,-7.7639706E-4,7.764064E-4,0.0026211203,-0.1,0.99,0.19,13305,10151.90,0,0,165,0.35,-2.94,0.07,-0.10,0.99,0.19
0.84472656,2.2360263E-4,0.0017764084,0.0026211203,-0.1,0.99,0.19,13319,10152.60,0,0,0,0.42,-2.87,0.07,-0.10,0.99,0.19
-0.15527344,0.0012236033,-2.2359565E-4,0.0016211201,-0.1,0.99,0.19,13334,10151.60,0,0,165,0.49,-3.01,0.00,-0.10,0.99,0.19
0.84472656,-7.7639706E-4,0.0017764084,0.0026211203,-0.1,0.99,0.19,13343,10152.60,0,0,0,0.35,-2.87,0.07,-0.10,0.99,0.19
0.84472656,0.0012236033,0.0017764084,0.0036211202,-0.1,0.99,0.19,13357,10152.60,0,0,165,0.49,-2.87,0.14,-0.10,0.99,0.19
1.1455078,0.0012236033,-2.2359565E-4,6.211201E-4,-0.1,0.99,0.19,13372,10152.90,0,0,0,0.49,-3.01,-0.07,-0.10,0.99,0.19
0.14550781,0.0012236033,-2.2359565E-4,0.0016211201,-0.1,0.99,0.19,13381,10151.90,0,0,165,0.49,-3.01,0.00,-0.10,0.99,0.19
1.1455078,2.2360263E-4,-2.2359565E-4,6.211201E-4,-0.1,0.99,0.19,13395,10152.90,0,0,0,0.42,-3.01,-0.07,-0.10,0.99,0.19
0.14550781,0.0022236034,7.764064E-4,0.0026211203,-0.1,0.99,0.19,13410,10151.90,0,0,165,0.56,-2.94,0.07,-0.10,0.99,0.19
-0.15527344,0.0012236033,-2.2359565E-4,0.0026211203,-0.1,0.99,0.19,13418,10151.60,0,0,0,0.49,-3.01,0.07,-0.10,0.99,0.19
-0.15527344,0.0012236033,-0.001223594,0.0036211202,-0.1,0.99,0.19,13432,10151.60,0,0,165,0.49,-3.08,0.14,-0.10,0.99,0.19
1.1455078,2.2360263E-4,-2.2359565E-4,0.0026211203,-0.1,0.99,0.19,13448,10152.90,0,0,0,0.42,-3.01,0.07,-0.10,0.99,0.19
1.1455078,-0.0017763968,-2.2359565E-4,0.0026211203,-0.1,0.99,0.19,13455,10152.90,0,0,165,0.28,-3.01,0.07,-0.10,0.99,0.19
-0.15527344,2.2360263E-4,-0.001223594,6.211201E-4,-0.1,0.99,0.19,13470,10151.60,0,0,0,0.42,-3.08,-0.07,-0.10,0.99,0.19
0.14550781,2.2360263E-4,-2.2359565E-4,0.0016211201,-0.1,0.99,0.19,13485,10151.90,0,0,165,0.42,-3.01,0.00,-0.10,0.99,0.19
0.14550781,-7.7639706E-4,-2.2359565E-4,0.0026211203,-0.1,0.99,0.19,13493,10151.90,0,0,0,0.35,-3.01,0.07,-0.10,0.99,0.19
-0.5546875,2.2360263E-4,-2.2359565E-4,0.0036211202,-0.1,0.99,0.19,13507,10151.20,0,0,165,0.42,-3.01,0.14,-0.10,0.99,0.19
-0.8544922,-7.7639706E-4,7.764064E-4,0.0036211202,-0.1,0.99,0.19,13522,10150.90,0,0,0,0.35,-2.94,0.14,-0.10,0.99,0.19
0.14550781,0.0012236033,7.764064E-4,0.00462112,-0.1,0.99,0.19,13539,10151.90,0,0,165,0.49,-2.94,0.21,-0.10,0.99,0.19
1.1455078,-7.7639706E-4,-0.002223596,0.0036211202,-0.1,0.99,0.19,13545,10152.90,0,0,0,0.35,-3.15,0.14,-0.10,0.99,0.19
0.14550781,-7.7639706E-4,7.764064E-4,0.0026211203,-0.1,0.99,0.19,13560,10151.90,0,0,165,0.35,-2.94,0.07,-0.10,0.99,0.19
1.1455078,2.2360263E-4,7.764064E-4,0.0026211203,-0.1,0.99,0.19,13568,10152.90,0,0,0,0.42,-2.94,0.07,-0.10,0.99,0.19
1.1455078,-7.7639706E-4,-2.2359565E-4,0.0026211203,-0.1,0.99,0.19,13582,10152.90,0,0,165,0.35,-3.01,0.07,-0.10,0.99,0.19
1.1455078,2.2360263E-4,0.0017764084,0.0036211202,-0.1,0.99,0.19,13598,10152.90,0,0,0,0.42,-2.87,0.14,-0.10,0.99,0.19
-0.15527344,2.2360263E-4,-2.2359565E-4,0.0016211201,-0.1,0.99,0.19,13605,10151.60,0,0,165,0.42,-3.01,0.00,-0.10,0.99,0.19
1.1455078,-7.7639706E-4,-2.2359565E-4,0.0016211201,-0.1,0.99,0.19,13620,10152.90,0,0,0,0.35,-3.01,0.00,-0.10,0.99,0.19
0.14550781,0.0012236033,7.764064E-4,6.211201E-4,-0.1,0.99,0.19,13635,10151.90,0,0,165,0.49,-2.94,-0.07,-0.10,0.99,0.19
-0.15527344,0.0012236033,-2.2359565E-4,0.0026211203,-0.1,0.99,0.19,13642,10151.60,0,0,0,0.49,-3.01,0.07,-0.10,0.99,0.19
-0.15527344,2.2360263E-4,-2.2359565E-4,0.0036211202,-0.1,0.99,0.19,13657,10151.60,0,0,165,0.42,-3.01,0.14,-0.10,0.99,0.19
0.14550781,2.2360263E-4,7.764064E-4,0.0026211203,-0.1,0.99,0.19,13672,10151.90,0,0,0,0.42,-2.94,0.07,-0.10,0.99,0.19
1.1455078,2.2360263E-4,7.764064E-4,0.0016211201,-0.1,0.99,0.19,13680,10152.90,0,0,165,0.42,-2.94,0.00,-0.10,0.99,0.19
1.1455078,2.2360263E-4,7.764064E-4,6.211201E-4,-0.1,0.99,0.19,13695,10152.90,0,0,0,0.42,-2.94,-0.07,-0.10,0.99,0.19
0.14550781,0.0012236033,7.764064E-4,0.0026211203,-0.1,0.99,0.19,13711,10151.90,0,0,165,0.49,-2.94,0.07,-0.10,0.99,0.19
1.1455078,-7.7639706E-4,-2.2359565E-4,0.0026211203,-0.1,0.99,0.19,13717,10152.90,0,0,0,0.35,-3.01,0.07,-0.10,0.99,0.19
0.14550781,0.0012236033,-0.001223594,0.00462112,-0.1,0.99,0.19,13733,10151.90,0,0,165,0.49,-3.08,0.21,-0.10,0.99,0.19
1.1455078,0.0012236033,7.764064E-4,0.0016211201,-0.1,0.99,0.19,13747,10152.90,0,0,0,0.49,-2.94,0.00,-0.10,0.99,0.19
-0.8544922,0.0012236033,7.764064E-4,0.00462112,-0.1,0.99,0.19,13755,10150.90,0,0,165,0.49,-2.94,0.21,-0.10,0.99,0.19
0.84472656,-7.7639706E-4,-0.001223594,0.00462112,-0.1,0.99,0.19,13770,10152.60,0,0,0,0.35,-3.08,0.21,-0.10,0.99,0.19
0.84472656,0.0012236033,-2.2359565E-4,0.0026211203,-0.1,0.99,0.19,13777,10152.60,0,0,165,0.49,-3.01,0.07,-0.10,0.99,0.19
-0.8544922,2.2360263E-4,-0.001223594,0.0016211201,-0.1,0.99,0.19,13792,10150.90,0,0,0,0.42,-3.08,0.00,-0.10,0.99,0.19
0.14550781,-7.7639706E-4,-0.001223594,0.0026211203,-0.1,0.99,0.19,13807,10151.90,0,0,165,0.35,-3.08,0.07,-0.10,0.99,0.19
0.84472656,2.2360263E-4,-2.2359565E-4,0.0026211203,-0.1,0.99,0.19,13815,10152.60,0,0,0,0.42,-3.01,0.07,-0.10,0.99,0.19
-0.15527344,2.2360263E-4,7.764064E-4,0.0036211202,-0.1,0.99,0.19,13830,10151.60,0,0,165,0.42,-2.94,0.14,-0.10,0.99,0.19
-0.15527344,-7.7639706E-4,7.764064E-4,0.0036211202,-0.1,0.99,0.19,13845,10151.60,0,0,0,0.35,-2.94,0.14,-0.10,0.99,0.19
0.14550781,2.2360263E-4,-2.2359565E-4,0.0036211202,-0.1,0.99,0.19,13852,10151.90,0,0,165,0.42,-3.01,0.14,-0.10,0.99,0.19
1.1455078,2.2360263E-4,-2.2359565E-4,0.0026211203,-0.1,0.99,0.19,13867,10152.90,0,0,0,0.42,-3.01,0.07,-0.10,0.99,0.19
1.1455078,2.2360263E-4,7.764064E-4,0.0036211202,-0.1,0.99,0.19,13882,10152.90,0,0,165,0.42,-2.94,0.14,-0.10,0.99,0.19
-0.8544922,2.2360263E-4,-2.2359565E-4,0.0026211203,-0.1,0.99,0.19,13890,10150.90,0,0,0,0.42,-3.01,0.07,-0.10,0.99,0.19
2.1455078,-7.7639706E-4,-2.2359565E-4,0.0026211203,-0.1,0.99,0.19,13904,10153.90,0,0,165,0.35,-3.01,0.07,-0.10,0.99,0.19
0.14550781,-7.7639706E-4,-2.2359565E-4,0.0026211203,-0.1,0.99,0.19,13920,10151.90,0,0,0,0.35,-3.01,0.07,-0.10,0.99,0.19
0.84472656,0.0012236033,7.764064E-4,0.0016211201,-0.1,0.99,0.19,13927,10152.60,0,0,165,0.49,-2.94,0.00,-0.10,0.99,0.19
0.84472656,2.2360263E-4,-2.2359565E-4,0.0016211201,-0.1,0.99,0.19,13942,10152.60,0,0,0,0.42,-3.01,0.00,-0.10,0.99,0.19
0.14550781,2.2360263E-4,7.764064E-4,0.0026211203,-0.1,0.99,0.19,13957,10151.90,0,0,165,0.42,-2.94,0.07,-0.10,0.99,0.19
0.84472656,2.2360263E-4,-0.001223594,6.211201E-4,-0.1,0.99,0.19,13965,10152.60,0,0,0,0.42,-3.08,-0.07,-0.10,0.99,0.19
1.1455078,0.0012236033,7.764064E-4,0.0036211202,-0.1,0.99,0.19,13980,10152.90,0,0,165,0.49,-2.94,0.14,-0.10,0.99,0.19
0.14550781,0.0012236033,7.764064E-4,0.0026211203,-0.1,0.99,0.19,13994,10151.90,0,0,0,0.49,-2.94,0.07,-0.10,0.99,0.19
1.1455078,-7.7639706E-4,-2.2359565E-4,6.211201E-4,-0.1,0.99,0.19,14003,10152.90,0,0,165,0.35,-3.01,-0.07,-0.10,0.99,0.19
1.1455078,2.2360263E-4,7.764064E-4,0.00462112,-0.1,0.99,0.19,14018,10152.90,0,0,0,0.42,-2.94,0.21,-0.10,0.99,0.19
-0.8544922,2.2360263E-4,0.0017764084,0.0036211202,-0.1,0.99,0.19,14032,10150.90,0,0,165,0.42,-2.87,0.14,-0.10,0.99,0.19
1.1455078,-7.7639706E-4,0.0017764084,6.211201E-4,-0.1,0.99,0.19,14040,10152.90,0,0,0,0.35,-2.87,-0.07,-0.10,0.99,0.19
1.1455078,-7.7639706E-4,-2.2359565E-4,0.0016211201,-0.1,0.99,0.19,14056,10152.90,0,0,165,0.35,-3.01,0.00,-0.10,0.99,0.19
-1.1552734,-7.7639706E-4,7.764064E-4,0.0036211202,-0.1,0.99,0.19,14070,10150.60,0,0,0,0.35,-2.94,0.14,-0.10,0.99,0.19
0.14550781,2.2360263E-4,-2.2359565E-4,0.0026211203,-0.1,0.99,0.19,14077,10151.90,0,0,165,0.42,-3.01,0.07,-0.10,0.99,0.19
0.14550781,-7.7639706E-4,-2.2359565E-4,0.0026211203,-0.1,0.99,0.19,14093,10151.90,0,0,0,0.35,-3.01,0.07,-0.10,0.99,0.19
0.14550781,-7.7639706E-4,-2.2359565E-4,0.0036211202,-0.1,0.99,0.19,14107,10151.90,0,0,165,0.35,-3.01,0.14,-0.10,0.99,0.19
0.14550781,2.2360263E-4,-0.001223594,0.0016211201,-0.1,0.99,0.19,14115,10151.90,0,0,0,0.42,-3.08,0.00,-0.10,0.99,0.19
0.14550781,-7.7639706E-4,-0.001223594,0.0026211203,-0.1,0.99,0.19,14130,10151.90,0,0,165,0.35,-3.08,0.07,-0.10,0.99,0.19
1.1455078,0.0012236033,-2.2359565E-4,0.0026211203,-0.1,0.99,0.19,14145,10152.90,0,0,0,0.49,-3.01,0.07,-0.10,0.99,0.19
1.1455078,2.2360263E-4,-2.2359565E-4,0.0026211203,-0.1,0.99,0.19,14153,10152.90,0,0,165,0.42,-3.01,0.07,-0.10,0.99,0.19
0.14550781,0.0022236034,-2.2359565E-4,0.0036211202,-0.1,0.99,0.19,14167,10151.90,0,0,0,0.56,-3.01,0.14,-0.10,0.99,0.19
0.14550781,2.2360263E-4,7.764064E-4,0.0036211202,-0.1,0.99,0.19,14182,10151.90,0,0,165,0.42,-2.94,0.14,-0.10,0.99,0.19
1.1455078,0.0012236033,-2.2359565E-4,6.211201E-4,-0.1,0.99,0.19,14190,10152.90,0,0,0,0.49,-3.01,-0.07,-0.10,0.99,0.19
0.14550781,0.0012236033,7.764064E-4,0.0016211201,-0.1,0.99,0.19,14212,10151.90,0,0,165,0.49,-2.94,0.00,-0.10,0.99,0.19
0.14550781,0.0022236034,7.764064E-4,0.0036211202,-0.1,0.99,0.19,14226,10151.90,0,0,0,0.56,-2.94,0.14,-0.10,0.99,0.19
0.84472656,0.0022236034,7.764064E-4,0.0026211203,-0.1,0.99,0.19,14227,10152.60,0,0,165,0.56,-2.94,0.07,-0.10,0.99,0.19
0.14550781,-7.7639706E-4,7.764064E-4,0.0026211203,-0.1,0.99,0.19,14242,10151.90,0,0,0,0.35,-2.94,0.07,-0.10,0.99,0.19
0.14550781,0.0012236033,-2.2359565E-4,0.0016211201,-0.1,0.99,0.19,14257,10151.90,0,0,165,0.49,-3.01,0.00,-0.10,0.99,0.19
0.14550781,2.2360263E-4,0.0017764084,6.211201E-4,-0.1,0.99,0.19,14264,10151.90,0,0,0,0.42,-2.87,-0.07,-0.10,0.99,0.19
0.14550781,2.2360263E-4,7.764064E-4,0.0026211203,-0.1,0.99,0.19,14279,10151.90,0,0,165,0.42,-2.94,0.07,-0.10,0.99,0.19
0.14550781,0.0012236033,-2.2359565E-4,0.0026211203,-0.1,0.99,0.19,14295,10151.90,0,0,0,0.49,-3.01,0.07,-0.10,0.99,0.19
1.1455078,-7.7639706E-4,-0.001223594,6.211201E-4,-0.1,0.99,0.19,14303,10152.90,0,0,165,0.35,-3.08,-0.07,-0.10,0.99,0.19
1.1455078,0.0012236033,7.764064E-4,0.0026211203,-0.1,0.99,0.19,14318,10152.90,0,0,0,0.49,-2.94,0.07,-0.10,0.99,0.19
0.14550781,-7.7639706E-4,7.764064E-4,0.0026211203,-0.1,0.99,0.19,14333,10151.90,0,0,165,0.35,-2.94,0.07,-0.10,0.99,0.19
1.1455078,2.2360263E-4,0.0017764084,0.0036211202,-0.1,0.99,0.19,14340,10152.90,0,0,0,0.42,-2.87,0.14,-0.10,0.99,0.19
1.1455078,-0.0027763972,-2.2359565E-4,6.211201E-4,-0.1,0.99,0.19,14355,10152.90,0,0,165,0.21,-3.01,-0.07,-0.10,0.99,0.19
0.14550781,-7.7639706E-4,7.764064E-4,0.0026211203,-0.1,0.99,0.19,14370,10151.90,0,0,0,0.35,-2.94,0.07,-0.10,0.99,0.19
0.14550781,2.2360263E-4,7.764064E-4,0.0036211202,-0.1,0.99,0.19,14377,10151.90,0,0,165,0.42,-2.94,0.14,-0.10,0.99,0.19
0.14550781,2.2360263E-4,7.764064E-4,0.0026211203,-0.1,0.99,0.19,14392,10151.90,0,0,0,0.42,-2.94,0.07,-0.10,0.99,0.19
1.1455078,2.2360263E-4,-2.2359565E-4,0.0026211203,-0.1,0.99,0.19,14407,10152.90,0,0,165,0.42,-3.01,0.07,-0.10,0.99,0.19
0.14550781,2.2360263E-4,-2.2359565E-4,0.0026211203,-0.1,0.99,0.19,14415,10151.90,0,0,0,0.42,-3.01,0.07,-0.10,0.99,0.19
0.14550781,-0.0017763968,-0.001223594,0.0026211203,-0.1,0.99,0.19,14429,10151.90,0,0,165,0.28,-3.08,0.07,-0.10,0.99,0.19
-0.8544922,2.2360263E-4,-2.2359565E-4,0.0026211203,-0.1,0.99,0.19,14445,10150.90,0,0,0,0.42,-3.01,0.07,-0.10,0.99,0.19
0.14550781,2.2360263E-4,7.764064E-4,0.0016211201,-0.1,0.99,0.19,14452,10151.90,0,0,165,0.42,-2.94,0.00,-0.10,0.99,0.19
-0.15527344,0.0012236033,7.764064E-4,0.0016211201,-0.1,0.99,0.19,14467,10151.60,0,0,0,0.49,-2.94,0.00,-0.10,0.99,0.19
2.1455078,0.0032236027,-0.001223594,0.0016211201,-0.1,0.99,0.19,14482,10153.90,0,0,165,0.63,-3.08,0.00,-0.10,0.99,0.19
0.14550781,2.2360263E-4,-2.2359565E-4,0.0026211203,-0.1,0.99,0.19,14490,10151.90,0,0,0,0.42,-3.01,0.07,-0.10,0.99,0.19
0.14550781,2.2360263E-4,7.764064E-4,0.0016211201,-0.1,0.99,0.19,14505,10151.90,0,0,165,0.42,-2.94,0.00,-0.10,0.99,0.19
1.1455078,0.0012236033,-2.2359565E-4,0.0036211202,-0.1,0.99,0.19,14520,10152.90,0,0,0,0.49,-3.01,0.14,-0.10,0.99,0.19
0.14550781,2.2360263E-4,0.0017764084,6.211201E-4,-0.1,0.99,0.19,14527,10151.90,0,0,165,0.42,-2.87,-0.07,-0.10,0.99,0.19
0.14550781,0.0012236033,-2.2359565E-4,0.0026211203,-0.1,0.99,0.19,14542,10151.90,0,0,0,0.49,-3.01,0.07,-0.10,0.99,0.19
-0.8544922,0.0012236033,-2.2359565E-4,0.0016211201,-0.1,0.99,0.19,14558,10150.90,0,0,165,0.49,-3.01,0.00,-0.10,0.99,0.19
1.1455078,-7.7639706E-4,-2.2359565E-4,0.0036211202,-0.1,0.99,0.18,14565,10152.90,0,0,0,0.35,-3.01,0.14,-0.10,0.99,0.18
-0.15527344,-7.7639706E-4,-2.2359565E-4,0.0026211203,-0.1,0.99,0.19,14580,10151.60,0,0,165,0.35,-3.01,0.07,-0.10,0.99,0.19
0.84472656,2.2360263E-4,-2.2359565E-4,0.0026211203,-0.1,0.99,0.19,14595,10152.60,0,0,0,0.42,-3.01,0.07,-0.10,0.99,0.19
0.14550781,0.0012236033,-2.2359565E-4,0.0016211201,-0.1,0.99,0.19,14603,10151.90,0,0,165,0.49,-3.01,0.00,-0.10,0.99,0.19
0.14550781,2.2360263E-4,7.764064E-4,0.0036211202,-0.1,0.99,0.19,14617,10151.90,0,0,0,0.42,-2.94,0.14,-0.10,0.99,0.19
-0.8544922,0.0012236033,-2.2359565E-4,0.00462112,-0.1,0.99,0.19,14632,10150.90,0,0,165,0.49,-3.01,0.21,-0.10,0.99,0.19
0.14550781,-7.7639706E-4,-0.001223594,0.0036211202,-0.1,0.99,0.19,14639,10151.90,0,0,0,0.35,-3.08,0.14,-0.10,0.99,0.19
0.14550781,-0.0017763968,7.764064E-4,0.0016211201,-0.1,0.99,0.19,14654,10151.90,0,0,165,0.28,-2.94,0.00,-0.10,0.99,0.19
1.1455078,-7.7639706E-4,7.764064E-4,0.0036211202,-0.1,0.99,0.19,14670,10152.90,0,0,0,0.35,-2.94,0.14,-0.10,0.99,0.19
1.1455078,2.2360263E-4,-2.2359565E-4,0.0016211201,-0.1,0.99,0.19,14677,10152.90,0,0,165,0.42,-3.01,0.00,-0.10,0.99,0.19
0.14550781,2.2360263E-4,-2.2359565E-4,6.211201E-4,-0.1,0.99,0.19,14692,10151.90,0,0,0,0.42,-3.01,-0.07,-0.10,0.99,0.19
1.1455078,-7.7639706E-4,7.764064E-4,0.0036211202,-0.1,0.99,0.19,14707,10152.90,0,0,165,0.35,-2.94,0.14,-0.10,0.99,0.19
0.14550781,-0.0017763968,7.764064E-4,0.0026211203,-0.1,0.99,0.19,14715,10151.90,0,0,0,0.28,-2.94,0.07,-0.10,0.99,0.19
1.1455078,2.2360263E-4,-2.2359565E-4,0.0026211203,-0.1,0.99,0.19,14730,10152.90,0,0,165,0.42,-3.01,0.07,-0.10,0.99,0.19
0.14550781,0.0012236033,-2.2359565E-4,0.0036211202,-0.1,0.99,0.19,14745,10151.90,0,0,0,0.49,-3.01,0.14,-0.10,0.99,0.19
0.14550781,2.2360263E-4,7.764064E-4,0.0036211202,-0.1,0.99,0.19,14752,10151.90,0,0,165,0.42,-2.94,0.14,-0.10,0.99,0.19
0.14550781,2.2360263E-4,-2.2359565E-4,0.0026211203,-0.1,0.99,0.19,14767,10151.90,0,0,0,0.42,-3.01,0.07,-0.10,0.99,0.19
0.14550781,2.2360263E-4,7.764064E-4,0.0036211202,-0.1,0.99,0.19,14782,10151.90,0,0,165,0.42,-2.94,0.14,-0.10,0.99,0.19
0.14550781,-0.0027763972,7.764064E-4,0.0026211203,-0.1,0.99,0.19,14789,10151.90,0,0,0,0.21,-2.94,0.07,-0.10,0.99,0.19
0.14550781,2.2360263E-4,7.764064E-4,0.0026211203,-0.1,0.99,0.19,14804,10151.90,0,0,165,0.42,-2.94,0.07,-0.10,0.99,0.19
-1.7548828,0.0012236033,-0.001223594,0.0026211203,-0.07,0.97,0.16,14819,10150.00,0,0,0,0.49,-3.08,0.07,-0.07,0.97,0.16
1.1455078,-0.3397764,-0.16922359,0.12562113,-0.09,0.85,0.13,14827,10152.90,0,0,165,-23.38,-14.84,8.68,-0.09,0.85,0.13
-0.8544922,-0.5717764,-0.1422236,0.11662112,-0.11,1.06,0.23,14843,10150.90,0,0,0,-39.62,-12.95,8.05,-0.11,1.06,0.23
1.1455078,-0.3077764,-0.1272236,0.17862113,-0.08,1.07,0.23,14858,10152.90,0,0,165,-21.14,-11.90,12.39,-0.08,1.07,0.23
1.1455078,-0.18677638,-0.1202236,0.21762113,-0.09,0.97,0.2,14865,10152.90,0,0,0,-12.67,-11.41,15.12,-0.09,0.97,0.20
1.1455078,-0.2297764,-0.06322359,0.05862112,-0.04,0.97,0.24,14880,10152.90,0,0,165,-15.68,-7.42,3.99,-0.04,0.97,0.24
1.1455078,-0.121776395,-0.035223596,0.04162112,-0.12,1.04,0.27,14895,10152.90,0,0,0,-8.12,-5.46,2.80,-0.12,1.04,0.27
1.1455078,0.069223605,0.053776406,-0.05937888,-0.15,1.14,0.3,14903,10152.90,0,0,165,5.25,0.77,-4.27,-0.15,1.14,0.30
0.14550781,0.49022362,0.1457764,-0.10037888,-0.08,1.05,0.27,14917,10151.90,0,0,0,34.72,7.21,-7.14,-0.08,1.05,0.27
0.14550781,0.6182236,0.1967764,-0.19737887,-0.09,0.94,0.2,14932,10151.90,0,0,165,43.68,10.78,-13.93,-0.09,0.94,0.20
0.14550781,0.5552236,0.14677641,-0.16237886,-0.07,0.91,0.14,14940,10151.90,0,0,0,39.27,7.28,-11.48,-0.07,0.91,0.14
0.14550781,0.18522361,0.040776405,-0.05137888,-0.1,0.93,0.12,14954,10151.90,0,0,165,13.37,-0.14,-3.71,-0.10,0.93,0.12
0.14550781,-0.26177642,-0.0662236,0.08062112,-0.1,0.96,0.15,14970,10151.90,0,0,0,-17.92,-7.63,5.53,-0.10,0.96,0.15
-0.8544922,-0.3947764,-0.074223585,0.10662112,-0.11,1.01,0.22,14977,10150.90,0,0,165,-27.23,-8.19,7.35,-0.11,1.01,0.22
0.14550781,-0.2237764,-0.049223594,0.06962112,-0.11,1.02,0.22,14992,10151.90,0,0,0,-15.26,-6.44,4.76,-0.11,1.02,0.22
0.14550781,-0.040776398,-0.011223596,0.009621121,-0.08,1.02,0.23,15007,10151.90,0,0,165,-2.45,-3.78,0.56,-0.08,1.02,0.23
0.14550781,0.1402236,0.033776406,-0.04837888,-0.1,1.0,0.21,15015,10151.90,0,0,0,10.22,-0.63,-3.50,-0.10,1.00,0.21
0.14550781,0.1982236,0.037776407,-0.03137888,-0.09,0.99,0.18,15030,10151.90,0,0,165,14.28,-0.35,-2.31,-0.09,0.99,0.18
0.84472656,0.1122236,0.023776405,-0.012378881,-0.09,0.98,0.18,15045,10152.60,0,0,0,8.26,-1.33,-0.98,-0.09,0.98,0.18
0.14550781,-0.027776398,-0.007223595,0.01662112,-0.09,0.96,0.18,15053,10151.90,0,0,165,-1.54,-3.50,1.05,-0.09,0.96,0.18
0.14550781,-0.0947764,-0.017223593,0.02062112,-0.11,0.99,0.21,15067,10151.90,0,0,0,-6.23,-4.20,1.33,-0.11,0.99,0.21
0.14550781,-0.030776396,-0.017223593,0.01762112,-0.09,1.01,0.19,15082,10151.90,0,0,165,-1.75,-4.20,1.12,-0.09,1.01,0.19
0.14550781,-0.053776395,-0.0152235925,0.030621119,-0.11,0.97,0.2,15089,10151.90,0,0,0,-3.36,-4.06,2.03,-0.11,0.97,0.20
0.14550781,-0.0957764,-0.025223598,0.02762112,-0.09,0.99,0.2,15104,10151.90,0,0,165,-6.30,-4.76,1.82,-0.09,0.99,0.20
0.14550781,-0.0977764,-0.0152235925,0.01362112,-0.1,0.99,0.21,15120,10151.90,0,0,0,-6.44,-4.06,0.84,-0.10,0.99,0.21
0.14550781,-0.058776397,-0.016223595,0.01862112,-0.11,0.99,0.21,15129,10151.90,0,0,165,-3.71,-4.13,1.19,-0.11,0.99,0.21
0.14550781,-0.022776399,0.0047764033,-0.00537888,-0.11,1.03,0.22,15142,10151.90,0,0,0,-1.19,-2.66,-0.49,-0.11,1.03,0.22
1.1455078,0.055223603,0.018776407,-0.0033788797,-0.09,1.0,0.2,15157,10152.90,0,0,165,4.27,-1.68,-0.35,-0.09,1.00,0.20
1.1455078,0.07022361,0.024776407,-0.03137888,-0.08,0.99,0.21,15164,10152.90,0,0,0,5.32,-1.26,-2.31,-0.08,0.99,0.21
0.14550781,0.098223604,0.021776406,-0.014378881,-0.09,1.0,0.2,15179,10151.90,0,0,165,7.28,-1.47,-1.12,-0.09,1.00,0.20
-0.8544922,0.0662236,0.017776405,-0.013378879,-0.1,0.99,0.19,15194,10150.90,0,0,0,5.04,-1.75,-1.05,-0.10,0.99,0.19
0.14550781,0.051223602,0.018776407,-0.01937888,-0.09,0.99,0.2,15203,10151.90,0,0,165,3.99,-1.68,-1.47,-0.09,0.99,0.20
0.14550781,0.053223602,0.0127764065,-0.010378879,-0.09,0.98,0.2,15217,10151.90,0,0,0,4.13,-2.10,-0.84,-0.09,0.98,0.20
0.4453125,0.040223602,0.0057764053,-0.00537888,-0.1,0.98,0.19,15232,10152.20,0,0,165,3.22,-2.59,-0.49,-0.10,0.98,0.19
0.14550781,-0.004776397,-0.0032235943,-0.00237888,-0.1,0.99,0.19,15239,10151.90,0,0,0,0.07,-3.22,-0.28,-0.10,0.99,0.19
1.1455078,-0.0647764,-0.001223594,-0.00837888,-0.06,0.96,0.19,15254,10152.90,0,0,165,-4.13,-3.08,-0.70,-0.06,0.96,0.19
0.14550781,0.025223605,0.024776407,-0.014378881,-0.08,0.93,0.18,15269,10151.90,0,0,0,2.17,-1.26,-1.12,-0.08,0.93,0.18
-0.15527344,-0.021776397,-0.011223596,-0.02337888,-0.09,0.96,0.19,15277,10151.60,0,0,165,-1.12,-3.78,-1.75,-0.09,0.96,0.19
1.1455078,-0.0847764,-0.068223596,0.07162112,-0.05,0.95,0.17,15292,10152.90,0,0,0,-5.53,-7.77,4.90,-0.05,0.95,0.17
0.14550781,-0.1147764,-0.019223597,0.08662112,-0.1,1.05,0.22,15307,10151.90,0,0,165,-7.63,-4.34,5.95,-0.10,1.05,0.22
0.14550781,0.1512236,0.023776405,0.09662112,-0.06,1.06,0.21,15315,10151.90,0,0,0,10.99,-1.33,6.65,-0.06,1.06,0.21
1.1455078,0.21422361,0.053776406,0.00462112,-0.09,1.03,0.22,15330,10152.90,0,0,165,15.40,0.77,0.21,-0.09,1.03,0.22
1.1455078,0.20322362,0.039776407,0.0026211203,-0.15,0.95,0.2,15345,10152.90,0,0,0,14.63,-0.21,0.07,-0.15,0.95,0.20
1.1455078,0.1602236,-0.001223594,0.07162112,-0.17,0.96,0.16,15353,10152.90,0,0,165,11.62,-3.08,4.90,-0.17,0.96,0.16
0.14550781,0.1172236,0.1607764,0.19262113,-0.28,0.91,0.41,15367,10151.90,0,0,0,8.61,8.26,13.37,-0.28,0.91,0.41
1.1455078,0.17122361,0.25477642,0.42662114,-0.11,0.97,0.13,15382,10152.90,0,0,165,12.39,14.84,29.75,-0.11,0.97,0.13
0.14550781,-0.0557764,0.2417764,0.29962113,-0.03,1.01,0.18,15389,10151.90,0,0,0,-3.50,13.93,20.86,-0.03,1.01,0.18
1.1455078,-0.2137764,0.14177641,0.17162113,-0.05,1.06,0.19,15412,10152.90,0,0,165,-14.56,6.93,11.90,-0.05,1.06,0.19
0.14550781,-0.2517764,0.1147764,0.077621125,-0.13,1.09,0.2,15421,10151.90,0,0,0,-17.22,5.04,5.32,-0.13,1.09,0.20
0.14550781,-0.1487764,0.14677641,0.03662112,-0.14,1.07,0.2,15427,10151.90,0,0,165,-10.01,7.28,2.45,-0.14,1.07,0.20
0.4453125,0.019223604,0.14077641,-0.15237887,-0.12,1.16,0.17,15442,10152.20,0,0,0,1.75,6.86,-10.78,-0.12,1.16,0.17
0.14550781,0.3682236,0.1247764,-0.23037887,-0.12,1.29,0.21,15457,10151.90,0,0,165,26.18,5.74,-16.24,-0.12,1.29,0.21
0.14550781,1.1192236,0.29877642,-0.18037887,-0.19,1.26,0.26,15465,10151.90,0,0,0,78.75,17.92,-12.74,-0.19,1.26,0.26
0.14550781,1.5452236,0.4017764,-0.110378884,-0.11,1.16,0.25,15480,10151.90,0,0,165,108.57,25.13,-7.84,-0.11,1.16,0.25
0.14550781,1.8102236,0.3847764,0.02362112,-0.05,1.09,0.28,15495,10151.90,0,0,0,127.12,23.94,1.54,-0.05,1.09,0.28
0.4453125,1.7212236,0.19177641,0.17062113,-0.11,1.09,0.23,15502,10152.20,0,0,165,120.89,10.43,11.83,-0.11,1.09,0.23
0.14550781,1.4722236,-0.074223585,0.35162112,-0.14,1.16,0.14,15518,10151.90,0,0,0,103.46,-8.19,24.50,-0.14,1.16,0.14
1.1455078,1.3512236,-0.13622358,0.5906211,-0.11,1.16,0.13,15532,10152.90,0,0,165,94.99,-12.53,41.23,-0.11,1.16,0.13
0.14550781,1.1492236,-0.22722358,0.6076211,-0.1,1.13,0.11,15539,10151.90,0,0,0,80.85,-18.90,42.42,-0.10,1.13,0.11
1.1455078,0.8802236,-0.1752236,0.6376211,-0.13,1.18,0.09,15554,10152.90,0,0,165,62.02,-15.26,44.52,-0.13,1.18,0.09
-0.8544922,0.8312236,-0.0062235966,0.78762114,-0.12,1.18,0.11,15570,10150.90,0,0,0,58.59,-3.43,55.02,-0.12,1.18,0.11
0.14550781,0.7872236,0.082776405,0.8046211,-0.11,1.15,0.14,15577,10151.90,0,0,165,55.51,2.80,56.21,-0.11,1.15,0.14
1.1455078,0.6792236,0.1447764,0.8196211,-0.11,1.07,0.19,15592,10152.90,0,0,0,47.95,7.14,57.26,-0.11,1.07,0.19
0.14550781,0.34722358,-0.007223595,0.67462116,-0.06,1.02,0.17,15608,10151.90,0,0,165,24.71,-3.50,47.11,-0.06,1.02,0.17
0.14550781,0.14622362,-0.13022359,0.6366211,-0.03,1.07,0.1,15621,10151.90,0,0,0,10.64,-12.11,44.45,-0.03,1.07,0.10
0.14550781,0.24122362,-0.0982236,0.64762115,-0.01,1.1,0.07,15630,10151.90,0,0,165,17.29,-9.87,45.22,-0.01,1.10,0.07
0.4453125,0.5312236,0.022776406,0.6176211,0.01,1.1,0.08,15645,10152.20,0,0,0,37.59,-1.40,43.12,0.01,1.10,0.08
0.14550781,0.72522354,0.1457764,0.5806211,0.01,1.11,0.13,15653,10151.90,0,0,165,51.17,7.21,40.53,0.01,1.11,0.13
1.1455078,0.78422356,0.16977641,0.5536211,0.05,1.16,0.15,15667,10152.90,0,0,0,55.30,8.89,38.64,0.05,1.16,0.15
0.14550781,0.74622357,0.08077641,0.57462114,0.09,1.2,0.16,15674,10151.90,0,0,165,52.64,2.66,40.11,0.09,1.20,0.16
0.14550781,0.6742236,-0.008223593,0.68562114,0.11,1.23,0.18,15690,10151.90,0,0,0,47.60,-3.57,47.88,0.11,1.23,0.18
1.1455078,0.5722236,-0.1002236,0.81562114,0.1,1.18,0.17,15705,10152.90,0,0,165,40.46,-10.01,56.98,0.10,1.18,0.17
0.14550781,0.2982236,-0.19522358,0.83662117,0.07,1.06,0.13,15712,10151.90,0,0,0,21.28,-16.66,58.45,0.07,1.06,0.13
0.14550781,-0.2297764,-0.2762236,0.69962114,0.13,1.0,-0.01,15727,10151.90,0,0,165,-15.68,-22.33,48.86,0.13,1.00,-0.01
0.4453125,-0.59177643,-0.30822358,0.6286211,0.2,1.08,-0.18,15742,10152.20,0,0,0,-41.02,-24.57,43.89,0.20,1.08,-0.18
0.14550781,-0.2637764,-0.1222236,0.66162115,0.25,1.1,-0.22,15750,10151.90,0,0,165,-18.06,-11.55,46.20,0.25,1.10,-0.22
0.14550781,0.5632236,0.22977641,0.71162117,0.24,1.02,-0.09,15765,10151.90,0,0,0,39.83,13.09,49.70,0.24,1.02,-0.09
0.14550781,1.1442236,0.5717764,0.68962115,0.22,0.93,0.18,15780,10151.90,0,0,165,80.50,37.03,48.16,0.22,0.93,0.18
0.14550781,1.1762235,0.6527764,0.4796211,0.17,0.85,0.35,15787,10151.90,0,0,0,82.74,42.70,33.46,0.17,0.85,0.35
1.1455078,0.6512236,0.4367764,0.27962112,0.2,1.01,0.25,15804,10152.90,0,0,165,45.99,27.58,19.46,0.20,1.01,0.25
0.14550781,0.3002236,0.060776405,0.22262113,0.25,1.26,-0.09,15817,10151.90,0,0,0,21.42,1.26,15.47,0.25,1.26,-0.09
0.14550781,0.1672236,-0.20322359,0.4586211,0.25,1.36,-0.15,15826,10151.90,0,0,165,12.11,-17.22,31.99,0.25,1.36,-0.15
0.14550781,-0.2077764,-0.31022358,0.8266211,0.22,1.18,-0.25,15839,10151.90,0,0,0,-14.14,-24.71,57.75,0.22,1.18,-0.25
0.14550781,-0.8257764,-0.2302236,0.96062106,0.2,0.92,-0.29,15855,10151.90,0,0,165,-57.40,-19.11,67.13,0.20,0.92,-0.29
0.14550781,-1.0527765,-0.06422359,0.8866211,0.23,0.85,-0.26,15862,10151.90,0,0,0,-73.29,-7.49,61.95,0.23,0.85,-0.26
2.1455078,-0.6207764,0.2047764,0.74962115,0.26,0.85,-0.2,15877,10153.90,0,0,165,-43.05,11.34,52.36,0.26,0.85,-0.20
0.14550781,0.084223606,0.4947764,0.5776211,0.27,0.87,-0.03,15892,10151.90,0,0,0,6.30,31.64,40.32,0.27,0.87,-0.03
1.4453125,0.5292236,0.5237764,0.45062113,0.29,0.9,0.06,15899,10153.20,0,0,165,37.45,33.67,31.43,0.29,0.90,0.06
1.1455078,0.4482236,0.3847764,0.43862113,0.26,0.91,0.06,15915,10152.90,0,0,0,31.78,23.94,30.59,0.26,0.91,0.06
0.14550781,0.0782236,0.2317764,0.47862113,0.26,0.93,-0.02,15929,10151.90,0,0,165,5.88,13.23,33.39,0.26,0.93,-0.02
0.14550781,-0.20077638,0.1247764,0.5416211,0.22,0.99,-0.11,15937,10151.90,0,0,0,-13.65,5.74,37.80,0.22,0.99,-0.11
0.14550781,-0.2537764,0.057776406,0.6636211,0.25,0.93,-0.18,15955,10151.90,0,0,165,-17.36,1.05,46.34,0.25,0.93,-0.18
1.1455078,-0.2607764,0.0707764,0.6596211,0.26,0.87,-0.2,15967,10152.90,0,0,0,-17.85,1.96,46.06,0.26,0.87,-0.20
1.1455078,-0.0617764,0.15077642,0.6146211,0.27,0.85,-0.15,15975,10152.90,0,0,165,-3.92,7.56,42.91,0.27,0.85,-0.15
1.1455078,0.15022361,0.21677642,0.4916211,0.26,0.85,-0.08,15990,10152.90,0,0,0,10.92,12.18,34.30,0.26,0.85,-0.08
0.14550781,0.18122362,0.22077641,0.41162112,0.27,0.85,-0.02,16004,10151.90,0,0,165,13.09,12.46,28.70,0.27,0.85,-0.02
0.14550781,-0.1337764,0.10377641,0.37162113,0.27,0.88,-0.01,16012,10151.90,0,0,0,-8.96,4.27,25.90,0.27,0.88,-0.01
0.14550781,-0.42377642,-0.017223593,0.4106211,0.29,0.9,-0.09,16027,10151.90,0,0,165,-29.26,-4.20,28.63,0.29,0.90,-0.09
0.14550781,-0.4507764,0.0027764067,0.6086212,0.3,0.95,-0.24,16043,10151.90,0,0,0,-31.15,-2.80,42.49,0.30,0.95,-0.24
0.4453125,-0.3807764,0.13977641,0.41262114,0.27,0.83,-0.27,16050,10152.20,0,0,165,-26.25,6.79,28.77,0.27,0.83,-0.27
1.1455078,0.0492236,0.3157764,0.47062114,0.3,0.94,-0.23,16065,10152.90,0,0,0,3.85,19.11,32.83,0.30,0.94,-0.23
0.14550781,0.3992236,0.3607764,0.5326211,0.25,0.78,-0.12,16080,10151.90,0,0,165,28.35,22.26,37.17,0.25,0.78,-0.12
1.1455078,0.0882236,0.3777764,0.37862113,0.27,0.76,-0.06,16087,10152.90,0,0,0,6.58,23.45,26.39,0.27,0.76,-0.06
0.14550781,-0.13077639,0.3417764,0.32362115,0.29,0.81,-0.04,16103,10151.90,0,0,165,-8.75,20.93,22.54,0.29,0.81,-0.04
-0.45507812,-0.08777639,0.24977641,0.32662112,0.29,0.83,-0.01,16117,10151.30,0,0,0,-5.74,14.49,22.75,0.29,0.83,-0.01
1.1455078,0.1052236,0.11077641,0.29062113,0.32,0.83,-0.05,16124,10152.90,0,0,165,7.77,4.76,20.23,0.32,0.83,-0.05
1.1455078,0.2572236,0.0127764065,0.27762112,0.36,0.88,-0.13,16139,10152.90,0,0,0,18.41,-2.10,19.32,0.36,0.88,-0.13
0.14550781,0.33522362,0.035776407,0.32562113,0.37,0.89,-0.15,16155,10151.90,0,0,165,23.87,-0.49,22.68,0.37,0.89,-0.15
0.14550781,0.3872236,0.14177641,0.37562114,0.36,0.84,-0.13,16163,10151.90,0,0,0,27.51,6.93,26.18,0.36,0.84,-0.13
1.1455078,0.42822358,0.29177642,0.39562112,0.34,0.79,-0.03,16177,10152.90,0,0,165,30.38,17.43,27.58,0.34,0.79,-0.03
1.1455078,0.4832236,0.3337764,0.33662114,0.35,0.8,0.07,16193,10152.90,0,0,0,34.23,20.37,23.45,0.35,0.80,0.07
1.4453125,0.3982236,0.19077641,0.24962114,0.37,0.81,0.08,16199,10153.20,0,0,165,28.28,10.36,17.36,0.37,0.81,0.08
0.14550781,0.0862236,0.050776407,0.20962113,0.38,0.82,0.04,16215,10151.90,0,0,0,6.44,0.56,14.56,0.38,0.82,0.04
0.14550781,-0.1137764,-0.0552236,0.20962113,0.4,0.85,-0.02,16231,10151.90,0,0,165,-7.56,-6.86,14.56,0.40,0.85,-0.02
1.1455078,-0.0507764,-0.08922359,0.24762112,0.41,0.85,-0.09,16237,10152.90,0,0,0,-3.15,-9.24,17.22,0.41,0.85,-0.09
1.1455078,0.24222362,-0.036223598,0.23062114,0.42,0.83,-0.14,16252,10152.90,0,0,165,17.36,-5.53,16.03,0.42,0.83,-0.14
0.4453125,0.5802236,0.097776406,0.17262113,0.44,0.86,-0.12,16268,10152.20,0,0,0,41.02,3.85,11.97,0.44,0.86,-0.12
1.1455078,0.8412236,0.19477642,0.12962113,0.43,0.87,-0.09,16281,10152.90,0,0,165,59.29,10.64,8.96,0.43,0.87,-0.09
0.14550781,0.98422366,0.2597764,0.12862113,0.41,0.91,-0.0,16290,10151.90,0,0,0,69.30,15.19,8.89,0.41,0.91,-0.00
0.14550781,0.9972236,0.2087764,0.14662112,0.39,0.9,0.05,16306,10151.90,0,0,165,70.21,11.62,10.15,0.39,0.90,0.05
0.14550781,0.87222356,0.021776406,0.124621116,0.4,0.92,0.04,16312,10151.90,0,0,0,61.46,-1.47,8.61,0.40,0.92,0.04
1.4453125,0.5692236,-0.2002236,0.13062112,0.44,0.93,-0.04,16327,10153.20,0,0,165,40.25,-17.01,9.03,0.44,0.93,-0.04
0.14550781,0.24622361,-0.3742236,0.15062113,0.45,0.91,-0.13,16342,10151.90,0,0,0,17.64,-29.19,10.43,0.45,0.91,-0.13
1.1455078,0.0542236,-0.3212236,0.17962113,0.44,0.88,-0.13,16350,10152.90,0,0,165,4.20,-25.48,12.46,0.44,0.88,-0.13
0.4453125,0.040223602,-0.19922361,0.16862112,0.43,0.79,-0.13,16365,10152.20,0,0,0,3.22,-16.94,11.69,0.43,0.79,-0.13
0.14550781,0.08122361,-0.1482236,0.10462112,0.43,0.73,-0.15,16381,10151.90,0,0,165,6.09,-13.37,7.21,0.43,0.73,-0.15
1.4453125,0.21222362,-0.0942236,-0.029378882,0.43,0.8,-0.16,16399,10153.20,0,0,0,15.26,-9.59,-2.17,0.43,0.80,-0.16
0.14550781,0.52422357,-0.08822359,-0.07637888,0.45,0.91,-0.2,16404,10151.90,0,0,165,37.10,-9.17,-5.46,0.45,0.91,-0.20
0.14550781,0.6572236,-0.027223594,-0.043378882,0.44,0.91,-0.19,16417,10151.90,0,0,0,46.41,-4.90,-3.15,0.44,0.91,-0.19
0.14550781,0.46222356,0.024776407,-0.02037888,0.42,0.9,-0.15,16424,10151.90,0,0,165,32.76,-1.26,-1.54,0.42,0.90,-0.15
1.1455078,0.19422361,-0.018223595,0.05762112,0.42,0.89,-0.16,16439,10152.90,0,0,0,14.00,-4.27,3.92,0.42,0.89,-0.16
1.4453125,0.040223602,-0.109223604,0.05662112,0.38,0.85,-0.2,16455,10153.20,0,0,165,3.22,-10.64,3.85,0.38,0.85,-0.20
1.1455078,-0.0027763972,-0.13222359,0.01862112,0.39,0.85,-0.21,16462,10152.90,0,0,0,0.21,-12.25,1.19,0.39,0.85,-0.21
0.14550781,0.0342236,-0.1662236,-0.029378882,0.39,0.83,-0.23,16478,10151.90,0,0,165,2.80,-14.63,-2.17,0.39,0.83,-0.23
0.14550781,-0.021776397,-0.1682236,-0.10837888,0.37,0.84,-0.27,16492,10151.90,0,0,0,-1.12,-14.77,-7.70,0.37,0.84,-0.27
0.14550781,-0.1137764,-0.09622359,-0.17237888,0.36,0.84,-0.24,16500,10151.90,0,0,165,-7.56,-9.73,-12.18,0.36,0.84,-0.24
1.1455078,-0.22277638,-0.17122358,-0.23337889,0.39,0.91,-0.24,16514,10152.90,0,0,0,-15.19,-14.98,-16.45,0.39,0.91,-0.24
1.1455078,-0.21777639,0.038776405,-0.19937886,0.39,0.97,-0.3,16530,10152.90,0,0,165,-14.84,-0.28,-14.07,0.39,0.97,-0.30
1.1455078,-0.1257764,-0.092223585,-0.15237887,0.37,0.99,-0.38,16537,10152.90,0,0,0,-8.40,-9.45,-10.78,0.37,0.99,-0.38
0.14550781,0.022223603,0.11777641,-0.10137888,0.35,1.01,-0.37,16553,10151.90,0,0,165,1.96,5.25,-7.21,0.35,1.01,-0.37
1.1455078,0.1582236,0.25877643,-0.02337888,0.34,1.05,-0.29,16568,10152.90,0,0,0,11.48,15.12,-1.75,0.34,1.05,-0.29
1.4453125,0.0882236,0.1777764,0.07462112,0.33,0.99,-0.25,16575,10153.20,0,0,165,6.58,9.45,5.11,0.33,0.99,-0.25
0.14550781,-0.14077638,0.108776405,0.13962112,0.3,0.96,-0.22,16590,10151.90,0,0,0,-9.45,4.62,9.66,0.30,0.96,-0.22
0.14550781,-0.20677638,0.019776406,0.18562113,0.26,0.89,-0.21,16606,10151.90,0,0,165,-14.07,-1.61,12.88,0.26,0.89,-0.21
0.14550781,-0.45377642,-0.14722359,0.15662113,0.27,0.76,-0.28,16612,10151.90,0,0,0,-31.36,-13.30,10.85,0.27,0.76,-0.28
1.1455078,-0.68477637,-0.2012236,0.04062112,0.29,0.74,-0.43,16628,10152.90,0,0,165,-47.53,-17.08,2.73,0.29,0.74,-0.43
0.14550781,-0.6597764,-0.07322359,-0.030378882,0.32,0.72,-0.48,16642,10151.90,0,0,0,-45.78,-8.12,-2.24,0.32,0.72,-0.48
1.1455078,-0.3397764,0.11877641,-0.07537888,0.33,0.78,-0.41,16650,10152.90,0,0,165,-23.38,5.32,-5.39,0.33,0.78,-0.41
1.1455078,0.14822361,0.2577764,-0.10237888,0.32,0.81,-0.25,16665,10152.90,0,0,0,10.78,15.05,-7.28,0.32,0.81,-0.25
1.1455078,0.14622362,0.1517764,-0.15937889,0.32,0.81,-0.22,16680,10152.90,0,0,165,10.64,7.63,-11.27,0.32,0.81,-0.22
1.1455078,-0.1237764,-0.037223592,-0.19537887,0.35,0.87,-0.25,16689,10152.90,0,0,0,-8.26,-5.60,-13.79,0.35,0.87,-0.25
0.4453125,-0.2927764,-0.10222359,-0.15137887,0.36,0.88,-0.31,16704,10152.20,0,0,165,-20.09,-10.15,-10.71,0.36,0.88,-0.31
2.1455078,-0.2497764,-0.047223598,-0.10337888,0.36,0.86,-0.33,16717,10153.90,0,0,0,-17.08,-6.30,-7.35,0.36,0.86,-0.33
0.14550781,-0.0987764,0.017776405,-0.11237888,0.33,0.83,-0.21,16724,10151.90,0,0,165,-6.51,-1.75,-7.98,0.33,0.83,-0.21
1.1455078,-0.1147764,-0.034223594,-0.18637887,0.36,0.8,-0.13,16740,10152.90,0,0,0,-7.63,-5.39,-13.16,0.36,0.80,-0.13
1.4453125,-0.48877642,-0.1642236,-0.27937886,0.34,0.63,-0.13,16756,10153.20,0,0,165,-33.81,-14.49,-19.67,0.34,0.63,-0.13
1.1455078,-0.8207764,-0.22422361,-0.38637888,0.36,0.79,-0.17,16762,10152.90,0,0,0,-57.05,-18.69,-27.16,0.36,0.79,-0.17
1.1455078,-0.7947764,-0.19922361,-0.42137888,0.36,0.85,-0.23,16777,10152.90,0,0,165,-55.23,-16.94,-29.61,0.36,0.85,-0.23
1.1455078,-0.5387764,-0.12422359,-0.45137885,0.34,0.85,-0.2,16792,10152.90,0,0,0,-37.31,-11.69,-31.71,0.34,0.85,-0.20
1.1455078,-0.3637764,-0.048223592,-0.48737887,0.31,0.83,-0.11,16800,10152.90,0,0,165,-25.06,-6.37,-34.23,0.31,0.83,-0.11
1.1455078,-0.5187764,-0.0692236,-0.6583789,0.25,0.82,-0.03,16815,10152.90,0,0,0,-35.91,-7.84,-46.20,0.25,0.82,-0.03
0.14550781,-0.78977644,-0.24122357,-0.78137887,0.29,0.91,-0.03,16830,10151.90,0,0,165,-54.88,-19.88,-54.81,0.29,0.91,-0.03
0.14550781,-0.9337764,-0.5182236,-0.75337887,0.32,1.03,-0.09,16839,10151.90,0,0,0,-64.96,-39.27,-52.85,0.32,1.03,-0.09
0.14550781,-0.90077645,-0.6112236,-0.6553789,0.31,1.04,-0.17,16853,10151.90,0,0,165,-62.65,-45.78,-45.99,0.31,1.04,-0.17
-0.8544922,-0.8927764,-0.4892236,-0.6413788,0.29,1.02,-0.21,16867,10150.90,0,0,0,-62.09,-37.24,-45.01,0.29,1.02,-0.21
0.4453125,-0.8487764,-0.3302236,-0.6233789,0.24,1.05,-0.15,16875,10152.20,0,0,165,-59.01,-26.11,-43.75,0.24,1.05,-0.15
1.1455078,-0.9137764,-0.2732236,-0.58837885,0.24,1.0,0.02,16890,10152.90,0,0,0,-63.56,-22.12,-41.30,0.24,1.00,0.02
0.14550781,-1.2477764,-0.5122236,-0.61037886,0.25,1.0,-0.01,16905,10151.90,0,0,165,-86.94,-38.85,-42.84,0.25,1.00,-0.01
0.14550781,-1.4487765,-0.67322356,-0.62437886,0.28,1.09,-0.11,16912,10151.90,0,0,0,-101.01,-50.12,-43.82,0.28,1.09,-0.11
1.4453125,-1.1967764,-0.5292236,-0.50837886,0.27,1.14,-0.14,16927,10153.20,0,0,165,-83.37,-40.04,-35.70,0.27,1.14,-0.14
0.14550781,-0.8667764,-0.24322361,-0.3643789,0.26,1.12,-0.05,16942,10151.90,0,0,0,-60.27,-20.02,-25.62,0.26,1.12,-0.05
1.4453125,-0.6867764,-0.19222361,-0.28037888,0.25,1.09,0.03,16951,10153.20,0,0,165,-47.67,-16.45,-19.74,0.25,1.09,0.03
0.14550781,-0.73577636,-0.3542236,-0.19837888,0.25,1.07,0.01,16965,10151.90,0,0,0,-51.10,-27.79,-14.00,0.25,1.07,0.01
0.14550781,-0.6867764,-0.4512236,-0.10337888,0.25,1.08,-0.04,16980,10151.90,0,0,165,-47.67,-34.58,-7.35,0.25,1.08,-0.04
1.4453125,-0.44177642,-0.3762236,0.011621119,0.24,1.0,-0.02,16989,10153.20,0,0,0,-30.52,-29.33,0.70,0.24,1.00,-0.02
1.4453125,-0.3697764,-0.2872236,-0.02137888,0.23,0.93,0.02,17003,10153.20,0,0,165,-25.48,-23.10,-1.61,0.23,0.93,0.02
0.14550781,-0.4427764,-0.19522358,-0.10837888,0.2,0.88,0.09,17017,10151.90,0,0,0,-30.59,-16.66,-7.70,0.20,0.88,0.09
1.1455078,-0.5887764,-0.2842236,-0.22237888,0.22,0.91,0.11,17025,10152.90,0,0,165,-40.81,-22.89,-15.68,0.22,0.91,0.11
1.1455078,-0.6037764,-0.4322236,-0.28937888,0.24,0.98,0.08,17040,10152.90,0,0,0,-41.86,-33.25,-20.37,0.24,0.98,0.08
0.14550781,-0.50877637,-0.47322357,-0.27837887,0.26,1.03,0.03,17056,10151.90,0,0,165,-35.21,-36.12,-19.60,0.26,1.03,0.03
0.14550781,-0.3807764,-0.3572236,-0.22937888,0.24,1.06,0.02,17063,10151.90,0,0,0,-26.25,-28.00,-16.17,0.24,1.06,0.02
0.14550781,-0.2927764,-0.1702236,-0.12937887,0.22,1.02,0.07,17077,10151.90,0,0,165,-20.09,-14.91,-9.17,0.22,1.02,0.07
1.1455078,-0.2597764,-0.119223595,-0.085378885,0.21,0.98,0.11,17094,10152.90,0,0,0,-17.78,-11.34,-6.09,0.21,0.98,0.11
1.1455078,-0.1797764,-0.1552236,-0.07237888,0.2,0.97,0.11,17099,10152.90,0,0,165,-12.18,-13.86,-5.18,0.20,0.97,0.11
0.14550781,0.0012236033,-0.1882236,-0.06137888,0.22,1.01,0.08,17115,10151.90,0,0,0,0.49,-16.17,-4.41,0.22,1.01,0.08
1.1455078,0.77822363,0.2157764,-0.0063788802,0.28,0.92,-0.32,17130,10152.90,0,0,165,54.88,12.11,-0.56,0.28,0.92,-0.32
0.4453125,0.34022358,0.5517764,-0.02437888,0.24,1.13,0.07,17138,10152.20,0,0,0,24.22,35.63,-1.82,0.24,1.13,0.07
0.14550781,0.76222354,0.4327764,0.14162113,0.13,0.95,0.13,17152,10151.90,0,0,165,53.76,27.30,9.80,0.13,0.95,0.13
1.1455078,0.67322356,0.33977643,0.072621115,0.23,0.96,0.13,17168,10152.90,0,0,0,47.53,20.79,4.97,0.23,0.96,0.13
0.14550781,-0.1197764,-0.8672236,-0.3723789,0.36,1.25,0.02,17175,10151.90,0,0,165,-7.98,-63.70,-26.18,0.36,1.25,0.02
0.4453125,-0.14577639,-0.099223584,-0.31937885,0.26,1.13,0.15,17190,10152.20,0,0,0,-9.80,-9.94,-22.47,0.26,1.13,0.15
0.4453125,-0.5357764,-0.074223585,-0.04837888,0.27,1.12,0.01,17205,10152.20,0,0,165,-37.10,-8.19,-3.50,0.27,1.12,0.01
0.4453125,-0.50877637,0.059776407,0.13562113,0.08,1.19,-0.1,17212,10152.20,0,0,0,-35.21,1.19,9.38,0.08,1.19,-0.10
0.14550781,-0.6757764,-0.07322359,0.46762112,0.2,1.05,0.05,17227,10151.90,0,0,165,-46.90,-8.12,32.62,0.20,1.05,0.05
0.4453125,-0.6737764,-0.27822357,0.5156211,0.19,0.97,0.11,17242,10152.20,0,0,0,-46.76,-22.47,35.98,0.19,0.97,0.11
0.14550781,-0.7227764,-0.4122236,0.56062114,0.2,0.99,0.08,17250,10151.90,0,0,165,-50.19,-31.85,39.13,0.20,0.99,0.08
0.14550781,-0.3637764,-0.3162236,0.6416211,0.22,1.03,0.14,17265,10151.90,0,0,0,-25.06,-25.13,44.80,0.22,1.03,0.14
0.14550781,-0.3187764,-0.2832236,0.6076211,0.25,0.99,0.2,17280,10151.90,0,0,165,-21.91,-22.82,42.42,0.25,0.99,0.20
1.4453125,-0.48777643,-0.45322362,0.44162112,0.28,1.0,0.16,17288,10153.20,0,0,0,-33.74,-34.72,30.80,0.28,1.00,0.16
0.14550781,-0.43077642,-0.5832236,0.36062112,0.31,1.04,0.09,17302,10151.90,0,0,165,-29.75,-43.82,25.13,0.31,1.04,0.09
1.1455078,-0.4107764,-0.5802236,0.32062113,0.32,1.03,0.11,17317,10152.90,0,0,0,-28.35,-43.61,22.33,0.32,1.03,0.11
0.14550781,-0.4687764,-0.47322357,0.34262115,0.33,1.03,0.16,17325,10151.90,0,0,165,-32.41,-36.12,23.87,0.33,1.03,0.16
1.4453125,-0.5477764,-0.24122357,0.4106211,0.29,0.99,0.18,17340,10153.20,0,0,0,-37.94,-19.88,28.63,0.29,0.99,0.18
1.1455078,-0.6947764,0.115776405,0.34662113,0.22,0.94,0.18,17355,10152.90,0,0,165,-48.23,5.11,24.15,0.22,0.94,0.18
0.14550781,-0.5147764,0.2327764,0.31362113,0.27,0.97,0.16,17362,10151.90,0,0,0,-35.63,13.30,21.84,0.27,0.97,0.16
1.4453125,-0.2237764,0.2487764,0.35662115,0.29,0.97,0.12,17378,10153.20,0,0,165,-15.26,14.42,24.85,0.29,0.97,0.12
0.14550781,-0.1057764,0.17077641,0.46662113,0.35,0.94,0.18,17392,10151.90,0,0,0,-7.00,8.96,32.55,0.35,0.94,0.18
0.14550781,-0.2887764,0.1657764,0.52262115,0.34,0.95,0.17,17399,10151.90,0,0,165,-19.81,8.61,36.47,0.34,0.95,0.17
0.14550781,-0.3487764,0.33977643,0.59762114,0.33,0.94,0.15,17415,10151.90,0,0,0,-24.01,20.79,41.72,0.33,0.94,0.15
1.1455078,-0.56377643,0.4757764,0.61662114,0.36,0.94,0.2,17430,10152.90,0,0,165,-39.06,30.31,43.05,0.36,0.94,0.20
0.14550781,-0.6637764,0.5447764,0.6546211,0.38,0.93,0.19,17439,10151.90,0,0,0,-46.06,35.14,45.71,0.38,0.93,0.19
1.4453125,-0.66477644,0.4547764,0.7016211,0.36,0.91,0.18,17453,10153.20,0,0,165,-46.13,28.84,49.00,0.36,0.91,0.18
1.1455078,-0.65177643,0.3377764,0.6886211,0.36,0.91,0.2,17467,10152.90,0,0,0,-45.22,20.65,48.09,0.36,0.91,0.20
0.4453125,-0.68477637,0.1847764,0.6786211,0.36,0.91,0.22,17475,10152.20,0,0,165,-47.53,9.94,47.39,0.36,0.91,0.22
0.4453125,-0.5297764,0.09477641,0.6456212,0.35,0.93,0.24,17490,10152.20,0,0,0,-36.68,3.64,45.08,0.35,0.93,0.24
0.14550781,-0.3667764,0.14377642,0.62062114,0.35,0.91,0.25,17506,10151.90,0,0,165,-25.27,7.07,43.33,0.35,0.91,0.25
0.14550781,-0.2017764,0.100776404,0.62362117,0.38,0.89,0.24,17513,10151.90,0,0,0,-13.72,4.06,43.54,0.38,0.89,0.24
0.4453125,-0.0557764,0.013776407,0.6276211,0.4,0.92,0.2,17528,10152.20,0,0,165,-3.50,-2.03,43.82,0.40,0.92,0.20
1.4453125,0.12822361,-0.023223594,0.6266211,0.4,0.9,0.2,17543,10153.20,0,0,0,9.38,-4.62,43.75,0.40,0.90,0.20
1.1455078,0.2742236,-0.13022359,0.6446211,0.41,0.88,0.23,17550,10152.90,0,0,165,19.60,-12.11,45.01,0.41,0.88,0.23
1.1455078,0.2932236,-0.19622359,0.63362116,0.39,0.88,0.22,17565,10152.90,0,0,0,20.93,-16.73,44.24,0.39,0.88,0.22
1.4453125,0.34022358,-0.1772236,0.6076211,0.39,0.88,0.21,17580,10153.20,0,0,165,24.22,-15.40,42.42,0.39,0.88,0.21
0.14550781,0.3302236,-0.030223593,0.5756211,0.42,0.89,0.23,17588,10151.90,0,0,0,23.52,-5.11,40.18,0.42,0.89,0.23
0.4453125,0.34022358,0.041776408,0.5246211,0.48,0.91,0.25,17603,10152.20,0,0,165,24.22,-0.07,36.61,0.48,0.91,0.25
2.4453125,0.3822236,0.0907764,0.47862113,0.49,0.88,0.29,17617,10154.20,0,0,0,27.16,3.36,33.39,0.49,0.88,0.29
0.14550781,0.2562236,0.14877641,0.5526211,0.47,0.83,0.25,17625,10151.90,0,0,165,18.34,7.42,38.57,0.47,0.83,0.25
-0.45507812,0.3172236,0.2407764,0.6286211,0.45,0.81,0.17,17640,10151.30,0,0,0,22.61,13.86,43.89,0.45,0.81,0.17
1.1455078,0.24622361,0.24477641,0.6296211,0.49,0.87,0.26,17656,10152.90,0,0,165,17.64,14.14,43.96,0.49,0.87,0.26
0.14550781,0.25422361,0.4727764,0.6266211,0.49,0.84,0.3,17662,10151.90,0,0,0,18.20,30.10,43.75,0.49,0.84,0.30
1.4453125,0.32622358,0.4377764,0.57462114,0.45,0.83,0.21,17677,10153.20,0,0,165,23.24,27.65,40.11,0.45,0.83,0.21
0.14550781,0.29622358,0.1757764,0.5486211,0.44,0.81,0.19,17692,10151.90,0,0,0,21.14,9.31,38.29,0.44,0.81,0.19
0.14550781,0.2992236,0.060776405,0.5616211,0.46,0.83,0.24,17700,10151.90,0,0,165,21.35,1.26,39.20,0.46,0.83,0.24
0.14550781,-0.0487764,-0.05122359,0.45962116,0.45,0.84,0.24,17722,10151.90,0,0,0,-3.01,-6.58,32.06,0.45,0.84,0.24
1.4453125,-0.2167764,-0.09522359,0.22362113,0.46,0.88,0.21,17738,10153.20,0,0,165,-14.77,-9.66,15.54,0.46,0.88,0.21
1.1455078,-0.2057764,-0.09522359,0.01862112,0.49,0.89,0.18,17745,10152.90,0,0,0,-14.00,-9.66,1.19,0.49,0.89,0.18
0.14550781,-0.1687764,-0.1732236,-0.10037888,0.51,0.87,0.17,17752,10151.90,0,0,165,-11.41,-15.12,-7.14,0.51,0.87,0.17
0.14550781,-0.20477639,-0.2052236,-0.12837888,0.53,0.88,0.16,17767,10151.90,0,0,0,-13.93,-17.36,-9.10,0.53,0.88,0.16
1.4453125,-0.088776395,-0.27822357,-0.09737888,0.53,0.9,0.15,17781,10153.20,0,0,165,-5.81,-22.47,-6.93,0.53,0.90,0.15
0.14550781,0.051223602,-0.22422361,-0.110378884,0.5,0.95,0.14,17790,10151.90,0,0,0,3.99,-18.69,-7.84,0.50,0.95,0.14
0.14550781,0.23822361,-0.1812236,-0.11937889,0.62,0.9,0.19,17805,10151.90,0,0,165,17.08,-15.68,-8.47,0.62,0.90,0.19
2.4453125,0.27522358,-0.28222358,0.0026211203,0.79,0.92,0.3,17819,10154.20,0,0,0,19.67,-22.75,0.07,0.79,0.92,0.30
0.14550781,0.12222361,-0.7022236,0.36162114,0.95,0.9,0.28,17827,10151.90,0,0,165,8.96,-52.15,25.20,0.95,0.90,0.28
1.1455078,-0.1197764,-1.1312237,0.9326211,0.67,0.71,0.2,17842,10152.90,0,0,0,-7.98,-82.18,65.17,0.67,0.71,0.20
2.1455078,-1.5137764,-1.4362235,-0.40737885,0.49,-0.05,0.19,17857,10153.90,0,0,165,-105.56,-103.53,-28.63,0.49,-0.05,0.19
2.4453125,-2.8147764,-1.2242236,-1.5443789,0.46,0.96,0.21,17864,10154.20,0,0,0,-196.63,-88.69,-108.22,0.46,0.96,0.21
0.14550781,-1.0647764,-0.8282236,-0.8863789,0.38,1.61,0.16,17879,10151.90,0,0,165,-74.13,-60.97,-62.16,0.38,1.61,0.16
0.14550781,0.57022357,-0.1412236,0.18062112,0.39,1.15,0.23,17894,10151.90,0,0,0,40.32,-12.88,12.53,0.39,1.15,0.23
0.4453125,0.76022357,0.15777642,0.37962112,0.52,0.67,0.29,17901,10152.20,0,0,165,53.62,8.05,26.46,0.52,0.67,0.29
1.7451172,-0.035776395,-0.031223595,0.11162112,0.66,0.67,0.29,17917,10153.50,0,0,0,-2.10,-5.18,7.70,0.66,0.67,0.29
1.4453125,-0.3197764,-0.3752236,-0.05337888,0.63,0.88,0.26,17932,10153.20,0,0,165,-21.98,-29.26,-3.85,0.63,0.88,0.26
1.1455078,-0.0727764,-0.5682236,-0.011378881,0.54,0.95,0.23,17940,10152.90,0,0,0,-4.69,-42.77,-0.91,0.54,0.95,0.23
-0.45507812,0.12822361,-0.57522357,0.13362113,0.4,0.86,0.21,17955,10151.30,0,0,165,9.38,-43.26,9.24,0.40,0.86,0.21
1.1455078,0.1392236,-0.46422362,0.24962114,0.39,0.81,0.2,17970,10152.90,0,0,0,10.15,-35.49,17.36,0.39,0.81,0.20
0.4453125,0.0652236,-0.38422358,0.3156211,0.43,0.85,0.22,17977,10152.20,0,0,165,4.97,-29.89,21.98,0.43,0.85,0.22
1.1455078,0.091223605,-0.49722356,0.3406211,0.44,0.85,0.18,17992,10152.90,0,0,0,6.79,-37.80,23.73,0.44,0.85,0.18
0.4453125,0.13022362,-0.4992236,0.27362114,0.45,0.8,0.16,18007,10152.20,0,0,165,9.52,-37.94,19.04,0.45,0.80,0.16
0.14550781,0.010223604,-0.4852236,0.14962113,0.47,0.78,0.16,18014,10151.90,0,0,0,1.12,-36.96,10.36,0.47,0.78,0.16
0.14550781,-0.0907764,-0.5062236,0.042621117,0.5,0.83,0.14,18029,10151.90,0,0,165,-5.95,-38.43,2.87,0.50,0.83,0.14
1.4453125,-0.0617764,-0.5562236,0.01862112,0.48,0.82,0.1,18045,10153.20,0,0,0,-3.92,-41.93,1.19,0.48,0.82,0.10
1.4453125,-0.0707764,-0.5412236,-0.012378881,0.48,0.77,0.1,18053,10153.20,0,0,165,-4.55,-40.88,-0.98,0.48,0.77,0.10
1.4453125,-0.20377639,-0.5082236,-0.08937888,0.48,0.77,0.12,18067,10153.20,0,0,0,-13.86,-38.57,-6.37,0.48,0.77,0.12
1.4453125,-0.29877642,-0.4802236,-0.14237887,0.46,0.82,0.15,18082,10153.20,0,0,165,-20.51,-36.61,-10.08,0.46,0.82,0.15
1.1455078,-0.2967764,-0.42722362,-0.13037887,0.46,0.99,0.16,18090,10152.90,0,0,0,-20.37,-32.90,-9.24,0.46,0.99,0.16
0.4453125,-0.2277764,-0.3492236,-0.08437888,0.45,0.89,0.17,18106,10152.20,0,0,165,-15.54,-27.44,-6.02,0.45,0.89,0.17
-0.8544922,-0.16477638,-0.2742236,-0.03137888,0.48,0.89,0.18,18120,10150.90,0,0,0,-11.13,-22.19,-2.31,0.48,0.89,0.18
1.1455078,-0.1207764,-0.2042236,0.01262112,0.52,0.88,0.18,18127,10152.90,0,0,165,-8.05,-17.29,0.77,0.52,0.88,0.18
0.14550781,-0.1087764,-0.2072236,0.02262112,0.54,0.87,0.18,18143,10151.90,0,0,0,-7.21,-17.50,1.47,0.54,0.87,0.18
1.1455078,-0.1687764,-0.2572236,-0.00937888,0.53,0.85,0.18,18158,10152.90,0,0,165,-11.41,-21.00,-0.77,0.53,0.85,0.18
1.4453125,-0.23477641,-0.24522358,-0.11437888,0.48,0.86,0.17,18165,10153.20,0,0,0,-16.03,-20.16,-8.12,0.48,0.86,0.17
1.1455078,-0.21177639,-0.1752236,-0.16937888,0.48,0.88,0.18,18180,10152.90,0,0,165,-14.42,-15.26,-11.97,0.48,0.88,0.18
1.1455078,-0.19677639,-0.1222236,-0.17437887,0.48,0.89,0.2,18195,10152.90,0,0,0,-13.37,-11.55,-12.32,0.48,0.89,0.20
1.1455078,-0.1857764,-0.090223595,-0.16337888,0.5,0.89,0.22,18203,10152.90,0,0,165,-12.60,-9.31,-11.55,0.50,0.89,0.22
1.1455078,-0.19677639,-0.0842236,-0.13437888,0.5,0.94,0.25,18217,10152.90,0,0,0,-13.37,-8.89,-9.52,0.50,0.94,0.25
1.4453125,-0.13177639,-0.104223594,-0.080378875,0.52,0.97,0.24,18232,10153.20,0,0,165,-8.82,-10.29,-5.74,0.52,0.97,0.24
1.1455078,0.005223603,-0.1262236,-0.011378881,0.52,0.95,0.22,18239,10152.90,0,0,0,0.77,-11.83,-0.91,0.52,0.95,0.22
1.1455078,0.08122361,-0.1482236,0.0036211202,0.49,0.86,0.19,18255,10152.90,0,0,165,6.09,-13.37,0.14,0.49,0.86,0.19
1.4453125,0.037223604,-0.1482236,-0.02737888,0.49,0.83,0.18,18270,10153.20,0,0,0,3.01,-13.37,-2.03,0.49,0.83,0.18
1.4453125,-0.062776394,-0.13222359,-0.063378885,0.48,0.84,0.18,18277,10153.20,0,0,165,-3.99,-12.25,-4.55,0.48,0.84,0.18
1.1455078,-0.11277639,-0.114223585,-0.054378882,0.51,0.89,0.19,18292,10152.90,0,0,0,-7.49,-10.99,-3.92,0.51,0.89,0.19
0.14550781,-0.0837764,-0.11022359,0.0016211201,0.5,0.91,0.23,18308,10151.90,0,0,165,-5.46,-10.71,0.00,0.50,0.91,0.23
1.1455078,-0.0377764,-0.15422359,0.07062112,0.5,0.93,0.24,18315,10152.90,0,0,0,-2.24,-13.79,4.83,0.50,0.93,0.24
1.1455078,0.059223607,-0.1572236,0.13262112,0.5,0.92,0.22,18329,10152.90,0,0,165,4.55,-14.00,9.17,0.50,0.92,0.22
1.1455078,0.17022361,-0.1072236,0.16762112,0.51,0.89,0.19,18344,10152.90,0,0,0,12.32,-10.50,11.62,0.51,0.89,0.19
0.4453125,0.21622361,-0.049223594,0.16962112,0.52,0.85,0.19,18352,10152.20,0,0,165,15.54,-6.44,11.76,0.52,0.85,0.19
1.1455078,0.19422361,-0.056223594,0.16362113,0.54,0.84,0.17,18367,10152.90,0,0,0,14.00,-6.93,11.34,0.54,0.84,0.17
1.4453125,0.17922361,-0.079223596,0.14662112,0.52,0.83,0.15,18382,10153.20,0,0,165,12.95,-8.54,10.15,0.52,0.83,0.15
1.4453125,0.1362236,-0.0552236,0.13762113,0.52,0.82,0.14,18390,10153.20,0,0,0,9.94,-6.86,9.52,0.52,0.82,0.14
0.4453125,0.1082236,-0.035223596,0.14162113,0.52,0.83,0.15,18404,10152.20,0,0,165,7.98,-5.46,9.80,0.52,0.83,0.15
1.1455078,0.061223604,-0.002223596,0.14162113,0.54,0.86,0.19,18419,10152.90,0,0,0,4.69,-3.15,9.80,0.54,0.86,0.19
1.1455078,0.1082236,0.0047764033,0.17462112,0.55,0.9,0.17,18427,10152.90,0,0,165,7.98,-2.66,12.11,0.55,0.90,0.17
1.1455078,0.2662236,0.036776405,0.22562113,0.56,0.88,0.17,18443,10152.90,0,0,0,19.04,-0.42,15.68,0.56,0.88,0.17
1.1455078,0.33322358,0.015776405,0.23762113,0.58,0.83,0.16,18458,10152.90,0,0,165,23.73,-1.89,16.52,0.58,0.83,0.16
1.1455078,0.2672236,-0.025223598,0.18262112,0.55,0.79,0.15,18465,10152.90,0,0,0,19.11,-4.76,12.67,0.55,0.79,0.15
1.4453125,0.19622362,-0.037223592,0.12662113,0.53,0.8,0.0,18480,10153.20,0,0,165,14.14,-5.60,8.75,0.53,0.80,0.00
-0.45507812,0.19922361,0.0057764053,0.14062113,0.5,0.8,0.12,18495,10151.30,0,0,0,14.35,-2.59,9.73,0.50,0.80,0.12
0.4453125,0.1832236,0.041776408,0.15862112,0.52,0.8,0.12,18502,10152.20,0,0,165,13.23,-0.07,10.99,0.52,0.80,0.12
1.1455078,0.1362236,0.027776405,0.124621116,0.54,0.79,0.14,18517,10152.90,0,0,0,9.94,-1.05,8.61,0.54,0.79,0.14
1.4453125,0.0772236,7.764064E-4,0.10662112,0.55,0.81,0.15,18532,10153.20,0,0,165,5.81,-2.94,7.35,0.55,0.81,0.15
1.1455078,0.0772236,0.0047764033,0.11962112,0.52,0.82,0.13,18540,10152.90,0,0,0,5.81,-2.66,8.26,0.52,0.82,0.13
0.14550781,0.12722361,0.0837764,0.19162112,0.54,0.81,0.13,18555,10151.90,0,0,165,9.31,2.87,13.30,0.54,0.81,0.13
1.4453125,0.14422362,0.15477641,0.18662113,0.59,0.79,0.17,18570,10153.20,0,0,0,10.50,7.84,12.95,0.59,0.79,0.17
0.4453125,0.1042236,0.1757764,0.18562113,0.62,0.8,0.21,18577,10152.20,0,0,165,7.70,9.31,12.88,0.62,0.80,0.21
0.4453125,0.13422361,0.14077641,0.22662112,0.64,0.84,0.24,18593,10152.20,0,0,0,9.80,6.86,15.75,0.64,0.84,0.24
1.4453125,0.2342236,0.0667764,0.26862115,0.62,0.83,0.25,18607,10153.20,0,0,165,16.80,1.68,18.69,0.62,0.83,0.25
1.1455078,0.3182236,0.021776406,0.26762113,0.6,0.78,0.23,18614,10152.90,0,0,0,22.68,-1.47,18.62,0.60,0.78,0.23
0.4453125,0.31522357,0.049776405,0.25462112,0.59,0.76,0.22,18629,10152.20,0,0,165,22.47,0.49,17.71,0.59,0.76,0.22
2.1455078,0.3212236,0.089776404,0.25462112,0.59,0.76,0.23,18644,10153.90,0,0,0,22.89,3.29,17.71,0.59,0.76,0.23
1.1455078,0.3312236,0.115776405,0.27062112,0.59,0.75,0.25,18652,10152.90,0,0,165,23.59,5.11,18.83,0.59,0.75,0.25
2.1455078,0.3542236,0.11677641,0.28162113,0.6,0.74,0.28,18667,10153.90,0,0,0,25.20,5.18,19.60,0.60,0.74,0.28
2.1455078,0.3482236,0.119776405,0.29362112,0.61,0.75,0.3,18682,10153.90,0,0,165,24.78,5.39,20.44,0.61,0.75,0.30
1.1455078,0.39622357,0.09877641,0.32462114,0.62,0.75,0.29,18690,10152.90,0,0,0,28.14,3.92,22.61,0.62,0.75,0.29
1.4453125,0.47822362,0.078776404,0.36062112,0.64,0.71,0.28,18706,10153.20,0,0,165,33.88,2.52,25.13,0.64,0.71,0.28
1.4453125,0.4462236,0.051776405,0.37062111,0.68,0.69,0.3,18720,10153.20,0,0,0,31.64,0.63,25.83,0.68,0.69,0.30
0.14550781,0.2942236,-0.047223598,0.3546211,0.69,0.75,0.3,18727,10151.90,0,0,165,21.00,-6.30,24.71,0.69,0.75,0.30
1.4453125,0.3662236,-0.19122358,0.37662113,0.67,0.8,0.24,18742,10153.20,0,0,0,26.04,-16.38,26.25,0.67,0.80,0.24
1.4453125,0.4602236,-0.2932236,0.39362115,0.62,0.78,0.19,18757,10153.20,0,0,165,32.62,-23.52,27.44,0.62,0.78,0.19
0.14550781,0.4932236,-0.35922357,0.37262112,0.55,0.75,0.14,18765,10151.90,0,0,0,34.93,-28.14,25.97,0.55,0.75,0.14
0.4453125,0.44722357,-0.3722236,0.36962113,0.52,0.75,0.07,18779,10152.20,0,0,165,31.71,-29.05,25.76,0.52,0.75,0.07
1.1455078,0.45322362,-0.3012236,0.42362115,0.53,0.75,0.02,18795,10152.90,0,0,0,32.13,-24.08,29.54,0.53,0.75,0.02
1.4453125,0.48122358,-0.1432236,0.5126211,0.61,0.75,0.02,18805,10153.20,0,0,165,34.09,-13.02,35.77,0.61,0.75,0.02
0.14550781,0.4632236,-0.028223589,0.59762114,0.7,0.78,0.04,18818,10151.90,0,0,0,32.83,-4.97,41.72,0.70,0.78,0.04
1.4453125,0.5412236,-0.07022359,0.6196211,0.72,0.79,0.03,18832,10153.20,0,0,165,38.29,-7.91,43.26,0.72,0.79,0.03
1.4453125,0.6072236,-0.097223595,0.6066211,0.71,0.76,0.0,18840,10153.20,0,0,0,42.91,-9.80,42.35,0.71,0.76,0.00
1.4453125,0.5392236,-0.07322359,0.5666211,0.72,0.77,-0.01,18854,10153.20,0,0,165,38.15,-8.12,39.55,0.72,0.77,-0.01
1.4453125,0.5232236,-0.07022359,0.5576211,0.72,0.82,-0.01,18871,10153.20,0,0,0,37.03,-7.91,38.92,0.72,0.82,-0.01
1.1455078,0.6092236,-0.0932236,0.5906211,0.71,0.83,-0.05,18879,10152.90,0,0,165,43.05,-9.52,41.23,0.71,0.83,-0.05
1.4453125,0.74122363,-0.001223594,0.63962114,0.77,0.78,-0.06,18892,10153.20,0,0,0,52.29,-3.08,44.66,0.77,0.78,-0.06
1.4453125,0.72622365,-0.010223594,0.63462114,0.83,0.74,-0.04,18907,10153.20,0,0,165,51.24,-3.71,44.31,0.83,0.74,-0.04
1.1455078,0.5912236,-0.1422236,0.5716211,0.85,0.76,-0.01,18914,10152.90,0,0,0,41.79,-12.95,39.90,0.85,0.76,-0.01
1.4453125,0.5812236,-0.35222358,0.49662116,0.82,0.8,-0.03,18930,10153.20,0,0,165,41.09,-27.65,34.65,0.82,0.80,-0.03
1.4453125,0.7122236,-0.50522363,0.4776211,0.72,0.78,-0.07,18944,10153.20,0,0,0,50.26,-38.36,33.32,0.72,0.78,-0.07
0.14550781,0.8162236,-0.45022357,0.49762115,0.67,0.75,-0.13,18952,10151.90,0,0,165,57.54,-34.51,34.72,0.67,0.75,-0.13
1.4453125,0.8902236,-0.2742236,0.5766211,0.69,0.74,-0.17,18967,10153.20,0,0,0,62.72,-22.19,40.25,0.69,0.74,-0.17
1.4453125,0.9682236,-0.1402236,0.65862113,0.74,0.71,-0.18,18982,10153.20,0,0,165,68.18,-12.81,45.99,0.74,0.71,-0.18
1.4453125,0.9832236,-0.1432236,0.68362117,0.8,0.66,-0.18,18990,10153.20,0,0,0,69.23,-13.02,47.74,0.80,0.66,-0.18
0.4453125,0.8802236,-0.2652236,0.5856211,0.79,0.61,-0.18,19006,10152.20,0,0,165,62.02,-21.56,40.88,0.79,0.61,-0.18
1.4453125,0.72722363,-0.3982236,0.48862112,0.74,0.62,-0.21,19020,10153.20,0,0,0,51.31,-30.87,34.09,0.74,0.62,-0.21
1.4453125,0.6322236,-0.4282236,0.40762112,0.69,0.65,-0.24,19042,10153.20,0,0,165,44.66,-32.97,28.42,0.69,0.65,-0.24
1.1455078,0.6602236,-0.35222358,0.38662115,0.71,0.66,-0.24,19044,10152.90,0,0,0,46.62,-27.65,26.95,0.71,0.66,-0.24
0.14550781,0.6712236,-0.3612236,0.44162112,0.73,0.63,-0.23,19058,10151.90,0,0,165,47.39,-28.28,30.80,0.73,0.63,-0.23
0.14550781,0.5832236,-0.44122362,0.44662112,0.74,0.59,-0.21,19064,10151.90,0,0,0,41.23,-33.88,31.15,0.74,0.59,-0.21
0.14550781,0.45322362,-0.5692236,0.42362115,0.75,0.59,-0.2,19080,10151.90,0,0,165,32.13,-42.84,29.54,0.75,0.59,-0.20
1.1455078,0.34522358,-0.7022236,0.39962113,0.72,0.63,-0.17,19095,10152.90,0,0,0,24.57,-52.15,27.86,0.72,0.63,-0.17
1.4453125,0.29622358,-0.8452236,0.4106211,0.7,0.7,-0.14,19103,10153.20,0,0,165,21.14,-62.16,28.63,0.70,0.70,-0.14
0.14550781,0.4392236,-0.9282236,0.48562115,0.7,0.75,-0.13,19117,10151.90,0,0,0,31.15,-67.97,33.88,0.70,0.75,-0.13
1.4453125,0.6192236,-1.0272236,0.57462114,0.72,0.74,-0.12,19132,10153.20,0,0,165,43.75,-74.90,40.11,0.72,0.74,-0.12
0.4453125,0.7142236,-1.1792235,0.6326211,0.68,0.68,-0.12,19140,10152.20,0,0,0,50.40,-85.54,44.17,0.68,0.68,-0.12
-0.45507812,0.7402236,-1.3222237,0.61062115,0.62,0.65,-0.16,19155,10151.30,0,0,165,52.22,-95.55,42.63,0.62,0.65,-0.16
1.4453125,0.7702236,-1.3572235,0.56562114,0.59,0.63,-0.22,19170,10153.20,0,0,0,54.32,-98.00,39.48,0.59,0.63,-0.22
1.4453125,0.8182236,-1.3362236,0.5046211,0.56,0.6,-0.26,19177,10153.20,0,0,165,57.68,-96.53,35.21,0.56,0.60,-0.26
1.1455078,0.8412236,-1.2902236,0.42662114,0.54,0.56,-0.32,19192,10152.90,0,0,0,59.29,-93.31,29.75,0.54,0.56,-0.32
0.14550781,0.8172236,-1.2092235,0.47862113,0.64,0.54,-0.36,19208,10151.90,0,0,165,57.61,-87.64,33.39,0.64,0.54,-0.36
1.4453125,0.6052236,-0.9832236,1.2916212,0.53,0.61,-0.44,19215,10153.20,0,0,0,42.77,-71.82,90.30,0.53,0.61,-0.44
1.4453125,0.9182236,-0.9822236,1.1236211,0.66,0.5,-0.38,19229,10153.20,0,0,165,64.68,-71.75,78.54,0.66,0.50,-0.38
0.14550781,0.9262236,-1.0612235,0.72662115,0.64,0.42,-0.42,19245,10151.90,0,0,0,65.24,-77.28,50.75,0.64,0.42,-0.42
0.14550781,0.7222236,-0.9322236,0.57262117,0.65,0.44,-0.43,19253,10151.90,0,0,165,50.96,-68.25,39.97,0.65,0.44,-0.43
0.4453125,0.6092236,-0.87522364,0.48762113,0.66,0.46,-0.5,19267,10152.20,0,0,0,43.05,-64.26,34.02,0.66,0.46,-0.50
2.4453125,0.6912236,-0.8262236,0.44162112,0.58,0.42,-0.61,19282,10154.20,0,0,165,48.79,-60.83,30.80,0.58,0.42,-0.61
2.4453125,0.7452236,-0.4342236,0.29562113,0.53,0.34,-0.73,19290,10154.20,0,0,0,52.57,-33.39,20.58,0.53,0.34,-0.73
2.4453125,0.7182236,0.1427764,0.22562113,0.52,0.32,-0.77,19305,10154.20,0,0,165,50.68,7.00,15.68,0.52,0.32,-0.77
2.1455078,0.7362236,0.5277764,0.072621115,0.64,0.29,-0.73,19319,10153.90,0,0,0,51.94,33.95,4.97,0.64,0.29,-0.73
2.4453125,0.5772236,0.6837764,-0.19437888,0.84,0.26,-0.7,19327,10154.20,0,0,165,40.81,44.87,-13.72,0.84,0.26,-0.70
1.1455078,0.2342236,0.80477643,-0.21037887,0.92,0.35,-0.7,19341,10152.90,0,0,0,16.80,53.34,-14.84,0.92,0.35,-0.70
-0.45507812,0.18722361,0.8477764,-0.19237888,0.99,0.41,-0.68,19356,10151.30,0,0,165,13.51,56.35,-13.58,0.99,0.41,-0.68
1.1455078,0.21022362,0.81277645,-0.14637887,0.87,0.45,-0.69,19364,10152.90,0,0,0,15.12,53.90,-10.36,0.87,0.45,-0.69
2.4453125,0.24122362,0.8947764,-0.046378877,0.75,0.44,-0.7,19380,10154.20,0,0,165,17.29,59.64,-3.36,0.75,0.44,-0.70
0.4453125,0.2452236,1.2357764,0.066621125,0.73,0.43,-0.67,19395,10152.20,0,0,0,17.57,83.51,4.55,0.73,0.43,-0.67
1.1455078,0.21822362,1.5517764,0.12262113,0.77,0.46,-0.64,19403,10152.90,0,0,165,15.68,105.63,8.47,0.77,0.46,-0.64
2.4453125,0.34722358,1.8087764,0.14362112,0.85,0.44,-0.58,19417,10154.20,0,0,0,24.71,123.62,9.94,0.85,0.44,-0.58
1.1455078,0.30322358,1.7967763,0.17962113,0.89,0.39,-0.54,19432,10152.90,0,0,165,21.63,122.78,12.46,0.89,0.39,-0.54
1.4453125,0.1982236,1.8047764,0.13662112,0.88,0.4,-0.54,19439,10153.20,0,0,0,14.28,123.34,9.45,0.88,0.40,-0.54
1.4453125,0.20122361,1.8567765,0.06462112,0.89,0.4,-0.49,19455,10153.20,0,0,165,14.49,126.98,4.41,0.89,0.40,-0.49
1.4453125,0.14122361,1.8607764,0.0016211201,0.86,0.41,-0.43,19470,10153.20,0,0,0,10.29,127.26,0.00,0.86,0.41,-0.43
1.4453125,0.1132236,1.8707764,-0.02337888,0.89,0.44,-0.37,19477,10153.20,0,0,165,8.33,127.96,-1.75,0.89,0.44,-0.37
1.4453125,0.1952236,1.8687763,0.01662112,0.86,0.48,-0.34,19491,10153.20,0,0,0,14.07,127.82,1.05,0.86,0.48,-0.34
1.4453125,0.3462236,1.9537764,0.08662112,0.87,0.49,-0.33,19508,10153.20,0,0,165,24.64,133.77,5.95,0.87,0.49,-0.33
0.4453125,0.5562236,2.1157763,0.13062112,0.91,0.47,-0.29,19515,10152.20,0,0,0,39.34,145.11,9.03,0.91,0.47,-0.29
1.4453125,0.7532236,1.9527764,0.22362113,0.95,0.26,-0.09,19529,10153.20,0,0,165,53.13,133.70,15.54,0.95,0.26,-0.09
0.4453125,0.1132236,1.6747763,0.04662112,1.02,0.25,-0.11,19544,10152.20,0,0,0,8.33,114.24,3.15,1.02,0.25,-0.11
0.4453125,-0.24877639,1.3777764,-0.24937886,1.03,0.36,-0.04,19552,10152.20,0,0,165,-17.01,93.45,-17.57,1.03,0.36,-0.04
1.4453125,-0.5507764,0.8007764,-0.5703789,0.98,0.46,0.02,19567,10153.20,0,0,0,-38.15,53.06,-40.04,0.98,0.46,0.02
1.4453125,-0.52477646,0.4737764,-0.7523789,0.93,0.52,-0.01,19583,10153.20,0,0,165,-36.33,30.17,-52.78,0.93,0.52,-0.01
1.4453125,-0.42777643,0.2397764,-0.83237886,0.88,0.54,0.01,19589,10153.20,0,0,0,-29.54,13.79,-58.38,0.88,0.54,0.01
1.4453125,-0.3597764,0.14677641,-0.8953789,0.82,0.5,-0.03,19604,10153.20,0,0,165,-24.78,7.28,-62.79,0.82,0.50,-0.03
1.4453125,-0.2127764,0.2477764,-0.50137883,0.97,0.45,-0.02,19619,10153.20,0,0,0,-14.49,14.35,-35.21,0.97,0.45,-0.02
1.1455078,-0.4127764,0.060776405,-0.22337887,0.86,0.47,-0.04,19627,10152.90,0,0,165,-28.49,1.26,-15.75,0.86,0.47,-0.04
1.1455078,-0.3987764,-0.0912236,-0.24637888,0.87,0.46,0.01,19642,10152.90,0,0,0,-27.51,-9.38,-17.36,0.87,0.46,0.01
1.4453125,-0.5107764,-0.2132236,-0.17937887,0.85,0.43,-0.01,19656,10153.20,0,0,165,-35.35,-17.92,-12.67,0.85,0.43,-0.01
0.4453125,-0.6077764,-0.2612236,-0.24837887,0.74,0.48,-0.06,19665,10152.20,0,0,0,-42.14,-21.28,-17.50,0.74,0.48,-0.06
1.4453125,0.0932236,-0.3002236,0.10162112,0.95,0.65,0.03,19679,10153.20,0,0,165,6.93,-24.01,7.00,0.95,0.65,0.03
2.4453125,0.11122359,-0.4122236,0.03162112,0.75,0.35,-0.01,19694,10154.20,0,0,0,8.19,-31.85,2.10,0.75,0.35,-0.01
1.4453125,-0.26877642,-0.2982236,-0.3463789,0.74,0.3,-0.03,19702,10153.20,0,0,165,-18.41,-23.87,-24.36,0.74,0.30,-0.03
1.4453125,-0.52477646,-0.19722359,-0.51537883,0.92,0.36,-0.03,19717,10153.20,0,0,0,-36.33,-16.80,-36.19,0.92,0.36,-0.03
1.4453125,-0.77277637,-2.2359565E-4,-0.63837886,0.65,0.43,-0.1,19732,10153.20,0,0,165,-53.69,-3.01,-44.80,0.65,0.43,-0.10
0.4453125,-0.7507764,0.2027764,-0.67737883,0.81,0.52,-0.09,19739,10152.20,0,0,0,-52.15,11.20,-47.53,0.81,0.52,-0.09
0.4453125,-0.6757764,0.1967764,-0.6233789,0.86,0.53,-0.09,19755,10152.20,0,0,165,-46.90,10.78,-43.75,0.86,0.53,-0.09
1.4453125,-0.60077643,0.0667764,-0.68537885,0.87,0.55,-0.07,19770,10153.20,0,0,0,-41.65,1.68,-48.09,0.87,0.55,-0.07
1.4453125,-0.4387764,-0.060223594,-0.70037884,0.82,0.57,-0.07,19777,10153.20,0,0,165,-30.31,-7.21,-49.14,0.82,0.57,-0.07
1.4453125,-0.3437764,-0.21222359,-0.72737885,0.81,0.57,-0.02,19792,10153.20,0,0,0,-23.66,-17.85,-51.03,0.81,0.57,-0.02
1.4453125,-0.2167764,-0.2612236,-0.61037886,0.71,0.67,-0.05,19807,10153.20,0,0,165,-14.77,-21.28,-42.84,0.71,0.67,-0.05
0.4453125,-0.088776395,-0.20622359,-0.37837887,0.86,0.63,-0.01,19814,10152.20,0,0,0,-5.81,-17.43,-26.60,0.86,0.63,-0.01
1.4453125,-0.0027763972,-0.2692236,-0.35737887,0.76,0.59,-0.03,19830,10153.20,0,0,165,0.21,-21.84,-25.13,0.76,0.59,-0.03
1.4453125,-0.0337764,-0.2732236,-0.35737887,0.86,0.53,-0.01,19844,10153.20,0,0,0,-1.96,-22.12,-25.13,0.86,0.53,-0.01
1.4453125,-0.1267764,-0.33322358,-0.36737886,0.81,0.61,-0.04,19852,10153.20,0,0,165,-8.47,-26.32,-25.83,0.81,0.61,-0.04
1.4453125,-0.0337764,-0.36622357,-0.35737887,0.78,0.6,-0.03,19867,10153.20,0,0,0,-1.96,-28.63,-25.13,0.78,0.60,-0.03
1.4453125,-0.038776398,-0.4312236,-0.5473789,0.77,0.53,-0.04,19882,10153.20,0,0,165,-2.31,-33.18,-38.43,0.77,0.53,-0.04
0.4453125,-0.034776397,-0.3242236,-0.69837886,0.77,0.6,-0.05,19890,10152.20,0,0,0,-2.03,-25.69,-49.00,0.77,0.60,-0.05
1.1455078,0.1192236,-0.17122358,-0.53637886,0.76,0.57,-0.05,19905,10152.90,0,0,165,8.75,-14.98,-37.66,0.76,0.57,-0.05
1.4453125,0.0492236,-0.09522359,-0.44137886,0.73,0.61,-0.05,19920,10153.20,0,0,0,3.85,-9.66,-31.01,0.73,0.61,-0.05
2.4453125,-0.1927764,0.2947764,-0.42537886,0.6,0.43,-0.16,19927,10154.20,0,0,165,-13.09,17.64,-29.89,0.60,0.43,-0.16
1.4453125,-0.21077639,0.47177643,-0.10937888,0.79,0.62,-0.09,19942,10153.20,0,0,0,-14.35,30.03,-7.77,0.79,0.62,-0.09
1.1455078,-0.4007764,0.5137764,-0.025378881,0.81,0.7,-0.01,19957,10152.90,0,0,165,-27.65,32.97,-1.89,0.81,0.70,-0.01
1.4453125,-0.2707764,0.5197764,-0.12937887,0.87,0.7,-0.02,19964,10153.20,0,0,0,-18.55,33.39,-9.17,0.87,0.70,-0.02
2.7451172,-0.24577639,0.4767764,-0.18637887,0.96,0.66,0.0,19980,10154.50,0,0,165,-16.80,30.38,-13.16,0.96,0.66,0.00
1.4453125,-0.20477639,0.23577641,-0.16437887,0.97,0.75,0.02,19994,10153.20,0,0,0,-13.93,13.51,-11.62,0.97,0.75,0.02
2.4453125,-0.088776395,0.100776404,-0.05037888,0.85,0.63,-0.09,20002,10154.20,0,0,165,-5.81,4.06,-3.64,0.85,0.63,-0.09
0.4453125,-0.3617764,0.09477641,-0.33137888,0.89,0.46,-0.09,20017,10152.20,0,0,0,-24.92,3.64,-23.31,0.89,0.46,-0.09
1.4453125,-0.5677764,-0.109223604,-0.56437886,0.94,0.4,-0.06,20032,10153.20,0,0,165,-39.34,-10.64,-39.62,0.94,0.40,-0.06
1.4453125,-1.0297765,-0.43922362,-0.8223789,0.99,0.56,-0.04,20039,10153.20,0,0,0,-71.68,-33.74,-57.68,0.99,0.56,-0.04
1.4453125,-0.8917764,-0.4422236,-0.8873789,0.81,0.78,-0.13,20054,10153.20,0,0,165,-62.02,-33.95,-62.23,0.81,0.78,-0.13
1.4453125,-0.4257764,-0.2042236,-0.64837885,0.76,0.82,-0.14,20069,10153.20,0,0,0,-29.40,-17.29,-45.50,0.76,0.82,-0.14
0.4453125,-0.13777639,-0.2442236,-0.4533789,0.9,0.75,-0.14,20077,10152.20,0,0,165,-9.24,-20.09,-31.85,0.90,0.75,-0.14
0.4453125,-0.0247764,-0.34022358,-0.37137887,0.89,0.66,-0.16,20092,10152.20,0,0,0,-1.33,-26.81,-26.11,0.89,0.66,-0.16
0.4453125,-0.1137764,-0.2462236,-0.32937887,0.76,0.6,-0.18,20107,10152.20,0,0,165,-7.56,-20.23,-23.17,0.76,0.60,-0.18
0.84472656,-0.2927764,-0.046223596,-0.24737887,0.71,0.68,-0.15,20114,10152.60,0,0,0,-20.09,-6.23,-17.43,0.71,0.68,-0.15
0.4453125,-0.26477638,0.09577641,-0.03437888,0.69,0.76,-0.16,20129,10152.20,0,0,165,-18.13,3.71,-2.52,0.69,0.76,-0.16
1.4453125,-0.0917764,0.2947764,0.21862112,0.69,0.76,-0.13,20145,10153.20,0,0,0,-6.02,17.64,15.19,0.69,0.76,-0.13
-3.4550781,0.2512236,0.37277642,-0.12637888,1.01,1.07,-0.01,20152,10148.30,0,0,165,17.99,23.10,-8.96,1.01,1.07,-0.01
1.4453125,0.9072236,-0.1282236,-0.0073788795,0.97,0.59,-0.02,20167,10153.20,0,0,0,63.91,-11.97,-0.63,0.97,0.59,-0.02
1.4453125,0.4122236,-0.11822361,-0.60337883,0.57,0.48,-0.09,20182,10153.20,0,0,165,29.26,-11.27,-42.35,0.57,0.48,-0.09
0.4453125,0.13422361,0.123776406,-0.7313789,0.84,0.89,0.02,20190,10152.20,0,0,0,9.80,5.67,-51.31,0.84,0.89,0.02
0.4453125,0.4392236,0.09677641,-0.16437887,0.79,0.93,-0.03,20205,10152.20,0,0,165,31.15,3.78,-11.62,0.79,0.93,-0.03
1.4453125,0.5312236,0.036776405,0.07562112,0.87,0.63,-0.02,20220,10153.20,0,0,0,37.59,-0.42,5.18,0.87,0.63,-0.02
0.4453125,-0.0487764,-0.1202236,-0.13537888,0.77,0.65,-0.04,20227,10152.20,0,0,165,-3.01,-11.41,-9.59,0.77,0.65,-0.04
1.4453125,-0.1137764,-0.10222359,-0.13237888,0.72,0.76,-0.07,20243,10153.20,0,0,0,-7.56,-10.15,-9.38,0.72,0.76,-0.07
1.4453125,-0.1087764,-0.011223596,-0.036378883,0.52,0.6,-0.1,20257,10153.20,0,0,165,-7.21,-3.78,-2.66,0.52,0.60,-0.10
0.4453125,-0.37977642,0.11077641,-0.31537887,0.61,0.63,-0.06,20265,10152.20,0,0,0,-26.18,4.76,-22.19,0.61,0.63,-0.06
0.4453125,-0.3317764,0.2327764,-0.4273789,0.71,0.7,-0.09,20287,10152.20,0,0,165,-22.82,13.30,-30.03,0.71,0.70,-0.09
1.4453125,-0.4327764,0.2937764,-0.38937888,0.68,0.67,-0.04,20294,10153.20,0,0,0,-29.89,17.57,-27.37,0.68,0.67,-0.04
1.4453125,-0.43777642,0.47477642,-0.34337887,0.62,0.77,-0.05,20302,10153.20,0,0,165,-30.24,30.24,-24.15,0.62,0.77,-0.05
0.4453125,-0.14077638,0.7507764,-0.08437888,0.71,0.94,0.0,20317,10152.20,0,0,0,-9.45,49.56,-6.02,0.71,0.94,0.00
0.4453125,0.2402236,0.6837764,0.3046211,0.62,0.86,0.02,20332,10152.20,0,0,165,17.22,44.87,21.21,0.62,0.86,0.02
0.4453125,0.3132236,0.6637764,0.26762113,0.58,0.65,-0.01,20340,10152.20,0,0,0,22.33,43.47,18.62,0.58,0.65,-0.01
1.4453125,0.15922362,0.6817764,-0.01837888,0.76,0.66,0.05,20355,10153.20,0,0,165,11.55,44.73,-1.40,0.76,0.66,0.05
1.4453125,-0.1087764,0.3767764,-0.30637887,0.64,0.63,0.01,20370,10153.20,0,0,0,-7.21,23.38,-21.56,0.64,0.63,0.01
1.4453125,-0.3567764,0.1867764,-0.47337887,0.77,0.53,0.04,20377,10153.20,0,0,165,-24.57,10.08,-33.25,0.77,0.53,0.04
0.4453125,-0.91477644,-0.19222361,-0.54137886,0.72,0.42,-0.02,20393,10152.20,0,0,0,-63.63,-16.45,-38.01,0.72,0.42,-0.02
1.4453125,-1.3297764,-0.5212236,-0.86537886,0.65,0.63,-0.11,20407,10153.20,0,0,165,-92.68,-39.48,-60.69,0.65,0.63,-0.11
1.4453125,-1.1327764,-0.5032236,-1.0273788,0.45,0.89,0.08,20415,10153.20,0,0,0,-78.89,-38.22,-72.03,0.45,0.89,0.08
0.4453125,-1.0967765,0.8167764,1.5796211,-0.49,1.4,-0.16,20430,10152.20,0,0,165,-76.37,54.18,110.46,-0.49,1.40,-0.16
1.4453125,0.77422357,1.5847764,2.228621,0.35,1.16,0.09,20445,10153.20,0,0,0,54.60,107.94,155.89,0.35,1.16,0.09
1.4453125,1.4502236,0.9317764,1.4266211,1.36,0.48,0.45,20453,10153.20,0,0,165,101.92,62.23,99.75,1.36,0.48,0.45
1.4453125,0.2762236,0.027776405,0.6296211,1.06,0.24,0.18,20467,10153.20,0,0,0,19.74,-1.05,43.96,1.06,0.24,0.18
1.4453125,-0.46377644,-0.5492236,-0.34937885,0.63,0.35,-0.05,20482,10153.20,0,0,165,-32.06,-41.44,-24.57,0.63,0.35,-0.05
2.4453125,-0.9357764,-0.4622236,-1.367379,0.45,0.43,-0.03,20490,10154.20,0,0,0,-65.10,-35.35,-95.83,0.45,0.43,-0.03
2.4453125,-1.4727764,-0.45322362,-1.3863789,0.86,0.47,0.17,20505,10154.20,0,0,165,-102.69,-34.72,-97.16,0.86,0.47,0.17
0.14550781,-1.6307764,-0.7282236,-1.3073789,0.81,0.93,0.01,20520,10151.90,0,0,0,-113.75,-53.97,-91.63,0.81,0.93,0.01
1.4453125,-0.9097764,-0.6262236,-0.75937885,0.76,0.91,-0.0,20534,10153.20,0,0,165,-63.28,-46.83,-53.27,0.76,0.91,-0.00
0.4453125,-0.5347764,-0.49122363,-0.10237888,0.67,0.73,0.04,20542,10152.20,0,0,0,-37.03,-37.38,-7.28,0.67,0.73,0.04
1.4453125,-0.2717764,0.086776406,-0.46537885,0.66,1.03,0.0,20557,10153.20,0,0,165,-18.62,3.08,-32.69,0.66,1.03,0.00
1.4453125,-0.16277638,-0.028223589,-0.25037888,0.86,0.74,0.18,20564,10153.20,0,0,0,-10.99,-4.97,-17.64,0.86,0.74,0.18
1.4453125,-0.27977642,-0.032223597,-0.57537884,0.63,0.59,0.13,20579,10153.20,0,0,165,-19.18,-5.25,-40.39,0.63,0.59,0.13
1.4453125,-0.5757764,0.23877642,-1.1273788,0.6,0.65,0.08,20594,10153.20,0,0,0,-39.90,13.72,-79.03,0.60,0.65,0.08
1.4453125,-0.59677637,0.4367764,-1.2943789,0.69,0.89,0.02,20602,10153.20,0,0,165,-41.37,27.58,-90.72,0.69,0.89,0.02
0.4453125,-0.2427764,0.59077644,-1.2033788,0.69,0.87,0.04,20617,10152.20,0,0,0,-16.59,38.36,-84.35,0.69,0.87,0.04
0.4453125,-0.0337764,0.6727764,-1.1943789,0.67,0.8,0.07,20632,10152.20,0,0,165,-1.96,44.10,-83.72,0.67,0.80,0.07
1.4453125,-0.047776397,0.82777643,-1.1313789,0.48,1.83,0.24,20639,10153.20,0,0,0,-2.94,54.95,-79.31,0.48,1.83,0.24
0.4453125,1.7962236,0.7237764,0.78362113,0.73,0.35,0.03,20655,10152.20,0,0,165,126.14,47.67,54.74,0.73,0.35,0.03
1.4453125,0.76022357,0.6937764,0.21662113,0.74,0.7,0.21,20669,10153.20,0,0,0,53.62,45.57,15.05,0.74,0.70,0.21
1.4453125,0.7552236,0.7227764,0.32862112,0.7,0.83,0.09,20677,10153.20,0,0,165,53.27,47.60,22.89,0.70,0.83,0.09
1.1455078,0.9922236,0.88377637,0.44862115,0.7,0.87,0.09,20692,10152.90,0,0,0,69.86,58.87,31.29,0.70,0.87,0.09
0.4453125,0.98422366,0.9417764,0.40462112,0.66,0.66,0.16,20707,10152.20,0,0,165,69.30,62.93,28.21,0.66,0.66,0.16
1.4453125,0.6642236,0.8387764,0.14062113,0.63,0.73,0.16,20715,10153.20,0,0,0,46.90,55.72,9.73,0.63,0.73,0.16
0.84472656,0.5682236,0.8537764,0.0076211197,0.57,0.82,0.09,20729,10152.60,0,0,165,40.18,56.77,0.42,0.57,0.82,0.09
1.4453125,0.6032236,0.8817764,-0.10537887,0.64,0.76,0.1,20744,10153.20,0,0,0,42.63,58.73,-7.49,0.64,0.76,0.10
1.4453125,0.5192236,0.92077637,-0.21537887,0.69,0.76,0.07,20752,10153.20,0,0,165,36.75,61.46,-15.19,0.69,0.76,0.07
1.4453125,0.4772236,1.0307765,-0.15137887,0.68,0.79,0.06,20767,10153.20,0,0,0,33.81,69.16,-10.71,0.68,0.79,0.06
1.4453125,0.4832236,1.1067765,-0.047378883,0.66,0.78,0.06,20782,10153.20,0,0,165,34.23,74.48,-3.43,0.66,0.78,0.06
0.4453125,0.6322236,1.2167764,0.124621116,0.61,0.82,0.09,20789,10152.20,0,0,0,44.66,82.18,8.61,0.61,0.82,0.09
1.7451172,0.85022354,1.3667765,0.30162114,0.63,0.86,0.05,20805,10153.50,0,0,165,59.92,92.68,21.00,0.63,0.86,0.05
1.1455078,0.8692236,1.3727763,0.25562114,0.58,0.77,0.15,20820,10152.90,0,0,0,61.25,93.10,17.78,0.58,0.77,0.15
1.4453125,0.6782236,1.2427764,0.09362112,0.58,0.79,0.14,20827,10153.20,0,0,165,47.88,84.00,6.44,0.58,0.79,0.14
1.4453125,0.5042236,1.1677763,0.04562112,0.62,0.8,-0.01,20842,10153.20,0,0,0,35.70,78.75,3.08,0.62,0.80,-0.01
1.4453125,0.45122358,1.4187765,0.22262113,0.67,0.61,0.3,20858,10153.20,0,0,165,31.99,96.32,15.47,0.67,0.61,0.30
1.4453125,0.4132236,1.0777764,-0.15737887,0.62,0.78,0.09,20865,10153.20,0,0,0,29.33,72.45,-11.13,0.62,0.78,0.09
1.4453125,0.45822358,1.2517765,-0.09237888,0.53,0.82,0.16,20879,10153.20,0,0,165,32.48,84.63,-6.58,0.53,0.82,0.16
1.4453125,0.67622364,1.0347764,-0.19037886,0.51,0.71,0.32,20894,10153.20,0,0,0,47.74,69.44,-13.44,0.51,0.71,0.32
1.4453125,0.5602236,0.9277764,-0.25537887,0.56,0.79,0.16,20902,10153.20,0,0,165,39.62,61.95,-17.99,0.56,0.79,0.16
0.4453125,0.3272236,0.9217764,-0.18037887,0.54,0.76,0.24,20918,10152.20,0,0,0,23.31,61.53,-12.74,0.54,0.76,0.24
1.4453125,0.2862236,0.79577637,-0.22837888,0.55,0.76,0.2,20932,10153.20,0,0,165,20.44,52.71,-16.10,0.55,0.76,0.20
1.4453125,0.2652236,0.61377645,-0.35437888,0.46,0.77,0.2,20939,10153.20,0,0,0,18.97,39.97,-24.92,0.46,0.77,0.20
-0.45507812,0.1142236,0.43477643,-0.3393789,0.51,0.74,0.17,20955,10151.30,0,0,165,8.40,27.44,-23.87,0.51,0.74,0.17
1.4453125,0.1292236,0.4517764,-0.2773789,0.51,0.82,0.2,20969,10153.20,0,0,0,9.45,28.63,-19.53,0.51,0.82,0.20
1.4453125,0.0892236,0.3717764,-0.26937887,0.55,0.77,0.2,20977,10153.20,0,0,165,6.65,23.03,-18.97,0.55,0.77,0.20
0.4453125,-0.020776397,0.3007764,-0.3143789,0.57,0.78,0.17,20992,10152.20,0,0,0,-1.05,18.06,-22.12,0.57,0.78,0.17
1.4453125,-0.1917764,0.1757764,-0.30037886,0.5,0.81,0.2,21007,10153.20,0,0,165,-13.02,9.31,-21.14,0.50,0.81,0.20
0.84472656,-0.16777639,0.2597764,-0.20937888,0.56,0.81,0.11,21015,10152.60,0,0,0,-11.34,15.19,-14.77,0.56,0.81,0.11
1.4453125,-0.22577639,0.3407764,-0.20037888,0.56,0.84,0.17,21030,10153.20,0,0,165,-15.40,20.86,-14.14,0.56,0.84,0.17
1.4453125,-0.2627764,0.3847764,-0.17937887,0.55,0.81,0.18,21044,10153.20,0,0,0,-17.99,23.94,-12.67,0.55,0.81,0.18
0.4453125,-0.20477639,0.4297764,-0.10337888,0.48,0.86,0.23,21052,10152.20,0,0,165,-13.93,27.09,-7.35,0.48,0.86,0.23
1.4453125,-0.3147764,0.22577642,-0.09337888,0.48,0.83,0.26,21067,10153.20,0,0,0,-21.63,12.81,-6.65,0.48,0.83,0.26
1.4453125,-0.21177639,0.2097764,-0.05837888,0.55,0.81,0.27,21082,10153.20,0,0,165,-14.42,11.69,-4.20,0.55,0.81,0.27
1.7451172,-0.12477639,0.21477641,-0.029378882,0.54,0.82,0.24,21089,10153.50,0,0,0,-8.33,12.04,-2.17,0.54,0.82,0.24
1.4453125,-0.1007764,0.20077641,-0.05237888,0.56,0.82,0.24,21105,10153.20,0,0,165,-6.65,11.06,-3.78,0.56,0.82,0.24
2.4453125,-0.1177764,0.1307764,-0.09837888,0.55,0.82,0.23,21120,10154.20,0,0,0,-7.84,6.16,-7.00,0.55,0.82,0.23
1.4453125,-0.058776397,0.115776405,-0.15737887,0.56,0.81,0.23,21127,10153.20,0,0,165,-3.71,5.11,-11.13,0.56,0.81,0.23
1.4453125,-0.0617764,0.10977641,-0.19337887,0.56,0.82,0.22,21143,10153.20,0,0,0,-3.92,4.69,-13.65,0.56,0.82,0.22
0.4453125,-0.07677639,0.1587764,-0.14837888,0.56,0.85,0.2,21157,10152.20,0,0,165,-4.97,8.12,-10.50,0.56,0.85,0.20
1.4453125,-0.0577764,0.2047764,-0.11437888,0.53,0.83,0.25,21165,10153.20,0,0,0,-3.64,11.34,-8.12,0.53,0.83,0.25
1.4453125,-0.047776397,0.14177641,-0.12437888,0.54,0.83,0.26,21180,10153.20,0,0,165,-2.94,6.93,-8.82,0.54,0.83,0.26
2.4453125,0.1292236,0.2657764,-0.09837888,0.47,0.97,0.17,21194,10154.20,0,0,0,9.45,15.61,-7.00,0.47,0.97,0.17
1.4453125,0.3002236,0.37077639,0.11662112,0.45,0.89,0.24,21202,10153.20,0,0,165,21.42,22.96,8.05,0.45,0.89,0.24
1.4453125,0.25422361,0.3117764,0.17662112,0.48,0.86,0.27,21217,10153.20,0,0,0,18.20,18.83,12.25,0.48,0.86,0.27
1.4453125,0.22222361,0.3067764,0.19762114,0.56,0.87,0.05,21232,10153.20,0,0,165,15.96,18.48,13.72,0.56,0.87,0.05
1.4453125,0.4792236,0.3927764,0.13362113,0.58,0.71,0.27,21239,10153.20,0,0,0,33.95,24.50,9.24,0.58,0.71,0.27
1.7451172,0.20522362,0.2067764,-0.02337888,0.55,0.82,0.26,21255,10153.50,0,0,165,14.77,11.48,-1.75,0.55,0.82,0.26
1.4453125,0.0772236,0.09177641,-0.07037888,0.51,0.81,0.27,21269,10153.20,0,0,0,5.81,3.43,-5.04,0.51,0.81,0.27
2.4453125,-0.034776397,0.039776407,-0.00237888,0.51,0.85,0.22,21277,10154.20,0,0,165,-2.03,-0.21,-0.28,0.51,0.85,0.22
2.4453125,0.0772236,0.16477641,0.12962113,0.59,0.86,0.14,21292,10154.20,0,0,0,5.81,8.54,8.96,0.59,0.86,0.14
1.4453125,0.25422361,0.3317764,0.24762112,0.59,0.85,0.17,21307,10153.20,0,0,165,18.20,20.23,17.22,0.59,0.85,0.17
1.4453125,0.43322358,0.3967764,0.29562113,0.59,0.83,0.2,21314,10153.20,0,0,0,30.73,24.78,20.58,0.59,0.83,0.20
2.7451172,0.3682236,0.3787764,0.23762113,0.53,0.79,0.26,21331,10154.50,0,0,165,26.18,23.52,16.52,0.53,0.79,0.26
1.4453125,0.24122362,0.13477641,0.11762112,0.51,0.78,0.31,21344,10153.20,0,0,0,17.29,6.44,8.12,0.51,0.78,0.31
0.84472656,0.1542236,-0.1512236,-0.0043788794,0.47,0.83,0.26,21352,10152.60,0,0,165,11.20,-13.58,-0.42,0.47,0.83,0.26
1.4453125,0.048223604,-0.4292236,0.037621118,0.48,0.85,0.26,21367,10153.20,0,0,0,3.78,-33.04,2.52,0.48,0.85,0.26
1.4453125,0.0032236027,-0.3172236,0.03562112,0.48,0.89,0.17,21381,10153.20,0,0,165,0.63,-25.20,2.38,0.48,0.89,0.17
1.4453125,0.14222361,-0.07322359,0.35162112,0.42,0.99,0.1,21389,10153.20,0,0,0,10.36,-8.12,24.50,0.42,0.99,0.10
2.4453125,0.024223603,-0.079223596,0.20862113,0.56,0.69,0.33,21405,10154.20,0,0,165,2.10,-8.54,14.49,0.56,0.69,0.33
1.4453125,-0.1297764,-0.21722361,0.21662113,0.47,0.98,0.14,21419,10153.20,0,0,0,-8.68,-18.20,15.05,0.47,0.98,0.14
1.4453125,0.1582236,-0.061223596,0.3856211,0.47,0.87,0.25,21427,10153.20,0,0,165,11.48,-7.28,26.88,0.47,0.87,0.25
2.4453125,-0.13077639,-0.031223595,0.38162112,0.56,0.84,0.25,21442,10154.20,0,0,0,-8.75,-5.18,26.60,0.56,0.84,0.25
0.4453125,-0.088776395,-0.18622361,0.44462112,0.64,0.91,0.17,21457,10152.20,0,0,165,-5.81,-16.03,31.01,0.64,0.91,0.17
1.4453125,-0.0807764,-0.1352236,0.4916211,0.59,0.83,0.22,21464,10153.20,0,0,0,-5.25,-12.46,34.30,0.59,0.83,0.22
1.4453125,-0.0037763969,-0.21522358,0.5546211,0.59,0.79,0.15,21480,10153.20,0,0,165,0.14,-18.06,38.71,0.59,0.79,0.15
2.4453125,0.1672236,-0.1932236,0.43962112,0.58,0.79,0.16,21495,10154.20,0,0,0,12.11,-16.52,30.66,0.58,0.79,0.16
1.4453125,0.18122362,-0.08822359,0.38062114,0.59,0.79,0.2,21502,10153.20,0,0,165,13.09,-9.17,26.53,0.59,0.79,0.20
1.4453125,0.1072236,-0.11722359,0.34962115,0.57,0.76,0.22,21517,10153.20,0,0,0,7.91,-11.20,24.36,0.57,0.76,0.22
1.4453125,-0.096776396,-0.24022359,0.14162113,0.54,0.71,0.28,21532,10153.20,0,0,165,-6.37,-19.81,9.80,0.54,0.71,0.28
1.7451172,-0.2857764,-0.3572236,-0.025378881,0.55,0.79,0.25,21540,10153.50,0,0,0,-19.60,-28.00,-1.89,0.55,0.79,0.25
0.4453125,-0.13877639,-0.44922358,-0.04837888,0.59,0.79,0.2,21555,10152.20,0,0,165,-9.31,-34.44,-3.50,0.59,0.79,0.20
1.4453125,-0.48977643,-0.4792236,-0.04237888,0.47,0.94,-0.04,21570,10153.20,0,0,0,-33.88,-36.54,-3.08,0.47,0.94,-0.04
0.4453125,-0.107776396,-0.4012236,0.39562112,0.46,0.8,0.2,21578,10152.20,0,0,165,-7.14,-31.08,27.58,0.46,0.80,0.20
1.7451172,-0.1687764,-0.2912236,0.20162113,0.68,0.71,0.16,21592,10153.50,0,0,0,-11.41,-23.38,14.00,0.68,0.71,0.16
1.4453125,-0.1007764,-0.19722359,0.17262113,0.68,0.6,0.23,21607,10153.20,0,0,165,-6.65,-16.80,11.97,0.68,0.60,0.23
1.7451172,0.1582236,0.052776404,0.15462112,0.68,0.71,0.24,21614,10153.50,0,0,0,11.48,0.70,10.71,0.68,0.71,0.24
1.4453125,0.0492236,-0.07722359,0.13062112,0.54,0.86,0.16,21630,10153.20,0,0,165,3.85,-8.40,9.03,0.54,0.86,0.16
0.4453125,0.0022236034,-0.10222359,0.16462113,0.61,0.8,0.13,21645,10152.20,0,0,0,0.56,-10.15,11.41,0.61,0.80,0.13
1.4453125,-0.2597764,-0.2142236,0.08262112,0.62,0.79,0.16,21652,10153.20,0,0,165,-17.78,-17.99,5.67,0.62,0.79,0.16
0.4453125,-0.3227764,-0.3202236,0.15362114,0.68,0.81,0.16,21667,10152.20,0,0,0,-22.19,-25.41,10.64,0.68,0.81,0.16
1.7451172,-0.21777639,-0.3612236,0.17662112,0.69,0.78,0.18,21682,10153.50,0,0,165,-14.84,-28.28,12.25,0.69,0.78,0.18
1.7451172,-0.1887764,-0.3512236,0.15462112,0.69,0.79,0.19,21689,10153.50,0,0,0,-12.81,-27.58,10.71,0.69,0.79,0.19
1.7451172,0.0032236027,-0.3362236,0.16862112,0.65,0.81,0.23,21705,10153.50,0,0,165,0.63,-26.53,11.69,0.65,0.81,0.23
1.7451172,0.13122362,-0.3292236,0.23962112,0.61,0.81,0.2,21720,10153.50,0,0,0,9.59,-26.04,16.66,0.61,0.81,0.20
0.4453125,0.2812236,-0.19922361,0.22162113,0.57,0.82,0.19,21727,10152.20,0,0,165,20.09,-16.94,15.40,0.57,0.82,0.19
0.4453125,0.25922358,-0.068223596,0.16262114,0.6,0.78,0.19,21743,10152.20,0,0,0,18.55,-7.77,11.27,0.60,0.78,0.19
0.4453125,0.2512236,0.0637764,0.20362113,0.67,0.7,0.16,21757,10152.20,0,0,165,17.99,1.47,14.14,0.67,0.70,0.16
0.4453125,0.2702236,0.1517764,0.21762113,0.68,0.74,0.12,21764,10152.20,0,0,0,19.32,7.63,15.12,0.68,0.74,0.12
0.4453125,0.3202236,0.2417764,0.3336211,0.62,0.77,0.15,21782,10152.20,0,0,165,22.82,13.93,23.24,0.62,0.77,0.15
2.7451172,0.20122361,0.23877642,0.35662115,0.74,0.74,0.1,21794,10154.50,0,0,0,14.49,13.72,24.85,0.74,0.74,0.10
1.4453125,0.048223604,0.32877642,0.17862113,0.63,0.74,0.0,21807,10153.20,0,0,165,3.78,20.02,12.39,0.63,0.74,0.00
1.4453125,-0.77577645,0.9677764,0.35862112,0.59,0.98,0.31,21816,10153.20,0,0,0,-53.90,64.75,24.99,0.59,0.98,0.31
1.7451172,-0.6967764,0.8077764,0.24062112,1.23,0.55,-0.03,21832,10153.50,0,0,165,-48.37,53.55,16.73,1.23,0.55,-0.03
0.84472656,-1.1507764,0.22777641,-0.10537887,0.68,0.75,0.2,21839,10152.60,0,0,0,-80.15,12.95,-7.49,0.68,0.75,0.20
1.4453125,-0.99877644,0.053776406,-0.14137888,0.55,0.65,0.26,21854,10153.20,0,0,165,-69.51,0.77,-10.01,0.55,0.65,0.26
0.84472656,-1.2287765,-0.014223594,-0.23437887,0.59,0.63,0.23,21869,10152.60,0,0,0,-85.61,-3.99,-16.52,0.59,0.63,0.23
1.4453125,-0.9377764,-0.061223596,-0.5623789,0.48,1.09,0.16,21877,10153.20,0,0,165,-65.24,-7.28,-39.48,0.48,1.09,0.16
0.4453125,-0.0487764,-0.1402236,-0.22037888,0.55,0.76,0.36,21892,10152.20,0,0,0,-3.01,-12.81,-15.54,0.55,0.76,0.36
1.4453125,0.21822362,-0.16722359,-0.10837888,0.58,0.77,0.32,21906,10153.20,0,0,165,15.68,-14.70,-7.70,0.58,0.77,0.32
1.4453125,0.2682236,-0.082223594,0.01862112,0.6,0.74,0.32,21915,10153.20,0,0,0,19.18,-8.75,1.19,0.60,0.74,0.32
1.7451172,-0.118776396,-0.06422359,-0.14737888,0.69,0.61,0.32,21929,10153.50,0,0,165,-7.91,-7.49,-10.43,0.69,0.61,0.32
2.7451172,-0.47377637,0.019776406,-0.17737886,0.66,0.59,0.31,21946,10154.50,0,0,0,-32.76,-1.61,-12.53,0.66,0.59,0.31
1.7451172,-0.7277764,0.2217764,-0.13637887,0.63,0.69,0.3,21960,10153.50,0,0,165,-50.54,12.53,-9.66,0.63,0.69,0.30
1.4453125,-0.9107764,0.4057764,-0.13337886,0.55,0.72,0.35,21967,10153.20,0,0,0,-63.35,25.41,-9.45,0.55,0.72,0.35
1.4453125,-0.77477646,0.4317764,-0.05537888,0.55,0.8,0.34,21981,10153.20,0,0,165,-53.83,27.23,-3.99,0.55,0.80,0.34
1.4453125,-0.4357764,0.4637764,0.20962113,0.61,0.9,0.33,21989,10153.20,0,0,0,-30.10,29.47,14.56,0.61,0.90,0.33
1.4453125,0.1452236,0.36477643,0.53562117,0.59,0.82,0.32,22004,10153.20,0,0,165,10.57,22.54,37.38,0.59,0.82,0.32
0.4453125,0.4152236,0.3447764,0.61162114,0.69,0.95,0.28,22019,10152.20,0,0,0,29.47,21.14,42.70,0.69,0.95,0.28
1.7451172,0.7502236,0.28277642,0.6946211,0.64,0.79,0.3,22035,10153.50,0,0,165,52.92,16.80,48.51,0.64,0.79,0.30
1.4453125,1.0572237,0.0907764,0.7246211,0.57,0.61,0.3,22042,10153.20,0,0,0,74.41,3.36,50.61,0.57,0.61,0.30
1.4453125,1.0402236,-0.2642236,0.39562112,0.72,0.84,0.27,22057,10153.20,0,0,165,73.22,-21.49,27.58,0.72,0.84,0.27
1.7451172,0.9142236,-0.13222359,0.33062112,0.73,0.93,0.21,22065,10153.50,0,0,0,64.40,-12.25,23.03,0.73,0.93,0.21
1.7451172,1.0342237,-0.2132236,0.10962112,0.57,0.72,0.43,22080,10153.50,0,0,165,72.80,-17.92,7.56,0.57,0.72,0.43
1.7451172,1.0042236,-0.1572236,0.12162112,0.44,0.56,0.27,22094,10153.50,0,0,0,70.70,-14.00,8.40,0.44,0.56,0.27
2.7451172,0.7672236,0.5487764,-0.40337887,0.55,0.69,0.32,22102,10154.50,0,0,165,54.11,35.42,-28.35,0.55,0.69,0.32
2.7451172,0.42822358,0.44677642,-0.4273789,0.65,0.75,0.23,22117,10154.50,0,0,0,30.38,28.28,-30.03,0.65,0.75,0.23
1.7451172,0.0852236,0.4687764,-0.47237888,0.68,0.78,0.19,22132,10153.50,0,0,165,6.37,29.82,-33.18,0.68,0.78,0.19
1.4453125,-0.040776398,0.4457764,-0.89737886,0.65,0.89,0.2,22140,10153.20,0,0,0,-2.45,28.21,-62.93,0.65,0.89,0.20
1.7451172,-0.17277639,0.4037764,-1.5953789,0.54,0.86,0.23,22154,10153.50,0,0,165,-11.69,25.27,-111.79,0.54,0.86,0.23
1.4453125,0.3102236,0.8857764,-1.7783788,0.44,0.81,0.32,22169,10153.20,0,0,0,22.12,59.01,-124.60,0.44,0.81,0.32
1.7451172,0.5632236,1.0777764,-2.060379,0.71,0.79,0.22,22178,10153.50,0,0,165,39.83,72.45,-144.34,0.71,0.79,0.22
1.7451172,0.13422361,1.0967765,-1.832379,0.5,0.9,-0.02,22193,10153.50,0,0,0,9.80,73.78,-128.38,0.50,0.90,-0.02
0.4453125,0.3992236,1.0117764,-0.5443789,0.52,0.83,0.29,22207,10152.20,0,0,165,28.35,67.83,-38.22,0.52,0.83,0.29
1.7451172,0.15622361,0.9127764,0.10662112,0.6,0.73,0.29,22215,10153.50,0,0,0,11.34,60.90,7.35,0.60,0.73,0.29
0.4453125,0.0492236,1.3087764,0.63462114,0.6,0.66,0.16,22230,10152.20,0,0,165,3.85,88.62,44.31,0.60,0.66,0.16
2.7451172,0.0302236,0.7797764,0.44462112,0.58,0.81,0.29,22245,10154.50,0,0,0,2.52,51.59,31.01,0.58,0.81,0.29
1.7451172,0.24322361,0.8767764,0.41662112,0.45,1.04,0.36,22253,10153.50,0,0,165,17.43,58.38,29.05,0.45,1.04,0.36
1.4453125,0.16622362,0.6097764,0.13062112,0.47,1.06,0.26,22267,10153.20,0,0,0,12.04,39.69,9.03,0.47,1.06,0.26
1.4453125,-0.0337764,0.5207764,0.10062112,0.59,0.86,0.32,22282,10153.20,0,0,165,-1.96,33.46,6.93,0.59,0.86,0.32
1.7451172,0.120223604,0.4867764,-0.09137888,0.52,0.83,0.29,22289,10153.50,0,0,0,8.82,31.08,-6.51,0.52,0.83,0.29
1.4453125,0.1292236,0.48377642,-0.23337889,0.57,0.72,0.32,22304,10153.20,0,0,165,9.45,30.87,-16.45,0.57,0.72,0.32
2.7451172,-0.0677764,0.2957764,-0.3463789,0.64,0.68,0.26,22319,10154.50,0,0,0,-4.34,17.71,-24.36,0.64,0.68,0.26
1.7451172,-0.1417764,0.10777641,-0.26737887,0.56,0.85,0.16,22327,10153.50,0,0,165,-9.52,4.55,-18.83,0.56,0.85,0.16
1.4453125,-0.040776398,0.15977639,-0.15437888,0.57,0.79,0.18,22342,10153.20,0,0,0,-2.45,8.19,-10.92,0.57,0.79,0.18
1.4453125,0.0012236033,0.11677641,-0.09737888,0.56,0.76,0.21,22357,10153.20,0,0,165,0.49,5.18,-6.93,0.56,0.76,0.21
1.4453125,-0.0687764,0.16477641,0.0056211203,0.51,0.79,0.23,22372,10153.20,0,0,0,-4.41,8.54,0.28,0.51,0.79,0.23
1.7451172,-0.13777639,0.10977641,0.01462112,0.52,0.82,0.26,22380,10153.50,0,0,165,-9.24,4.69,0.91,0.52,0.82,0.26
1.4453125,-0.24477638,0.010776404,0.05362112,0.54,0.8,0.31,22394,10153.20,0,0,0,-16.73,-2.24,3.64,0.54,0.80,0.31
2.7451172,-0.4487764,-0.10122359,0.15462112,0.54,0.83,0.38,22402,10154.50,0,0,165,-31.01,-10.08,10.71,0.54,0.83,0.38
1.7451172,-0.80377644,-0.18322359,0.26962113,0.53,0.88,0.34,22417,10153.50,0,0,0,-55.86,-15.82,18.76,0.53,0.88,0.34
1.7451172,-0.8317764,-0.097223595,0.29962113,0.48,0.93,0.35,22432,10153.50,0,0,165,-57.82,-9.80,20.86,0.48,0.93,0.35
1.7451172,-0.4947764,0.08077641,0.39562112,0.45,0.94,0.34,22439,10153.50,0,0,0,-34.23,2.66,27.58,0.45,0.94,0.34
1.7451172,-0.3677764,0.16877641,0.12262113,0.47,0.72,0.42,22455,10153.50,0,0,165,-25.34,8.82,8.47,0.47,0.72,0.42
2.7451172,-0.2907764,0.1957764,0.10562112,0.49,0.84,0.33,22470,10154.50,0,0,0,-19.95,10.71,7.28,0.49,0.84,0.33
1.7451172,0.039223604,0.5007764,0.32462114,0.46,0.91,0.3,22477,10153.50,0,0,165,3.15,32.06,22.61,0.46,0.91,0.30
2.7451172,0.0652236,0.3947764,-0.03837888,0.53,0.77,0.34,22492,10154.50,0,0,0,4.97,24.64,-2.80,0.53,0.77,0.34
1.4453125,0.0762236,0.3827764,0.009621121,0.54,0.76,0.36,22507,10153.20,0,0,165,5.74,23.80,0.56,0.54,0.76,0.36
2.4453125,0.025223605,0.3437764,0.08062112,0.57,0.72,0.37,22514,10154.20,0,0,0,2.17,21.07,5.53,0.57,0.72,0.37
1.7451172,-0.077776395,0.14077641,-0.032378882,0.51,0.67,0.41,22529,10153.50,0,0,165,-5.04,6.86,-2.38,0.51,0.67,0.41
2.7451172,-0.33577642,0.19077641,0.20062113,0.52,0.76,0.4,22545,10154.50,0,0,0,-23.10,10.36,13.93,0.52,0.76,0.40
1.7451172,-0.15877639,0.2667764,0.17062113,0.54,0.76,0.41,22559,10153.50,0,0,165,-10.71,15.68,11.83,0.54,0.76,0.41
2.7451172,-0.17177638,0.5417764,0.40662113,0.51,0.72,0.42,22566,10154.50,0,0,0,-11.62,34.93,28.35,0.51,0.72,0.42
1.7451172,0.031223603,0.6257764,0.36562112,0.53,0.69,0.42,22582,10153.50,0,0,165,2.59,40.81,25.48,0.53,0.69,0.42
1.7451172,-0.0337764,0.68577635,0.26962113,0.42,0.79,0.35,22597,10153.50,0,0,0,-1.96,45.01,18.76,0.42,0.79,0.35
3.7451172,-0.025776397,0.73977643,0.13862114,0.41,0.96,0.34,22605,10155.50,0,0,165,-1.40,48.79,9.59,0.41,0.96,0.34
2.7451172,0.22122361,0.8077764,0.06062112,0.46,0.93,0.38,22620,10154.50,0,0,0,15.89,53.55,4.13,0.46,0.93,0.38
2.7451172,0.4342236,0.8427764,0.05462112,0.47,0.88,0.42,22627,10154.50,0,0,165,30.80,56.00,3.71,0.47,0.88,0.42
2.7451172,0.63722354,0.7837764,0.03162112,0.55,0.77,0.46,22642,10154.50,0,0,0,45.01,51.87,2.10,0.55,0.77,0.46
3.7451172,0.32222357,0.6807764,0.03562112,0.51,0.88,0.34,22657,10155.50,0,0,165,22.96,44.66,2.38,0.51,0.88,0.34
3.7451172,0.2952236,0.6267764,0.025621118,0.68,0.75,0.43,22664,10155.50,0,0,0,21.07,40.88,1.68,0.68,0.75,0.43
3.4453125,-0.121776395,0.2877764,0.03462112,0.59,0.74,0.37,22680,10155.20,0,0,165,-8.12,17.15,2.31,0.59,0.74,0.37
4.745117,-0.15977639,0.123776406,0.037621118,0.46,0.72,0.34,22702,10156.50,0,0,0,-10.78,5.67,2.52,0.46,0.72,0.34
3.7451172,-0.1557764,0.2307764,-0.13837887,0.54,0.77,0.34,22703,10155.50,0,0,165,-10.50,13.16,-9.80,0.54,0.77,0.34
2.7451172,-0.4227764,0.30277643,-0.05637888,0.56,0.76,0.36,22717,10154.50,0,0,0,-29.19,18.20,-4.06,0.56,0.76,0.36
3.7451172,-0.7327764,0.3917764,0.26862115,0.56,0.78,0.32,22732,10155.50,0,0,165,-50.89,24.43,18.69,0.56,0.78,0.32
3.7451172,-0.64777637,0.2517764,0.33562112,0.53,0.91,0.34,22747,10155.50,0,0,0,-44.94,14.63,23.38,0.53,0.91,0.34
3.7451172,-0.42777643,0.12777641,0.34362113,0.49,0.85,0.45,22754,10155.50,0,0,165,-29.54,5.95,23.94,0.49,0.85,0.45
2.7451172,-0.2757764,0.0027764067,0.22462112,0.49,0.81,0.49,22770,10154.50,0,0,0,-18.90,-2.80,15.61,0.49,0.81,0.49
3.7451172,-0.13777639,-0.1502236,0.02862112,0.49,0.76,0.49,22777,10155.50,0,0,165,-9.24,-13.51,1.89,0.49,0.76,0.49
3.7451172,-0.046776395,-0.21222359,-0.05337888,0.48,0.72,0.49,22792,10155.50,0,0,0,-2.87,-17.85,-3.85,0.48,0.72,0.49
4.3447266,-0.0917764,-0.2562236,-0.096378885,0.52,0.74,0.45,22807,10156.10,0,0,165,-6.02,-20.93,-6.86,0.52,0.74,0.45
3.4453125,-0.15877639,-0.2742236,-0.07637888,0.56,0.75,0.43,22814,10155.20,0,0,0,-10.71,-22.19,-5.46,0.56,0.75,0.43
4.745117,-0.14777638,-0.3052236,-0.046378877,0.55,0.75,0.43,22830,10156.50,0,0,165,-9.94,-24.36,-3.36,0.55,0.75,0.43
4.745117,-0.15377639,-0.3252236,-0.04137888,0.52,0.75,0.45,22844,10156.50,0,0,0,-10.36,-25.76,-3.01,0.52,0.75,0.45
4.745117,-0.028776396,-0.3712236,-0.013378879,0.51,0.79,0.45,22855,10156.50,0,0,165,-1.61,-28.98,-1.05,0.51,0.79,0.45
4.745117,0.3072236,-0.1882236,0.11462112,0.51,0.81,0.46,22867,10156.50,0,0,0,21.91,-16.17,7.91,0.51,0.81,0.46
4.745117,0.015223603,-0.21522358,0.02962112,0.51,0.68,0.48,22882,10156.50,0,0,165,1.47,-18.06,1.96,0.51,0.68,0.48
3.7451172,0.101223595,-0.24222359,0.06862112,0.52,0.66,0.48,22897,10155.50,0,0,0,7.49,-19.95,4.69,0.52,0.66,0.48
4.745117,-0.026776396,-0.21722361,0.14062113,0.51,0.72,0.47,22905,10156.50,0,0,165,-1.47,-18.20,9.73,0.51,0.72,0.47
5.645508,-0.0737764,-0.21222359,0.16662113,0.49,0.74,0.46,22919,10157.40,0,0,0,-4.76,-17.85,11.55,0.49,0.74,0.46
4.745117,-0.15077639,0.038776405,0.24162112,0.44,0.77,0.45,22927,10156.50,0,0,165,-10.15,-0.28,16.80,0.44,0.77,0.45
4.3447266,-0.1907764,-0.16722359,0.22062112,0.44,0.82,0.45,22942,10156.10,0,0,0,-12.95,-14.70,15.33,0.44,0.82,0.45
4.745117,-0.20277639,-0.1372236,0.21762113,0.44,0.83,0.43,22957,10156.50,0,0,165,-13.79,-12.60,15.12,0.44,0.83,0.43
5.645508,-0.1327764,0.026776405,0.10562112,0.47,0.84,0.4,22964,10157.40,0,0,0,-8.89,-1.12,7.28,0.47,0.84,0.40
4.3447266,-0.077776395,0.1977764,0.08962112,0.51,0.82,0.39,22980,10156.10,0,0,165,-5.04,10.85,6.16,0.51,0.82,0.39
5.645508,-0.036776397,0.1677764,0.06762112,0.55,0.79,0.4,22995,10157.40,0,0,0,-2.17,8.75,4.62,0.55,0.79,0.40
4.745117,-0.0437764,0.051776405,0.07462112,0.58,0.75,0.41,23003,10156.50,0,0,165,-2.66,0.63,5.11,0.58,0.75,0.41
4.745117,-0.1027764,-2.2359565E-4,0.032621123,0.56,0.69,0.43,23017,10156.50,0,0,0,-6.79,-3.01,2.17,0.56,0.69,0.43
5.645508,-0.14977638,-0.053223588,-0.0013788796,0.57,0.74,0.41,23032,10157.40,0,0,165,-10.08,-6.72,-0.21,0.57,0.74,0.41
5.645508,-0.17577639,-0.10222359,-0.06737888,0.56,0.77,0.43,23040,10157.40,0,0,0,-11.90,-10.15,-4.83,0.56,0.77,0.43
5.645508,-0.1687764,-0.13022359,-0.12537888,0.57,0.78,0.43,23055,10157.40,0,0,165,-11.41,-12.11,-8.89,0.57,0.78,0.43
6.645508,-0.107776396,-0.1502236,-0.20837887,0.54,0.82,0.43,23070,10158.40,0,0,0,-7.14,-13.51,-14.70,0.54,0.82,0.43
6.645508,-0.034776397,-0.1572236,-0.25637886,0.55,0.8,0.46,23077,10158.40,0,0,165,-2.03,-14.00,-18.06,0.55,0.80,0.46
5.645508,0.0452236,-0.1702236,-0.25137886,0.54,0.78,0.48,23092,10157.40,0,0,0,3.57,-14.91,-17.71,0.54,0.78,0.48
5.645508,0.029223602,-0.18422359,-0.19737887,0.51,0.77,0.49,23107,10157.40,0,0,165,2.45,-15.89,-13.93,0.51,0.77,0.49
6.645508,-0.009776397,-0.16122359,-0.12437888,0.5,0.76,0.5,23115,10158.40,0,0,0,-0.28,-14.28,-8.82,0.50,0.76,0.50
6.645508,0.011223604,-0.13022359,-0.07037888,0.53,0.76,0.45,23129,10158.40,0,0,165,1.19,-12.11,-5.04,0.53,0.76,0.45
6.645508,0.0682236,-0.1262236,-0.02137888,0.55,0.76,0.43,23144,10158.40,0,0,0,5.18,-11.83,-1.61,0.55,0.76,0.43
7.645508,0.1102236,-0.109223604,0.02362112,0.57,0.75,0.43,23152,10159.40,0,0,165,8.12,-10.64,1.54,0.57,0.75,0.43
6.645508,0.12422361,-0.1342236,0.06562112,0.57,0.72,0.43,23168,10158.40,0,0,0,9.10,-12.39,4.48,0.57,0.72,0.43
5.645508,0.1832236,-0.1772236,0.08962112,0.56,0.74,0.42,23182,10157.40,0,0,165,13.23,-15.40,6.16,0.56,0.74,0.42
6.645508,0.17922361,-0.1662236,0.11462112,0.54,0.71,0.44,23197,10158.40,0,0,0,12.95,-14.63,7.91,0.54,0.71,0.44
5.645508,0.090223595,-0.1442236,0.14262113,0.52,0.73,0.43,23205,10157.40,0,0,165,6.72,-13.09,9.87,0.52,0.73,0.43
7.645508,0.0362236,-0.109223604,0.13162114,0.49,0.78,0.41,23220,10159.40,0,0,0,2.94,-10.64,9.10,0.49,0.78,0.41
6.645508,0.055223603,-0.082223594,0.099621125,0.51,0.81,0.41,23228,10158.40,0,0,165,4.27,-8.75,6.86,0.51,0.81,0.41
7.645508,0.038223602,0.0047764033,0.11462112,0.51,0.79,0.43,23243,10159.40,0,0,0,3.08,-2.66,7.91,0.51,0.79,0.43
7.645508,0.0632236,0.048776407,0.08662112,0.53,0.77,0.44,23257,10159.40,0,0,165,4.83,0.42,5.95,0.53,0.77,0.44
6.645508,0.091223605,0.06877641,0.077621125,0.53,0.74,0.45,23265,10158.40,0,0,0,6.79,1.82,5.32,0.53,0.74,0.45
6.645508,0.051223602,0.0847764,0.07362112,0.52,0.72,0.45,23279,10158.40,0,0,165,3.99,2.94,5.04,0.52,0.72,0.45
