Pressure_Rel,GyroX_Rel,GyroY_Rel,GyroZ_Rel,AccX_Rel,AccY_Rel,AccZ_Rel,Timestamp,Pressure_abs,HeartRate,Oxygen,Status,GyroX,GyroY,GyroZ,AccX,AccY,AccZ
0.0,0.0,0.0,0.0,0.0,0.0,0.0,2678,9761.40,0,0,165,-0.35,-0.28,0.56,-0.25,-0.96,0.15
0.0,0.0,0.0,0.0,0.0,0.0,0.0,2694,9761.40,0,0,0,-0.21,-0.28,0.35,-0.25,-0.96,0.15
0.0,0.0,0.0,0.0,0.0,0.0,0.0,2710,9761.10,0,0,165,-0.35,-0.21,0.63,-0.26,-0.96,0.15
0.0,0.0,0.0,0.0,0.0,0.0,0.0,2716,9761.40,0,0,0,-0.21,-0.21,0.56,-0.25,-0.96,0.15
0.0,0.0,0.0,0.0,0.0,0.0,0.0,2731,9762.00,0,0,165,-0.28,-0.28,0.70,-0.25,-0.96,0.15
0.0,0.0,0.0,0.0,0.0,0.0,0.0,2746,9762.00,0,0,0,-0.49,-0.21,0.49,-0.25,-0.96,0.15
0.0,0.0,0.0,0.0,0.0,0.0,0.0,2755,9761.10,0,0,165,-0.28,-0.21,0.49,-0.25,-0.96,0.15
0.0,0.0,0.0,0.0,0.0,0.0,0.0,2769,9761.40,0,0,0,-0.35,-0.35,0.56,-0.25,-0.96,0.15
0.0,0.0,0.0,0.0,0.0,0.0,0.0,2784,9762.40,0,0,165,-0.42,-0.21,0.77,-0.25,-0.96,0.15
0.0,0.0,0.0,0.0,0.0,0.0,0.0,2791,9761.10,0,0,0,-0.21,-0.35,0.63,-0.26,-0.96,0.15
0.0,0.0,0.0,0.0,0.0,0.0,0.0,2806,9762.40,0,0,165,-0.42,-0.28,0.84,-0.26,-0.96,0.15
0.0,0.0,0.0,0.0,0.0,0.0,0.0,2821,9762.40,0,0,0,-0.35,-0.21,0.70,-0.25,-0.96,0.15
0.0,0.0,0.0,0.0,0.0,0.0,0.0,2828,9761.40,0,0,165,-0.35,-0.28,0.70,-0.25,-0.96,0.15
0.0,0.0,0.0,0.0,0.0,0.0,0.0,2843,9761.40,0,0,0,-0.35,-0.28,0.77,-0.25,-0.96,0.15
0.0,0.0,0.0,0.0,0.0,0.0,0.0,2859,9762.40,0,0,165,-0.21,-0.28,0.49,-0.25,-0.96,0.15
0.0,0.0,0.0,0.0,0.0,0.0,0.0,2866,9762.40,0,0,0,-0.35,-0.28,0.63,-0.26,-0.96,0.15
0.0,0.0,0.0,0.0,0.0,0.0,0.0,2881,9762.40,0,0,165,-0.35,-0.28,0.70,-0.26,-0.96,0.15
0.0,0.0,0.0,0.0,0.0,0.0,0.0,2896,9761.40,0,0,0,-0.35,-0.28,0.63,-0.26,-0.96,0.15
0.0,0.0,0.0,0.0,0.0,0.0,0.0,2905,9761.10,0,0,165,-0.42,-0.21,0.56,-0.26,-0.96,0.15
0.0,0.0,0.0,0.0,0.0,0.0,0.0,2918,9762.40,0,0,0,-0.35,-0.21,0.49,-0.25,-0.96,0.15
0.0,0.0,0.0,0.0,0.0,0.0,0.0,2934,9761.40,0,0,165,-0.35,-0.21,0.49,-0.25,-0.96,0.15
0.0,0.0,0.0,0.0,0.0,0.0,0.0,2941,9761.40,0,0,0,-0.28,-0.28,0.63,-0.25,-0.96,0.15
0.0,0.0,0.0,0.0,0.0,0.0,0.0,2956,9762.00,0,0,165,-0.28,-0.28,0.63,-0.25,-0.96,0.15
0.0,0.0,0.0,0.0,0.0,0.0,0.0,2971,9761.40,0,0,0,-0.28,-0.28,0.56,-0.25,-0.96,0.15
0.0,0.0,0.0,0.0,0.0,0.0,0.0,2978,9761.40,0,0,165,-0.35,-0.21,0.63,-0.25,-0.96,0.15
0.0,0.0,0.0,0.0,0.0,0.0,0.0,2994,9761.40,0,0,0,-0.28,-0.21,0.42,-0.26,-0.96,0.15
0.0,0.0,0.0,0.0,0.0,0.0,0.0,3009,9761.40,0,0,165,-0.42,-0.28,0.56,-0.25,-0.96,0.15
0.0,0.0,0.0,0.0,0.0,0.0,0.0,3016,9761.40,0,0,0,-0.28,-0.14,0.42,-0.25,-0.96,0.15
0.0,0.0,0.0,0.0,0.0,0.0,0.0,3040,9762.40,0,0,165,-0.35,-0.28,0.56,-0.25,-0.96,0.15
0.0,0.0,0.0,0.0,0.0,0.0,0.0,3047,9761.40,0,0,0,-0.28,-0.28,0.56,-0.25,-0.96,0.15
0.0,0.0,0.0,0.0,0.0,0.0,0.0,3054,9762.40,0,0,165,-0.28,-0.28,0.63,-0.25,-0.96,0.15
0.0,0.0,0.0,0.0,0.0,0.0,0.0,3073,9760.50,0,0,0,-0.42,-0.21,0.70,-0.25,-0.96,0.15
0.0,0.0,0.0,0.0,0.0,0.0,0.0,3076,9761.40,0,0,165,-0.28,-0.21,0.56,-0.26,-0.96,0.15
0.0,0.0,0.0,0.0,0.0,0.0,0.0,3092,9761.40,0,0,0,-0.42,-0.21,0.56,-0.26,-0.96,0.15
0.0,0.0,0.0,0.0,0.0,0.0,0.0,3107,9761.40,0,0,165,-0.28,-0.21,0.63,-0.25,-0.96,0.15
0.0,0.0,0.0,0.0,0.0,0.0,0.0,3113,9761.40,0,0,0,-0.35,-0.28,0.63,-0.25,-0.96,0.15
0.0,0.0,0.0,0.0,0.0,0.0,0.0,3130,9761.40,0,0,165,-0.42,-0.28,0.70,-0.25,-0.96,0.15
0.0,0.0,0.0,0.0,0.0,0.0,0.0,3144,9761.40,0,0,0,-0.28,-0.28,0.56,-0.25,-0.96,0.15
0.0,0.0,0.0,0.0,0.0,0.0,0.0,3152,9761.40,0,0,165,-0.42,-0.35,0.70,-0.26,-0.96,0.15
0.0,0.0,0.0,0.0,0.0,0.0,0.0,3166,9762.40,0,0,0,-0.35,-0.35,0.63,-0.25,-0.96,0.15
0.0,0.0,0.0,0.0,0.0,0.0,0.0,3181,9761.40,0,0,165,-0.35,-0.28,0.63,-0.25,-0.96,0.15
0.0,0.0,0.0,0.0,0.0,0.0,0.0,3191,9761.40,0,0,0,-0.42,-0.35,0.70,-0.25,-0.96,0.15
0.0,0.0,0.0,0.0,0.0,0.0,0.0,3205,9761.40,0,0,165,-0.35,-0.28,0.63,-0.26,-0.96,0.15
0.0,0.0,0.0,0.0,0.0,0.0,0.0,3219,9762.40,0,0,0,-0.35,-0.21,0.56,-0.25,-0.96,0.15
0.0,0.0,0.0,0.0,0.0,0.0,0.0,3227,9761.40,0,0,165,-0.35,-0.28,0.70,-0.25,-0.96,0.15
0.0,0.0,0.0,0.0,0.0,0.0,0.0,3242,9761.40,0,0,0,-0.28,-0.35,0.56,-0.25,-0.96,0.15
0.0,0.0,0.0,0.0,0.0,0.0,0.0,3259,9762.40,0,0,165,-0.35,-0.28,0.42,-0.25,-0.96,0.15
0.0,0.0,0.0,0.0,0.0,0.0,0.0,3263,9761.40,0,0,0,-0.35,-0.14,0.42,-0.26,-0.96,0.15
0.0,0.0,0.0,0.0,0.0,0.0,0.0,3280,9762.40,0,0,165,-0.28,-0.28,0.42,-0.25,-0.96,0.15
0.0,0.0,0.0,0.0,0.0,0.0,0.0,3294,9762.40,0,0,0,-0.42,-0.28,0.63,-0.25,-0.96,0.15
0.0,0.0,0.0,0.0,0.0,0.0,0.0,3302,9761.40,0,0,165,-0.28,-0.21,0.56,-0.25,-0.96,0.15
0.0,0.0,0.0,0.0,0.0,0.0,0.0,3323,9761.40,0,0,0,-0.35,-0.21,0.49,-0.26,-0.96,0.15
0.0,0.0,0.0,0.0,0.0,0.0,0.0,3331,9760.50,0,0,165,-0.49,-0.21,0.63,-0.26,-0.96,0.15
0.0,0.0,0.0,0.0,0.0,0.0,0.0,3339,9761.40,0,0,0,-0.35,-0.35,0.56,-0.25,-0.96,0.15
0.0,0.0,0.0,0.0,0.0,0.0,0.0,3362,9762.40,0,0,165,-0.35,-0.21,0.49,-0.25,-0.96,0.15
0.0,0.0,0.0,0.0,0.0,0.0,0.0,3369,9760.50,0,0,0,-0.35,-0.35,0.56,-0.25,-0.96,0.15
0.0,0.0,0.0,0.0,0.0,0.0,0.0,3377,9761.40,0,0,165,-0.28,-0.28,0.63,-0.25,-0.96,0.15
0.0,0.0,0.0,0.0,0.0,0.0,0.0,3393,9761.70,0,0,0,-0.35,-0.28,0.49,-0.25,-0.96,0.15
0.0,0.0,0.0,0.0,0.0,0.0,0.0,3407,9761.40,0,0,165,-0.35,-0.28,0.56,-0.25,-0.96,0.15
0.0,0.0,0.0,0.0,0.0,0.0,0.0,3413,9762.40,0,0,0,-0.42,-0.21,0.56,-0.25,-0.96,0.15
0.0,0.0,0.0,0.0,0.0,0.0,0.0,3436,9761.40,0,0,165,-0.35,-0.21,0.56,-0.25,-0.96,0.15
0.0,0.0,0.0,0.0,0.0,0.0,0.0,3445,9759.50,0,0,0,-0.21,-0.28,0.56,-0.25,-0.96,0.15
0.0,0.0,0.0,0.0,0.0,0.0,0.0,3452,9761.40,0,0,165,-0.42,-0.28,0.49,-0.25,-0.96,0.15
0.0,0.0,0.0,0.0,0.0,0.0,0.0,3467,9761.40,0,0,0,-0.35,-0.28,0.70,-0.26,-0.96,0.15
0.0,0.0,0.0,0.0,0.0,0.0,0.0,3481,9761.40,0,0,165,-0.35,-0.28,0.70,-0.25,-0.96,0.15
0.0,0.0,0.0,0.0,0.0,0.0,0.0,3488,9761.40,0,0,0,-0.35,-0.21,0.63,-0.25,-0.96,0.15
0.0,0.0,0.0,0.0,0.0,0.0,0.0,3504,9761.40,0,0,165,-0.28,-0.21,0.63,-0.25,-0.96,0.15
0.0,0.0,0.0,0.0,0.0,0.0,0.0,3519,9761.40,0,0,0,-0.42,-0.28,0.70,-0.25,-0.96,0.15
0.0,0.0,0.0,0.0,0.0,0.0,0.0,3526,9761.40,0,0,165,-0.35,-0.21,0.49,-0.26,-0.96,0.15
0.0,0.0,0.0,0.0,0.0,0.0,0.0,3541,9761.40,0,0,0,-0.28,-0.28,0.63,-0.26,-0.96,0.15
0.0,0.0,0.0,0.0,0.0,0.0,0.0,3556,9761.40,0,0,165,-0.35,-0.21,0.70,-0.25,-0.96,0.15
0.0,0.0,0.0,0.0,0.0,0.0,0.0,3563,9761.40,0,0,0,-0.28,-0.21,0.56,-0.25,-0.96,0.15
0.0,0.0,0.0,0.0,0.0,0.0,0.0,3578,9760.50,0,0,165,-0.42,-0.28,0.56,-0.25,-0.96,0.15
0.0,0.0,0.0,0.0,0.0,0.0,0.0,3593,9761.40,0,0,0,-0.28,-0.28,0.63,-0.25,-0.96,0.15
0.0,0.0,0.0,0.0,0.0,0.0,0.0,3602,9761.40,0,0,165,-0.28,-0.21,0.42,-0.25,-0.96,0.15
0.0,0.0,0.0,0.0,0.0,0.0,0.0,3617,9761.40,0,0,0,-0.42,-0.21,0.63,-0.25,-0.96,0.15
0.0,0.0,0.0,0.0,0.0,0.0,0.0,3630,9761.40,0,0,165,-0.42,-0.28,0.63,-0.25,-0.96,0.15
0.0,0.0,0.0,0.0,0.0,0.0,0.0,3638,9761.40,0,0,0,-0.42,-0.28,0.70,-0.25,-0.96,0.15
0.0,0.0,0.0,0.0,0.0,0.0,0.0,3653,9762.40,0,0,165,-0.42,-0.28,0.91,-0.25,-0.96,0.15
0.0,0.0,0.0,0.0,0.0,0.0,0.0,3668,9761.40,0,0,0,-0.28,-0.28,0.70,-0.26,-0.96,0.15
0.0,0.0,0.0,0.0,0.0,0.0,0.0,3675,9761.70,0,0,165,-0.42,-0.35,0.63,-0.25,-0.96,0.15
0.0,0.0,0.0,0.0,0.0,0.0,0.0,3690,9762.40,0,0,0,-0.42,-0.28,0.63,-0.25,-0.96,0.15
0.0,0.0,0.0,0.0,0.0,0.0,0.0,3705,9762.40,0,0,165,-0.35,-0.28,0.70,-0.26,-0.96,0.15
0.0,0.0,0.0,0.0,0.0,0.0,0.0,3713,9760.80,0,0,0,-0.49,-0.21,0.70,-0.25,-0.96,0.15
0.0,0.0,0.0,0.0,0.0,0.0,0.0,3729,9761.40,0,0,165,-0.35,-0.28,0.70,-0.25,-0.96,0.15
0.0,0.0,0.0,0.0,0.0,0.0,0.0,3743,9761.40,0,0,0,-0.28,-0.28,0.63,-0.25,-0.96,0.15
0.0,0.0,0.0,0.0,0.0,0.0,0.0,3750,9761.40,0,0,165,-0.35,-0.28,0.70,-0.25,-0.96,0.15
0.0,0.0,0.0,0.0,0.0,0.0,0.0,3766,9761.40,0,0,0,-0.35,-0.35,0.70,-0.25,-0.96,0.15
0.0,0.0,0.0,0.0,0.0,0.0,0.0,3780,9761.70,0,0,165,-0.42,-0.28,0.49,-0.25,-0.96,0.15
0.0,0.0,0.0,0.0,0.0,0.0,0.0,3788,9761.40,0,0,0,-0.35,-0.21,0.56,-0.25,-0.96,0.15
0.0,0.0,0.0,0.0,0.0,0.0,0.0,3803,9761.40,0,0,165,-0.28,-0.21,0.42,-0.25,-0.96,0.15
0.0,0.0,0.0,0.0,0.0,0.0,0.0,3818,9760.50,0,0,0,-0.42,-0.21,0.56,-0.25,-0.96,0.15
0.0,0.0,0.0,0.0,0.0,0.0,0.0,3825,9762.40,0,0,165,-0.28,-0.28,0.49,-0.25,-0.96,0.15
0.0,0.0,0.0,0.0,0.0,0.0,0.0,3840,9761.40,0,0,0,-0.35,-0.28,0.42,-0.25,-0.96,0.15
0.0,0.0,0.0,0.0,0.0,0.0,0.0,3855,9761.40,0,0,165,-0.35,-0.21,0.49,-0.25,-0.96,0.15
0.0,0.0,0.0,0.0,0.0,0.0,0.0,3862,9762.40,0,0,0,-0.28,-0.35,0.56,-0.25,-0.96,0.15
0.0,0.0,0.0,0.0,0.0,0.0,0.0,3878,9761.40,0,0,165,-0.42,-0.21,0.56,-0.25,-0.96,0.15
0.0,0.0,0.0,0.0,0.0,0.0,0.0,3893,9761.40,0,0,0,-0.21,-0.35,0.56,-0.25,-0.96,0.15
0.0,0.0,0.0,0.0,0.0,0.0,0.0,3901,9761.40,0,0,165,-0.35,-0.28,0.56,-0.25,-0.96,0.15
0.0,0.0,0.0,0.0,0.0,0.0,0.0,3915,9761.40,0,0,0,-0.35,-0.28,0.56,-0.25,-0.96,0.15
0.0,0.0,0.0,0.0,0.0,0.0,0.0,3931,9761.40,0,0,165,-0.35,-0.21,0.70,-0.25,-0.96,0.15
0.0,0.0,0.0,0.0,0.0,0.0,0.0,3938,9761.70,0,0,0,-0.42,-0.28,0.77,-0.25,-0.96,0.15
0.0,0.0,0.0,0.0,0.0,0.0,0.0,3953,9761.40,0,0,165,-0.28,-0.28,0.56,-0.26,-0.96,0.15
0.0,0.0,0.0,0.0,0.0,0.0,0.0,3968,9761.40,0,0,0,-0.35,-0.28,0.56,-0.25,-0.96,0.15
0.0,0.0,0.0,0.0,0.0,0.0,0.0,3975,9761.70,0,0,165,-0.42,-0.28,0.56,-0.25,-0.96,0.15
0.0,0.0,0.0,0.0,0.0,0.0,0.0,3991,9761.70,0,0,0,-0.35,-0.28,0.56,-0.26,-0.96,0.15
0.0,0.0,0.0,0.0,0.0,0.0,0.0,4006,9761.40,0,0,165,-0.42,-0.28,0.70,-0.26,-0.96,0.15
0.0,0.0,0.0,0.0,0.0,0.0,0.0,4013,9761.40,0,0,0,-0.28,-0.21,0.56,-0.25,-0.96,0.15
0.0,0.0,0.0,0.0,0.0,0.0,0.0,4028,9762.40,0,0,165,-0.21,-0.28,0.49,-0.25,-0.96,0.15
0.0,0.0,0.0,0.0,0.0,0.0,0.0,4043,9761.70,0,0,0,-0.35,-0.21,0.63,-0.26,-0.96,0.15
0.0,0.0,0.0,0.0,0.0,0.0,0.0,4056,9761.40,0,0,165,-0.35,-0.28,0.70,-0.26,-0.96,0.15
0.0,0.0,0.0,0.0,0.0,0.0,0.0,4065,9761.40,0,0,0,-0.49,-0.28,0.70,-0.25,-0.96,0.15
0.0,0.0,0.0,0.0,0.0,0.0,0.0,4080,9762.40,0,0,165,-0.42,-0.35,0.56,-0.26,-0.96,0.15
0.0,0.0,0.0,0.0,0.0,0.0,0.0,4088,9761.40,0,0,0,-0.42,-0.28,0.49,-0.25,-0.96,0.15
0.0,0.0,0.0,0.0,0.0,0.0,0.0,4103,9761.40,0,0,165,-0.21,-0.21,0.56,-0.25,-0.96,0.15
0.0,0.0,0.0,0.0,0.0,0.0,0.0,4119,9762.70,0,0,0,-0.42,-0.35,0.77,-0.25,-0.96,0.15
0.0,0.0,0.0,0.0,0.0,0.0,0.0,4126,9761.70,0,0,165,-0.21,-0.21,0.42,-0.26,-0.96,0.15
0.0,0.0,0.0,0.0,0.0,0.0,0.0,4140,9762.40,0,0,0,-0.49,-0.21,0.56,-0.25,-0.96,0.15
0.0,0.0,0.0,0.0,0.0,0.0,0.0,4155,9761.40,0,0,165,-0.14,-0.21,0.56,-0.26,-0.96,0.15
0.0,0.0,0.0,0.0,0.0,0.0,0.0,4163,9761.70,0,0,0,-0.21,-0.28,0.63,-0.26,-0.96,0.15
0.0,0.0,0.0,0.0,0.0,0.0,0.0,4177,9762.40,0,0,165,-0.42,-0.28,0.63,-0.26,-0.96,0.15
0.0,0.0,0.0,0.0,0.0,0.0,0.0,4193,9760.50,0,0,0,-0.21,-0.28,0.49,-0.25,-0.96,0.15
0.0,0.0,0.0,0.0,0.0,0.0,0.0,4200,9761.40,0,0,165,-0.49,-0.21,0.56,-0.25,-0.96,0.15
0.0,0.0,0.0,0.0,0.0,0.0,0.0,4216,9761.40,0,0,0,-0.21,-0.28,0.70,-0.25,-0.96,0.15
0.0,0.0,0.0,0.0,0.0,0.0,0.0,4231,9762.70,0,0,165,-0.35,-0.35,0.77,-0.25,-0.96,0.15
0.0,0.0,0.0,0.0,0.0,0.0,0.0,4238,9760.50,0,0,0,-0.42,-0.35,0.70,-0.26,-0.96,0.15
0.0,0.0,0.0,0.0,0.0,0.0,0.0,4253,9761.40,0,0,165,-0.28,-0.28,0.63,-0.26,-0.96,0.15
0.0,0.0,0.0,0.0,0.0,0.0,0.0,4268,9761.70,0,0,0,-0.35,-0.28,0.42,-0.25,-0.96,0.15
0.0,0.0,0.0,0.0,0.0,0.0,0.0,4275,9760.50,0,0,165,-0.28,-0.21,0.49,-0.25,-0.96,0.15
0.0,0.0,0.0,0.0,0.0,0.0,0.0,4290,9761.40,0,0,0,-0.28,-0.28,0.49,-0.25,-0.96,0.15
0.0,0.0,0.0,0.0,0.0,0.0,0.0,4305,9761.40,0,0,165,-0.42,-0.21,0.63,-0.25,-0.96,0.15
0.0,0.0,0.0,0.0,0.0,0.0,0.0,4313,9760.50,0,0,0,-0.28,-0.21,0.35,-0.25,-0.96,0.15
0.0,0.0,0.0,0.0,0.0,0.0,0.0,4328,9761.40,0,0,165,-0.35,-0.28,0.63,-0.25,-0.96,0.15
0.0,0.0,0.0,0.0,0.0,0.0,0.0,4343,9761.40,0,0,0,-0.28,-0.28,0.49,-0.25,-0.96,0.15
0.0,0.0,0.0,0.0,0.0,0.0,0.0,4352,9761.70,0,0,165,-0.28,-0.21,0.63,-0.26,-0.96,0.15
0.0,0.0,0.0,0.0,0.0,0.0,0.0,4366,9761.40,0,0,0,-0.35,-0.28,0.63,-0.25,-0.96,0.15
0.0,0.0,0.0,0.0,0.0,0.0,0.0,4380,9761.40,0,0,165,-0.28,-0.35,0.49,-0.25,-0.96,0.15
0.0,0.0,0.0,0.0,0.0,0.0,0.0,4388,9761.40,0,0,0,-0.28,-0.35,0.63,-0.25,-0.96,0.15
0.0,0.0,0.0,0.0,0.0,0.0,0.0,4406,9762.40,0,0,165,-0.35,-0.21,0.84,-0.25,-0.96,0.15
0.0,0.0,0.0,0.0,0.0,0.0,0.0,4419,9762.40,0,0,0,-0.28,-0.28,0.56,-0.25,-0.96,0.15
0.0,0.0,0.0,0.0,0.0,0.0,0.0,4425,9761.70,0,0,165,-0.42,-0.21,0.35,-0.26,-0.96,0.15
0.0,0.0,0.0,0.0,0.0,0.0,0.0,4441,9761.40,0,0,0,-0.28,-0.21,0.49,-0.25,-0.96,0.15
0.0,0.0,0.0,0.0,0.0,0.0,0.0,4455,9761.40,0,0,165,-0.28,-0.21,0.49,-0.26,-0.96,0.15
0.0,0.0,0.0,0.0,0.0,0.0,0.0,4463,9762.70,0,0,0,-0.35,-0.21,0.49,-0.25,-0.96,0.15
0.0,0.0,0.0,0.0,0.0,0.0,0.0,4478,9761.40,0,0,165,-0.28,-0.35,0.49,-0.25,-0.96,0.15
0.0,0.0,0.0,0.0,0.0,0.0,0.0,4494,9760.50,0,0,0,-0.35,-0.28,0.49,-0.25,-0.96,0.15
0.0,0.0,0.0,0.0,0.0,0.0,0.0,4501,9761.70,0,0,165,-0.35,-0.21,0.49,-0.25,-0.96,0.15
0.0,0.0,0.0,0.0,0.0,0.0,0.0,4516,9761.70,0,0,0,-0.35,-0.28,0.49,-0.25,-0.96,0.15
0.0,0.0,0.0,0.0,0.0,0.0,0.0,4530,9761.40,0,0,165,-0.42,-0.21,0.63,-0.26,-0.96,0.15
0.0,0.0,0.0,0.0,0.0,0.0,0.0,4538,9761.40,0,0,0,-0.28,-0.28,0.42,-0.26,-0.96,0.15
0.0,0.0,0.0,0.0,0.0,0.0,0.0,4553,9762.40,0,0,165,-0.35,-0.28,0.49,-0.26,-0.96,0.15
0.0,0.0,0.0,0.0,0.0,0.0,0.0,4575,9761.70,0,0,0,-0.35,-0.21,0.42,-0.25,-0.96,0.15
0.0,0.0,0.0,0.0,0.0,0.0,0.0,4577,9761.40,0,0,165,-0.28,-0.28,0.77,-0.25,-0.96,0.15
0.0,0.0,0.0,0.0,0.0,0.0,0.0,4591,9761.70,0,0,0,-0.49,-0.21,0.70,-0.25,-0.96,0.15
0.0,0.0,0.0,0.0,0.0,0.0,0.0,4598,9760.80,0,0,165,-0.28,-0.28,0.77,-0.25,-0.96,0.15
0.0,0.0,0.0,0.0,0.0,0.0,0.0,4613,9761.40,0,0,0,-0.42,-0.28,0.70,-0.26,-0.96,0.15
0.0,0.0,0.0,0.0,0.0,0.0,0.0,4628,9761.40,0,0,165,-0.35,-0.21,0.70,-0.25,-0.96,0.15
0.0,0.0,0.0,0.0,0.0,0.0,0.0,4636,9761.70,0,0,0,-0.35,-0.21,0.63,-0.25,-0.96,0.15
0.0,0.0,0.0,0.0,0.0,0.0,0.0,4650,9761.70,0,0,165,-0.42,-0.28,0.70,-0.25,-0.96,0.15
0.0,0.0,0.0,0.0,0.0,0.0,0.0,4665,9760.50,0,0,0,-0.28,-0.21,0.70,-0.25,-0.96,0.15
0.0,0.0,0.0,0.0,0.0,0.0,0.0,4673,9762.40,0,0,165,-0.35,-0.28,0.77,-0.25,-0.96,0.15
0.0,0.0,0.0,0.0,0.0,0.0,0.0,4688,9761.70,0,0,0,-0.35,-0.28,0.56,-0.25,-0.96,0.15
0.0,0.0,0.0,0.0,0.0,0.0,0.0,4703,9761.40,0,0,165,-0.35,-0.35,0.70,-0.26,-0.96,0.15
0.0,0.0,0.0,0.0,0.0,0.0,0.0,4710,9761.40,0,0,0,-0.42,-0.28,0.63,-0.25,-0.96,0.15
0.0,0.0,0.0,0.0,0.0,0.0,0.0,4726,9762.40,0,0,165,-0.35,-0.28,0.63,-0.25,-0.96,0.15
0.0,0.0,0.0,0.0,0.0,0.0,0.0,4741,9761.70,0,0,0,-0.28,-0.14,0.56,-0.25,-0.96,0.15
0.0,0.0,0.0,0.0,0.0,0.0,0.0,4748,9762.70,0,0,165,-0.42,-0.28,0.63,-0.25,-0.96,0.15
0.0,0.0,0.0,0.0,0.0,0.0,0.0,4771,9762.40,0,0,0,-0.28,-0.21,0.63,-0.26,-0.96,0.15
0.0,0.0,0.0,0.0,0.0,0.0,0.0,4777,9761.40,0,0,165,-0.35,-0.28,0.56,-0.26,-0.96,0.15
0.0,0.0,0.0,0.0,0.0,0.0,0.0,4786,9761.40,0,0,0,-0.35,-0.21,0.63,-0.25,-0.96,0.15
0.0,0.0,0.0,0.0,0.0,0.0,0.0,4800,9761.40,0,0,165,-0.35,-0.28,0.49,-0.25,-0.96,0.15
0.0,0.0,0.0,0.0,0.0,0.0,0.0,4815,9761.40,0,0,0,-0.42,-0.28,0.63,-0.25,-0.96,0.15
0.0,0.0,0.0,0.0,0.0,0.0,0.0,4823,9761.40,0,0,165,-0.28,-0.28,0.56,-0.25,-0.96,0.15
0.0,0.0,0.0,0.0,0.0,0.0,0.0,4846,9761.40,0,0,0,-0.21,-0.28,0.56,-0.25,-0.96,0.15
0.0,0.0,0.0,0.0,0.0,0.0,0.0,4853,9761.40,0,0,165,-0.35,-0.28,0.77,-0.25,-0.96,0.15
0.0,0.0,0.0,0.0,0.0,0.0,0.0,4860,9761.40,0,0,0,-0.35,-0.28,0.63,-0.25,-0.96,0.15
0.0,0.0,0.0,0.0,0.0,0.0,0.0,4875,9762.70,0,0,165,-0.42,-0.28,0.63,-0.25,-0.96,0.15
0.0,0.0,0.0,0.0,0.0,0.0,0.0,4891,9760.50,0,0,0,-0.35,-0.28,0.63,-0.25,-0.96,0.15
0.0,0.0,0.0,0.0,0.0,0.0,0.0,4897,9761.40,0,0,165,-0.35,-0.21,0.49,-0.26,-0.96,0.15
0.0,0.0,0.0,0.0,0.0,0.0,0.0,4913,9761.40,0,0,0,-0.42,-0.28,0.70,-0.26,-0.96,0.15
0.0,0.0,0.0,0.0,0.0,0.0,0.0,4928,9762.40,0,0,165,-0.35,-0.28,0.56,-0.25,-0.96,0.15
0.0,0.0,0.0,0.0,0.0,0.0,0.0,4935,9761.70,0,0,0,-0.35,-0.28,0.70,-0.25,-0.96,0.15
0.0,0.0,0.0,0.0,0.0,0.0,0.0,4951,9761.40,0,0,165,-0.35,-0.28,0.49,-0.26,-0.96,0.15
0.0,0.0,0.0,0.0,0.0,0.0,0.0,4965,9760.50,0,0,0,-0.35,-0.28,0.56,-0.25,-0.96,0.15
0.0,0.0,0.0,0.0,0.0,0.0,0.0,4973,9762.40,0,0,165,-0.42,-0.28,0.70,-0.25,-0.96,0.15
0.0,0.0,0.0,0.0,0.0,0.0,0.0,4988,9762.40,0,0,0,-0.21,-0.21,0.49,-0.25,-0.96,0.15
0.0,0.0,0.0,0.0,0.0,0.0,0.0,5003,9761.40,0,0,165,-0.35,-0.35,0.56,-0.25,-0.96,0.15
0.0,0.0,0.0,0.0,0.0,0.0,0.0,5010,9761.40,0,0,0,-0.42,-0.21,0.56,-0.25,-0.96,0.15
0.0,0.0,0.0,0.0,0.0,0.0,0.0,5025,9762.40,0,0,165,-0.21,-0.28,0.56,-0.25,-0.96,0.15
0.0,0.0,0.0,0.0,0.0,0.0,0.0,5041,9761.40,0,0,0,-0.42,-0.28,0.56,-0.26,-0.96,0.15
0.0,0.0,0.0,0.0,0.0,0.0,0.0,5047,9761.40,0,0,165,-0.28,-0.35,0.70,-0.26,-0.96,0.15
0.0,0.0,0.0,0.0,0.0,0.0,0.0,5062,9761.40,0,0,0,-0.35,-0.21,0.63,-0.26,-0.96,0.15
0.0,0.0,0.0,0.0,0.0,0.0,0.0,5077,9761.40,0,0,165,-0.35,-0.21,0.42,-0.25,-0.96,0.15
0.0,0.0,0.0,0.0,0.0,0.0,0.0,5086,9762.40,0,0,0,-0.28,-0.28,0.49,-0.26,-0.96,0.15
0.0,0.0,0.0,0.0,0.0,0.0,0.0,5101,9761.40,0,0,165,-0.35,-0.28,0.49,-0.25,-0.96,0.15
0.0,0.0,0.0,0.0,0.0,0.0,0.0,5115,9762.40,0,0,0,-0.28,-0.28,0.70,-0.25,-0.96,0.15
0.0,0.0,0.0,0.0,0.0,0.0,0.0,5123,9761.70,0,0,165,-0.28,-0.28,0.49,-0.25,-0.96,0.15
0.0,0.0,0.0,0.0,0.0,0.0,0.0,5138,9762.40,0,0,0,-0.42,-0.21,0.56,-0.25,-0.96,0.15
0.0,0.0,0.0,0.0,0.0,0.0,0.0,5153,9761.70,0,0,165,-0.35,-0.28,0.56,-0.25,-0.96,0.15
0.0,0.0,0.0,0.0,0.0,0.0,0.0,5161,9762.70,0,0,0,-0.28,-0.21,0.42,-0.26,-0.96,0.15
0.0,0.0,0.0,0.0,0.0,0.0,0.0,5175,9762.40,0,0,165,-0.42,-0.28,0.49,-0.25,-0.96,0.15
0.0,0.0,0.0,0.0,0.0,0.0,0.0,5191,9762.40,0,0,0,-0.28,-0.21,0.42,-0.25,-0.96,0.15
0.0,0.0,0.0,0.0,0.0,0.0,0.0,5198,9761.40,0,0,165,-0.35,-0.28,0.49,-0.25,-0.96,0.15
0.0,0.0,0.0,0.0,0.0,0.0,0.0,5213,9761.40,0,0,0,-0.35,-0.28,0.77,-0.25,-0.96,0.15
0.0,0.0,0.0,0.0,0.0,0.0,0.0,5229,9761.40,0,0,165,-0.21,-0.35,0.77,-0.25,-0.96,0.15
0.0,0.0,0.0,0.0,0.0,0.0,0.0,5236,9761.70,0,0,0,-0.35,-0.21,0.70,-0.25,-0.96,0.15
0.0,0.0,0.0,0.0,0.0,0.0,0.0,5251,9761.40,0,0,165,-0.28,-0.21,0.63,-0.25,-0.96,0.15
0.0,0.0,0.0,0.0,0.0,0.0,0.0,5266,9760.50,0,0,0,-0.35,-0.28,0.56,-0.26,-0.96,0.15
0.0,0.0,0.0,0.0,0.0,0.0,0.0,5274,9761.40,0,0,165,-0.35,-0.28,0.56,-0.25,-0.96,0.15
0.0,0.0,0.0,0.0,0.0,0.0,0.0,5289,9762.40,0,0,0,-0.28,-0.35,0.49,-0.25,-0.96,0.15
0.0,0.0,0.0,0.0,0.0,0.0,0.0,5305,9761.70,0,0,165,-0.35,-0.28,0.56,-0.25,-0.96,0.15
0.0,0.0,0.0,0.0,0.0,0.0,0.0,5310,9761.70,0,0,0,-0.35,-0.28,0.49,-0.25,-0.96,0.15
0.0,0.0,0.0,0.0,0.0,0.0,0.0,5325,9762.40,0,0,165,-0.35,-0.28,0.70,-0.25,-0.96,0.15
0.0,0.0,0.0,0.0,0.0,0.0,0.0,5341,9761.70,0,0,0,-0.49,-0.21,0.49,-0.26,-0.96,0.15
0.0,0.0,0.0,0.0,0.0,0.0,0.0,5349,9762.70,0,0,165,-0.21,-0.21,0.49,-0.26,-0.96,0.15
0.0,0.0,0.0,0.0,0.0,0.0,0.0,5363,9762.70,0,0,0,-0.35,-0.28,0.63,-0.26,-0.96,0.15
0.0,0.0,0.0,0.0,0.0,0.0,0.0,5378,9762.40,0,0,165,-0.14,-0.21,0.49,-0.25,-0.96,0.15
0.0,0.0,0.0,0.0,0.0,0.0,0.0,5385,9761.40,0,0,0,-0.28,-0.28,0.35,-0.25,-0.96,0.15
0.0,0.0,0.0,0.0,0.0,0.0,0.0,5401,9761.40,0,0,165,-0.35,-0.21,0.56,-0.25,-0.96,0.15
0.0,0.0,0.0,0.0,0.0,0.0,0.0,5416,9760.50,0,0,0,-0.28,-0.28,0.70,-0.25,-0.96,0.15
0.0,0.0,0.0,0.0,0.0,0.0,0.0,5424,9761.40,0,0,165,-0.35,-0.21,0.70,-0.25,-0.96,0.15
0.0,0.0,0.0,0.0,0.0,0.0,0.0,5438,9762.40,0,0,0,-0.42,-0.21,0.63,-0.25,-0.96,0.15
0.0,0.0,0.0,0.0,0.0,0.0,0.0,5454,9762.40,0,0,165,-0.35,-0.21,0.63,-0.26,-0.96,0.15
0.0,0.0,0.0,0.0,0.0,0.0,0.0,5461,9762.40,0,0,0,-0.35,-0.28,0.70,-0.25,-0.96,0.15
0.0,0.0,0.0,0.0,0.0,0.0,0.0,5476,9761.40,0,0,165,-0.35,-0.35,0.70,-0.25,-0.96,0.15
0.0,0.0,0.0,0.0,0.0,0.0,0.0,5490,9760.50,0,0,0,-0.35,-0.28,0.70,-0.25,-0.96,0.15
0.0,0.0,0.0,0.0,0.0,0.0,0.0,5499,9761.40,0,0,165,-0.42,-0.28,0.70,-0.25,-0.96,0.15
0.0,0.0,0.0,0.0,0.0,0.0,0.0,5514,9762.70,0,0,0,-0.42,-0.28,0.70,-0.25,-0.96,0.15
0.0,0.0,0.0,0.0,0.0,0.0,0.0,5528,9762.40,0,0,165,-0.21,-0.28,0.70,-0.25,-0.96,0.15
0.0,0.0,0.0,0.0,0.0,0.0,0.0,5536,9762.40,0,0,0,-0.56,-0.28,0.70,-0.25,-0.96,0.15
0.0,0.0,0.0,0.0,0.0,0.0,0.0,5550,9761.40,0,0,165,-0.21,-0.28,0.56,-0.25,-0.96,0.15
0.0,0.0,0.0,0.0,0.0,0.0,0.0,5566,9761.40,0,0,0,-0.49,-0.21,0.77,-0.25,-0.96,0.15
0.0,0.0,0.0,0.0,0.0,0.0,0.0,5573,9762.70,0,0,165,-0.35,-0.28,0.70,-0.26,-0.96,0.15
0.0,0.0,0.0,0.0,0.0,0.0,0.0,5589,9761.40,0,0,0,-0.21,-0.35,0.56,-0.26,-0.96,0.15
0.0,0.0,0.0,0.0,0.0,0.0,0.0,5605,9761.40,0,0,165,-0.42,-0.35,0.70,-0.25,-0.96,0.15
0.0,0.0,0.0,0.0,0.0,0.0,0.0,5610,9761.70,0,0,0,-0.28,-0.28,0.63,-0.26,-0.96,0.15
0.0,0.0,0.0,0.0,0.0,0.0,0.0,5625,9762.70,0,0,165,-0.42,-0.28,0.63,-0.25,-0.96,0.15
0.0,0.0,0.0,0.0,0.0,0.0,0.0,5642,9761.40,0,0,0,-0.35,-0.35,0.63,-0.25,-0.96,0.15
0.0,0.0,0.0,0.0,0.0,0.0,0.0,5649,9761.70,0,0,165,-0.35,-0.28,0.56,-0.25,-0.96,0.15
0.0,0.0,0.0,0.0,0.0,0.0,0.0,5663,9761.40,0,0,0,-0.35,-0.28,0.63,-0.25,-0.96,0.15
0.0,0.0,0.0,0.0,0.0,0.0,0.0,5680,9761.40,0,0,165,-0.35,-0.28,0.56,-0.25,-0.96,0.15
0.0,0.0,0.0,0.0,0.0,0.0,0.0,5687,9762.40,0,0,0,-0.42,-0.35,0.77,-0.26,-0.96,0.15
0.0,0.0,0.0,0.0,0.0,0.0,0.0,5702,9762.70,0,0,165,-0.42,-0.28,0.56,-0.25,-0.96,0.15
0.0,0.0,0.0,0.0,0.0,0.0,0.0,5715,9761.70,0,0,0,-0.35,-0.28,0.63,-0.25,-0.96,0.15
0.0,0.0,0.0,0.0,0.0,0.0,0.0,5723,9761.40,0,0,165,-0.35,-0.35,0.56,-0.26,-0.96,0.15
0.0,0.0,0.0,0.0,0.0,0.0,0.0,5739,9762.40,0,0,0,-0.35,-0.21,0.63,-0.26,-0.96,0.15
0.0,0.0,0.0,0.0,0.0,0.0,0.0,5754,9762.70,0,0,165,-0.42,-0.28,0.70,-0.25,-0.96,0.15
0.0,0.0,0.0,0.0,0.0,0.0,0.0,5761,9762.40,0,0,0,-0.42,-0.28,0.56,-0.25,-0.96,0.15
0.0,0.0,0.0,0.0,0.0,0.0,0.0,5777,9761.70,0,0,165,-0.28,-0.21,0.63,-0.25,-0.96,0.15
0.0,0.0,0.0,0.0,0.0,0.0,0.0,5791,9762.70,0,0,0,-0.35,-0.21,0.56,-0.25,-0.96,0.15
0.0,0.0,0.0,0.0,0.0,0.0,0.0,5798,9762.40,0,0,165,-0.42,-0.28,0.56,-0.25,-0.96,0.15
0.0,0.0,0.0,0.0,0.0,0.0,0.0,5814,9762.40,0,0,0,-0.35,-0.21,0.42,-0.25,-0.96,0.15
0.0,0.0,0.0,0.0,0.0,0.0,0.0,5828,9761.40,0,0,165,-0.42,-0.28,0.63,-0.25,-0.96,0.15
0.0,0.0,0.0,0.0,0.0,0.0,0.0,5836,9761.70,0,0,0,-0.28,-0.28,0.42,-0.26,-0.96,0.15
0.0,0.0,0.0,0.0,0.0,0.0,0.0,5851,9761.40,0,0,165,-0.28,-0.28,0.49,-0.26,-0.96,0.15
0.0,0.0,0.0,0.0,0.0,0.0,0.0,5866,9762.40,0,0,0,-0.35,-0.28,0.56,-0.25,-0.96,0.15
0.0,0.0,0.0,0.0,0.0,0.0,0.0,5873,9762.40,0,0,165,-0.28,-0.21,0.63,-0.26,-0.96,0.15
0.0,0.0,0.0,0.0,0.0,0.0,0.0,5889,9762.40,0,0,0,-0.42,-0.35,0.63,-0.25,-0.96,0.15
0.0,0.0,0.0,0.0,0.0,0.0,0.0,5903,9762.40,0,0,165,-0.28,-0.28,0.56,-0.26,-0.96,0.15
0.0,0.0,0.0,0.0,0.0,0.0,0.0,5911,9761.40,0,0,0,-0.28,-0.28,0.56,-0.25,-0.96,0.15
0.0,0.0,0.0,0.0,0.0,0.0,0.0,5925,9761.40,0,0,165,-0.42,-0.21,0.63,-0.25,-0.96,0.15
0.0,0.0,0.0,0.0,0.0,0.0,0.0,5940,9762.40,0,0,0,-0.28,-0.28,0.49,-0.26,-0.96,0.15
0.0,0.0,0.0,0.0,0.0,0.0,0.0,5948,9761.40,0,0,165,-0.35,-0.28,0.42,-0.26,-0.96,0.15
0.0,0.0,0.0,0.0,0.0,0.0,0.0,5963,9761.70,0,0,0,-0.35,-0.28,0.63,-0.26,-0.96,0.15
0.0,0.0,0.0,0.0,0.0,0.0,0.0,5978,9762.40,0,0,165,-0.21,-0.28,0.63,-0.25,-0.96,0.15
0.0,0.0,0.0,0.0,0.0,0.0,0.0,5985,9762.40,0,0,0,-0.42,-0.28,0.70,-0.25,-0.96,0.15
0.0,0.0,0.0,0.0,0.0,0.0,0.0,6000,9762.40,0,0,165,-0.35,-0.28,0.70,-0.25,-0.96,0.15
0.0,0.0,0.0,0.0,0.0,0.0,0.0,6016,9761.40,0,0,0,-0.35,-0.35,0.56,-0.25,-0.96,0.15
0.0,0.0,0.0,0.0,0.0,0.0,0.0,6023,9761.40,0,0,165,-0.35,-0.21,0.63,-0.25,-0.96,0.15
0.0,0.0,0.0,0.0,0.0,0.0,0.0,6038,9762.40,0,0,0,-0.21,-0.28,0.63,-0.26,-0.96,0.15
0.0,0.0,0.0,0.0,0.0,0.0,0.0,6053,9762.40,0,0,165,-0.42,-0.28,0.63,-0.26,-0.96,0.15
0.0,0.0,0.0,0.0,0.0,0.0,0.0,6060,9761.40,0,0,0,-0.28,-0.21,0.56,-0.25,-0.96,0.15
0.0,0.0,0.0,0.0,0.0,0.0,0.0,6075,9763.60,0,0,165,-0.35,-0.35,0.56,-0.25,-0.96,0.15
0.0,0.0,0.0,0.0,0.0,0.0,0.0,6091,9761.70,0,0,0,-0.42,-0.28,0.56,-0.25,-0.96,0.15
0.0,0.0,0.0,0.0,0.0,0.0,0.0,6098,9761.40,0,0,165,-0.35,-0.21,0.49,-0.25,-0.96,0.15
0.0,0.0,0.0,0.0,0.0,0.0,0.0,6113,9762.70,0,0,0,-0.35,-0.28,0.56,-0.25,-0.96,0.15
0.0,0.0,0.0,0.0,0.0,0.0,0.0,6129,9762.40,0,0,165,-0.35,-0.21,0.42,-0.25,-0.96,0.15
0.0,0.0,0.0,0.0,0.0,0.0,0.0,6135,9762.40,0,0,0,-0.35,-0.21,0.42,-0.26,-0.96,0.15
0.0,0.0,0.0,0.0,0.0,0.0,0.0,6150,9761.40,0,0,165,-0.42,-0.35,0.49,-0.25,-0.96,0.15
0.0,0.0,0.0,0.0,0.0,0.0,0.0,6165,9761.70,0,0,0,-0.28,-0.28,0.56,-0.25,-0.96,0.15
0.0,0.0,0.0,0.0,0.0,0.0,0.0,6173,9762.40,0,0,165,-0.35,-0.28,0.63,-0.25,-0.96,0.15
0.0,0.0,0.0,0.0,0.0,0.0,0.0,6189,9761.70,0,0,0,-0.35,-0.35,0.70,-0.25,-0.96,0.15
0.0,0.0,0.0,0.0,0.0,0.0,0.0,6204,9761.40,0,0,165,-0.35,-0.28,0.49,-0.25,-0.96,0.15
0.0,0.0,0.0,0.0,0.0,0.0,0.0,6211,9761.40,0,0,0,-0.35,-0.21,0.56,-0.25,-0.96,0.15
0.0,0.0,0.0,0.0,0.0,0.0,0.0,6225,9761.40,0,0,165,-0.21,-0.21,0.63,-0.25,-0.96,0.15
0.0,0.0,0.0,0.0,0.0,0.0,0.0,6240,9762.70,0,0,0,-0.21,-0.28,0.56,-0.25,-0.96,0.15
0.0,0.0,0.0,0.0,0.0,0.0,0.0,6249,9761.70,0,0,165,-0.35,-0.21,0.56,-0.25,-0.96,0.15
0.0,0.0,0.0,0.0,0.0,0.0,0.0,6262,9761.40,0,0,0,-0.35,-0.28,0.63,-0.25,-0.96,0.15
0.0,0.0,0.0,0.0,0.0,0.0,0.0,6277,9761.40,0,0,165,-0.49,-0.28,0.77,-0.25,-0.96,0.15
0.0,0.0,0.0,0.0,0.0,0.0,0.0,6285,9762.40,0,0,0,-0.49,-0.28,0.84,-0.25,-0.96,0.15
0.0,0.0,0.0,0.0,0.0,0.0,0.0,6300,9762.70,0,0,165,-0.28,-0.35,0.77,-0.25,-0.96,0.15
0.0,0.0,0.0,0.0,0.0,0.0,0.0,6316,9762.40,0,0,0,-0.42,-0.28,0.84,-0.25,-0.96,0.15
0.0,0.0,0.0,0.0,0.0,0.0,0.0,6323,9762.40,0,0,165,-0.07,-0.21,0.63,-0.25,-0.96,0.15
0.0,0.0,0.0,0.0,0.0,0.0,0.0,6339,9761.40,0,0,0,-0.42,-0.21,0.63,-0.26,-0.96,0.15
0.0,0.0,0.0,0.0,0.0,0.0,0.0,6356,9761.70,0,0,165,-0.21,-0.28,0.77,-0.25,-0.96,0.15
0.0,0.0,0.0,0.0,0.0,0.0,0.0,6360,9762.40,0,0,0,-0.14,-0.28,1.05,-0.25,-0.96,0.15
0.0,0.0,0.0,0.0,0.0,0.0,0.0,6375,9762.40,0,0,165,-0.49,-0.28,1.19,-0.25,-0.96,0.15
1.1601562,9.439243E-4,0.0011121512,-6.6042785E-4,-0.26,-0.96,0.15,10402,9763.30,0,0,165,-0.35,-0.21,0.56,-0.26,-0.96,0.15
0.5605469,-5.6075398E-5,1.12150796E-4,3.395714E-4,-0.25,-0.96,0.15,10409,9762.70,0,0,0,-0.42,-0.28,0.63,-0.25,-0.96,0.15
0.2607422,9.439243E-4,1.12150796E-4,-0.001660428,-0.25,-0.96,0.15,10425,9762.40,0,0,165,-0.35,-0.28,0.49,-0.25,-0.96,0.15
0.2607422,0.001943924,1.12150796E-4,-0.001660428,-0.26,-0.96,0.15,10440,9762.40,0,0,0,-0.28,-0.28,0.49,-0.26,-0.96,0.15
1.1601562,9.439243E-4,0.0011121512,-6.6042785E-4,-0.26,-0.96,0.15,10448,9763.30,0,0,165,-0.35,-0.21,0.56,-0.26,-0.96,0.15
0.2607422,0.001943924,1.12150796E-4,-6.6042785E-4,-0.25,-0.96,0.15,10464,9762.40,0,0,0,-0.28,-0.28,0.56,-0.25,-0.96,0.15
-0.7392578,9.439243E-4,0.0011121512,-0.001660428,-0.25,-0.96,0.15,10477,9761.40,0,0,165,-0.35,-0.21,0.49,-0.25,-0.96,0.15
0.2607422,0.001943924,1.12150796E-4,-0.0036604283,-0.26,-0.96,0.15,10485,9762.40,0,0,0,-0.28,-0.28,0.35,-0.26,-0.96,0.15
0.2607422,9.439243E-4,-8.878489E-4,-0.001660428,-0.26,-0.96,0.15,10499,9762.40,0,0,165,-0.35,-0.35,0.49,-0.26,-0.96,0.15
0.2607422,-5.6075398E-5,1.12150796E-4,-0.0026604286,-0.25,-0.96,0.15,10514,9762.40,0,0,0,-0.42,-0.28,0.42,-0.25,-0.96,0.15
0.2607422,9.439243E-4,1.12150796E-4,-6.6042785E-4,-0.25,-0.96,0.15,10522,9762.40,0,0,165,-0.35,-0.28,0.56,-0.25,-0.96,0.15
0.2607422,-5.6075398E-5,0.0011121512,3.395714E-4,-0.26,-0.96,0.15,10537,9762.40,0,0,0,-0.42,-0.21,0.63,-0.26,-0.96,0.15
0.2607422,-5.6075398E-5,0.0011121512,-6.6042785E-4,-0.26,-0.96,0.15,10552,9762.40,0,0,165,-0.42,-0.21,0.56,-0.26,-0.96,0.15
0.2607422,0.001943924,1.12150796E-4,-0.001660428,-0.25,-0.96,0.15,10559,9762.40,0,0,0,-0.28,-0.28,0.49,-0.25,-0.96,0.15
1.1601562,-0.001056076,1.12150796E-4,3.395714E-4,-0.26,-0.96,0.15,10590,9763.30,0,0,165,-0.49,-0.28,0.63,-0.26,-0.96,0.15
0.2607422,-5.6075398E-5,1.12150796E-4,0.0013395716,-0.26,-0.96,0.15,10591,9762.40,0,0,0,-0.42,-0.28,0.70,-0.26,-0.96,0.15
0.2607422,9.439243E-4,-8.878489E-4,-6.6042785E-4,-0.26,-0.96,0.15,10597,9762.40,0,0,165,-0.35,-0.35,0.56,-0.26,-0.96,0.15
0.2607422,9.439243E-4,0.0011121512,-6.6042785E-4,-0.26,-0.96,0.15,10612,9762.40,0,0,0,-0.35,-0.21,0.56,-0.26,-0.96,0.15
0.2607422,9.439243E-4,1.12150796E-4,-0.001660428,-0.25,-0.96,0.15,10627,9762.40,0,0,165,-0.35,-0.28,0.49,-0.25,-0.96,0.15
0.2607422,9.439243E-4,1.12150796E-4,-6.6042785E-4,-0.26,-0.96,0.15,10634,9762.40,0,0,0,-0.35,-0.28,0.56,-0.26,-0.96,0.15
0.5605469,-5.6075398E-5,1.12150796E-4,3.395714E-4,-0.25,-0.96,0.15,10649,9762.70,0,0,165,-0.42,-0.28,0.63,-0.25,-0.96,0.15
0.2607422,9.439243E-4,-8.878489E-4,0.0013395716,-0.26,-0.96,0.15,10665,9762.40,0,0,0,-0.35,-0.35,0.70,-0.26,-0.96,0.15
0.2607422,-5.6075398E-5,-8.878489E-4,0.0013395716,-0.26,-0.96,0.15,10672,9762.40,0,0,165,-0.42,-0.35,0.70,-0.26,-0.96,0.15
0.2607422,-5.6075398E-5,0.0011121512,0.0013395716,-0.26,-0.96,0.15,10687,9762.40,0,0,0,-0.42,-0.21,0.70,-0.26,-0.96,0.15
0.2607422,-5.6075398E-5,-8.878489E-4,0.0013395716,-0.26,-0.96,0.15,10705,9762.40,0,0,165,-0.42,-0.35,0.70,-0.26,-0.96,0.15
0.2607422,-5.6075398E-5,-8.878489E-4,0.0023395717,-0.25,-0.96,0.15,10712,9762.40,0,0,0,-0.42,-0.35,0.77,-0.25,-0.96,0.15
-0.7392578,0.001943924,1.12150796E-4,3.395714E-4,-0.26,-0.96,0.15,10726,9761.40,0,0,165,-0.28,-0.28,0.63,-0.26,-0.96,0.15
0.2607422,-5.6075398E-5,0.0011121512,3.395714E-4,-0.25,-0.96,0.15,10740,9762.40,0,0,0,-0.42,-0.21,0.63,-0.25,-0.96,0.15
0.2607422,0.001943924,1.12150796E-4,-0.0026604286,-0.25,-0.96,0.15,10755,9762.40,0,0,165,-0.28,-0.28,0.42,-0.25,-0.96,0.15
0.2607422,0.004943924,-8.878489E-4,-0.001660428,-0.26,-0.96,0.15,10763,9762.40,0,0,0,-0.07,-0.35,0.49,-0.26,-0.96,0.15
0.2607422,-0.001056076,0.0011121512,-0.001660428,-0.26,-0.96,0.15,10779,9762.40,0,0,165,-0.49,-0.21,0.49,-0.26,-0.96,0.15
0.2607422,0.003943924,0.0011121512,-0.0056604287,-0.25,-0.96,0.15,10788,9762.40,0,0,0,-0.14,-0.21,0.21,-0.25,-0.96,0.15
1.4599609,0.001943924,1.12150796E-4,-0.0026604286,-0.25,-0.96,0.15,10799,9763.60,0,0,165,-0.28,-0.28,0.42,-0.25,-0.96,0.15
1.1601562,-5.6075398E-5,1.12150796E-4,3.395714E-4,-0.25,-0.96,0.15,10816,9763.30,0,0,0,-0.42,-0.28,0.63,-0.25,-0.96,0.15
0.2607422,0.001943924,1.12150796E-4,3.395714E-4,-0.25,-0.96,0.15,10827,9762.40,0,0,165,-0.28,-0.28,0.63,-0.25,-0.96,0.15
0.2607422,-5.6075398E-5,1.12150796E-4,0.0013395716,-0.26,-0.96,0.15,10840,9762.40,0,0,0,-0.42,-0.28,0.70,-0.26,-0.96,0.15
0.5605469,0.0029439244,1.12150796E-4,0.0023395717,-0.26,-0.96,0.15,10852,9762.70,0,0,165,-0.21,-0.28,0.77,-0.26,-0.96,0.15
0.2607422,9.439243E-4,0.002112151,-6.6042785E-4,-0.26,-0.96,0.15,10859,9762.40,0,0,0,-0.35,-0.14,0.56,-0.26,-0.96,0.15
0.2607422,0.001943924,0.0011121512,-0.0036604283,-0.26,-0.96,0.15,10874,9762.40,0,0,165,-0.28,-0.21,0.35,-0.26,-0.96,0.15
0.2607422,0.0029439244,1.12150796E-4,-0.0036604283,-0.26,-0.96,0.15,10889,9762.40,0,0,0,-0.21,-0.28,0.35,-0.26,-0.96,0.15
0.2607422,0.001943924,1.12150796E-4,-0.0026604286,-0.26,-0.96,0.15,10901,9762.40,0,0,165,-0.28,-0.28,0.42,-0.26,-0.96,0.15
0.2607422,0.001943924,-8.878489E-4,-0.001660428,-0.25,-0.96,0.15,10912,9762.40,0,0,0,-0.28,-0.35,0.49,-0.25,-0.96,0.15
0.2607422,0.001943924,0.0011121512,-0.0026604286,-0.25,-0.96,0.15,10929,9762.40,0,0,165,-0.28,-0.21,0.42,-0.25,-0.96,0.15
0.2607422,9.439243E-4,1.12150796E-4,-0.001660428,-0.25,-0.96,0.15,10935,9762.40,0,0,0,-0.35,-0.28,0.49,-0.25,-0.96,0.15
0.5605469,9.439243E-4,1.12150796E-4,-0.001660428,-0.25,-0.96,0.15,10956,9762.70,0,0,165,-0.35,-0.28,0.49,-0.25,-0.96,0.15
1.1601562,-5.6075398E-5,-8.878489E-4,-0.001660428,-0.25,-0.96,0.15,10965,9763.30,0,0,0,-0.42,-0.35,0.49,-0.25,-0.96,0.15
0.2607422,9.439243E-4,0.002112151,-0.0026604286,-0.25,-0.96,0.15,10973,9762.40,0,0,165,-0.35,-0.14,0.42,-0.25,-0.96,0.15
0.2607422,0.001943924,1.12150796E-4,-0.0026604286,-0.26,-0.96,0.15,10988,9762.40,0,0,0,-0.28,-0.28,0.42,-0.26,-0.96,0.15
0.2607422,-5.6075398E-5,0.0011121512,-6.6042785E-4,-0.26,-0.96,0.15,11002,9762.40,0,0,165,-0.42,-0.21,0.56,-0.26,-0.96,0.15
-0.7392578,9.439243E-4,-8.878489E-4,3.395714E-4,-0.25,-0.96,0.15,11010,9761.40,0,0,0,-0.35,-0.35,0.63,-0.25,-0.96,0.15
0.2607422,9.439243E-4,0.0011121512,3.395714E-4,-0.25,-0.96,0.15,11024,9762.40,0,0,165,-0.35,-0.21,0.63,-0.25,-0.96,0.15
0.2607422,-5.6075398E-5,0.0011121512,0.0013395716,-0.25,-0.96,0.15,11039,9762.40,0,0,0,-0.42,-0.21,0.70,-0.25,-0.96,0.15
0.2607422,9.439243E-4,1.12150796E-4,0.0013395716,-0.25,-0.96,0.15,11046,9762.40,0,0,165,-0.35,-0.28,0.70,-0.25,-0.96,0.15
0.2607422,-5.6075398E-5,1.12150796E-4,0.0023395717,-0.25,-0.96,0.15,11062,9762.40,0,0,0,-0.42,-0.28,0.77,-0.25,-0.96,0.15
0.2607422,-5.6075398E-5,1.12150796E-4,0.0023395717,-0.25,-0.96,0.15,11081,9762.40,0,0,165,-0.42,-0.28,0.77,-0.25,-0.96,0.15
0.2607422,9.439243E-4,-8.878489E-4,0.0023395717,-0.26,-0.96,0.15,11086,9762.40,0,0,0,-0.35,-0.35,0.77,-0.26,-0.96,0.15
0.2607422,9.439243E-4,1.12150796E-4,0.0013395716,-0.25,-0.96,0.15,11099,9762.40,0,0,165,-0.35,-0.28,0.70,-0.25,-0.96,0.15
0.2607422,-5.6075398E-5,0.0011121512,0.0013395716,-0.25,-0.96,0.15,11114,9762.40,0,0,0,-0.42,-0.21,0.70,-0.25,-0.96,0.15
0.2607422,9.439243E-4,1.12150796E-4,0.0013395716,-0.26,-0.96,0.15,11122,9762.40,0,0,165,-0.35,-0.28,0.70,-0.26,-0.96,0.15
0.2607422,9.439243E-4,0.0011121512,3.395714E-4,-0.26,-0.96,0.15,11137,9762.40,0,0,0,-0.35,-0.21,0.63,-0.26,-0.96,0.15
-0.7392578,9.439243E-4,0.0011121512,3.395714E-4,-0.26,-0.96,0.15,11151,9761.40,0,0,165,-0.35,-0.21,0.63,-0.26,-0.96,0.15
0.2607422,-5.6075398E-5,1.12150796E-4,-6.6042785E-4,-0.25,-0.96,0.15,11159,9762.40,0,0,0,-0.42,-0.28,0.56,-0.25,-0.96,0.15
0.2607422,0.001943924,1.12150796E-4,0.0013395716,-0.26,-0.96,0.15,11174,9762.40,0,0,165,-0.28,-0.28,0.70,-0.26,-0.96,0.15
0.2607422,9.439243E-4,-8.878489E-4,-6.6042785E-4,-0.25,-0.96,0.15,11190,9762.40,0,0,0,-0.35,-0.35,0.56,-0.25,-0.96,0.15
0.2607422,9.439243E-4,-8.878489E-4,0.0013395716,-0.25,-0.96,0.15,11197,9762.40,0,0,165,-0.35,-0.35,0.70,-0.25,-0.96,0.15
-0.7392578,9.439243E-4,1.12150796E-4,0.0013395716,-0.25,-0.96,0.15,11212,9761.40,0,0,0,-0.35,-0.28,0.70,-0.25,-0.96,0.15
1.1601562,-5.6075398E-5,1.12150796E-4,3.395714E-4,-0.26,-0.96,0.15,11227,9763.30,0,0,165,-0.42,-0.28,0.63,-0.26,-0.96,0.15
0.2607422,9.439243E-4,0.0011121512,3.395714E-4,-0.26,-0.96,0.15,11235,9762.40,0,0,0,-0.35,-0.21,0.63,-0.26,-0.96,0.15
0.2607422,0.0029439244,0.0011121512,-6.6042785E-4,-0.26,-0.96,0.15,11250,9762.40,0,0,165,-0.21,-0.21,0.56,-0.26,-0.96,0.15
1.1601562,-5.6075398E-5,1.12150796E-4,0.0013395716,-0.25,-0.96,0.15,11265,9763.30,0,0,0,-0.42,-0.28,0.70,-0.25,-0.96,0.15
0.2607422,0.001943924,0.0011121512,3.395714E-4,-0.25,-0.96,0.15,11273,9762.40,0,0,165,-0.28,-0.21,0.63,-0.25,-0.96,0.15
0.2607422,0.001943924,0.0011121512,-6.6042785E-4,-0.25,-0.96,0.15,11288,9762.40,0,0,0,-0.28,-0.21,0.56,-0.25,-0.96,0.15
0.2607422,-5.6075398E-5,0.0011121512,3.395714E-4,-0.26,-0.96,0.15,11303,9762.40,0,0,165,-0.42,-0.21,0.63,-0.26,-0.96,0.15
0.2607422,0.001943924,1.12150796E-4,0.0013395716,-0.26,-0.96,0.15,11310,9762.40,0,0,0,-0.28,-0.28,0.70,-0.26,-0.96,0.15
0.2607422,-5.6075398E-5,1.12150796E-4,3.395714E-4,-0.26,-0.96,0.15,11334,9762.40,0,0,165,-0.42,-0.28,0.63,-0.26,-0.96,0.15
0.2607422,0.001943924,1.12150796E-4,0.0013395716,-0.25,-0.96,0.15,11340,9762.40,0,0,0,-0.28,-0.28,0.70,-0.25,-0.96,0.15
0.2607422,9.439243E-4,1.12150796E-4,3.395714E-4,-0.25,-0.96,0.15,11347,9762.40,0,0,165,-0.35,-0.28,0.63,-0.25,-0.96,0.15
0.2607422,9.439243E-4,0.0011121512,0.0013395716,-0.25,-0.96,0.15,11362,9762.40,0,0,0,-0.35,-0.21,0.70,-0.25,-0.96,0.15
0.2607422,0.0029439244,1.12150796E-4,-6.6042785E-4,-0.26,-0.96,0.15,11370,9762.40,0,0,165,-0.21,-0.28,0.56,-0.26,-0.96,0.15
0.2607422,-5.6075398E-5,-8.878489E-4,3.395714E-4,-0.25,-0.96,0.15,11385,9762.40,0,0,0,-0.42,-0.35,0.63,-0.25,-0.96,0.15
0.2607422,0.001943924,0.0011121512,3.395714E-4,-0.25,-0.96,0.15,11400,9762.40,0,0,165,-0.28,-0.21,0.63,-0.25,-0.96,0.15
0.2607422,0.001943924,1.12150796E-4,-0.001660428,-0.25,-0.96,0.15,11407,9762.40,0,0,0,-0.28,-0.28,0.49,-0.25,-0.96,0.15
0.2607422,-5.6075398E-5,1.12150796E-4,3.395714E-4,-0.26,-0.96,0.15,11422,9762.40,0,0,165,-0.42,-0.28,0.63,-0.26,-0.96,0.15
0.2607422,0.001943924,0.0011121512,-6.6042785E-4,-0.26,-0.96,0.15,11437,9762.40,0,0,0,-0.28,-0.21,0.56,-0.26,-0.96,0.15
0.2607422,-5.6075398E-5,0.0011121512,-6.6042785E-4,-0.26,-0.96,0.15,11444,9762.40,0,0,165,-0.42,-0.21,0.56,-0.26,-0.96,0.15
0.5605469,9.439243E-4,0.0011121512,-0.001660428,-0.25,-0.96,0.15,11459,9762.70,0,0,0,-0.35,-0.21,0.49,-0.25,-0.96,0.15
0.2607422,9.439243E-4,-8.878489E-4,-0.001660428,-0.26,-0.96,0.15,11474,9762.40,0,0,165,-0.35,-0.35,0.49,-0.26,-0.96,0.15
0.2607422,0.001943924,0.0011121512,-0.0026604286,-0.25,-0.96,0.15,11482,9762.40,0,0,0,-0.28,-0.21,0.42,-0.25,-0.96,0.15
0.2607422,9.439243E-4,1.12150796E-4,-0.0026604286,-0.25,-0.96,0.15,11497,9762.40,0,0,165,-0.35,-0.28,0.42,-0.25,-0.96,0.15
0.2607422,9.439243E-4,1.12150796E-4,-0.001660428,-0.26,-0.96,0.15,11512,9762.40,0,0,0,-0.35,-0.28,0.49,-0.26,-0.96,0.15
0.2607422,0.001943924,-8.878489E-4,-6.6042785E-4,-0.25,-0.96,0.15,11519,9762.40,0,0,165,-0.28,-0.35,0.56,-0.25,-0.96,0.15
0.2607422,0.001943924,1.12150796E-4,3.395714E-4,-0.26,-0.96,0.15,11535,9762.40,0,0,0,-0.28,-0.28,0.63,-0.26,-0.96,0.15
0.2607422,9.439243E-4,1.12150796E-4,0.0013395716,-0.25,-0.96,0.15,11549,9762.40,0,0,165,-0.35,-0.28,0.70,-0.25,-0.96,0.15
0.2607422,-5.6075398E-5,1.12150796E-4,0.0013395716,-0.25,-0.96,0.15,11557,9762.40,0,0,0,-0.42,-0.28,0.70,-0.25,-0.96,0.15
0.2607422,0.0029439244,0.0011121512,-0.001660428,-0.26,-0.96,0.15,11572,9762.40,0,0,165,-0.21,-0.21,0.49,-0.26,-0.96,0.15
0.2607422,-0.001056076,0.0011121512,-0.001660428,-0.25,-0.96,0.15,11586,9762.40,0,0,0,-0.49,-0.21,0.49,-0.25,-0.96,0.15
-0.43945312,0.001943924,1.12150796E-4,-6.6042785E-4,-0.25,-0.96,0.15,11595,9761.70,0,0,165,-0.28,-0.28,0.56,-0.25,-0.96,0.15
1.1601562,0.001943924,1.12150796E-4,-0.001660428,-0.26,-0.96,0.15,11610,9763.30,0,0,0,-0.28,-0.28,0.49,-0.26,-0.96,0.15
0.2607422,0.001943924,0.0011121512,-6.6042785E-4,-0.25,-0.96,0.15,11625,9762.40,0,0,165,-0.28,-0.21,0.56,-0.25,-0.96,0.15
0.2607422,0.001943924,1.12150796E-4,-6.6042785E-4,-0.25,-0.96,0.15,11631,9762.40,0,0,0,-0.28,-0.28,0.56,-0.25,-0.96,0.15
0.2607422,-0.001056076,-8.878489E-4,-6.6042785E-4,-0.26,-0.96,0.15,11647,9762.40,0,0,165,-0.49,-0.35,0.56,-0.26,-0.96,0.15
0.2607422,0.001943924,-8.878489E-4,-0.001660428,-0.26,-0.96,0.15,11662,9762.40,0,0,0,-0.28,-0.35,0.49,-0.26,-0.96,0.15
0.2607422,9.439243E-4,0.0011121512,3.395714E-4,-0.26,-0.96,0.15,11670,9762.40,0,0,165,-0.35,-0.21,0.63,-0.26,-0.96,0.15
0.2607422,9.439243E-4,0.0011121512,0.003339571,-0.25,-0.96,0.15,11684,9762.40,0,0,0,-0.35,-0.21,0.84,-0.25,-0.96,0.15
0.2607422,9.439243E-4,-8.878489E-4,0.0023395717,-0.25,-0.96,0.15,11699,9762.40,0,0,165,-0.35,-0.35,0.77,-0.25,-0.96,0.15
0.2607422,-5.6075398E-5,0.0011121512,3.395714E-4,-0.26,-0.96,0.15,11707,9762.40,0,0,0,-0.42,-0.21,0.63,-0.26,-0.96,0.15
0.2607422,0.001943924,0.0011121512,3.395714E-4,-0.25,-0.96,0.15,11722,9762.40,0,0,165,-0.28,-0.21,0.63,-0.25,-0.96,0.15
0.2607422,9.439243E-4,1.12150796E-4,3.395714E-4,-0.26,-0.96,0.15,11737,9762.40,0,0,0,-0.35,-0.28,0.63,-0.26,-0.96,0.15
0.2607422,9.439243E-4,0.002112151,3.395714E-4,-0.25,-0.96,0.15,11745,9762.40,0,0,165,-0.35,-0.14,0.63,-0.25,-0.96,0.15
0.2607422,0.0029439244,0.0011121512,-0.001660428,-0.26,-0.96,0.15,11760,9762.40,0,0,0,-0.21,-0.21,0.49,-0.26,-0.96,0.15
0.2607422,9.439243E-4,1.12150796E-4,-0.0036604283,-0.26,-0.96,0.15,11774,9762.40,0,0,165,-0.35,-0.28,0.35,-0.26,-0.96,0.15
0.2607422,0.0029439244,0.0011121512,-0.001660428,-0.25,-0.96,0.15,11782,9762.40,0,0,0,-0.21,-0.21,0.49,-0.25,-0.96,0.15
0.2607422,0.001943924,0.0011121512,-0.001660428,-0.25,-0.96,0.15,11797,9762.40,0,0,165,-0.28,-0.21,0.49,-0.25,-0.96,0.15
1.1601562,-5.6075398E-5,0.0011121512,-0.0026604286,-0.26,-0.96,0.15,11812,9763.30,0,0,0,-0.42,-0.21,0.42,-0.26,-0.96,0.15
0.2607422,9.439243E-4,0.0011121512,3.395714E-4,-0.26,-0.96,0.15,11820,9762.40,0,0,165,-0.35,-0.21,0.63,-0.26,-0.96,0.15
0.5605469,0.0029439244,0.0011121512,-0.001660428,-0.25,-0.96,0.15,11834,9762.70,0,0,0,-0.21,-0.21,0.49,-0.25,-0.96,0.15
0.2607422,9.439243E-4,1.12150796E-4,-0.001660428,-0.26,-0.96,0.15,11849,9762.40,0,0,165,-0.35,-0.28,0.49,-0.26,-0.96,0.15
0.2607422,0.0029439244,0.0011121512,-0.001660428,-0.26,-0.96,0.15,11857,9762.40,0,0,0,-0.21,-0.21,0.49,-0.26,-0.96,0.15
0.2607422,-0.001056076,1.12150796E-4,3.395714E-4,-0.25,-0.96,0.15,11871,9762.40,0,0,165,-0.49,-0.28,0.63,-0.25,-0.96,0.15
0.2607422,9.439243E-4,1.12150796E-4,3.395714E-4,-0.25,-0.96,0.15,11887,9762.40,0,0,0,-0.35,-0.28,0.63,-0.25,-0.96,0.15
0.2607422,9.439243E-4,0.0011121512,0.0013395716,-0.25,-0.96,0.15,11894,9762.40,0,0,165,-0.35,-0.21,0.70,-0.25,-0.96,0.15
0.2607422,-5.6075398E-5,1.12150796E-4,0.0013395716,-0.26,-0.96,0.15,11909,9762.40,0,0,0,-0.42,-0.28,0.70,-0.26,-0.96,0.15
1.1601562,9.439243E-4,0.0011121512,0.0023395717,-0.25,-0.96,0.15,11924,9763.30,0,0,165,-0.35,-0.21,0.77,-0.25,-0.96,0.15
0.5605469,9.439243E-4,-8.878489E-4,3.395714E-4,-0.25,-0.96,0.15,11932,9762.70,0,0,0,-0.35,-0.35,0.63,-0.25,-0.96,0.15
0.2607422,0.0029439244,1.12150796E-4,3.395714E-4,-0.26,-0.96,0.15,11947,9762.40,0,0,165,-0.21,-0.28,0.63,-0.26,-0.96,0.15
-0.7392578,-0.0020560762,0.002112151,-0.001660428,-0.25,-0.96,0.15,11962,9761.40,0,0,0,-0.56,-0.14,0.49,-0.25,-0.96,0.15
0.2607422,0.0069439244,1.12150796E-4,-6.6042785E-4,-0.25,-0.96,0.15,11971,9762.40,0,0,165,0.07,-0.28,0.56,-0.25,-0.96,0.15
0.86035156,-0.0030560754,0.002112151,-6.6042785E-4,-0.25,-0.96,0.15,11984,9763.00,0,0,0,-0.63,-0.14,0.56,-0.25,-0.96,0.15
0.2607422,0.004943924,1.12150796E-4,-6.6042785E-4,-0.25,-0.96,0.15,11999,9762.40,0,0,165,-0.07,-0.28,0.56,-0.25,-0.96,0.15
0.2607422,-0.001056076,1.12150796E-4,-6.6042785E-4,-0.25,-0.96,0.15,12007,9762.40,0,0,0,-0.49,-0.28,0.56,-0.25,-0.96,0.15
0.86035156,0.0029439244,0.0011121512,0.0013395716,-0.26,-0.96,0.15,12022,9763.00,0,0,165,-0.21,-0.21,0.70,-0.26,-0.96,0.15
2.1601562,0.0029439244,1.12150796E-4,-0.0036604283,-0.26,-0.96,0.16,12038,9764.30,0,0,0,-0.21,-0.28,0.35,-0.26,-0.96,0.16
0.2607422,-5.6075398E-5,0.0011121512,-0.001660428,-0.25,-0.96,0.15,12045,9762.40,0,0,165,-0.42,-0.21,0.49,-0.25,-0.96,0.15
0.2607422,0.001943924,0.002112151,0.0013395716,-0.25,-0.96,0.15,12060,9762.40,0,0,0,-0.28,-0.14,0.70,-0.25,-0.96,0.15
0.2607422,9.439243E-4,0.0011121512,0.0023395717,-0.25,-0.96,0.15,12074,9762.40,0,0,165,-0.35,-0.21,0.77,-0.25,-0.96,0.15
0.2607422,9.439243E-4,1.12150796E-4,0.005339572,-0.25,-0.96,0.15,12082,9762.40,0,0,0,-0.35,-0.28,0.98,-0.25,-0.96,0.15
0.2607422,-0.001056076,0.0011121512,0.004339572,-0.25,-0.96,0.15,12096,9762.40,0,0,165,-0.49,-0.21,0.91,-0.25,-0.96,0.15
0.2607422,-5.6075398E-5,-8.878489E-4,0.010339573,-0.26,-0.96,0.15,12111,9762.40,0,0,0,-0.42,-0.35,1.33,-0.26,-0.96,0.15
0.2607422,-0.001056076,-8.878489E-4,0.0123395715,-0.26,-0.96,0.15,12119,9762.40,0,0,165,-0.49,-0.35,1.47,-0.26,-0.96,0.15
0.2607422,-5.6075398E-5,1.12150796E-4,0.005339572,-0.26,-0.96,0.15,12135,9762.40,0,0,0,-0.42,-0.28,0.98,-0.26,-0.96,0.15
0.2607422,-0.001056076,-8.878489E-4,0.004339572,-0.25,-0.96,0.15,12151,9762.40,0,0,165,-0.49,-0.35,0.91,-0.25,-0.96,0.15
0.2607422,9.439243E-4,-8.878489E-4,0.009339571,-0.25,-0.96,0.15,12158,9762.40,0,0,0,-0.35,-0.35,1.26,-0.25,-0.96,0.15
0.2607422,-0.0020560762,-0.0018878486,0.014339572,-0.25,-0.96,0.15,12172,9762.40,0,0,165,-0.56,-0.42,1.61,-0.25,-0.96,0.15
0.2607422,0.001943924,-0.0018878486,0.016339572,-0.26,-0.96,0.15,12187,9762.40,0,0,0,-0.28,-0.42,1.75,-0.26,-0.96,0.15
0.2607422,-0.001056076,-8.878489E-4,0.0123395715,-0.26,-0.96,0.15,12194,9762.40,0,0,165,-0.49,-0.35,1.47,-0.26,-0.96,0.15
0.2607422,-5.6075398E-5,1.12150796E-4,0.004339572,-0.26,-0.96,0.15,12209,9762.40,0,0,0,-0.42,-0.28,0.91,-0.26,-0.96,0.15
0.2607422,-5.6075398E-5,1.12150796E-4,0.004339572,-0.26,-0.96,0.15,12224,9762.40,0,0,165,-0.42,-0.28,0.91,-0.26,-0.96,0.15
0.2607422,-5.6075398E-5,1.12150796E-4,0.005339572,-0.25,-0.96,0.15,12231,9762.40,0,0,0,-0.42,-0.28,0.98,-0.25,-0.96,0.15
1.1601562,-5.6075398E-5,-8.878489E-4,0.008339573,-0.25,-0.96,0.15,12247,9763.30,0,0,165,-0.42,-0.35,1.19,-0.25,-0.96,0.15
0.2607422,0.0079439245,-0.00888785,-0.006660428,-0.25,-0.96,0.16,12261,9762.40,0,0,0,0.14,-0.91,0.14,-0.25,-0.96,0.16
0.2607422,-0.026056077,-0.0018878486,0.016339572,-0.25,-0.96,0.15,12269,9762.40,0,0,165,-2.24,-0.42,1.75,-0.25,-0.96,0.15
1.1601562,0.015943924,-0.005887849,0.0013395716,-0.26,-0.97,0.16,12285,9763.30,0,0,0,0.70,-0.70,0.70,-0.26,-0.97,0.16
1.1601562,-0.013056077,0.0011121512,0.0023395717,-0.26,-0.96,0.14,12299,9763.30,0,0,165,-1.33,-0.21,0.77,-0.26,-0.96,0.14
1.1601562,0.0069439244,-0.0028878492,0.0063395714,-0.26,-0.96,0.16,12306,9763.30,0,0,0,0.07,-0.49,1.05,-0.26,-0.96,0.16
0.2607422,-0.006056075,1.12150796E-4,0.004339572,-0.25,-0.96,0.15,12322,9762.40,0,0,165,-0.84,-0.28,0.91,-0.25,-0.96,0.15
0.2607422,9.439243E-4,1.12150796E-4,0.0023395717,-0.26,-0.96,0.15,12337,9762.40,0,0,0,-0.35,-0.28,0.77,-0.26,-0.96,0.15
0.2607422,-5.6075398E-5,-8.878489E-4,0.004339572,-0.25,-0.96,0.15,12345,9762.40,0,0,165,-0.42,-0.35,0.91,-0.25,-0.96,0.15
0.2607422,-5.6075398E-5,-8.878489E-4,0.0013395716,-0.26,-0.96,0.15,12360,9762.40,0,0,0,-0.42,-0.35,0.70,-0.26,-0.96,0.15
0.2607422,-5.6075398E-5,-8.878489E-4,0.0023395717,-0.25,-0.96,0.15,12375,9762.40,0,0,165,-0.42,-0.35,0.77,-0.25,-0.96,0.15
0.2607422,9.439243E-4,-8.878489E-4,0.004339572,-0.26,-0.96,0.15,12382,9762.40,0,0,0,-0.35,-0.35,0.91,-0.26,-0.96,0.15
1.1601562,-5.6075398E-5,-8.878489E-4,0.005339572,-0.26,-0.96,0.15,12396,9763.30,0,0,165,-0.42,-0.35,0.98,-0.26,-0.96,0.15
2.1601562,9.439243E-4,-0.0018878486,-0.0056604287,-0.26,-0.95,0.15,12411,9764.30,0,0,0,-0.35,-0.42,0.21,-0.26,-0.95,0.15
0.2607422,-0.0030560754,0.004112151,-0.0026604286,-0.25,-0.96,0.15,12419,9762.40,0,0,165,-0.63,0.00,0.42,-0.25,-0.96,0.15
0.2607422,0.008943924,-8.878489E-4,-6.6042785E-4,-0.25,-0.96,0.16,12435,9762.40,0,0,0,0.21,-0.35,0.56,-0.25,-0.96,0.16
0.2607422,-0.0020560762,1.12150796E-4,0.005339572,-0.25,-0.97,0.15,12450,9762.40,0,0,165,-0.56,-0.28,0.98,-0.25,-0.97,0.15
0.2607422,0.0069439244,1.12150796E-4,0.003339571,-0.25,-0.97,0.15,12458,9762.40,0,0,0,0.07,-0.28,0.84,-0.25,-0.97,0.15
1.4599609,0.001943924,0.0031121508,-0.008660428,-0.26,-0.95,0.15,12472,9763.60,0,0,165,-0.28,-0.07,0.00,-0.26,-0.95,0.15
0.2607422,0.005943924,0.004112151,-0.020660426,-0.26,-0.96,0.15,12480,9762.40,0,0,0,0.00,0.00,-0.84,-0.26,-0.96,0.15
-0.7392578,9.439243E-4,0.005112151,-0.024660429,-0.26,-0.96,0.15,12495,9761.40,0,0,165,-0.35,0.07,-1.12,-0.26,-0.96,0.15
0.2607422,0.0069439244,0.004112151,-0.02766043,-0.26,-0.96,0.15,12509,9762.40,0,0,0,0.07,0.00,-1.33,-0.26,-0.96,0.15
0.2607422,-0.001056076,0.005112151,-0.02766043,-0.25,-0.96,0.15,12517,9762.40,0,0,165,-0.49,0.07,-1.33,-0.25,-0.96,0.15
0.2607422,0.003943924,0.006112151,-0.032660425,-0.25,-0.97,0.15,12532,9762.40,0,0,0,-0.14,0.14,-1.68,-0.25,-0.97,0.15
1.1601562,0.0029439244,0.005112151,-0.02766043,-0.25,-0.96,0.15,12546,9763.30,0,0,165,-0.21,0.07,-1.33,-0.25,-0.96,0.15
0.2607422,0.003943924,0.005112151,-0.02766043,-0.26,-0.96,0.15,12555,9762.40,0,0,0,-0.14,0.07,-1.33,-0.26,-0.96,0.15
0.2607422,0.001943924,0.005112151,-0.028660428,-0.25,-0.96,0.15,12570,9762.40,0,0,165,-0.28,0.07,-1.40,-0.25,-0.96,0.15
0.2607422,0.003943924,0.0031121508,-0.019660428,-0.26,-0.96,0.15,12585,9762.40,0,0,0,-0.14,-0.07,-0.77,-0.26,-0.96,0.15
0.2607422,9.439243E-4,0.002112151,-0.011660428,-0.25,-0.96,0.15,12591,9762.40,0,0,165,-0.35,-0.14,-0.21,-0.25,-0.96,0.15
0.5605469,0.001943924,0.002112151,-0.007660428,-0.25,-0.96,0.15,12607,9762.70,0,0,0,-0.28,-0.14,0.07,-0.25,-0.96,0.15
0.2607422,-0.001056076,1.12150796E-4,-0.0036604283,-0.25,-0.96,0.15,12621,9762.40,0,0,165,-0.49,-0.28,0.35,-0.25,-0.96,0.15
0.2607422,0.001943924,0.002112151,-0.0056604287,-0.25,-0.96,0.15,12629,9762.40,0,0,0,-0.28,-0.14,0.21,-0.25,-0.96,0.15
0.2607422,-5.6075398E-5,1.12150796E-4,3.395714E-4,-0.25,-0.96,0.15,12644,9762.40,0,0,165,-0.42,-0.28,0.63,-0.25,-0.96,0.15
1.1601562,9.439243E-4,0.0011121512,-0.004660428,-0.26,-0.96,0.15,12659,9763.30,0,0,0,-0.35,-0.21,0.28,-0.26,-0.96,0.15
0.2607422,-5.6075398E-5,0.0031121508,-0.006660428,-0.26,-0.96,0.15,12667,9762.40,0,0,165,-0.42,-0.07,0.14,-0.26,-0.96,0.15
0.2607422,-0.001056076,0.0011121512,-0.0036604283,-0.25,-0.96,0.15,12681,9762.40,0,0,0,-0.49,-0.21,0.35,-0.25,-0.96,0.15
-0.7392578,9.439243E-4,0.0011121512,-0.011660428,-0.25,-0.96,0.15,12697,9761.40,0,0,165,-0.35,-0.21,-0.21,-0.25,-0.96,0.15
1.1601562,-0.0020560762,0.0031121508,-0.010660429,-0.25,-0.96,0.15,12704,9763.30,0,0,0,-0.56,-0.07,-0.14,-0.25,-0.96,0.15
-0.13964844,0.001943924,0.0011121512,-0.010660429,-0.26,-0.96,0.15,12719,9762.00,0,0,165,-0.28,-0.21,-0.14,-0.26,-0.96,0.15
1.1601562,-5.6075398E-5,0.002112151,-0.011660428,-0.25,-0.96,0.15,12734,9763.30,0,0,0,-0.42,-0.14,-0.21,-0.25,-0.96,0.15
0.2607422,-5.6075398E-5,0.0011121512,-0.007660428,-0.25,-0.96,0.15,12749,9762.40,0,0,165,-0.42,-0.21,0.07,-0.25,-0.96,0.15
0.2607422,0.0029439244,0.0011121512,-0.0056604287,-0.25,-0.96,0.15,12757,9762.40,0,0,0,-0.21,-0.21,0.21,-0.25,-0.96,0.15
0.2607422,0.001943924,0.0011121512,-0.006660428,-0.26,-0.96,0.15,12772,9762.40,0,0,165,-0.28,-0.21,0.14,-0.26,-0.96,0.15
0.2607422,9.439243E-4,0.0011121512,-0.0036604283,-0.25,-0.96,0.15,12779,9762.40,0,0,0,-0.35,-0.21,0.35,-0.25,-0.96,0.15
1.1601562,0.0029439244,0.0011121512,-0.0036604283,-0.25,-0.96,0.15,12794,9763.30,0,0,165,-0.21,-0.21,0.35,-0.25,-0.96,0.15
1.1601562,9.439243E-4,-8.878489E-4,3.395714E-4,-0.25,-0.96,0.15,12809,9763.30,0,0,0,-0.35,-0.35,0.63,-0.25,-0.96,0.15
0.2607422,0.0029439244,0.0011121512,-0.007660428,-0.25,-0.96,0.15,12818,9762.40,0,0,165,-0.21,-0.21,0.07,-0.25,-0.96,0.15
0.2607422,0.001943924,0.0011121512,-0.006660428,-0.25,-0.96,0.15,12831,9762.40,0,0,0,-0.28,-0.21,0.14,-0.25,-0.96,0.15
-0.13964844,9.439243E-4,1.12150796E-4,-0.0026604286,-0.25,-0.96,0.15,12846,9762.00,0,0,165,-0.35,-0.28,0.42,-0.25,-0.96,0.15
0.2607422,0.0029439244,0.0011121512,-0.006660428,-0.25,-0.96,0.15,12854,9762.40,0,0,0,-0.21,-0.21,0.14,-0.25,-0.96,0.15
1.1601562,9.439243E-4,0.0011121512,-0.006660428,-0.25,-0.96,0.15,12869,9763.30,0,0,165,-0.35,-0.21,0.14,-0.25,-0.96,0.15
-0.13964844,0.001943924,0.002112151,-0.009660428,-0.25,-0.96,0.15,12884,9762.00,0,0,0,-0.28,-0.14,-0.07,-0.25,-0.96,0.15
0.2607422,0.0029439244,0.0031121508,-0.013660428,-0.25,-0.96,0.15,12891,9762.40,0,0,165,-0.21,-0.07,-0.35,-0.25,-0.96,0.15
0.2607422,9.439243E-4,0.0031121508,-0.01666043,-0.25,-0.96,0.15,12906,9762.40,0,0,0,-0.35,-0.07,-0.56,-0.25,-0.96,0.15
0.2607422,0.0029439244,-0.25188786,-0.015660428,-0.25,-0.96,0.15,12922,9762.40,0,0,165,-0.21,-17.92,-0.49,-0.25,-0.96,0.15
0.2607422,0.004943924,0.004112151,-0.014660427,-0.25,-0.96,0.15,12929,9762.40,0,0,0,-0.07,0.00,-0.42,-0.25,-0.96,0.15
1.1601562,0.001943924,0.004112151,-0.01666043,-0.25,-0.96,0.15,12944,9763.30,0,0,165,-0.28,0.00,-0.56,-0.25,-0.96,0.15
0.2607422,0.0029439244,0.004112151,-0.018660428,-0.25,-0.96,0.15,12960,9762.40,0,0,0,-0.21,0.00,-0.70,-0.25,-0.96,0.15
0.2607422,9.439243E-4,0.004112151,-0.018660428,-0.25,-0.96,0.15,12967,9762.40,0,0,165,-0.35,0.00,-0.70,-0.25,-0.96,0.15
-0.13964844,0.0029439244,0.005112151,-0.018660428,-0.25,-0.96,0.15,12982,9762.00,0,0,0,-0.21,0.07,-0.70,-0.25,-0.96,0.15
0.2607422,0.0029439244,0.005112151,-0.021660428,-0.25,-0.96,0.15,12989,9762.40,0,0,165,-0.21,0.07,-0.91,-0.25,-0.96,0.15
1.1601562,0.004943924,0.006112151,-0.028660428,-0.25,-0.96,0.15,13005,9763.30,0,0,0,-0.07,0.14,-1.40,-0.25,-0.96,0.15
0.2607422,0.0029439244,0.012112152,-0.03666043,-0.25,-0.96,0.15,13020,9762.40,0,0,165,-0.21,0.56,-1.96,-0.25,-0.96,0.15
0.2607422,0.004943924,0.011112152,-0.03966043,-0.25,-0.96,0.15,13027,9762.40,0,0,0,-0.07,0.49,-2.17,-0.25,-0.96,0.15
-0.7392578,0.003943924,0.01411215,-0.03466043,-0.25,-0.96,0.15,13042,9761.40,0,0,165,-0.14,0.70,-1.82,-0.25,-0.96,0.15
0.2607422,0.004943924,0.010112151,-0.022660429,-0.24,-0.97,0.15,13058,9762.40,0,0,0,-0.07,0.42,-0.98,-0.24,-0.97,0.15
0.2607422,0.0029439244,0.004112151,-0.0036604283,-0.24,-0.96,0.15,13064,9762.40,0,0,165,-0.21,0.00,0.35,-0.24,-0.96,0.15
-0.13964844,0.001943924,0.002112151,-0.001660428,-0.25,-0.96,0.15,13080,9762.00,0,0,0,-0.28,-0.14,0.49,-0.25,-0.96,0.15
0.2607422,-5.6075398E-5,0.0031121508,-0.0036604283,-0.24,-0.96,0.15,13094,9762.40,0,0,165,-0.42,-0.07,0.35,-0.24,-0.96,0.15
-0.13964844,-5.6075398E-5,0.0011121512,3.395714E-4,-0.25,-0.96,0.15,13103,9762.00,0,0,0,-0.42,-0.21,0.63,-0.25,-0.96,0.15
1.1601562,0.003943924,0.004112151,-0.017660428,-0.25,-0.96,0.15,13117,9763.30,0,0,165,-0.14,0.00,-0.63,-0.25,-0.96,0.15
0.2607422,-0.0050560758,0.007112151,-0.020660426,-0.25,-0.96,0.14,13132,9762.40,0,0,0,-0.77,0.21,-0.84,-0.25,-0.96,0.14
0.2607422,0.010943924,0.007112151,-0.023660429,-0.25,-0.96,0.15,13139,9762.40,0,0,165,0.35,0.21,-1.05,-0.25,-0.96,0.15
0.2607422,-0.0020560762,0.008112151,-0.01666043,-0.24,-0.96,0.15,13154,9762.40,0,0,0,-0.56,0.28,-0.56,-0.24,-0.96,0.15
0.2607422,0.0029439244,0.002112151,0.004339572,-0.24,-0.97,0.15,13170,9762.40,0,0,165,-0.21,-0.14,0.91,-0.24,-0.97,0.15
1.1601562,9.439243E-4,-8.878489E-4,0.01533957,-0.24,-0.96,0.15,13179,9763.30,0,0,0,-0.35,-0.35,1.68,-0.24,-0.96,0.15
1.1601562,0.001943924,-8.878489E-4,0.0123395715,-0.25,-0.96,0.15,13193,9763.30,0,0,165,-0.28,-0.35,1.47,-0.25,-0.96,0.15
-0.7392578,9.439243E-4,-0.0038878494,0.019339573,-0.25,-0.96,0.15,13206,9761.40,0,0,0,-0.35,-0.56,1.96,-0.25,-0.96,0.15
0.2607422,0.0029439244,-0.0018878486,0.016339572,-0.25,-0.96,0.15,13214,9762.40,0,0,165,-0.21,-0.42,1.75,-0.25,-0.96,0.15
1.1601562,-5.6075398E-5,-0.0018878486,0.023339573,-0.25,-0.96,0.15,13229,9763.30,0,0,0,-0.42,-0.42,2.24,-0.25,-0.96,0.15
0.2607422,0.0029439244,-0.0028878492,0.022339573,-0.25,-0.96,0.15,13244,9762.40,0,0,165,-0.21,-0.49,2.17,-0.25,-0.96,0.15
0.2607422,-0.0020560762,-0.0018878486,0.019339573,-0.25,-0.96,0.15,13253,9762.40,0,0,0,-0.56,-0.42,1.96,-0.25,-0.96,0.15
0.2607422,0.0029439244,-0.0038878494,0.026339572,-0.25,-0.96,0.15,13267,9762.40,0,0,165,-0.21,-0.56,2.45,-0.25,-0.96,0.15
-0.7392578,9.439243E-4,-0.0048878486,0.024339572,-0.25,-0.96,0.15,13282,9761.40,0,0,0,-0.35,-0.63,2.31,-0.25,-0.96,0.15
0.2607422,-5.6075398E-5,-0.0038878494,0.024339572,-0.25,-0.96,0.15,13289,9762.40,0,0,165,-0.42,-0.56,2.31,-0.25,-0.96,0.15
1.1601562,-5.6075398E-5,-0.0038878494,0.023339573,-0.25,-0.96,0.15,13304,9763.30,0,0,0,-0.42,-0.56,2.24,-0.25,-0.96,0.15
1.1601562,9.439243E-4,-0.0038878494,0.024339572,-0.25,-0.96,0.15,13320,9763.30,0,0,165,-0.35,-0.56,2.31,-0.25,-0.96,0.15
0.2607422,-5.6075398E-5,-0.0038878494,0.023339573,-0.25,-0.96,0.15,13326,9762.40,0,0,0,-0.42,-0.56,2.24,-0.25,-0.96,0.15
0.2607422,9.439243E-4,-0.0038878494,0.020339571,-0.25,-0.96,0.15,13342,9762.40,0,0,165,-0.35,-0.56,2.03,-0.25,-0.96,0.15
0.2607422,-5.6075398E-5,-0.0038878494,0.021339571,-0.25,-0.96,0.15,13357,9762.40,0,0,0,-0.42,-0.56,2.10,-0.25,-0.96,0.15
0.2607422,0.001943924,-0.006887849,0.021339571,-0.25,-0.96,0.15,13364,9762.40,0,0,165,-0.28,-0.77,2.10,-0.25,-0.96,0.15
1.1601562,-0.0020560762,-0.0038878494,0.022339573,-0.25,-0.96,0.15,13379,9763.30,0,0,0,-0.56,-0.56,2.17,-0.25,-0.96,0.15
0.2607422,9.439243E-4,-0.006887849,0.026339572,-0.25,-0.96,0.15,13394,9762.40,0,0,165,-0.35,-0.77,2.45,-0.25,-0.96,0.15
0.2607422,9.439243E-4,-0.007887848,0.018339572,-0.25,-0.96,0.15,13403,9762.40,0,0,0,-0.35,-0.84,1.89,-0.25,-0.96,0.15
0.2607422,-0.006056075,-0.005887849,0.023339573,-0.25,-0.96,0.15,13417,9762.40,0,0,165,-0.84,-0.70,2.24,-0.25,-0.96,0.15
0.2607422,0.0029439244,-0.007887848,0.024339572,-0.25,-0.96,0.15,13431,9762.40,0,0,0,-0.21,-0.84,2.31,-0.25,-0.96,0.15
0.2607422,0.001943924,-0.00888785,0.013339572,-0.25,-0.96,0.16,13438,9762.40,0,0,165,-0.28,-0.91,1.54,-0.25,-0.96,0.16
0.2607422,-0.011056077,-0.0038878494,0.020339571,-0.25,-0.96,0.14,13459,9762.40,0,0,0,-1.19,-0.56,2.03,-0.25,-0.96,0.14
0.2607422,0.005943924,-0.006887849,0.018339572,-0.26,-0.96,0.15,13469,9762.40,0,0,165,0.00,-0.77,1.89,-0.26,-0.96,0.15
0.2607422,-0.0030560754,-0.0028878492,0.0123395715,-0.25,-0.96,0.15,13477,9762.40,0,0,0,-0.63,-0.49,1.47,-0.25,-0.96,0.15
1.1601562,0.0029439244,-0.0038878494,0.009339571,-0.25,-0.96,0.15,13491,9763.30,0,0,165,-0.21,-0.56,1.26,-0.25,-0.96,0.15
0.2607422,9.439243E-4,-0.0038878494,0.011339571,-0.25,-0.96,0.15,13506,9762.40,0,0,0,-0.35,-0.56,1.40,-0.25,-0.96,0.15
0.2607422,0.008943924,-0.0048878486,0.003339571,-0.26,-0.96,0.16,13514,9762.40,0,0,165,0.21,-0.63,0.84,-0.26,-0.96,0.16
0.2607422,-0.007056076,-0.0018878486,0.017339572,-0.25,-0.96,0.14,13529,9762.40,0,0,0,-0.91,-0.42,1.82,-0.25,-0.96,0.14
0.2607422,0.0069439244,-0.0038878494,0.008339573,-0.26,-0.96,0.15,13545,9762.40,0,0,165,0.07,-0.56,1.19,-0.26,-0.96,0.15
0.2607422,-0.0050560758,-0.0018878486,0.009339571,-0.25,-0.96,0.15,13554,9762.40,0,0,0,-0.77,-0.42,1.26,-0.25,-0.96,0.15
1.1601562,0.003943924,-0.0028878492,0.008339573,-0.25,-0.96,0.15,13567,9763.30,0,0,165,-0.14,-0.49,1.19,-0.25,-0.96,0.15
0.2607422,-0.001056076,-8.878489E-4,0.004339572,-0.26,-0.96,0.15,13592,9762.40,0,0,0,-0.49,-0.35,0.91,-0.26,-0.96,0.15
0.2607422,-5.6075398E-5,-8.878489E-4,0.003339571,-0.25,-0.96,0.15,13595,9762.40,0,0,165,-0.42,-0.35,0.84,-0.25,-0.96,0.15
1.1601562,0.001943924,-0.0018878486,0.010339573,-0.25,-0.96,0.15,13604,9763.30,0,0,0,-0.28,-0.42,1.33,-0.25,-0.96,0.15
1.1601562,-0.001056076,-0.0018878486,0.010339573,-0.25,-0.96,0.15,13620,9763.30,0,0,165,-0.49,-0.42,1.33,-0.25,-0.96,0.15
1.1601562,9.439243E-4,-0.0018878486,0.0013395716,-0.25,-0.96,0.15,13627,9763.30,0,0,0,-0.35,-0.42,0.70,-0.25,-0.96,0.15
1.1601562,-5.6075398E-5,0.0011121512,3.395714E-4,-0.26,-0.96,0.15,13641,9763.30,0,0,165,-0.42,-0.21,0.63,-0.26,-0.96,0.15
0.2607422,0.001943924,1.12150796E-4,-0.004660428,-0.25,-0.96,0.15,13656,9762.40,0,0,0,-0.28,-0.28,0.28,-0.25,-0.96,0.15
1.1601562,0.001943924,1.12150796E-4,-0.0036604283,-0.26,-0.96,0.15,13664,9763.30,0,0,165,-0.28,-0.28,0.35,-0.26,-0.96,0.15
1.1601562,9.439243E-4,0.0011121512,-0.004660428,-0.25,-0.96,0.15,13679,9763.30,0,0,0,-0.35,-0.21,0.28,-0.25,-0.96,0.15
0.2607422,0.0029439244,0.0031121508,-0.010660429,-0.26,-0.96,0.15,13694,9762.40,0,0,165,-0.21,-0.07,-0.14,-0.26,-0.96,0.15
-0.7392578,0.003943924,0.002112151,-0.020660426,-0.25,-0.96,0.15,13701,9761.40,0,0,0,-0.14,-0.14,-0.84,-0.25,-0.96,0.15
1.1601562,0.0029439244,0.002112151,-0.021660428,-0.26,-0.96,0.15,13716,9763.30,0,0,165,-0.21,-0.14,-0.91,-0.26,-0.96,0.15
0.2607422,0.0029439244,0.005112151,-0.02566043,-0.25,-0.96,0.15,13732,9762.40,0,0,0,-0.21,0.07,-1.19,-0.25,-0.96,0.15
0.2607422,0.003943924,0.0031121508,-0.028660428,-0.25,-0.96,0.15,13739,9762.40,0,0,165,-0.14,-0.07,-1.40,-0.25,-0.96,0.15
0.2607422,0.001943924,0.005112151,-0.026660427,-0.25,-0.96,0.15,13754,9762.40,0,0,0,-0.28,0.07,-1.26,-0.25,-0.96,0.15
-0.13964844,0.0029439244,0.004112151,-0.029660428,-0.25,-0.96,0.15,13770,9762.00,0,0,165,-0.21,0.00,-1.47,-0.25,-0.96,0.15
1.1601562,9.439243E-4,0.004112151,-0.024660429,-0.25,-0.96,0.15,13776,9763.30,0,0,0,-0.35,0.00,-1.12,-0.25,-0.96,0.15
1.1601562,0.0029439244,0.004112151,-0.02566043,-0.25,-0.96,0.15,13792,9763.30,0,0,165,-0.21,0.00,-1.19,-0.25,-0.96,0.15
0.2607422,0.001943924,0.004112151,-0.021660428,-0.25,-0.96,0.15,13807,9762.40,0,0,0,-0.28,0.00,-0.91,-0.25,-0.96,0.15
1.1601562,0.001943924,0.0031121508,-0.020660426,-0.25,-0.96,0.15,13814,9763.30,0,0,165,-0.28,-0.07,-0.84,-0.25,-0.96,0.15
0.2607422,0.0029439244,0.004112151,-0.02566043,-0.25,-0.96,0.15,13829,9762.40,0,0,0,-0.21,0.00,-1.19,-0.25,-0.96,0.15
0.2607422,9.439243E-4,0.005112151,-0.02766043,-0.25,-0.96,0.15,13844,9762.40,0,0,165,-0.35,0.07,-1.33,-0.25,-0.96,0.15
0.2607422,9.439243E-4,-0.25188786,-0.014660427,-0.25,-0.96,0.15,13852,9762.40,0,0,0,-0.35,-17.92,-0.42,-0.25,-0.96,0.15
2.1601562,0.001943924,0.002112151,-0.008660428,-0.25,-0.96,0.15,13866,9764.30,0,0,165,-0.28,-0.14,0.00,-0.25,-0.96,0.15
1.1601562,-0.001056076,0.002112151,-6.6042785E-4,-0.25,-0.96,0.15,13881,9763.30,0,0,0,-0.49,-0.14,0.56,-0.25,-0.96,0.15
0.2607422,-0.001056076,0.0011121512,-6.6042785E-4,-0.25,-0.96,0.15,13889,9762.40,0,0,165,-0.49,-0.21,0.56,-0.25,-0.96,0.15
0.2607422,9.439243E-4,0.002112151,-0.007660428,-0.25,-0.96,0.15,13904,9762.40,0,0,0,-0.35,-0.14,0.07,-0.25,-0.96,0.15
0.2607422,9.439243E-4,0.002112151,-0.007660428,-0.25,-0.96,0.15,13919,9762.40,0,0,165,-0.35,-0.14,0.07,-0.25,-0.96,0.15
0.2607422,0.001943924,0.0011121512,-0.0056604287,-0.25,-0.96,0.15,13926,9762.40,0,0,0,-0.28,-0.21,0.21,-0.25,-0.96,0.15
0.2607422,9.439243E-4,0.0011121512,-0.0036604283,-0.25,-0.96,0.15,13942,9762.40,0,0,165,-0.35,-0.21,0.35,-0.25,-0.96,0.15
0.2607422,0.001943924,1.12150796E-4,0.0013395716,-0.25,-0.96,0.15,13957,9762.40,0,0,0,-0.28,-0.28,0.70,-0.25,-0.96,0.15
0.2607422,0.001943924,-0.0018878486,0.0063395714,-0.25,-0.96,0.15,13964,9762.40,0,0,165,-0.28,-0.42,1.05,-0.25,-0.96,0.15
0.2607422,-0.001056076,-8.878489E-4,0.005339572,-0.25,-0.96,0.15,13979,9762.40,0,0,0,-0.49,-0.35,0.98,-0.25,-0.96,0.15
0.2607422,0.0029439244,0.0011121512,-6.6042785E-4,-0.25,-0.96,0.15,13995,9762.40,0,0,165,-0.21,-0.21,0.56,-0.25,-0.96,0.15
1.1601562,9.439243E-4,0.0031121508,-0.009660428,-0.25,-0.96,0.15,14003,9763.30,0,0,0,-0.35,-0.07,-0.07,-0.25,-0.96,0.15
0.2607422,0.001943924,0.0031121508,-0.018660428,-0.25,-0.96,0.15,14017,9762.40,0,0,165,-0.28,-0.07,-0.70,-0.25,-0.96,0.15
0.2607422,9.439243E-4,0.0031121508,-0.019660428,-0.25,-0.96,0.15,14031,9762.40,0,0,0,-0.35,-0.07,-0.77,-0.25,-0.96,0.15
0.2607422,-5.6075398E-5,0.004112151,-0.018660428,-0.25,-0.96,0.15,14039,9762.40,0,0,165,-0.42,0.00,-0.70,-0.25,-0.96,0.15
1.1601562,0.001943924,0.004112151,-0.01666043,-0.25,-0.96,0.15,14054,9763.30,0,0,0,-0.28,0.00,-0.56,-0.25,-0.96,0.15
0.2607422,-5.6075398E-5,0.006112151,-0.017660428,-0.25,-0.96,0.15,14069,9762.40,0,0,165,-0.42,0.14,-0.63,-0.25,-0.96,0.15
0.2607422,0.003943924,0.004112151,-0.014660427,-0.25,-0.96,0.15,14076,9762.40,0,0,0,-0.14,0.00,-0.42,-0.25,-0.96,0.15
1.1601562,0.001943924,0.0031121508,-0.01666043,-0.25,-0.96,0.15,14091,9763.30,0,0,165,-0.28,-0.07,-0.56,-0.25,-0.96,0.15
0.2607422,0.001943924,0.005112151,-0.01666043,-0.24,-0.96,0.15,14106,9762.40,0,0,0,-0.28,0.07,-0.56,-0.24,-0.96,0.15
0.2607422,-5.6075398E-5,0.25811216,-0.013660428,-0.25,-0.96,0.15,14114,9762.40,0,0,165,-0.42,17.78,-0.35,-0.25,-0.96,0.15
1.1601562,9.439243E-4,0.004112151,-0.014660427,-0.25,-0.96,0.15,14129,9763.30,0,0,0,-0.35,0.00,-0.42,-0.25,-0.96,0.15
1.1601562,-5.6075398E-5,0.0031121508,-0.004660428,-0.24,-0.97,0.15,14144,9763.30,0,0,165,-0.42,-0.07,0.28,-0.24,-0.97,0.15
1.1601562,0.0029439244,1.12150796E-4,-0.0056604287,-0.25,-0.96,0.15,14151,9763.30,0,0,0,-0.21,-0.28,0.21,-0.25,-0.96,0.15
0.2607422,-0.0020560762,0.004112151,-0.008660428,-0.25,-0.96,0.15,14166,9762.40,0,0,165,-0.56,0.00,0.00,-0.25,-0.96,0.15
-0.7392578,9.439243E-4,0.004112151,-0.006660428,-0.25,-0.96,0.15,14181,9761.40,0,0,0,-0.35,0.00,0.14,-0.25,-0.96,0.15
0.2607422,9.439243E-4,0.002112151,-0.008660428,-0.25,-0.96,0.15,14189,9762.40,0,0,165,-0.35,-0.14,0.00,-0.25,-0.96,0.15
0.2607422,-5.6075398E-5,0.0011121512,-0.0036604283,-0.24,-0.96,0.15,14204,9762.40,0,0,0,-0.42,-0.21,0.35,-0.24,-0.96,0.15
1.1601562,-5.6075398E-5,-8.878489E-4,0.0073395725,-0.24,-0.96,0.15,14219,9763.30,0,0,165,-0.42,-0.35,1.12,-0.24,-0.96,0.15
0.2607422,0.0029439244,1.12150796E-4,0.004339572,-0.25,-0.96,0.15,14226,9762.40,0,0,0,-0.21,-0.28,0.91,-0.25,-0.96,0.15
2.1601562,-0.001056076,0.002112151,0.0013395716,-0.25,-0.96,0.15,14242,9764.30,0,0,165,-0.49,-0.14,0.70,-0.25,-0.96,0.15
0.2607422,0.003943924,-0.0018878486,0.0073395725,-0.25,-0.96,0.15,14257,9762.40,0,0,0,-0.14,-0.42,1.12,-0.25,-0.96,0.15
0.2607422,-5.6075398E-5,-0.0018878486,0.013339572,-0.25,-0.96,0.15,14264,9762.40,0,0,165,-0.42,-0.42,1.54,-0.25,-0.96,0.15
0.2607422,9.439243E-4,-0.0018878486,0.01533957,-0.25,-0.96,0.15,14279,9762.40,0,0,0,-0.35,-0.42,1.68,-0.25,-0.96,0.15
1.1601562,9.439243E-4,-0.0018878486,0.0123395715,-0.25,-0.96,0.15,14293,9763.30,0,0,165,-0.35,-0.42,1.47,-0.25,-0.96,0.15
-0.13964844,9.439243E-4,1.12150796E-4,0.005339572,-0.25,-0.96,0.15,14301,9762.00,0,0,0,-0.35,-0.28,0.98,-0.25,-0.96,0.15
1.1601562,0.001943924,0.002112151,-0.0056604287,-0.25,-0.96,0.15,14316,9763.30,0,0,165,-0.28,-0.14,0.21,-0.25,-0.96,0.15
0.2607422,9.439243E-4,0.0031121508,-0.019660428,-0.25,-0.96,0.15,14332,9762.40,0,0,0,-0.35,-0.07,-0.77,-0.25,-0.96,0.15
0.86035156,0.001943924,0.004112151,-0.02566043,-0.25,-0.96,0.15,14340,9763.00,0,0,165,-0.28,0.00,-1.19,-0.25,-0.96,0.15
1.1601562,0.001943924,0.010112151,-0.010660429,-0.24,-0.97,0.16,14354,9763.30,0,0,0,-0.28,0.42,-0.14,-0.24,-0.97,0.16
0.2607422,-0.011056077,1.12150796E-4,0.0013395716,-0.24,-0.95,0.14,14370,9762.40,0,0,165,-1.19,-0.28,0.70,-0.24,-0.95,0.14
-0.13964844,-0.0020560762,1.12150796E-4,-0.0036604283,-0.25,-0.97,0.16,14377,9762.00,0,0,0,-0.56,-0.28,0.35,-0.25,-0.97,0.16
0.2607422,-0.0050560758,0.002112151,-0.006660428,-0.25,-0.96,0.15,14392,9762.40,0,0,165,-0.77,-0.14,0.14,-0.25,-0.96,0.15
0.2607422,9.439243E-4,0.0031121508,-0.009660428,-0.25,-0.96,0.15,14407,9762.40,0,0,0,-0.35,-0.07,-0.07,-0.25,-0.96,0.15
-0.13964844,-0.001056076,0.007112151,-0.006660428,-0.25,-0.97,0.15,14414,9762.00,0,0,165,-0.49,0.21,0.14,-0.25,-0.97,0.15
0.2607422,-0.0020560762,0.007112151,0.0023395717,-0.25,-0.96,0.15,14430,9762.40,0,0,0,-0.56,0.21,0.77,-0.25,-0.96,0.15
0.2607422,-0.007056076,0.01511215,0.0073395725,-0.24,-0.96,0.15,14445,9762.40,0,0,165,-0.91,0.77,1.12,-0.24,-0.96,0.15
0.2607422,0.003943924,0.01311215,-0.001660428,-0.25,-0.96,0.15,14456,9762.40,0,0,0,-0.14,0.63,0.49,-0.25,-0.96,0.15
1.1601562,-0.0020560762,0.01411215,-0.017660428,-0.25,-0.96,0.15,14471,9763.30,0,0,165,-0.56,0.70,-0.63,-0.25,-0.96,0.15
0.2607422,9.439243E-4,0.02911215,-0.012660429,-0.24,-0.97,0.16,14481,9762.40,0,0,0,-0.35,1.75,-0.28,-0.24,-0.97,0.16
1.1601562,-0.023056075,0.04011215,0.043339573,-0.24,-0.97,0.15,14489,9763.30,0,0,165,-2.03,2.52,3.64,-0.24,-0.97,0.15
0.86035156,-0.0050560758,0.023112152,0.07633957,-0.25,-0.96,0.15,14504,9763.00,0,0,0,-0.77,1.33,5.95,-0.25,-0.96,0.15
0.2607422,-0.014056075,0.01511215,0.04833957,-0.25,-0.96,0.15,14520,9762.40,0,0,165,-1.40,0.77,3.99,-0.25,-0.96,0.15
0.2607422,-0.0020560762,0.010112151,0.018339572,-0.25,-0.96,0.15,14526,9762.40,0,0,0,-0.56,0.42,1.89,-0.25,-0.96,0.15
0.2607422,-5.6075398E-5,0.008112151,-0.007660428,-0.25,-0.96,0.15,14542,9762.40,0,0,165,-0.42,0.28,0.07,-0.25,-0.96,0.15
0.2607422,-0.0050560758,0.007112151,-6.6042785E-4,-0.24,-0.96,0.14,14557,9762.40,0,0,0,-0.77,0.21,0.56,-0.24,-0.96,0.14
0.2607422,0.0029439244,0.0031121508,-0.0026604286,-0.25,-0.96,0.15,14564,9762.40,0,0,165,-0.21,-0.07,0.42,-0.25,-0.96,0.15
1.1601562,0.0029439244,0.007112151,-0.022660429,-0.25,-0.96,0.15,14579,9763.30,0,0,0,-0.21,0.21,-0.98,-0.25,-0.96,0.15
1.1601562,-5.6075398E-5,0.007112151,-0.030660428,-0.25,-0.96,0.15,14594,9763.30,0,0,165,-0.42,0.21,-1.54,-0.25,-0.96,0.15
1.1601562,-0.0050560758,0.010112151,-0.014660427,-0.25,-0.97,0.15,14602,9763.30,0,0,0,-0.77,0.42,-0.42,-0.25,-0.97,0.15
1.1601562,-0.0040560756,0.007112151,0.0123395715,-0.25,-0.96,0.15,14617,9763.30,0,0,165,-0.70,0.21,1.47,-0.25,-0.96,0.15
0.2607422,-0.012056075,0.008112151,0.025339574,-0.25,-0.97,0.15,14632,9762.40,0,0,0,-1.26,0.28,2.38,-0.25,-0.97,0.15
1.1601562,-0.016056076,0.002112151,0.043339573,-0.25,-0.97,0.15,14639,9763.30,0,0,165,-1.54,-0.14,3.64,-0.25,-0.97,0.15
0.2607422,-0.001056076,-0.00988785,0.043339573,-0.26,-0.96,0.15,14654,9762.40,0,0,0,-0.49,-0.98,3.64,-0.26,-0.96,0.15
0.2607422,-0.007056076,0.004112151,0.019339573,-0.26,-0.96,0.15,14670,9762.40,0,0,165,-0.91,0.00,1.96,-0.26,-0.96,0.15
1.1601562,-0.006056075,0.002112151,0.0023395717,-0.25,-0.96,0.14,14677,9763.30,0,0,0,-0.84,-0.14,0.77,-0.25,-0.96,0.14
0.2607422,-0.0030560754,1.12150796E-4,3.395714E-4,-0.25,-0.96,0.15,14692,9762.40,0,0,165,-0.63,-0.28,0.63,-0.25,-0.96,0.15
1.1601562,-0.0030560754,1.12150796E-4,0.005339572,-0.25,-0.96,0.14,14707,9763.30,0,0,0,-0.63,-0.28,0.98,-0.25,-0.96,0.14
2.1601562,9.439243E-4,0.002112151,0.0073395725,-0.25,-0.97,0.15,14714,9764.30,0,0,165,-0.35,-0.14,1.12,-0.25,-0.97,0.15
-0.13964844,-5.6075398E-5,-0.0018878486,0.018339572,-0.25,-0.96,0.15,14729,9762.00,0,0,0,-0.42,-0.42,1.89,-0.25,-0.96,0.15
-0.13964844,0.001943924,0.0011121512,-0.007660428,-0.25,-0.96,0.15,14744,9762.00,0,0,165,-0.28,-0.21,0.07,-0.25,-0.96,0.15
0.2607422,9.439243E-4,0.0011121512,-0.006660428,-0.25,-0.96,0.14,14753,9762.40,0,0,0,-0.35,-0.21,0.14,-0.25,-0.96,0.14
1.1601562,0.0079439245,-0.0018878486,0.004339572,-0.25,-0.96,0.15,14766,9763.30,0,0,165,0.14,-0.42,0.91,-0.25,-0.96,0.15
0.2607422,-0.006056075,1.12150796E-4,0.009339571,-0.25,-0.96,0.14,14781,9762.40,0,0,0,-0.84,-0.28,1.26,-0.25,-0.96,0.14
1.1601562,0.003943924,-0.0038878494,0.020339571,-0.25,-0.96,0.15,14789,9763.30,0,0,165,-0.14,-0.56,2.03,-0.25,-0.96,0.15
1.1601562,-5.6075398E-5,-0.0018878486,0.014339572,-0.25,-0.96,0.15,14804,9763.30,0,0,0,-0.42,-0.42,1.61,-0.25,-0.96,0.15
0.2607422,-5.6075398E-5,-0.0028878492,0.01533957,-0.25,-0.96,0.14,14818,9762.40,0,0,165,-0.42,-0.49,1.68,-0.25,-0.96,0.14
0.2607422,9.439243E-4,-0.005887849,0.018339572,-0.25,-0.96,0.15,14826,9762.40,0,0,0,-0.35,-0.70,1.89,-0.25,-0.96,0.15
1.1601562,-5.6075398E-5,-0.005887849,0.024339572,-0.25,-0.96,0.15,14842,9763.30,0,0,165,-0.42,-0.70,2.31,-0.25,-0.96,0.15
1.1601562,-5.6075398E-5,-0.00888785,0.028339572,-0.25,-0.96,0.15,14856,9763.30,0,0,0,-0.42,-0.91,2.59,-0.25,-0.96,0.15
0.2607422,-0.0020560762,-0.006887849,0.02733957,-0.25,-0.96,0.15,14864,9762.40,0,0,165,-0.56,-0.77,2.52,-0.25,-0.96,0.15
1.1601562,-5.6075398E-5,-0.006887849,0.023339573,-0.26,-0.96,0.15,14880,9763.30,0,0,0,-0.42,-0.77,2.24,-0.26,-0.96,0.15
1.1601562,-5.6075398E-5,-0.007887848,0.019339573,-0.25,-0.96,0.15,14894,9763.30,0,0,165,-0.42,-0.84,1.96,-0.25,-0.96,0.15
0.2607422,-0.001056076,-0.007887848,0.013339572,-0.25,-0.96,0.15,14902,9762.40,0,0,0,-0.49,-0.84,1.54,-0.25,-0.96,0.15
0.2607422,-0.001056076,-0.00888785,0.013339572,-0.25,-0.96,0.15,14917,9762.40,0,0,165,-0.49,-0.91,1.54,-0.25,-0.96,0.15
0.2607422,0.005943924,-0.01188785,0.0123395715,-0.26,-0.96,0.15,14931,9762.40,0,0,0,0.00,-1.12,1.47,-0.26,-0.96,0.15
0.2607422,-5.6075398E-5,-0.01188785,0.0123395715,-0.25,-0.96,0.15,14940,9762.40,0,0,165,-0.42,-1.12,1.47,-0.25,-0.96,0.15
0.2607422,-0.0050560758,-0.007887848,0.019339573,-0.26,-0.96,0.14,14955,9762.40,0,0,0,-0.77,-0.84,1.96,-0.26,-0.96,0.14
0.2607422,0.0029439244,-0.01688785,0.004339572,-0.26,-0.95,0.14,14973,9762.40,0,0,165,-0.21,-1.47,0.91,-0.26,-0.95,0.14
0.2607422,0.013943925,-0.02088785,-0.019660428,-0.26,-0.96,0.15,14977,9762.40,0,0,0,0.56,-1.75,-0.77,-0.26,-0.96,0.15
1.1601562,0.008943924,-0.01688785,-0.022660429,-0.25,-0.97,0.15,14992,9763.30,0,0,165,0.21,-1.47,-0.98,-0.25,-0.97,0.15
0.2607422,-0.0050560758,-0.0048878486,0.018339572,-0.25,-0.97,0.15,15007,9762.40,0,0,0,-0.77,-0.63,1.89,-0.25,-0.97,0.15
1.1601562,-0.0020560762,-0.006887849,0.030339573,-0.25,-0.96,0.15,15022,9763.30,0,0,165,-0.56,-0.77,2.73,-0.25,-0.96,0.15
1.1601562,-0.001056076,-0.005887849,0.018339572,-0.26,-0.96,0.15,15029,9763.30,0,0,0,-0.49,-0.70,1.89,-0.26,-0.96,0.15
1.1601562,-0.0020560762,-0.0048878486,0.011339571,-0.26,-0.96,0.14,15044,9763.30,0,0,165,-0.56,-0.63,1.40,-0.26,-0.96,0.14
0.2607422,0.001943924,-0.0038878494,0.011339571,-0.25,-0.97,0.15,15051,9762.40,0,0,0,-0.28,-0.56,1.40,-0.25,-0.97,0.15
0.2607422,-0.0020560762,-0.005887849,0.025339574,-0.25,-0.96,0.15,15066,9762.40,0,0,165,-0.56,-0.70,2.38,-0.25,-0.96,0.15
2.1601562,-5.6075398E-5,-0.006887849,0.020339571,-0.26,-0.96,0.15,15081,9764.30,0,0,0,-0.42,-0.77,2.03,-0.26,-0.96,0.15
0.2607422,-0.0020560762,-0.0048878486,0.014339572,-0.26,-0.96,0.14,15089,9762.40,0,0,165,-0.56,-0.63,1.61,-0.26,-0.96,0.14
1.1601562,0.001943924,-0.0048878486,0.013339572,-0.25,-0.96,0.15,15104,9763.30,0,0,0,-0.28,-0.63,1.54,-0.25,-0.96,0.15
1.1601562,-0.0020560762,-0.0048878486,0.020339571,-0.26,-0.96,0.15,15119,9763.30,0,0,165,-0.56,-0.63,2.03,-0.26,-0.96,0.15
-0.13964844,0.0029439244,-0.006887849,0.020339571,-0.26,-0.96,0.15,15127,9762.00,0,0,0,-0.21,-0.77,2.03,-0.26,-0.96,0.15
1.1601562,-5.6075398E-5,-0.007887848,0.022339573,-0.26,-0.96,0.15,15141,9763.30,0,0,165,-0.42,-0.84,2.17,-0.26,-0.96,0.15
1.1601562,-0.001056076,-0.01188785,0.020339571,-0.26,-0.96,0.15,15156,9763.30,0,0,0,-0.49,-1.12,2.03,-0.26,-0.96,0.15
-0.13964844,0.005943924,-0.00988785,0.009339571,-0.26,-0.96,0.15,15163,9762.00,0,0,165,0.00,-0.98,1.26,-0.26,-0.96,0.15
1.1601562,0.036943927,-0.06388785,-0.06766043,-0.26,-0.95,0.15,15178,9763.30,0,0,0,2.17,-4.76,-4.13,-0.26,-0.95,0.15
0.2607422,-0.007056076,-0.03288785,-0.032660425,-0.25,-0.97,0.16,15194,9762.40,0,0,165,-0.91,-2.59,-1.68,-0.25,-0.97,0.16
-1.0400391,0.018943924,-0.03588785,0.003339571,-0.26,-0.96,0.14,15202,9761.10,0,0,0,0.91,-2.80,0.84,-0.26,-0.96,0.14
0.2607422,9.439243E-4,-0.03988785,0.003339571,-0.26,-0.96,0.15,15218,9762.40,0,0,165,-0.35,-3.08,0.84,-0.26,-0.96,0.15
0.2607422,0.0079439245,-0.033887852,-0.014660427,-0.25,-0.96,0.15,15231,9762.40,0,0,0,0.14,-2.66,-0.42,-0.25,-0.96,0.15
1.1601562,-0.0020560762,0.002112151,0.020339571,-0.25,-0.97,0.15,15239,9763.30,0,0,165,-0.56,-0.14,2.03,-0.25,-0.97,0.15
0.2607422,0.015943924,-0.005887849,0.005339572,-0.26,-0.95,0.15,15254,9762.40,0,0,0,0.70,-0.70,0.98,-0.26,-0.95,0.15
0.2607422,-0.007056076,0.002112151,-0.0026604286,-0.25,-0.96,0.16,15270,9762.40,0,0,165,-0.91,-0.14,0.42,-0.25,-0.96,0.16
-0.13964844,0.001943924,-0.0018878486,0.014339572,-0.25,-0.96,0.14,15277,9762.00,0,0,0,-0.28,-0.42,1.61,-0.25,-0.96,0.14
0.2607422,-0.0040560756,-0.005887849,0.023339573,-0.26,-0.96,0.15,15292,9762.40,0,0,165,-0.70,-0.70,2.24,-0.26,-0.96,0.15
2.1601562,0.001943924,-0.006887849,0.01533957,-0.26,-0.96,0.15,15306,9764.30,0,0,0,-0.28,-0.77,1.68,-0.26,-0.96,0.15
0.2607422,-0.0020560762,-0.0048878486,0.009339571,-0.26,-0.96,0.15,15314,9762.40,0,0,165,-0.56,-0.63,1.26,-0.26,-0.96,0.15
0.2607422,0.001943924,-8.878489E-4,0.0013395716,-0.26,-0.96,0.15,15328,9762.40,0,0,0,-0.28,-0.35,0.70,-0.26,-0.96,0.15
-0.13964844,-5.6075398E-5,1.12150796E-4,-6.6042785E-4,-0.26,-0.96,0.15,15344,9762.00,0,0,165,-0.42,-0.28,0.56,-0.26,-0.96,0.15
0.2607422,0.003943924,0.0011121512,-0.006660428,-0.26,-0.96,0.15,15352,9762.40,0,0,0,-0.14,-0.21,0.14,-0.26,-0.96,0.15
0.2607422,9.439243E-4,0.002112151,-0.011660428,-0.26,-0.96,0.15,15367,9762.40,0,0,165,-0.35,-0.14,-0.21,-0.26,-0.96,0.15
1.1601562,0.0029439244,0.0031121508,-0.014660427,-0.26,-0.96,0.15,15381,9763.30,0,0,0,-0.21,-0.07,-0.42,-0.26,-0.96,0.15
1.1601562,0.001943924,0.0031121508,-0.017660428,-0.26,-0.96,0.15,15389,9763.30,0,0,165,-0.28,-0.07,-0.63,-0.26,-0.96,0.15
1.1601562,0.001943924,0.002112151,-0.017660428,-0.26,-0.96,0.15,15404,9763.30,0,0,0,-0.28,-0.14,-0.63,-0.26,-0.96,0.15
0.2607422,0.001943924,0.0031121508,-0.017660428,-0.26,-0.96,0.15,15419,9762.40,0,0,165,-0.28,-0.07,-0.63,-0.26,-0.96,0.15
0.2607422,0.001943924,0.002112151,-0.014660427,-0.26,-0.96,0.15,15426,9762.40,0,0,0,-0.28,-0.14,-0.42,-0.26,-0.96,0.15
0.2607422,9.439243E-4,0.002112151,-0.008660428,-0.26,-0.96,0.15,15441,9762.40,0,0,165,-0.35,-0.14,0.00,-0.26,-0.96,0.15
0.86035156,0.001943924,0.0011121512,-0.001660428,-0.25,-0.96,0.15,15457,9763.00,0,0,0,-0.28,-0.21,0.49,-0.25,-0.96,0.15
1.1601562,9.439243E-4,-8.878489E-4,0.003339571,-0.25,-0.96,0.15,15464,9763.30,0,0,165,-0.35,-0.35,0.84,-0.25,-0.96,0.15
1.1601562,-0.001056076,-8.878489E-4,0.0123395715,-0.25,-0.96,0.15,15479,9763.30,0,0,0,-0.49,-0.35,1.47,-0.25,-0.96,0.15
1.1601562,-5.6075398E-5,-0.0018878486,0.020339571,-0.25,-0.96,0.15,15494,9763.30,0,0,165,-0.42,-0.42,2.03,-0.25,-0.96,0.15
1.1601562,-0.001056076,-0.0048878486,0.024339572,-0.26,-0.96,0.15,15502,9763.30,0,0,0,-0.49,-0.63,2.31,-0.26,-0.96,0.15
1.1601562,-5.6075398E-5,-0.0028878492,0.01533957,-0.26,-0.96,0.15,15517,9763.30,0,0,165,-0.42,-0.49,1.68,-0.26,-0.96,0.15
0.2607422,0.001943924,1.12150796E-4,0.004339572,-0.26,-0.96,0.15,15531,9762.40,0,0,0,-0.28,-0.28,0.91,-0.26,-0.96,0.15
1.1601562,9.439243E-4,0.002112151,-0.001660428,-0.26,-0.96,0.15,15539,9763.30,0,0,165,-0.35,-0.14,0.49,-0.26,-0.96,0.15
1.1601562,0.0029439244,1.12150796E-4,0.004339572,-0.25,-0.96,0.15,15554,9763.30,0,0,0,-0.21,-0.28,0.91,-0.25,-0.96,0.15
0.86035156,9.439243E-4,-8.878489E-4,0.011339571,-0.26,-0.96,0.15,15569,9763.00,0,0,165,-0.35,-0.35,1.40,-0.26,-0.96,0.15
1.1601562,-5.6075398E-5,-0.0028878492,0.013339572,-0.26,-0.96,0.15,15576,9763.30,0,0,0,-0.42,-0.49,1.54,-0.26,-0.96,0.15
0.2607422,0.001943924,-0.0038878494,0.014339572,-0.26,-0.96,0.15,15592,9762.40,0,0,165,-0.28,-0.56,1.61,-0.26,-0.96,0.15
2.1601562,-5.6075398E-5,-0.00888785,0.019339573,-0.26,-0.96,0.15,15606,9764.30,0,0,0,-0.42,-0.91,1.96,-0.26,-0.96,0.15
1.1601562,0.003943924,-0.007887848,0.018339572,-0.26,-0.96,0.15,15614,9763.30,0,0,165,-0.14,-0.84,1.89,-0.26,-0.96,0.15
1.1601562,0.001943924,-0.0038878494,0.009339571,-0.26,-0.96,0.15,15628,9763.30,0,0,0,-0.28,-0.56,1.26,-0.26,-0.96,0.15
1.1601562,-0.0030560754,-0.0028878492,0.009339571,-0.26,-0.96,0.15,15644,9763.30,0,0,165,-0.63,-0.49,1.26,-0.26,-0.96,0.15
2.1601562,0.001943924,-0.0028878492,0.005339572,-0.26,-0.95,0.15,15651,9764.30,0,0,0,-0.28,-0.49,0.98,-0.26,-0.95,0.15
0.86035156,0.0029439244,0.004112151,-0.030660428,-0.26,-0.95,0.15,15666,9763.00,0,0,165,-0.21,0.00,-1.54,-0.26,-0.95,0.15
2.1601562,9.439243E-4,0.008112151,-0.04066043,-0.26,-0.96,0.15,15681,9764.30,0,0,0,-0.35,0.28,-2.24,-0.26,-0.96,0.15
1.1601562,0.003943924,0.005112151,-0.03866043,-0.26,-0.96,0.15,15689,9763.30,0,0,165,-0.14,0.07,-2.10,-0.26,-0.96,0.15
1.1601562,0.001943924,0.006112151,-0.03166043,-0.26,-0.96,0.15,15704,9763.30,0,0,0,-0.28,0.14,-1.61,-0.26,-0.96,0.15
2.1601562,0.0029439244,0.007112151,-0.03466043,-0.26,-0.96,0.15,15719,9764.30,0,0,165,-0.21,0.21,-1.82,-0.26,-0.96,0.15
0.2607422,9.439243E-4,0.007112151,-0.03466043,-0.26,-0.96,0.15,15726,9762.40,0,0,0,-0.35,0.21,-1.82,-0.26,-0.96,0.15
0.86035156,0.0029439244,0.006112151,-0.028660428,-0.25,-0.96,0.15,15741,9763.00,0,0,165,-0.21,0.14,-1.40,-0.25,-0.96,0.15
1.1601562,0.0029439244,0.006112151,-0.033660427,-0.25,-0.96,0.15,15756,9763.30,0,0,0,-0.21,0.14,-1.75,-0.25,-0.96,0.15
0.2607422,-0.006056075,0.009112151,-0.03666043,-0.25,-0.96,0.15,15764,9762.40,0,0,165,-0.84,0.35,-1.96,-0.25,-0.96,0.15
0.86035156,0.005943924,0.006112151,-0.037660427,-0.25,-0.96,0.15,15780,9763.00,0,0,0,0.00,0.14,-2.03,-0.25,-0.96,0.15
-0.13964844,-5.6075398E-5,0.007112151,-0.029660428,-0.25,-0.96,0.15,15794,9762.00,0,0,165,-0.42,0.21,-1.47,-0.25,-0.96,0.15
0.86035156,0.003943924,0.004112151,-0.020660426,-0.25,-0.96,0.15,15801,9763.00,0,0,0,-0.14,0.00,-0.84,-0.25,-0.96,0.15
0.2607422,0.0029439244,0.0031121508,-0.018660428,-0.25,-0.96,0.15,15816,9762.40,0,0,165,-0.21,-0.07,-0.70,-0.25,-0.96,0.15
1.1601562,0.001943924,0.002112151,-0.015660428,-0.25,-0.96,0.15,15832,9763.30,0,0,0,-0.28,-0.14,-0.49,-0.25,-0.96,0.15
1.1601562,9.439243E-4,0.002112151,-0.006660428,-0.25,-0.96,0.15,15839,9763.30,0,0,165,-0.35,-0.14,0.14,-0.25,-0.96,0.15
0.2607422,0.001943924,0.0011121512,-0.0026604286,-0.25,-0.96,0.15,15854,9762.40,0,0,0,-0.28,-0.21,0.42,-0.25,-0.96,0.15
1.1601562,-5.6075398E-5,-8.878489E-4,0.0063395714,-0.25,-0.96,0.15,15870,9763.30,0,0,165,-0.42,-0.35,1.05,-0.25,-0.96,0.15
1.1601562,9.439243E-4,-8.878489E-4,0.010339573,-0.25,-0.96,0.15,15877,9763.30,0,0,0,-0.35,-0.35,1.33,-0.25,-0.96,0.15
0.2607422,-5.6075398E-5,-0.0018878486,0.016339572,-0.25,-0.96,0.15,15891,9762.40,0,0,165,-0.42,-0.42,1.75,-0.25,-0.96,0.15
0.2607422,-0.0020560762,-0.0028878492,0.021339571,-0.25,-0.96,0.15,15907,9762.40,0,0,0,-0.56,-0.49,2.10,-0.25,-0.96,0.15
0.2607422,9.439243E-4,-0.0028878492,0.022339573,-0.26,-0.96,0.15,15914,9762.40,0,0,165,-0.35,-0.49,2.17,-0.26,-0.96,0.15
0.2607422,-0.0020560762,-0.0018878486,0.024339572,-0.26,-0.96,0.15,15929,9762.40,0,0,0,-0.56,-0.42,2.31,-0.26,-0.96,0.15
0.2607422,9.439243E-4,-0.0038878494,0.023339573,-0.25,-0.96,0.15,15944,9762.40,0,0,165,-0.35,-0.56,2.24,-0.25,-0.96,0.15
1.1601562,-5.6075398E-5,-0.0028878492,0.022339573,-0.25,-0.96,0.15,15951,9763.30,0,0,0,-0.42,-0.49,2.17,-0.25,-0.96,0.15
1.1601562,-0.001056076,-0.0018878486,0.022339573,-0.25,-0.96,0.15,15968,9763.30,0,0,165,-0.49,-0.42,2.17,-0.25,-0.96,0.15
1.1601562,-5.6075398E-5,-0.0028878492,0.023339573,-0.26,-0.96,0.15,15981,9763.30,0,0,0,-0.42,-0.49,2.24,-0.26,-0.96,0.15
-0.13964844,-0.001056076,-0.0038878494,0.019339573,-0.25,-0.96,0.15,15989,9762.00,0,0,165,-0.49,-0.56,1.96,-0.25,-0.96,0.15
1.1601562,9.439243E-4,-0.0018878486,0.016339572,-0.25,-0.96,0.15,16003,9763.30,0,0,0,-0.35,-0.42,1.75,-0.25,-0.96,0.15
0.2607422,-0.0040560756,-0.0038878494,0.023339573,-0.26,-0.96,0.15,16019,9762.40,0,0,165,-0.70,-0.56,2.24,-0.26,-0.96,0.15
1.1601562,9.439243E-4,-0.0028878492,0.017339572,-0.26,-0.96,0.15,16026,9763.30,0,0,0,-0.35,-0.49,1.82,-0.26,-0.96,0.15
-0.13964844,-0.0020560762,-0.0018878486,0.013339572,-0.26,-0.96,0.15,16041,9762.00,0,0,165,-0.56,-0.42,1.54,-0.26,-0.96,0.15
1.1601562,9.439243E-4,-0.0018878486,0.014339572,-0.26,-0.96,0.15,16056,9763.30,0,0,0,-0.35,-0.42,1.61,-0.26,-0.96,0.15
1.1601562,-5.6075398E-5,-0.0018878486,0.016339572,-0.25,-0.96,0.15,16064,9763.30,0,0,165,-0.42,-0.42,1.75,-0.25,-0.96,0.15
1.1601562,9.439243E-4,-0.0028878492,0.013339572,-0.26,-0.96,0.15,16079,9763.30,0,0,0,-0.35,-0.49,1.54,-0.26,-0.96,0.15
0.2607422,-5.6075398E-5,-0.0028878492,0.0073395725,-0.26,-0.95,0.14,16094,9762.40,0,0,165,-0.42,-0.49,1.12,-0.26,-0.95,0.14
1.1601562,0.0029439244,0.0011121512,0.0073395725,-0.25,-0.96,0.16,16102,9763.30,0,0,0,-0.21,-0.21,1.12,-0.25,-0.96,0.16
0.2607422,0.0029439244,-8.878489E-4,0.0073395725,-0.26,-0.95,0.14,16119,9762.40,0,0,165,-0.21,-0.35,1.12,-0.26,-0.95,0.14
1.1601562,9.439243E-4,1.12150796E-4,0.003339571,-0.26,-0.96,0.15,16131,9763.30,0,0,0,-0.35,-0.28,0.84,-0.26,-0.96,0.15
1.1601562,-0.001056076,-0.0018878486,0.011339571,-0.26,-0.96,0.15,16146,9763.30,0,0,165,-0.49,-0.42,1.40,-0.26,-0.96,0.15
1.1601562,0.0029439244,-0.0038878494,0.011339571,-0.26,-0.96,0.15,16154,9763.30,0,0,0,-0.21,-0.56,1.40,-0.26,-0.96,0.15
1.1601562,-0.006056075,-0.0018878486,0.014339572,-0.25,-0.96,0.15,16169,9763.30,0,0,165,-0.84,-0.42,1.61,-0.25,-0.96,0.15
0.2607422,0.009943925,-0.0038878494,0.008339573,-0.26,-0.96,0.16,16176,9762.40,0,0,0,0.28,-0.56,1.19,-0.26,-0.96,0.16
1.1601562,-0.0050560758,-0.0038878494,0.010339573,-0.26,-0.95,0.15,16191,9763.30,0,0,165,-0.77,-0.56,1.33,-0.26,-0.95,0.15
1.1601562,0.005943924,-0.0048878486,-0.0026604286,-0.25,-0.95,0.14,16206,9763.30,0,0,0,0.00,-0.63,0.42,-0.25,-0.95,0.14
1.7607422,-0.0020560762,0.0011121512,0.0063395714,-0.25,-0.97,0.15,16214,9763.90,0,0,165,-0.56,-0.21,1.05,-0.25,-0.97,0.15
1.1601562,0.004943924,-0.0028878492,0.014339572,-0.25,-0.96,0.15,16229,9763.30,0,0,0,-0.07,-0.49,1.61,-0.25,-0.96,0.15
0.2607422,0.001943924,-0.005887849,0.011339571,-0.26,-0.96,0.15,16244,9762.40,0,0,165,-0.28,-0.70,1.40,-0.26,-0.96,0.15
1.1601562,9.439243E-4,-0.0048878486,0.011339571,-0.26,-0.96,0.15,16251,9763.30,0,0,0,-0.35,-0.63,1.40,-0.26,-0.96,0.15
1.1601562,0.001943924,-0.0038878494,0.010339573,-0.26,-0.96,0.16,16267,9763.30,0,0,165,-0.28,-0.56,1.33,-0.26,-0.96,0.16
0.2607422,-0.0030560754,-0.0038878494,0.011339571,-0.26,-0.96,0.15,16281,9762.40,0,0,0,-0.63,-0.56,1.40,-0.26,-0.96,0.15
0.2607422,-5.6075398E-5,-8.878489E-4,0.003339571,-0.25,-0.96,0.15,16289,9762.40,0,0,165,-0.42,-0.35,0.84,-0.25,-0.96,0.15
0.2607422,0.0029439244,-8.878489E-4,-0.0056604287,-0.26,-0.96,0.15,16304,9762.40,0,0,0,-0.21,-0.35,0.21,-0.26,-0.96,0.15
0.86035156,9.439243E-4,0.002112151,-0.012660429,-0.26,-0.96,0.15,16319,9763.00,0,0,165,-0.35,-0.14,-0.28,-0.26,-0.96,0.15
0.2607422,0.001943924,0.004112151,-0.022660429,-0.26,-0.96,0.15,16326,9762.40,0,0,0,-0.28,0.00,-0.98,-0.26,-0.96,0.15
1.1601562,0.003943924,0.0031121508,-0.02566043,-0.26,-0.96,0.15,16342,9763.30,0,0,165,-0.14,-0.07,-1.19,-0.26,-0.96,0.15
1.1601562,0.001943924,0.008112151,-0.03466043,-0.26,-0.96,0.15,16356,9763.30,0,0,0,-0.28,0.28,-1.82,-0.26,-0.96,0.15
0.2607422,0.001943924,0.007112151,-0.03666043,-0.26,-0.96,0.15,16364,9762.40,0,0,165,-0.28,0.21,-1.96,-0.26,-0.96,0.15
1.1601562,0.0029439244,0.006112151,-0.04066043,-0.26,-0.96,0.15,16378,9763.30,0,0,0,-0.21,0.14,-2.24,-0.26,-0.96,0.15
1.1601562,-5.6075398E-5,0.005112151,-0.03666043,-0.26,-0.96,0.15,16394,9763.30,0,0,165,-0.42,0.07,-1.96,-0.26,-0.96,0.15
-0.13964844,0.004943924,0.007112151,-0.04366043,-0.26,-0.96,0.15,16401,9762.00,0,0,0,-0.07,0.21,-2.45,-0.26,-0.96,0.15
1.1601562,0.0029439244,0.009112151,-0.04266043,-0.25,-0.96,0.15,16417,9763.30,0,0,165,-0.21,0.35,-2.38,-0.25,-0.96,0.15
0.86035156,-5.6075398E-5,0.006112151,-0.037660427,-0.25,-0.96,0.15,16431,9763.00,0,0,0,-0.42,0.14,-2.03,-0.25,-0.96,0.15
0.86035156,0.0029439244,0.006112151,-0.03666043,-0.26,-0.96,0.15,16438,9763.00,0,0,165,-0.21,0.14,-1.96,-0.26,-0.96,0.15
-0.13964844,9.439243E-4,0.009112151,-0.04266043,-0.26,-0.96,0.15,16455,9762.00,0,0,0,-0.35,0.35,-2.38,-0.26,-0.96,0.15
-0.13964844,0.0029439244,0.01311215,-0.05166043,-0.25,-0.96,0.15,16469,9762.00,0,0,165,-0.21,0.63,-3.01,-0.25,-0.96,0.15
1.1601562,0.001943924,0.01511215,-0.05166043,-0.25,-0.96,0.15,16476,9763.30,0,0,0,-0.28,0.77,-3.01,-0.25,-0.96,0.15
0.2607422,0.0029439244,0.01711215,-0.052660428,-0.25,-0.96,0.15,16491,9762.40,0,0,165,-0.21,0.91,-3.08,-0.25,-0.96,0.15
0.2607422,-5.6075398E-5,0.01611215,-0.05366043,-0.25,-0.96,0.15,16506,9762.40,0,0,0,-0.42,0.84,-3.15,-0.25,-0.96,0.15
0.2607422,0.001943924,0.01511215,-0.048660427,-0.25,-0.96,0.15,16514,9762.40,0,0,165,-0.28,0.77,-2.80,-0.25,-0.96,0.15
1.1601562,0.001943924,0.01711215,-0.04366043,-0.25,-0.96,0.15,16528,9763.30,0,0,0,-0.28,0.91,-2.45,-0.25,-0.96,0.15
0.86035156,-0.008056076,0.01711215,-0.013660428,-0.24,-0.97,0.15,16544,9763.00,0,0,165,-0.98,0.91,-0.35,-0.24,-0.97,0.15
0.2607422,0.004943924,0.007112151,-0.0056604287,-0.25,-0.96,0.15,16551,9762.40,0,0,0,-0.07,0.21,0.21,-0.25,-0.96,0.15
1.1601562,-0.008056076,0.009112151,-0.006660428,-0.25,-0.96,0.15,16566,9763.30,0,0,165,-0.98,0.35,0.14,-0.25,-0.96,0.15
1.7607422,-0.006056075,0.011112152,0.003339571,-0.13,-0.96,0.15,16581,9763.90,0,0,0,-0.84,0.49,0.84,-0.13,-0.96,0.15
0.2607422,0.0029439244,0.011112152,-6.6042785E-4,-0.24,-0.96,0.15,16588,9762.40,0,0,165,-0.21,0.49,0.56,-0.24,-0.96,0.15
1.1601562,-0.013056077,0.010112151,0.014339572,-0.24,-0.96,0.15,16603,9763.30,0,0,0,-1.33,0.42,1.61,-0.24,-0.96,0.15
0.2607422,-0.0050560758,0.0011121512,0.025339574,-0.25,-0.96,0.15,16618,9762.40,0,0,165,-0.77,-0.21,2.38,-0.25,-0.96,0.15
0.2607422,-0.0040560756,0.007112151,0.008339573,-0.25,-0.96,0.15,16626,9762.40,0,0,0,-0.70,0.21,1.19,-0.25,-0.96,0.15
1.1601562,-0.013056077,0.010112151,0.014339572,-0.24,-0.96,0.14,16642,9763.30,0,0,165,-1.33,0.42,1.61,-0.24,-0.96,0.14
0.2607422,-0.0090560755,0.0031121508,0.037339572,-0.25,-0.96,0.15,16656,9762.40,0,0,0,-1.05,-0.07,3.22,-0.25,-0.96,0.15
1.7607422,-0.0050560758,0.0011121512,0.026339572,-0.25,-0.96,0.15,16664,9763.90,0,0,165,-0.77,-0.21,2.45,-0.25,-0.96,0.15
1.1601562,-0.0090560755,0.0031121508,0.0073395725,-0.25,-0.96,0.15,16679,9763.30,0,0,0,-1.05,-0.07,1.12,-0.25,-0.96,0.15
0.2607422,-0.010056077,-0.0028878492,0.018339572,-0.24,-0.96,0.14,16694,9762.40,0,0,165,-1.12,-0.49,1.89,-0.24,-0.96,0.14
1.1601562,0.014943924,-0.00888785,0.010339573,-0.25,-0.97,0.16,16701,9763.30,0,0,0,0.63,-0.91,1.33,-0.25,-0.97,0.16
1.1601562,-0.030056074,0.008112151,0.016339572,-0.25,-0.95,0.14,16716,9763.30,0,0,165,-2.52,0.28,1.75,-0.25,-0.95,0.14
2.1601562,0.012943924,-0.007887848,0.0073395725,-0.25,-0.96,0.15,16731,9764.30,0,0,0,0.49,-0.84,1.12,-0.25,-0.96,0.15
1.1601562,-0.008056076,0.0011121512,-0.018660428,-0.25,-0.97,0.15,16739,9763.30,0,0,165,-0.98,-0.21,-0.70,-0.25,-0.97,0.15
1.1601562,0.009943925,-0.006887849,0.003339571,-0.25,-0.96,0.15,16754,9763.30,0,0,0,0.28,-0.77,0.84,-0.25,-0.96,0.15
0.2607422,-0.0040560756,-0.005887849,-0.012660429,-0.26,-0.95,0.15,16769,9762.40,0,0,165,-0.70,-0.70,-0.28,-0.26,-0.95,0.15
1.1601562,0.009943925,-0.0018878486,-0.03166043,-0.26,-0.96,0.15,16776,9763.30,0,0,0,0.28,-0.42,-1.61,-0.26,-0.96,0.15
-0.13964844,-0.011056077,0.004112151,-0.026660427,-0.24,-0.97,0.15,16792,9762.00,0,0,165,-1.19,0.00,-1.26,-0.24,-0.97,0.15
0.86035156,-0.0050560758,-0.0048878486,0.018339572,-0.24,-0.97,0.15,16806,9763.00,0,0,0,-0.77,-0.63,1.89,-0.24,-0.97,0.15
0.86035156,-0.014056075,-0.00988785,0.020339571,-0.26,-0.96,0.15,16813,9763.00,0,0,165,-1.40,-0.98,2.03,-0.26,-0.96,0.15
0.2607422,-0.0090560755,-0.010887848,0.018339572,-0.25,-0.96,0.14,16828,9762.40,0,0,0,-1.05,-1.05,1.89,-0.25,-0.96,0.14
0.86035156,-0.0020560762,-0.01788785,0.036339574,-0.26,-0.96,0.15,16843,9763.00,0,0,165,-0.56,-1.54,3.15,-0.26,-0.96,0.15
0.86035156,-0.014056075,-0.0048878486,0.009339571,-0.26,-0.96,0.15,16851,9763.00,0,0,0,-1.40,-0.63,1.26,-0.26,-0.96,0.15
0.86035156,0.0069439244,-0.007887848,-0.018660428,-0.25,-0.96,0.14,16867,9763.00,0,0,165,0.07,-0.84,-0.70,-0.25,-0.96,0.14
1.1601562,-0.2500561,0.002112151,-0.03966043,-0.26,-0.96,0.15,16882,9763.30,0,0,0,-17.92,-0.14,-2.17,-0.26,-0.96,0.15
1.1601562,9.439243E-4,0.004112151,-0.050660428,-0.25,-0.96,0.14,16889,9763.30,0,0,165,-0.35,0.00,-2.94,-0.25,-0.96,0.14
0.86035156,0.004943924,1.12150796E-4,-0.022660429,-0.24,-0.97,0.15,16904,9763.00,0,0,0,-0.07,-0.28,-0.98,-0.24,-0.97,0.15
1.1601562,-5.6075398E-5,-0.0028878492,0.014339572,-0.24,-0.97,0.15,16919,9763.30,0,0,165,-0.42,-0.49,1.61,-0.24,-0.97,0.15
2.1601562,-0.013056077,-0.025887849,0.022339573,-0.24,-0.94,0.13,16926,9764.30,0,0,0,-1.33,-2.10,2.17,-0.24,-0.94,0.13
0.2607422,0.018943924,-0.02688785,0.004339572,-0.25,-0.98,0.17,16941,9762.40,0,0,165,0.91,-2.17,0.91,-0.25,-0.98,0.17
2.1601562,-0.0150560755,-0.013887849,0.026339572,-0.25,-0.97,0.13,16956,9764.30,0,0,0,-1.47,-1.26,2.45,-0.25,-0.97,0.13
0.86035156,0.052943923,-0.029887851,0.026339572,-0.24,-0.97,0.16,16965,9763.00,0,0,165,3.29,-2.38,2.45,-0.24,-0.97,0.16
0.86035156,-0.018056074,-0.0048878486,0.008339573,-0.26,-0.95,0.17,16979,9763.00,0,0,0,-1.68,-0.63,1.19,-0.26,-0.95,0.17
0.86035156,-0.037056077,-0.006887849,-0.03966043,-0.25,-0.95,0.14,16993,9763.00,0,0,165,-3.01,-0.77,-2.17,-0.25,-0.95,0.14
1.1601562,-0.011056077,-0.005887849,-0.004660428,-0.25,-0.96,0.14,17001,9763.30,0,0,0,-1.19,-0.70,0.28,-0.25,-0.96,0.14
2.1601562,0.009943925,0.012112152,-0.01666043,-0.25,-0.95,0.14,17016,9764.30,0,0,165,0.28,0.56,-0.56,-0.25,-0.95,0.14
1.1601562,0.061943926,-0.025887849,0.010339573,-0.2,-0.96,0.1,17031,9763.30,0,0,0,3.92,-2.10,1.33,-0.20,-0.96,0.10
1.1601562,0.13794392,-0.10288784,0.10733957,-0.22,-0.97,0.17,17038,9763.30,0,0,165,9.24,-7.49,8.12,-0.22,-0.97,0.17
1.1601562,0.12494392,-0.10288784,0.12133958,-0.25,-0.95,0.16,17053,9763.30,0,0,0,8.33,-7.49,9.10,-0.25,-0.95,0.16
2.1601562,0.016943924,-0.17188784,0.07533957,-0.26,-0.97,0.12,17069,9764.30,0,0,165,0.77,-12.32,5.88,-0.26,-0.97,0.12
0.86035156,-0.11505608,0.16911216,0.24433956,-0.24,-1.13,0.25,17076,9763.00,0,0,0,-8.47,11.55,17.71,-0.24,-1.13,0.25
0.2607422,-0.4050561,0.25111216,0.62633955,-0.21,-1.02,0.12,17091,9762.40,0,0,165,-28.77,17.29,44.45,-0.21,-1.02,0.12
-0.13964844,-0.039056078,0.47111213,1.0393395,-0.4,-1.15,0.13,17106,9762.00,0,0,0,-3.15,32.69,73.36,-0.40,-1.15,0.13
0.86035156,-0.36405608,1.0031122,1.4183396,-0.32,-1.09,0.21,17114,9763.00,0,0,165,-25.90,69.93,99.89,-0.32,-1.09,0.21
1.1601562,-0.79105604,1.140112,1.5373396,-0.39,-1.03,0.09,17129,9763.30,0,0,0,-55.79,79.52,108.22,-0.39,-1.03,0.09
1.1601562,-0.724056,1.459112,1.4643396,-0.51,-0.95,0.02,17144,9763.30,0,0,165,-51.10,101.85,103.11,-0.51,-0.95,0.02
1.1601562,-0.39405608,1.5291121,1.1423396,-0.5,-1.03,0.12,17152,9763.30,0,0,0,-28.00,106.75,80.57,-0.50,-1.03,0.12
-0.13964844,-0.23005608,1.5041121,0.6933395,-0.51,-1.11,0.09,17166,9762.00,0,0,165,-16.52,105.00,49.14,-0.51,-1.11,0.09
2.1601562,-0.14905608,1.3741121,0.24333957,-0.54,-1.16,-0.0,17181,9764.30,0,0,0,-10.85,95.90,17.64,-0.54,-1.16,-0.00
1.1601562,0.079943925,1.4351121,-0.024660429,-0.57,-1.25,-0.09,17189,9763.30,0,0,165,5.18,100.17,-1.12,-0.57,-1.25,-0.09
0.86035156,0.3089439,1.6161121,-0.3116604,-0.57,-1.23,0.0,17203,9763.00,0,0,0,21.21,112.84,-21.21,-0.57,-1.23,0.00
0.86035156,0.66094387,1.4901121,-0.47766045,-0.62,-1.16,0.04,17219,9763.00,0,0,165,45.85,104.02,-32.83,-0.62,-1.16,0.04
1.1601562,1.1489439,1.2431122,-0.65966046,-0.58,-1.1,0.05,17226,9763.30,0,0,0,80.01,86.73,-45.57,-0.58,-1.10,0.05
2.1601562,1.5789438,0.9871121,-0.8116604,-0.56,-0.96,0.01,17241,9764.30,0,0,165,110.11,68.81,-56.21,-0.56,-0.96,0.01
1.1601562,1.8889439,0.78911215,-0.91166043,-0.56,-0.86,0.01,17256,9763.30,0,0,0,131.81,54.95,-63.21,-0.56,-0.86,0.01
1.1601562,1.693944,0.6951121,-0.92066044,-0.57,-0.89,0.07,17271,9763.30,0,0,165,118.16,48.37,-63.84,-0.57,-0.89,0.07
1.1601562,0.9349439,0.48711216,-0.8896604,-0.54,-0.91,0.09,17278,9763.30,0,0,0,65.03,33.81,-61.67,-0.54,-0.91,0.09
0.86035156,0.38094392,0.27611217,-0.7046605,-0.52,-0.87,0.04,17294,9763.00,0,0,165,26.25,19.04,-48.72,-0.52,-0.87,0.04
1.1601562,0.6389439,-0.07088785,-0.46666047,-0.47,-0.89,-0.11,17302,9763.30,0,0,0,44.31,-5.25,-32.06,-0.47,-0.89,-0.11
0.86035156,1.3589439,-0.18788783,-0.34266043,-0.46,-0.99,-0.17,17317,9763.00,0,0,165,94.71,-13.44,-23.38,-0.46,-0.99,-0.17
1.1601562,1.7999439,-0.019887848,-0.57766044,-0.5,-1.1,-0.15,17324,9763.30,0,0,0,125.58,-1.68,-39.83,-0.50,-1.10,-0.15
0.86035156,1.8199439,0.31111217,-0.93966043,-0.53,-1.04,-0.07,17339,9763.00,0,0,165,126.98,21.49,-65.17,-0.53,-1.04,-0.07
1.1601562,1.545944,0.47111213,-1.0566604,-0.52,-0.92,0.14,17353,9763.30,0,0,0,107.80,32.69,-73.36,-0.52,-0.92,0.14
0.2607422,1.675944,0.35011214,-0.9166604,-0.51,-0.86,0.27,17361,9762.40,0,0,165,116.90,24.22,-63.56,-0.51,-0.86,0.27
1.1601562,1.422944,0.10611215,-0.75766045,-0.48,-0.86,0.3,17376,9763.30,0,0,0,99.19,7.14,-52.43,-0.48,-0.86,0.30
0.86035156,1.323944,-0.13488784,-0.6876604,-0.41,-0.88,0.25,17391,9763.00,0,0,165,92.26,-9.73,-47.53,-0.41,-0.88,0.25
0.2607422,1.1579438,-0.28788784,-0.7096604,-0.38,-0.94,0.19,17398,9762.40,0,0,0,80.64,-20.44,-49.07,-0.38,-0.94,0.19
1.1601562,0.974944,-0.36288786,-0.7876604,-0.36,-0.97,0.1,17413,9763.30,0,0,165,67.83,-25.69,-54.53,-0.36,-0.97,0.10
1.1601562,0.80894387,-0.30288786,-0.8296605,-0.34,-0.99,0.03,17428,9763.30,0,0,0,56.21,-21.49,-57.47,-0.34,-0.99,0.03
1.1601562,0.9019439,-0.072887845,-0.92766047,-0.32,-1.01,-0.03,17443,9763.30,0,0,165,62.72,-5.39,-64.33,-0.32,-1.01,-0.03
0.86035156,1.2619438,0.41011214,-1.1336604,-0.38,-0.97,0.06,17453,9763.00,0,0,0,87.92,28.42,-78.75,-0.38,-0.97,0.06
1.1601562,1.468944,0.7841121,-1.3056605,-0.34,-0.9,0.27,17468,9763.30,0,0,165,102.41,54.60,-90.79,-0.34,-0.90,0.27
1.1601562,1.4319439,0.74811214,-1.2996604,-0.29,-0.76,0.47,17474,9763.30,0,0,0,99.82,52.08,-90.37,-0.29,-0.76,0.47
-0.13964844,1.2619438,0.47311217,-1.1436604,-0.29,-0.68,0.59,17489,9762.00,0,0,165,87.92,32.83,-79.45,-0.29,-0.68,0.59
0.86035156,0.95394397,0.08411215,-0.9216604,-0.24,-0.65,0.64,17504,9763.00,0,0,0,66.36,5.60,-63.91,-0.24,-0.65,0.64
0.86035156,0.70094395,-0.34988785,-0.73366046,-0.17,-0.65,0.59,17511,9763.00,0,0,165,48.65,-24.78,-50.75,-0.17,-0.65,0.59
0.2607422,0.40194392,-0.7318879,-0.6356604,-0.11,-0.69,0.4,17525,9762.40,0,0,0,27.72,-51.52,-43.89,-0.11,-0.69,0.40
1.1601562,0.28094393,-0.78488785,-0.48866042,-0.06,-0.78,0.23,17541,9763.30,0,0,165,19.25,-55.23,-33.60,-0.06,-0.78,0.23
0.86035156,0.14994392,-0.46488786,-0.5376604,-0.06,-0.96,0.18,17548,9763.00,0,0,0,10.08,-32.83,-37.03,-0.06,-0.96,0.18
0.2607422,0.06794393,0.035112154,-0.8756604,-0.06,-0.94,0.24,17564,9762.40,0,0,165,4.34,2.17,-60.69,-0.06,-0.94,0.24
0.86035156,0.17794393,0.29311216,-1.1426604,-0.04,-0.78,0.31,17579,9763.00,0,0,0,12.04,20.23,-79.38,-0.04,-0.78,0.31
1.1601562,0.42094392,0.31311214,-1.0786605,-0.02,-0.68,0.38,17586,9763.30,0,0,165,29.05,21.63,-74.90,-0.02,-0.68,0.38
1.1601562,0.3679439,0.25111216,-0.8066605,-0.0,-0.75,0.52,17601,9763.30,0,0,0,25.34,17.29,-55.86,-0.00,-0.75,0.52
0.86035156,0.04694392,0.26411217,-0.7406605,-0.01,-0.81,0.54,17617,9763.00,0,0,165,2.87,18.20,-51.24,-0.01,-0.81,0.54
1.1601562,0.054943927,0.20911215,-0.7176604,-0.0,-0.84,0.5,17623,9763.30,0,0,0,3.43,14.35,-49.63,-0.00,-0.84,0.50
1.4599609,0.35794392,0.070112154,-0.68466043,0.01,-0.87,0.45,17639,9763.60,0,0,165,24.64,4.62,-47.32,0.01,-0.87,0.45
1.1601562,0.5339439,-0.013887849,-0.69666046,0.02,-0.98,0.46,17654,9763.30,0,0,0,36.96,-1.26,-48.16,0.02,-0.98,0.46
0.86035156,0.33894393,-0.07388785,-0.8356604,0.03,-0.99,0.47,17669,9763.00,0,0,165,23.31,-5.46,-57.89,0.03,-0.99,0.47
1.1601562,0.14294393,-0.06388785,-1.1066605,0.03,-0.91,0.44,17676,9763.30,0,0,0,9.59,-4.76,-76.86,0.03,-0.91,0.44
2.1601562,0.15094392,-0.06988785,-1.1736605,0.07,-0.78,0.42,17691,9764.30,0,0,165,10.15,-5.18,-81.55,0.07,-0.78,0.42
1.1601562,0.24894392,-0.07488785,-1.1036605,0.1,-0.74,0.45,17699,9763.30,0,0,0,17.01,-5.53,-76.65,0.10,-0.74,0.45
1.1601562,0.15594393,-0.108887844,-1.0896604,0.13,-0.72,0.47,17713,9763.30,0,0,165,10.50,-7.91,-75.67,0.13,-0.72,0.47
0.86035156,0.08194393,-0.19488785,-1.0206604,0.17,-0.75,0.47,17728,9763.00,0,0,0,5.32,-13.93,-70.84,0.17,-0.75,0.47
0.86035156,-0.0050560758,-0.18188785,-1.0386604,0.13,-0.83,0.47,17737,9763.00,0,0,165,-0.77,-13.02,-72.10,0.13,-0.83,0.47
0.86035156,-0.27705607,-0.11888784,-1.2246605,0.15,-0.8,0.49,17751,9763.00,0,0,0,-19.81,-8.61,-85.12,0.15,-0.80,0.49
1.1601562,-0.5290561,-0.120887846,-1.2466605,0.16,-0.75,0.49,17767,9763.30,0,0,165,-37.45,-8.75,-86.66,0.16,-0.75,0.49
1.1601562,-0.5980561,-0.17788784,-1.1836604,0.22,-0.72,0.46,17774,9763.30,0,0,0,-42.28,-12.74,-82.25,0.22,-0.72,0.46
2.1601562,-0.37305608,-0.30488783,-1.0246605,0.31,-0.69,0.42,17789,9764.30,0,0,165,-26.53,-21.63,-71.12,0.31,-0.69,0.42
0.2607422,-0.038056076,-0.6098879,-1.0366604,0.52,-0.63,0.36,17804,9762.40,0,0,0,-3.08,-42.98,-71.96,0.52,-0.63,0.36
2.1601562,-0.20605607,-0.40888783,-0.95566046,0.17,-0.66,0.34,17811,9764.30,0,0,165,-14.84,-28.91,-66.29,0.17,-0.66,0.34
0.86035156,-0.7690561,0.24211214,-1.1896604,0.23,-0.78,0.56,17826,9763.00,0,0,0,-54.25,16.66,-82.67,0.23,-0.78,0.56
0.86035156,-1.6210561,0.33011216,-1.4046605,0.36,-0.76,0.57,17841,9763.00,0,0,165,-113.89,22.82,-97.72,0.36,-0.76,0.57
1.1601562,-1.9030561,0.093112156,-1.3476605,0.45,-0.62,0.49,17849,9763.30,0,0,0,-133.63,6.23,-93.73,0.45,-0.62,0.49
0.86035156,-1.5500561,0.03411215,-0.8936604,0.25,-0.58,0.53,17864,9763.00,0,0,165,-108.92,2.10,-61.95,0.25,-0.58,0.53
0.86035156,-1.4370562,0.24711215,-0.5846604,0.23,-0.78,0.73,17886,9763.00,0,0,0,-101.01,17.01,-40.32,0.23,-0.78,0.73
1.1601562,-2.276056,0.32311216,-0.6066604,0.29,-0.85,0.76,17887,9763.30,0,0,165,-159.74,22.33,-41.86,0.29,-0.85,0.76
1.1601562,-2.615056,0.32711217,-0.71566045,0.3,-0.73,0.62,17902,9763.30,0,0,0,-183.47,22.61,-49.49,0.30,-0.73,0.62
0.86035156,-2.095056,0.19711216,-0.5476604,0.35,-0.68,0.49,17916,9763.00,0,0,165,-147.07,13.51,-37.73,0.35,-0.68,0.49
1.1601562,-1.2470561,-0.079887845,-0.18266043,0.45,-0.68,0.33,17923,9763.30,0,0,0,-87.71,-5.88,-12.18,0.45,-0.68,0.33
-0.13964844,-0.7130561,-0.18388784,0.058339573,0.42,-0.89,0.21,17939,9762.00,0,0,165,-50.33,-13.16,4.69,0.42,-0.89,0.21
-0.13964844,-1.2130561,-0.03588785,-0.06866042,0.33,-1.06,0.13,17954,9762.00,0,0,0,-85.33,-2.80,-4.20,0.33,-1.06,0.13
3.0605469,-1.9590561,0.45411214,-0.49166045,0.33,-1.04,0.12,17961,9765.20,0,0,165,-137.55,31.50,-33.81,0.33,-1.04,0.12
0.2607422,-2.2790558,1.0741122,-0.6506604,0.35,-0.94,0.22,17976,9762.40,0,0,0,-159.95,74.90,-44.94,0.35,-0.94,0.22
1.1601562,-1.8910561,1.1181122,-0.44466045,0.35,-0.75,0.34,17991,9763.30,0,0,165,-132.79,77.98,-30.52,0.35,-0.75,0.34
1.1601562,-1.6360562,1.0941122,-0.080660425,0.2,-0.82,0.37,17998,9763.30,0,0,0,-114.94,76.30,-5.04,0.20,-0.82,0.37
1.1601562,-2.290056,1.6721121,-0.07866043,0.39,-1.06,0.21,18014,9763.30,0,0,165,-160.72,116.76,-4.90,0.39,-1.06,0.21
1.7607422,-2.792056,2.3881123,-0.028660428,0.44,-1.03,0.09,18028,9763.90,0,0,0,-195.86,166.88,-1.40,0.44,-1.03,0.09
1.7607422,-2.156056,2.4621122,-0.021660428,0.32,-0.94,0.05,18043,9763.90,0,0,165,-151.34,172.06,-0.91,0.32,-0.94,0.05
1.7607422,-1.271056,1.9211122,-0.06666043,0.13,-1.13,0.3,18051,9763.90,0,0,0,-89.39,134.19,-4.06,0.13,-1.13,0.30
2.1601562,-1.7110561,0.92311215,-0.53066045,0.25,-1.07,0.28,18066,9764.30,0,0,165,-120.19,64.33,-36.54,0.25,-1.07,0.28
1.1601562,-1.1190561,0.39411214,-0.43466043,0.55,-0.94,0.14,18074,9763.30,0,0,0,-78.75,27.30,-29.82,0.55,-0.94,0.14
3.0605469,-0.10305608,-0.098887846,-0.07066043,0.39,-1.01,0.05,18089,9765.20,0,0,165,-7.63,-7.21,-4.34,0.39,-1.01,0.05
2.1601562,0.40294394,-0.30688787,0.0073395725,0.23,-1.1,-0.04,18104,9764.30,0,0,0,27.79,-21.77,1.12,0.23,-1.10,-0.04
1.1601562,0.4979439,-0.38188785,-0.13866043,0.25,-1.03,-0.08,18111,9763.30,0,0,165,34.44,-27.02,-9.10,0.25,-1.03,-0.08
0.86035156,0.6109439,-0.29388785,-0.25166044,0.26,-1.01,-0.1,18127,9763.00,0,0,0,42.35,-20.86,-17.01,0.26,-1.01,-0.10
2.1601562,0.8429439,0.023112152,-0.22566041,0.42,-0.98,-0.03,18140,9764.30,0,0,165,58.59,1.33,-15.19,0.42,-0.98,-0.03
2.1601562,1.6789439,0.34511217,0.03133957,0.5,-0.88,0.08,18148,9764.30,0,0,0,117.11,23.87,2.80,0.50,-0.88,0.08
2.1601562,3.276944,0.18611215,0.27433956,0.44,-0.89,0.2,18163,9764.30,0,0,165,228.97,12.74,19.81,0.44,-0.89,0.20
1.1601562,4.294944,-0.11688785,0.45933953,0.43,-1.04,0.41,18178,9763.30,0,0,0,300.23,-8.47,32.76,0.43,-1.04,0.41
2.1601562,4.014944,-0.38388786,0.26233956,0.35,-1.16,0.5,18186,9764.30,0,0,165,280.63,-27.16,18.97,0.35,-1.16,0.50
0.86035156,2.833944,-0.37488785,-0.17966044,0.33,-1.06,0.52,18202,9763.00,0,0,0,197.96,-26.53,-11.97,0.33,-1.06,0.52
2.1601562,1.9679438,-0.31888786,-0.31366044,0.4,-0.88,0.49,18216,9764.30,0,0,165,137.34,-22.61,-21.35,0.40,-0.88,0.49
2.1601562,1.853944,-0.5098879,-0.21266043,0.39,-0.78,0.39,18224,9764.30,0,0,0,129.36,-35.98,-14.28,0.39,-0.78,0.39
1.7607422,2.0739439,-0.7278879,-0.27566046,0.39,-0.89,0.33,18239,9763.90,0,0,165,144.76,-51.24,-18.69,0.39,-0.89,0.33
2.1601562,1.7599438,-0.65388787,-0.6586604,0.4,-0.98,0.31,18254,9764.30,0,0,0,122.78,-46.06,-45.50,0.40,-0.98,0.31
3.0605469,1.5009439,-0.5458879,-0.91066045,0.43,-0.97,0.35,18261,9765.20,0,0,165,104.65,-38.50,-63.14,0.43,-0.97,0.35
2.1601562,1.908944,-0.47988787,-0.9496605,0.44,-0.91,0.36,18276,9764.30,0,0,0,133.21,-33.88,-65.87,0.44,-0.91,0.36
2.1601562,2.545944,-0.38788787,-0.9146604,0.43,-0.79,0.38,18291,9764.30,0,0,165,177.80,-27.44,-63.42,0.43,-0.79,0.38
2.1601562,3.098944,-0.21388786,-0.7616604,0.4,-0.64,0.44,18298,9764.30,0,0,0,216.51,-15.26,-52.71,0.40,-0.64,0.44
2.1601562,4.040944,-0.09288785,-0.40166044,0.41,-0.47,0.51,18313,9764.30,0,0,165,282.45,-6.79,-27.51,0.41,-0.47,0.51
2.1601562,5.1089435,-0.17888786,-0.14466044,0.42,-0.55,0.62,18328,9764.30,0,0,0,357.21,-12.81,-9.52,0.42,-0.55,0.62
2.1601562,5.3259435,-0.70988786,0.06833957,0.42,-0.59,0.71,18336,9764.30,0,0,165,372.40,-49.98,5.39,0.42,-0.59,0.71
1.7607422,4.583944,-0.8678879,0.009339571,0.4,-0.89,0.81,18351,9763.90,0,0,0,320.46,-61.04,1.26,0.40,-0.89,0.81
0.86035156,3.334944,-0.94688785,-0.46066043,0.39,-0.85,0.8,18366,9763.00,0,0,165,233.03,-66.57,-31.64,0.39,-0.85,0.80
2.1601562,2.7899442,-1.0508878,-0.80766046,0.38,-0.72,0.76,18373,9764.30,0,0,0,194.88,-73.85,-55.93,0.38,-0.72,0.76
1.1601562,3.311944,-1.0188879,-0.71166044,0.41,-0.52,0.75,18388,9763.30,0,0,165,231.42,-71.61,-49.21,0.41,-0.52,0.75
0.86035156,3.4529438,-0.86688787,-0.26566043,0.44,-0.47,0.78,18404,9763.00,0,0,0,241.29,-60.97,-17.99,0.44,-0.47,0.78
0.86035156,2.9879441,-0.29288787,-0.41466042,0.42,-0.56,0.82,18419,9763.00,0,0,165,208.74,-20.79,-28.42,0.42,-0.56,0.82
1.1601562,2.217944,-0.26488784,-0.51366043,0.38,-0.48,0.85,18426,9763.30,0,0,0,154.84,-18.83,-35.35,0.38,-0.48,0.85
0.2607422,2.144944,-0.23488784,-0.18366042,0.36,-0.39,0.93,18441,9762.40,0,0,165,149.73,-16.73,-12.25,0.36,-0.39,0.93
1.1601562,1.7999439,-0.22088784,-0.25566044,0.32,-0.62,0.96,18449,9763.30,0,0,0,125.58,-15.75,-17.29,0.32,-0.62,0.96
1.1601562,1.649944,-0.18188785,-0.50366044,0.33,-0.45,0.93,18464,9763.30,0,0,165,115.08,-13.02,-34.65,0.33,-0.45,0.93
2.1601562,2.1199439,-0.16988786,-0.47166044,0.32,-0.33,1.04,18479,9764.30,0,0,0,147.98,-12.18,-32.41,0.32,-0.33,1.04
1.1601562,1.8559439,-0.27988783,-0.46466044,0.32,-0.28,1.14,18486,9763.30,0,0,165,129.50,-19.88,-31.92,0.32,-0.28,1.14
1.1601562,1.5919439,-0.46888787,-0.35866043,0.31,-0.19,1.14,18503,9763.30,0,0,0,111.02,-33.11,-24.50,0.31,-0.19,1.14
1.1601562,1.2249439,-0.6048879,-0.16866043,0.32,-0.19,1.08,18516,9763.30,0,0,165,85.33,-42.63,-11.20,0.32,-0.19,1.08
1.1601562,0.81794393,-0.68288785,-0.11066043,0.3,-0.31,1.07,18524,9763.30,0,0,0,56.84,-48.09,-7.14,0.30,-0.31,1.07
1.1601562,0.116943926,-0.86288786,-0.27866042,0.32,-0.38,1.03,18539,9763.30,0,0,165,7.77,-60.69,-18.90,0.32,-0.38,1.03
1.1601562,-0.32605606,-1.0648879,-0.45666045,0.28,-0.28,0.83,18554,9763.30,0,0,0,-23.24,-74.83,-31.36,0.28,-0.28,0.83
0.86035156,-0.19905607,-1.1478878,-0.35666046,0.28,-0.15,0.66,18561,9763.00,0,0,165,-14.35,-80.64,-24.36,0.28,-0.15,0.66
2.1601562,-0.23305607,-0.9718879,-0.091660425,0.37,-0.21,0.63,18576,9764.30,0,0,0,-16.73,-68.32,-5.81,0.37,-0.21,0.63
1.1601562,-0.8150561,-0.83688784,0.14133957,0.42,-0.26,0.66,18591,9763.30,0,0,165,-57.47,-58.87,10.50,0.42,-0.26,0.66
1.1601562,-1.3340561,-0.8048879,0.38833958,0.47,-0.35,0.68,18599,9763.30,0,0,0,-93.80,-56.63,27.79,0.47,-0.35,0.68
1.7607422,-1.3620561,-0.70988786,0.55233955,0.51,-0.47,0.67,18614,9763.90,0,0,165,-95.76,-49.98,39.27,0.51,-0.47,0.67
2.1601562,-0.88805616,-0.6488879,0.50533956,0.58,-0.62,0.69,18629,9764.30,0,0,0,-62.58,-45.71,35.98,0.58,-0.62,0.69
3.0605469,-0.36305606,-0.78388786,0.26033956,0.62,-0.74,0.66,18636,9765.20,0,0,165,-25.83,-55.16,18.83,0.62,-0.74,0.66
2.1601562,0.09394392,-0.94588786,-0.14866042,0.56,-0.75,0.49,18651,9764.30,0,0,0,6.16,-66.50,-9.80,0.56,-0.75,0.49
2.1601562,0.21694393,-0.8168879,-0.6666604,0.49,-0.72,0.43,18666,9764.30,0,0,165,14.77,-57.47,-46.06,0.49,-0.72,0.43
1.7607422,-0.11705607,-0.4638878,-1.2276604,0.5,-0.61,0.47,18673,9763.90,0,0,0,-8.61,-32.76,-85.33,0.50,-0.61,0.47
1.7607422,-0.23905607,-0.08488785,-1.5946604,0.6,-0.36,0.55,18688,9763.90,0,0,165,-17.15,-6.23,-111.02,0.60,-0.36,0.55
2.7607422,0.2869439,0.18311214,-1.5576605,0.57,-0.17,0.69,18703,9764.90,0,0,0,19.67,12.53,-108.43,0.57,-0.17,0.69
2.1601562,1.0559438,0.16511217,-1.3306605,0.58,0.1,0.75,18711,9764.30,0,0,165,73.50,11.27,-92.54,0.58,0.10,0.75
1.7607422,1.6619439,0.10511216,-0.9426604,0.61,0.13,0.84,18726,9763.90,0,0,0,115.92,7.07,-65.38,0.61,0.13,0.84
1.1601562,2.0169442,-0.094887845,-0.059660427,0.68,0.21,0.94,18741,9763.30,0,0,165,140.77,-6.93,-3.57,0.68,0.21,0.94
1.1601562,2.003944,-0.35588786,0.5643396,0.72,0.13,0.94,18748,9763.30,0,0,0,139.86,-25.20,40.11,0.72,0.13,0.94
2.1601562,1.4199439,-0.5878879,0.9773395,0.72,-0.07,0.8,18763,9764.30,0,0,165,98.98,-41.44,69.02,0.72,-0.07,0.80
1.1601562,0.8149439,-0.6158879,1.0693395,0.7,-0.25,0.75,18778,9763.30,0,0,0,56.63,-43.40,75.46,0.70,-0.25,0.75
1.1601562,0.32594392,-0.7868879,0.8423396,0.72,-0.27,0.83,18786,9763.30,0,0,165,22.40,-55.37,59.57,0.72,-0.27,0.83
1.7607422,-0.10905608,-1.3858879,0.66933954,0.79,-0.24,0.86,18801,9763.90,0,0,0,-8.05,-97.30,47.46,0.79,-0.24,0.86
1.7607422,-0.4890561,-1.9828879,0.64433956,0.76,-0.37,0.84,18816,9763.90,0,0,165,-34.65,-139.09,45.71,0.76,-0.37,0.84
1.7607422,-1.0120561,-2.5048878,0.34433955,0.81,-0.53,0.64,18823,9763.90,0,0,0,-71.26,-175.63,24.71,0.81,-0.53,0.64
3.0605469,-1.176056,-2.2368877,-0.41066042,0.85,-0.47,0.36,18839,9765.20,0,0,165,-82.74,-156.87,-28.14,0.85,-0.47,0.36
2.7607422,-0.49105608,-1.387888,-0.90966046,0.87,-0.33,0.2,18854,9764.90,0,0,0,-34.79,-97.44,-63.07,0.87,-0.33,0.20
1.7607422,0.7889439,-0.85788786,-1.2176604,0.9,-0.14,0.22,18861,9763.90,0,0,165,54.81,-60.34,-84.63,0.90,-0.14,0.22
2.1601562,2.201944,-0.42088786,-1.2856604,0.89,0.08,0.37,18876,9764.30,0,0,0,153.72,-29.75,-89.39,0.89,0.08,0.37
0.86035156,3.485944,-0.42388782,-1.0496604,0.94,0.31,0.51,18891,9763.00,0,0,165,243.60,-29.96,-72.87,0.94,0.31,0.51
1.1601562,3.992944,-0.8538879,-0.66866046,0.89,0.36,0.63,18898,9763.30,0,0,0,279.09,-60.06,-46.20,0.89,0.36,0.63
1.7607422,3.180944,-0.7228879,-0.33666041,0.98,0.37,0.73,18913,9763.90,0,0,165,222.25,-50.89,-22.96,0.98,0.37,0.73
1.1601562,1.4409438,-0.58688784,-0.08266043,1.03,0.32,0.68,18928,9763.30,0,0,0,100.45,-41.37,-5.18,1.03,0.32,0.68
1.1601562,0.061943926,-0.38588783,0.10433957,1.04,0.08,0.71,18936,9763.30,0,0,165,3.92,-27.30,7.91,1.04,0.08,0.71
2.1601562,-1.2440561,-0.23688786,-0.08166043,1.02,-0.14,0.71,18951,9764.30,0,0,0,-87.50,-16.87,-5.11,1.02,-0.14,0.71
3.0605469,-1.456056,-0.19488785,-0.5516604,0.98,-0.26,0.68,18966,9765.20,0,0,165,-102.34,-13.93,-38.01,0.98,-0.26,0.68
2.1601562,-1.4570562,-0.27688783,-1.1266605,0.95,-0.22,0.52,18973,9764.30,0,0,0,-102.41,-19.67,-78.26,0.95,-0.22,0.52
2.1601562,-1.0940561,-0.35488784,-1.5056604,0.92,-0.04,0.3,18988,9764.30,0,0,165,-77.00,-25.13,-104.79,0.92,-0.04,0.30
1.7607422,0.008943924,-0.14988784,-1.5116605,0.9,0.13,0.16,19003,9763.90,0,0,0,0.21,-10.78,-105.21,0.90,0.13,0.16
1.7607422,0.75194395,0.17511216,-1.3426604,0.88,0.23,0.23,19010,9763.90,0,0,165,52.22,11.97,-93.38,0.88,0.23,0.23
2.1601562,1.1469439,0.36311215,-0.9706604,0.87,0.32,0.36,19026,9764.30,0,0,0,79.87,25.13,-67.34,0.87,0.32,0.36
1.7607422,1.1679438,0.35811216,-0.60066044,0.91,0.31,0.39,19041,9763.90,0,0,165,81.34,24.78,-41.44,0.91,0.31,0.39
2.1601562,1.3169439,0.28011215,-0.34566045,0.87,0.29,0.38,19048,9764.30,0,0,0,91.77,19.32,-23.59,0.87,0.29,0.38
2.1601562,1.7229439,0.18811215,-0.10666043,0.85,0.32,0.36,19063,9764.30,0,0,165,120.19,12.88,-6.86,0.85,0.32,0.36
2.1601562,2.0069442,0.17511216,0.04633957,0.67,0.27,0.37,19078,9764.30,0,0,0,140.07,11.97,3.85,0.67,0.27,0.37
1.1601562,1.7109438,0.17211215,0.014339572,0.68,0.24,0.32,19086,9763.30,0,0,165,119.35,11.76,1.61,0.68,0.24,0.32
1.1601562,1.0169438,0.22411215,-0.23566043,0.57,-0.16,0.3,19101,9763.30,0,0,0,70.77,15.40,-15.89,0.57,-0.16,0.30
2.1601562,0.34694394,0.24911214,-0.71566045,1.02,-0.13,0.57,19116,9764.30,0,0,165,23.87,17.15,-49.49,1.02,-0.13,0.57
3.0605469,0.25994393,0.10011215,-1.0366604,0.9,-0.07,0.6,19123,9765.20,0,0,0,17.78,6.72,-71.96,0.90,-0.07,0.60
2.1601562,0.4979439,-0.15788785,-1.3306605,0.77,0.11,0.56,19138,9764.30,0,0,165,34.44,-11.34,-92.54,0.77,0.11,0.56
3.0605469,0.83194387,-0.07388785,-1.5116605,0.74,0.23,0.57,19153,9765.20,0,0,0,57.82,-5.46,-105.21,0.74,0.23,0.57
1.7607422,0.91794395,-0.06688784,-1.4636604,0.67,0.4,0.48,19161,9763.90,0,0,165,63.84,-4.97,-101.85,0.67,0.40,0.48
1.7607422,1.3149439,-0.024887849,-1.1976604,0.63,0.53,0.37,19176,9763.90,0,0,0,91.63,-2.03,-83.23,0.63,0.53,0.37
2.1601562,1.7969439,0.07611215,-0.8996604,0.63,0.53,0.35,19191,9764.30,0,0,165,125.37,5.04,-62.37,0.63,0.53,0.35
2.1601562,2.208944,0.011112152,-0.6026605,0.65,0.49,0.33,19198,9764.30,0,0,0,154.21,0.49,-41.58,0.65,0.49,0.33
1.7607422,2.186944,-0.013887849,-0.33866045,0.69,0.41,0.32,19213,9763.90,0,0,165,152.67,-1.26,-23.10,0.69,0.41,0.32
2.7607422,2.138944,0.023112152,-0.28166044,0.74,0.33,0.37,19228,9764.90,0,0,0,149.31,1.33,-19.11,0.74,0.33,0.37
1.7607422,1.9509438,-0.04788785,-0.40366042,0.77,0.31,0.43,19235,9763.90,0,0,165,136.15,-3.64,-27.65,0.77,0.31,0.43
1.1601562,1.6429439,-0.21888784,-0.66966045,0.73,0.34,0.48,19250,9763.30,0,0,0,114.59,-15.61,-46.27,0.73,0.34,0.48
2.1601562,1.4569439,-0.20688786,-0.86766046,0.7,0.45,0.51,19266,9764.30,0,0,165,101.57,-14.77,-60.13,0.70,0.45,0.51
0.86035156,1.5919439,-0.21888784,-0.9586604,0.72,0.56,0.48,19273,9763.00,0,0,0,111.02,-15.61,-66.50,0.72,0.56,0.48
3.0605469,1.9329439,-0.21288784,-0.85466045,0.69,0.73,0.32,19288,9765.20,0,0,165,134.89,-15.19,-59.22,0.69,0.73,0.32
1.1601562,3.222944,-0.0038878494,-0.15966043,0.65,0.92,0.36,19304,9763.30,0,0,0,225.19,-0.56,-10.57,0.65,0.92,0.36
2.1601562,3.8449442,0.012112152,0.34333956,0.68,0.85,0.37,19311,9764.30,0,0,165,268.73,0.56,24.64,0.68,0.85,0.37
1.1601562,3.1419442,-0.02388785,0.69233954,0.63,0.83,0.41,19326,9763.30,0,0,0,219.52,-1.96,49.07,0.63,0.83,0.41
1.1601562,2.395944,-0.20388785,1.2573396,0.79,0.9,0.37,19341,9763.30,0,0,165,167.30,-14.56,88.62,0.79,0.90,0.37
1.1601562,1.6209439,-0.5378879,1.8763396,0.68,0.63,0.34,19348,9763.30,0,0,0,113.05,-37.94,131.95,0.68,0.63,0.34
2.1601562,0.33494392,-0.6858879,1.5793396,0.69,0.42,0.39,19363,9764.30,0,0,165,23.03,-48.30,111.16,0.69,0.42,0.39
1.7607422,-0.7510561,-1.0988879,1.0263395,0.67,0.31,0.29,19378,9763.90,0,0,0,-52.99,-77.21,72.45,0.67,0.31,0.29
2.1601562,-1.5110562,-1.2068878,0.31033957,0.75,0.29,0.18,19386,9764.30,0,0,165,-106.19,-84.77,22.33,0.75,0.29,0.18
2.1601562,-1.6260561,-0.9598879,-0.42266044,0.85,0.38,0.12,19401,9764.30,0,0,0,-114.24,-67.48,-28.98,0.85,0.38,0.12
2.1601562,-1.1330562,-0.7268878,-0.6866604,0.79,0.56,0.14,19416,9764.30,0,0,165,-79.73,-51.17,-47.46,0.79,0.56,0.14
1.7607422,-0.37805605,-0.6468879,-0.8156605,0.77,0.67,0.22,19424,9763.90,0,0,0,-26.88,-45.57,-56.49,0.77,0.67,0.22
1.1601562,-0.09405608,-0.6848879,-0.7516604,0.75,0.77,0.22,19447,9763.30,0,0,165,-7.00,-48.23,-52.01,0.75,0.77,0.22
2.1601562,-0.061056077,-0.6108879,-0.43866044,0.79,0.9,0.19,19459,9764.30,0,0,0,-4.69,-43.05,-30.10,0.79,0.90,0.19
2.7607422,0.14794391,-0.49388784,0.06533957,0.78,0.92,0.18,19461,9764.90,0,0,165,9.94,-34.86,5.18,0.78,0.92,0.18
2.1601562,0.43494394,-0.49488786,0.6343395,0.77,0.81,0.2,19475,9764.30,0,0,0,30.03,-34.93,45.01,0.77,0.81,0.20
2.1601562,0.43594393,-0.5818879,0.82533956,0.81,0.65,0.2,19491,9764.30,0,0,165,30.10,-41.02,58.38,0.81,0.65,0.20
2.1601562,0.123943925,-0.6758879,0.83433956,0.85,0.56,0.2,19498,9764.30,0,0,0,8.26,-47.60,59.01,0.85,0.56,0.20
1.1601562,-0.08305608,-0.7828879,0.8233396,0.88,0.55,0.2,19513,9763.30,0,0,165,-6.23,-55.09,58.24,0.88,0.55,0.20
2.1601562,-0.29505607,-0.9078879,0.82533956,0.9,0.51,0.22,19528,9764.30,0,0,0,-21.07,-63.84,58.38,0.90,0.51,0.22
1.1601562,-0.7030561,-0.96388793,0.66733956,0.88,0.48,0.22,19536,9763.30,0,0,165,-49.63,-67.76,47.32,0.88,0.48,0.22
1.1601562,-1.3600562,-0.8758879,0.20433956,0.83,0.47,0.2,19551,9763.30,0,0,0,-95.62,-61.60,14.91,0.83,0.47,0.20
1.7607422,-2.013056,-0.82088786,-0.20066041,0.79,0.49,0.14,19568,9763.90,0,0,165,-141.33,-57.75,-13.44,0.79,0.49,0.14
1.1601562,-2.229056,-0.7308879,-0.36866045,0.82,0.54,0.05,19574,9763.30,0,0,0,-156.45,-51.45,-25.20,0.82,0.54,0.05
2.1601562,-1.7660561,-0.5418879,-0.19766042,0.91,0.62,0.03,19588,9764.30,0,0,165,-124.04,-38.22,-13.23,0.91,0.62,0.03
3.0605469,-1.130056,-0.34588784,0.21933958,0.96,0.62,0.08,19603,9765.20,0,0,0,-79.52,-24.50,15.96,0.96,0.62,0.08
0.86035156,-0.7180561,-0.28288785,0.6373396,0.97,0.55,0.15,19611,9763.00,0,0,165,-50.68,-20.09,45.22,0.97,0.55,0.15
0.86035156,-0.658056,-0.28188786,0.80733955,0.89,0.5,0.19,19626,9763.00,0,0,0,-46.48,-20.02,57.12,0.89,0.50,0.19
2.1601562,-0.7740561,-0.30988783,0.77433956,0.84,0.47,0.19,19640,9764.30,0,0,165,-54.60,-21.98,54.81,0.84,0.47,0.19
1.7607422,-0.95905614,-0.29688784,0.6063396,0.75,0.45,0.19,19648,9763.90,0,0,0,-67.55,-21.07,43.05,0.75,0.45,0.19
2.1601562,-1.368056,-0.25088784,0.32533956,0.76,0.42,0.17,19663,9764.30,0,0,165,-96.18,-17.85,23.38,0.76,0.42,0.17
2.1601562,-2.004056,-0.19988784,-0.22466043,0.79,0.38,0.25,19679,9764.30,0,0,0,-140.70,-14.28,-15.12,0.79,0.38,0.25
2.1601562,-3.002056,-0.30488783,-0.41666043,0.78,0.36,0.37,19686,9764.30,0,0,165,-210.56,-21.63,-28.56,0.78,0.36,0.37
2.1601562,-4.117056,-0.6798879,-0.6516604,0.88,0.43,0.38,19700,9764.30,0,0,0,-288.61,-47.88,-45.01,0.88,0.43,0.38
2.1601562,-4.143056,-0.98588794,-0.5396604,0.95,0.52,0.29,19716,9764.30,0,0,165,-290.43,-69.30,-37.17,0.95,0.52,0.29
3.0605469,-3.2780561,-1.1898879,-0.23066044,0.98,0.57,0.22,19724,9765.20,0,0,0,-229.88,-83.58,-15.54,0.98,0.57,0.22
2.1601562,-2.327056,-1.2308879,0.19633958,1.0,0.51,0.2,19751,9764.30,0,0,165,-163.31,-86.45,14.35,1.00,0.51,0.20
2.1601562,-1.7310561,-1.1248878,0.44833955,0.88,0.43,0.14,19753,9764.30,0,0,0,-121.59,-79.03,31.99,0.88,0.43,0.14
2.1601562,-1.5200561,-0.71188784,0.38933957,0.83,0.3,0.11,19760,9764.30,0,0,165,-106.82,-50.12,27.86,0.83,0.30,0.11
3.0605469,-2.027056,-0.29888782,0.03533957,0.82,0.15,0.15,19776,9765.20,0,0,0,-142.31,-21.21,3.08,0.82,0.15,0.15
2.1601562,-2.892056,0.053112153,-0.41666043,0.81,0.14,0.15,19791,9764.30,0,0,165,-202.86,3.43,-28.56,0.81,0.14,0.15
2.1601562,-3.703056,0.33311215,-0.65666044,0.98,0.22,0.14,19799,9764.30,0,0,0,-259.63,23.03,-45.36,0.98,0.22,0.14
2.1601562,-3.7470558,0.5281121,-0.49166045,1.09,0.27,0.21,19813,9764.30,0,0,165,-262.71,36.68,-33.81,1.09,0.27,0.21
2.1601562,-3.4100559,0.5431121,-0.41966045,0.97,0.13,0.42,19828,9764.30,0,0,0,-239.12,37.73,-28.77,0.97,0.13,0.42
3.0605469,-3.674056,0.34211215,-0.60566044,0.89,0.07,0.48,19836,9765.20,0,0,165,-257.60,23.66,-41.79,0.89,0.07,0.48
3.0605469,-3.476056,0.06611215,-0.67766047,0.85,0.16,0.42,19852,9765.20,0,0,0,-243.74,4.34,-46.83,0.85,0.16,0.42
3.0605469,-2.397056,-0.13388784,-0.49366045,0.75,0.26,0.31,19866,9765.20,0,0,165,-168.21,-9.66,-33.95,0.75,0.26,0.31
1.7607422,-0.78905606,-0.27488786,-0.19566044,0.68,0.33,0.2,19873,9763.90,0,0,0,-55.65,-19.53,-13.09,0.68,0.33,0.20
2.1601562,0.8069439,-0.34688783,0.18533957,0.76,0.41,0.22,19888,9764.30,0,0,165,56.07,-24.57,13.58,0.76,0.41,0.22
2.1601562,1.5309439,-0.45088786,0.47433957,0.88,0.25,0.33,19903,9764.30,0,0,0,106.75,-31.85,33.81,0.88,0.25,0.33
3.0605469,0.6519439,-0.41688785,0.16733956,1.01,-0.06,0.37,19914,9765.20,0,0,165,45.22,-29.47,12.32,1.01,-0.06,0.37
1.7607422,-0.88805616,-0.31988785,-0.66966045,1.13,-0.08,0.32,19926,9763.90,0,0,0,-62.58,-22.68,-46.27,1.13,-0.08,0.32
2.1601562,-1.1240561,-0.25888786,-0.8796604,1.08,0.1,0.24,19941,9764.30,0,0,165,-79.10,-18.41,-60.97,1.08,0.10,0.24
2.1601562,-0.4790561,-0.15288784,-1.0266604,1.05,0.25,0.21,19948,9764.30,0,0,0,-33.95,-10.99,-71.26,1.05,0.25,0.21
1.7607422,0.15594393,-0.04988785,-0.8806605,1.03,0.32,0.26,19963,9763.90,0,0,165,10.50,-3.78,-61.04,1.03,0.32,0.26
3.0605469,0.13194393,-0.044887852,-0.6526605,1.08,0.35,0.28,19979,9765.20,0,0,0,8.82,-3.43,-45.08,1.08,0.35,0.28
2.1601562,-0.27105606,-0.042887848,-0.46166041,1.09,0.33,0.23,19985,9764.30,0,0,165,-19.39,-3.29,-31.71,1.09,0.33,0.23
3.0605469,-0.6310561,-0.03488785,-0.29466045,1.11,0.42,0.15,20000,9765.20,0,0,0,-44.59,-2.73,-20.02,1.11,0.42,0.15
2.1601562,-0.5070561,-0.08988784,-0.03966043,1.16,0.41,0.11,20016,9764.30,0,0,165,-35.91,-6.58,-2.17,1.16,0.41,0.11
3.0605469,-0.21505608,-0.05688785,0.21533957,1.25,0.16,0.14,20023,9765.20,0,0,0,-15.47,-4.27,15.68,1.25,0.16,0.14
3.0605469,-0.7360561,0.22811216,0.20033959,1.17,-0.15,0.19,20038,9765.20,0,0,165,-51.94,15.68,14.63,1.17,-0.15,0.19
2.1601562,-1.6770561,0.56811213,-0.10166043,1.13,-0.21,0.19,20053,9764.30,0,0,0,-117.81,39.48,-6.51,1.13,-0.21,0.19
3.0605469,-2.378056,0.86811215,-0.47966045,1.18,-0.06,0.16,20060,9765.20,0,0,165,-166.88,60.48,-32.97,1.18,-0.06,0.16
3.0605469,-1.9720562,1.0931122,-0.62766045,1.09,0.19,0.14,20075,9765.20,0,0,0,-138.46,76.23,-43.33,1.09,0.19,0.14
2.1601562,-1.2400562,1.1101121,-0.49666044,1.05,0.26,0.25,20091,9764.30,0,0,165,-87.22,77.42,-34.16,1.05,0.26,0.25
2.1601562,-0.40905607,0.8311121,-0.33466044,1.12,0.32,0.37,20098,9764.30,0,0,0,-29.05,57.89,-22.82,1.12,0.32,0.37
3.0605469,-0.07205608,0.44111216,-0.21566042,1.11,0.28,0.44,20113,9765.20,0,0,165,-5.46,30.59,-14.49,1.11,0.28,0.44
3.0605469,0.058943924,0.092112154,-0.23066044,0.88,0.25,0.44,20129,9765.20,0,0,0,3.71,6.16,-15.54,0.88,0.25,0.44
3.0605469,0.48794395,-0.16288784,-0.23266044,0.89,0.27,0.46,20136,9765.20,0,0,165,33.74,-11.69,-15.68,0.89,0.27,0.46
2.7607422,1.1009439,-0.28088784,0.066339575,0.84,0.24,0.48,20151,9764.90,0,0,0,76.65,-19.95,5.25,0.84,0.24,0.48
2.1601562,1.3329439,-0.23288785,0.35033956,0.8,0.24,0.44,20166,9764.30,0,0,165,92.89,-16.59,25.13,0.80,0.24,0.44
2.1601562,1.1519439,-0.10688785,0.42633957,0.78,0.09,0.48,20173,9764.30,0,0,0,80.22,-7.77,30.45,0.78,0.09,0.48
2.1601562,0.24694394,0.010112151,0.12433957,0.78,0.05,0.48,20189,9764.30,0,0,165,16.87,0.42,9.31,0.78,0.05,0.48
4.060547,-0.7030561,0.11711215,-0.3116604,0.78,0.06,0.41,20204,9766.20,0,0,0,-49.63,7.91,-21.21,0.78,0.06,0.41
3.0605469,-1.2640561,0.30411217,-0.58066046,0.79,0.07,0.34,20211,9765.20,0,0,165,-88.90,21.00,-40.04,0.79,0.07,0.34
2.1601562,-1.2470561,0.5061121,-0.7746604,0.73,0.09,0.35,20226,9764.30,0,0,0,-87.71,35.14,-53.62,0.73,0.09,0.35
1.7607422,-0.94705606,0.5371121,-0.8156605,0.67,0.16,0.37,20241,9763.90,0,0,165,-66.71,37.31,-56.49,0.67,0.16,0.37
2.1601562,-0.50805604,0.41611215,-0.7466604,0.68,0.22,0.39,20253,9764.30,0,0,0,-35.98,28.84,-51.66,0.68,0.22,0.39
3.0605469,0.019943925,0.16811214,-0.6436604,0.72,0.27,0.42,20263,9765.20,0,0,165,0.98,11.48,-44.45,0.72,0.27,0.42
3.3603516,0.6969439,-0.14088784,-0.44966045,0.75,0.31,0.36,20278,9765.50,0,0,0,48.37,-10.15,-30.87,0.75,0.31,0.36
3.0605469,1.5129439,-0.39388785,-0.33466044,0.77,0.36,0.31,20286,9765.20,0,0,165,105.49,-27.86,-22.82,0.77,0.36,0.31
2.1601562,2.196944,-0.6068879,-0.21266043,0.78,0.35,0.26,20301,9764.30,0,0,0,153.37,-42.77,-14.28,0.78,0.35,0.26
2.1601562,2.149944,-0.6208879,-0.32466045,0.75,0.27,0.19,20316,9764.30,0,0,165,150.08,-43.75,-22.12,0.75,0.27,0.19
3.0605469,1.647944,-0.43588784,-0.7916604,0.84,0.36,0.2,20323,9765.20,0,0,0,114.94,-30.80,-54.81,0.84,0.36,0.20
2.1601562,1.205944,-0.4638878,-1.1286604,0.79,0.45,0.11,20338,9764.30,0,0,165,84.00,-32.76,-78.40,0.79,0.45,0.11
3.0605469,0.89194393,-0.35788783,-1.2906604,0.79,0.43,0.09,20354,9765.20,0,0,0,62.02,-25.34,-89.74,0.79,0.43,0.09
2.1601562,0.4719439,-0.17288785,-1.4056604,0.77,0.43,0.09,20361,9764.30,0,0,165,32.62,-12.39,-97.79,0.77,0.43,0.09
3.0605469,0.28594393,0.10911215,-1.3086604,0.7,0.53,0.08,20376,9765.20,0,0,0,19.60,7.35,-91.00,0.70,0.53,0.08
2.1601562,0.63694394,0.30511215,-0.98366046,0.64,0.68,0.09,20391,9764.30,0,0,165,44.17,21.07,-68.25,0.64,0.68,0.09
3.0605469,1.3639438,0.37011218,-0.57366043,0.64,0.77,0.16,20398,9765.20,0,0,0,95.06,25.62,-39.55,0.64,0.77,0.16
