Pressure_Rel,GyroX_Rel,GyroY_Rel,GyroZ_Rel,AccX_Rel,AccY_Rel,AccZ_Rel,Timestamp,Pressure_abs,HeartRate,Oxygen,Status,GyroX,GyroY,GyroZ,AccX,AccY,AccZ
0.0,0.0,0.0,0.0,0.0,0.0,0.0,3743,9360.70,0,0,165,-0.28,-0.35,0.56,-0.12,0.99,-0.11
0.0,0.0,0.0,0.0,0.0,0.0,0.0,3749,9361.90,0,0,0,-0.35,-0.21,0.42,-0.12,0.99,-0.11
0.0,0.0,0.0,0.0,0.0,0.0,0.0,3764,9361.90,0,0,165,-0.28,-0.28,0.63,-0.12,1.00,-0.11
0.0,0.0,0.0,0.0,0.0,0.0,0.0,3779,9361.90,0,0,0,-0.28,-0.21,0.42,-0.11,0.99,-0.11
0.0,0.0,0.0,0.0,0.0,0.0,0.0,3787,9361.90,0,0,165,-0.21,-0.28,0.42,-0.12,0.99,-0.11
0.0,0.0,0.0,0.0,0.0,0.0,0.0,3803,9361.90,0,0,0,-0.35,-0.28,0.42,-0.12,0.99,-0.11
0.0,0.0,0.0,0.0,0.0,0.0,0.0,3816,9361.00,0,0,165,-0.35,-0.21,0.49,-0.12,0.99,-0.11
0.0,0.0,0.0,0.0,0.0,0.0,0.0,3824,9361.00,0,0,0,-0.28,-0.14,0.49,-0.12,0.99,-0.11
0.0,0.0,0.0,0.0,0.0,0.0,0.0,3839,9361.90,0,0,165,-0.28,-0.14,0.49,-0.12,0.99,-0.11
0.0,0.0,0.0,0.0,0.0,0.0,0.0,3854,9361.90,0,0,0,-0.35,-0.21,0.56,-0.11,0.99,-0.11
0.0,0.0,0.0,0.0,0.0,0.0,0.0,3870,9361.00,0,0,165,-0.21,-0.28,0.63,-0.12,0.99,-0.11
0.0,0.0,0.0,0.0,0.0,0.0,0.0,3877,9361.90,0,0,0,-0.35,-0.21,0.56,-0.11,0.99,-0.10
0.0,0.0,0.0,0.0,0.0,0.0,0.0,3891,9361.90,0,0,165,-0.35,-0.21,0.56,-0.12,0.99,-0.11
0.0,0.0,0.0,0.0,0.0,0.0,0.0,3899,9361.00,0,0,0,-0.35,-0.28,0.63,-0.12,0.99,-0.11
0.0,0.0,0.0,0.0,0.0,0.0,0.0,3913,9361.00,0,0,165,-0.35,-0.28,0.56,-0.12,1.00,-0.11
0.0,0.0,0.0,0.0,0.0,0.0,0.0,3928,9361.90,0,0,0,-0.21,-0.21,0.49,-0.12,0.99,-0.11
0.0,0.0,0.0,0.0,0.0,0.0,0.0,3937,9361.90,0,0,165,-0.28,-0.28,0.56,-0.11,0.99,-0.11
0.0,0.0,0.0,0.0,0.0,0.0,0.0,3952,9361.90,0,0,0,-0.28,-0.21,0.56,-0.12,0.99,-0.11
0.0,0.0,0.0,0.0,0.0,0.0,0.0,3966,9361.90,0,0,165,-0.35,-0.21,0.49,-0.12,0.99,-0.11
0.0,0.0,0.0,0.0,0.0,0.0,0.0,3974,9361.00,0,0,0,-0.21,-0.28,0.63,-0.12,0.99,-0.11
0.0,0.0,0.0,0.0,0.0,0.0,0.0,3990,9361.30,0,0,165,-0.35,-0.28,0.56,-0.12,0.99,-0.11
0.0,0.0,0.0,0.0,0.0,0.0,0.0,4004,9361.90,0,0,0,-0.28,-0.21,0.49,-0.12,1.00,-0.11
0.0,0.0,0.0,0.0,0.0,0.0,0.0,4012,9361.90,0,0,165,-0.28,-0.28,0.56,-0.12,0.99,-0.11
0.0,0.0,0.0,0.0,0.0,0.0,0.0,4026,9361.90,0,0,0,-0.28,-0.28,0.42,-0.12,0.99,-0.11
0.0,0.0,0.0,0.0,0.0,0.0,0.0,4041,9361.00,0,0,165,-0.35,-0.21,0.42,-0.12,0.99,-0.11
0.0,0.0,0.0,0.0,0.0,0.0,0.0,4048,9361.90,0,0,0,-0.28,-0.28,0.49,-0.11,0.99,-0.11
0.0,0.0,0.0,0.0,0.0,0.0,0.0,4063,9361.00,0,0,165,-0.35,-0.28,0.56,-0.12,0.99,-0.11
0.0,0.0,0.0,0.0,0.0,0.0,0.0,4079,9361.90,0,0,0,-0.28,-0.28,0.49,-0.12,0.99,-0.11
0.0,0.0,0.0,0.0,0.0,0.0,0.0,4087,9362.90,0,0,165,-0.35,-0.21,0.49,-0.11,0.99,-0.11
0.0,0.0,0.0,0.0,0.0,0.0,0.0,4102,9361.90,0,0,0,-0.35,-0.21,0.56,-0.12,0.99,-0.11
0.0,0.0,0.0,0.0,0.0,0.0,0.0,4116,9361.00,0,0,165,-0.35,-0.28,0.63,-0.12,0.99,-0.11
0.0,0.0,0.0,0.0,0.0,0.0,0.0,4125,9361.90,0,0,0,-0.28,-0.28,0.49,-0.12,0.99,-0.11
0.0,0.0,0.0,0.0,0.0,0.0,0.0,4140,9361.30,0,0,165,-0.28,-0.28,0.56,-0.12,0.99,-0.11
0.0,0.0,0.0,0.0,0.0,0.0,0.0,4154,9361.00,0,0,0,-0.42,-0.28,0.42,-0.12,0.99,-0.11
0.0,0.0,0.0,0.0,0.0,0.0,0.0,4162,9361.90,0,0,165,-0.28,-0.21,0.56,-0.12,0.99,-0.11
0.0,0.0,0.0,0.0,0.0,0.0,0.0,4177,9361.00,0,0,0,-0.21,-0.28,0.56,-0.11,0.99,-0.11
0.0,0.0,0.0,0.0,0.0,0.0,0.0,4192,9361.30,0,0,165,-0.28,-0.28,0.56,-0.12,0.99,-0.11
0.0,0.0,0.0,0.0,0.0,0.0,0.0,4198,9361.90,0,0,0,-0.42,-0.28,0.49,-0.12,0.99,-0.11
0.0,0.0,0.0,0.0,0.0,0.0,0.0,4215,9361.90,0,0,165,-0.28,-0.21,0.56,-0.11,0.99,-0.11
0.0,0.0,0.0,0.0,0.0,0.0,0.0,4229,9361.00,0,0,0,-0.35,-0.28,0.49,-0.12,0.99,-0.10
0.0,0.0,0.0,0.0,0.0,0.0,0.0,4243,9361.90,0,0,165,-0.28,-0.28,0.56,-0.12,0.99,-0.11
0.0,0.0,0.0,0.0,0.0,0.0,0.0,4252,9361.90,0,0,0,-0.28,-0.28,0.49,-0.12,1.00,-0.11
0.0,0.0,0.0,0.0,0.0,0.0,0.0,4266,9361.00,0,0,165,-0.21,-0.21,0.49,-0.12,0.99,-0.11
0.0,0.0,0.0,0.0,0.0,0.0,0.0,4274,9361.90,0,0,0,-0.35,-0.28,0.42,-0.12,0.99,-0.11
0.0,0.0,0.0,0.0,0.0,0.0,0.0,4289,9361.00,0,0,165,-0.35,-0.28,0.56,-0.12,0.99,-0.11
0.0,0.0,0.0,0.0,0.0,0.0,0.0,4304,9361.90,0,0,0,-0.28,-0.28,0.49,-0.12,0.99,-0.11
0.0,0.0,0.0,0.0,0.0,0.0,0.0,4312,9361.00,0,0,165,-0.35,-0.28,0.42,-0.11,0.99,-0.11
0.0,0.0,0.0,0.0,0.0,0.0,0.0,4327,9361.00,0,0,0,-0.28,-0.21,0.63,-0.11,0.99,-0.11
0.0,0.0,0.0,0.0,0.0,0.0,0.0,4342,9361.00,0,0,165,-0.35,-0.21,0.56,-0.12,0.99,-0.11
0.0,0.0,0.0,0.0,0.0,0.0,0.0,4350,9361.90,0,0,0,-0.35,-0.21,0.49,-0.12,0.99,-0.11
0.0,0.0,0.0,0.0,0.0,0.0,0.0,4364,9361.90,0,0,165,-0.35,-0.14,0.35,-0.12,0.99,-0.11
0.0,0.0,0.0,0.0,0.0,0.0,0.0,4379,9361.90,0,0,0,-0.21,-0.14,0.70,-0.12,0.99,-0.11
0.0,0.0,0.0,0.0,0.0,0.0,0.0,4387,9361.30,0,0,165,-0.28,-0.21,0.49,-0.12,0.99,-0.11
0.0,0.0,0.0,0.0,0.0,0.0,0.0,4400,9361.00,0,0,0,-0.28,-0.21,0.56,-0.12,0.99,-0.11
0.0,0.0,0.0,0.0,0.0,0.0,0.0,4416,9361.90,0,0,165,-0.35,-0.28,0.56,-0.12,0.99,-0.11
0.0,0.0,0.0,0.0,0.0,0.0,0.0,4424,9361.00,0,0,0,-0.28,-0.21,0.56,-0.12,0.99,-0.11
0.0,0.0,0.0,0.0,0.0,0.0,0.0,4439,9362.20,0,0,165,-0.28,-0.28,0.63,-0.12,0.99,-0.11
0.0,0.0,0.0,0.0,0.0,0.0,0.0,4454,9361.90,0,0,0,-0.28,-0.21,0.49,-0.12,0.99,-0.11
0.0,0.0,0.0,0.0,0.0,0.0,0.0,4461,9361.90,0,0,165,-0.21,-0.21,0.49,-0.12,0.99,-0.11
0.0,0.0,0.0,0.0,0.0,0.0,0.0,4477,9361.90,0,0,0,-0.28,-0.21,0.49,-0.12,0.99,-0.11
0.0,0.0,0.0,0.0,0.0,0.0,0.0,4491,9361.90,0,0,165,-0.28,-0.21,0.42,-0.12,0.99,-0.10
0.0,0.0,0.0,0.0,0.0,0.0,0.0,4499,9361.90,0,0,0,-0.56,-0.21,0.56,-0.12,0.99,-0.11
0.0,0.0,0.0,0.0,0.0,0.0,0.0,4515,9361.00,0,0,165,-0.21,-0.28,0.56,-0.12,0.99,-0.11
0.0,0.0,0.0,0.0,0.0,0.0,0.0,4528,9361.90,0,0,0,-0.35,-0.28,0.49,-0.11,0.99,-0.11
0.0,0.0,0.0,0.0,0.0,0.0,0.0,4537,9361.00,0,0,165,-0.35,-0.28,0.56,-0.12,0.99,-0.11
0.0,0.0,0.0,0.0,0.0,0.0,0.0,4552,9361.60,0,0,0,-0.35,-0.21,0.70,-0.12,0.99,-0.11
-0.71875,0.0013071147,5.567963E-4,-7.365546E-4,-0.11,0.99,-0.11,14563,9360.40,0,0,0,-0.21,-0.21,0.49,-0.11,0.99,-0.11
-0.71875,-0.0016928851,5.567963E-4,0.0012634448,-0.11,1.0,-0.11,14579,9360.40,0,0,165,-0.42,-0.21,0.63,-0.11,1.00,-0.11
-0.119140625,3.0711433E-4,-4.4320407E-4,2.6344554E-4,-0.12,0.99,-0.11,14586,9361.00,0,0,0,-0.28,-0.28,0.56,-0.12,0.99,-0.11
-1.0195312,-6.9288537E-4,5.567963E-4,-7.365546E-4,-0.12,0.99,-0.1,14600,9360.10,0,0,165,-0.35,-0.21,0.49,-0.12,0.99,-0.10
0.18066406,0.0013071147,5.567963E-4,0.0012634448,-0.12,0.99,-0.11,14616,9361.30,0,0,0,-0.21,-0.21,0.63,-0.12,0.99,-0.11
-0.119140625,-6.9288537E-4,5.567963E-4,2.6344554E-4,-0.12,0.99,-0.11,14623,9361.00,0,0,165,-0.35,-0.21,0.56,-0.12,0.99,-0.11
-0.119140625,3.0711433E-4,5.567963E-4,-7.365546E-4,-0.12,0.99,-0.11,14638,9361.00,0,0,0,-0.28,-0.21,0.49,-0.12,0.99,-0.11
-0.119140625,3.0711433E-4,-4.4320407E-4,-0.0017365552,-0.11,0.99,-0.11,14653,9361.00,0,0,165,-0.28,-0.28,0.42,-0.11,0.99,-0.11
-0.71875,3.0711433E-4,5.567963E-4,-0.0017365552,-0.12,0.99,-0.11,14660,9360.40,0,0,0,-0.28,-0.21,0.42,-0.12,0.99,-0.11
-0.119140625,3.0711433E-4,-4.4320407E-4,-0.0017365552,-0.12,0.99,-0.11,14676,9361.00,0,0,165,-0.28,-0.28,0.42,-0.12,0.99,-0.11
0.18066406,-6.9288537E-4,-4.4320407E-4,2.6344554E-4,-0.12,0.99,-0.11,14690,9361.30,0,0,0,-0.35,-0.28,0.56,-0.12,0.99,-0.11
-0.71875,3.0711433E-4,5.567963E-4,2.6344554E-4,-0.12,0.99,-0.11,14697,9360.40,0,0,165,-0.28,-0.21,0.56,-0.12,0.99,-0.11
-0.71875,3.0711433E-4,-4.4320407E-4,2.6344554E-4,-0.12,0.99,-0.1,14720,9360.40,0,0,0,-0.28,-0.28,0.56,-0.12,0.99,-0.10
0.18066406,3.0711433E-4,0.001556796,2.6344554E-4,-0.11,0.99,-0.11,14728,9361.30,0,0,165,-0.28,-0.14,0.56,-0.11,0.99,-0.11
0.18066406,3.0711433E-4,-4.4320407E-4,-7.365546E-4,-0.11,0.99,-0.11,14735,9361.30,0,0,0,-0.28,-0.28,0.49,-0.11,0.99,-0.11
0.18066406,-6.9288537E-4,-4.4320407E-4,2.6344554E-4,-0.12,0.99,-0.11,14751,9361.30,0,0,165,-0.35,-0.28,0.56,-0.12,0.99,-0.11
0.18066406,3.0711433E-4,-4.4320407E-4,-0.0017365552,-0.12,0.99,-0.11,14765,9361.30,0,0,0,-0.28,-0.28,0.42,-0.12,0.99,-0.11
0.18066406,-6.9288537E-4,5.567963E-4,-0.002736555,-0.12,0.99,-0.1,14773,9361.30,0,0,165,-0.35,-0.21,0.35,-0.12,0.99,-0.10
-0.119140625,0.0013071147,5.567963E-4,0.0012634448,-0.12,0.99,-0.11,14788,9361.00,0,0,0,-0.21,-0.21,0.63,-0.12,0.99,-0.11
-1.0195312,0.0013071147,5.567963E-4,-7.365546E-4,-0.12,0.99,-0.11,14803,9360.10,0,0,165,-0.21,-0.21,0.49,-0.12,0.99,-0.11
-1.0195312,-6.9288537E-4,-4.4320407E-4,-0.0017365552,-0.11,0.99,-0.11,14810,9360.10,0,0,0,-0.35,-0.28,0.42,-0.11,0.99,-0.11
-0.119140625,3.0711433E-4,-4.4320407E-4,2.6344554E-4,-0.12,0.99,-0.11,14826,9361.00,0,0,165,-0.28,-0.28,0.56,-0.12,0.99,-0.11
-1.0195312,-6.9288537E-4,5.567963E-4,2.6344554E-4,-0.12,0.99,-0.11,14841,9360.10,0,0,0,-0.35,-0.21,0.56,-0.12,0.99,-0.11
-1.0195312,3.0711433E-4,5.567963E-4,-0.002736555,-0.12,0.99,-0.11,14856,9360.10,0,0,165,-0.28,-0.21,0.35,-0.12,0.99,-0.11
-1.0195312,3.0711433E-4,-4.4320407E-4,0.0012634448,-0.12,0.99,-0.11,14863,9360.10,0,0,0,-0.28,-0.28,0.63,-0.12,0.99,-0.11
0.18066406,3.0711433E-4,-4.4320407E-4,2.6344554E-4,-0.12,0.99,-0.11,14879,9361.30,0,0,165,-0.28,-0.28,0.56,-0.12,0.99,-0.11
-0.119140625,3.0711433E-4,5.567963E-4,0.002263445,-0.12,0.99,-0.11,14886,9361.00,0,0,0,-0.28,-0.21,0.70,-0.12,0.99,-0.11
-1.0195312,3.0711433E-4,-4.4320407E-4,-0.002736555,-0.12,1.0,-0.11,14901,9360.10,0,0,165,-0.28,-0.28,0.35,-0.12,1.00,-0.11
-0.119140625,-0.0016928851,5.567963E-4,-7.365546E-4,-0.12,0.99,-0.11,14916,9361.00,0,0,0,-0.42,-0.21,0.49,-0.12,0.99,-0.11
-0.119140625,3.0711433E-4,-0.0014432038,-7.365546E-4,-0.11,1.0,-0.11,14923,9361.00,0,0,165,-0.28,-0.35,0.49,-0.11,1.00,-0.11
-1.0195312,-0.0016928851,5.567963E-4,-7.365546E-4,-0.12,0.99,-0.1,14938,9360.10,0,0,0,-0.42,-0.21,0.49,-0.12,0.99,-0.10
-1.0195312,-6.9288537E-4,-4.4320407E-4,2.6344554E-4,-0.12,0.99,-0.1,14953,9360.10,0,0,165,-0.35,-0.28,0.56,-0.12,0.99,-0.10
-0.71875,3.0711433E-4,-4.4320407E-4,2.6344554E-4,-0.12,0.99,-0.1,14961,9360.40,0,0,0,-0.28,-0.28,0.56,-0.12,0.99,-0.10
-0.119140625,-0.0016928851,5.567963E-4,2.6344554E-4,-0.12,0.99,-0.11,14975,9361.00,0,0,165,-0.42,-0.21,0.56,-0.12,0.99,-0.11
-0.119140625,3.0711433E-4,5.567963E-4,0.0012634448,-0.11,0.99,-0.11,14991,9361.00,0,0,0,-0.28,-0.21,0.63,-0.11,0.99,-0.11
-0.119140625,3.0711433E-4,5.567963E-4,-7.365546E-4,-0.11,0.99,-0.11,14999,9361.00,0,0,165,-0.28,-0.21,0.49,-0.11,0.99,-0.11
-0.119140625,3.0711433E-4,-4.4320407E-4,-0.0017365552,-0.12,0.99,-0.11,15013,9361.00,0,0,0,-0.28,-0.28,0.42,-0.12,0.99,-0.11
0.18066406,3.0711433E-4,-4.4320407E-4,-0.0017365552,-0.12,0.99,-0.1,15028,9361.30,0,0,165,-0.28,-0.28,0.42,-0.12,0.99,-0.10
-0.71875,3.0711433E-4,5.567963E-4,0.0012634448,-0.12,0.99,-0.11,15035,9360.40,0,0,0,-0.28,-0.21,0.63,-0.12,0.99,-0.11
-0.119140625,-6.9288537E-4,-4.4320407E-4,-7.365546E-4,-0.12,0.99,-0.1,15050,9361.00,0,0,165,-0.35,-0.28,0.49,-0.12,0.99,-0.10
-0.119140625,0.0013071147,5.567963E-4,2.6344554E-4,-0.12,0.99,-0.11,15065,9361.00,0,0,0,-0.21,-0.21,0.56,-0.12,0.99,-0.11
-1.0195312,3.0711433E-4,5.567963E-4,0.0012634448,-0.12,0.99,-0.11,15073,9360.10,0,0,165,-0.28,-0.21,0.63,-0.12,0.99,-0.11
-1.0195312,-6.9288537E-4,-4.4320407E-4,2.6344554E-4,-0.11,0.99,-0.11,15088,9360.10,0,0,0,-0.35,-0.28,0.56,-0.11,0.99,-0.11
-0.119140625,-6.9288537E-4,-4.4320407E-4,0.0012634448,-0.11,0.99,-0.11,15103,9361.00,0,0,165,-0.35,-0.28,0.63,-0.11,0.99,-0.11
-0.119140625,-6.9288537E-4,5.567963E-4,2.6344554E-4,-0.12,0.99,-0.1,15118,9361.00,0,0,0,-0.35,-0.21,0.56,-0.12,0.99,-0.10
-1.0195312,-6.9288537E-4,-4.4320407E-4,-7.365546E-4,-0.12,0.99,-0.1,15126,9360.10,0,0,165,-0.35,-0.28,0.49,-0.12,0.99,-0.10
0.18066406,3.0711433E-4,5.567963E-4,0.0012634448,-0.12,0.99,-0.1,15140,9361.30,0,0,0,-0.28,-0.21,0.63,-0.12,0.99,-0.10
-0.119140625,3.0711433E-4,-4.4320407E-4,-0.0017365552,-0.11,0.99,-0.11,15148,9361.00,0,0,165,-0.28,-0.28,0.42,-0.11,0.99,-0.11
-1.0195312,-6.9288537E-4,-4.4320407E-4,-7.365546E-4,-0.11,1.0,-0.11,15163,9360.10,0,0,0,-0.35,-0.28,0.49,-0.11,1.00,-0.11
-0.71875,3.0711433E-4,-4.4320407E-4,-7.365546E-4,-0.11,0.99,-0.11,15178,9360.40,0,0,165,-0.28,-0.28,0.49,-0.11,0.99,-0.11
-0.119140625,-6.9288537E-4,-4.4320407E-4,-0.0017365552,-0.11,0.99,-0.11,15185,9361.00,0,0,0,-0.35,-0.28,0.42,-0.11,0.99,-0.11
0.18066406,3.0711433E-4,-4.4320407E-4,2.6344554E-4,-0.12,0.99,-0.11,15201,9361.30,0,0,165,-0.28,-0.28,0.56,-0.12,0.99,-0.11
-0.71875,-6.9288537E-4,5.567963E-4,-7.365546E-4,-0.12,0.99,-0.11,15216,9360.40,0,0,0,-0.35,-0.21,0.49,-0.12,0.99,-0.11
-1.0195312,3.0711433E-4,-4.4320407E-4,2.6344554E-4,-0.12,0.99,-0.11,15222,9360.10,0,0,165,-0.28,-0.28,0.56,-0.12,0.99,-0.11
-0.119140625,3.0711433E-4,5.567963E-4,0.0012634448,-0.12,0.99,-0.11,15238,9361.00,0,0,0,-0.28,-0.21,0.63,-0.12,0.99,-0.11
-1.0195312,3.0711433E-4,5.567963E-4,0.002263445,-0.11,0.99,-0.11,15254,9360.10,0,0,165,-0.28,-0.21,0.70,-0.11,0.99,-0.11
-1.0195312,3.0711433E-4,5.567963E-4,2.6344554E-4,-0.11,0.99,-0.11,15260,9360.10,0,0,0,-0.28,-0.21,0.56,-0.11,0.99,-0.11
-1.0195312,-6.9288537E-4,-0.0014432038,-7.365546E-4,-0.12,0.99,-0.11,15276,9360.10,0,0,165,-0.35,-0.35,0.49,-0.12,0.99,-0.11
-0.119140625,0.0013071147,5.567963E-4,-7.365546E-4,-0.12,0.99,-0.1,15290,9361.00,0,0,0,-0.21,-0.21,0.49,-0.12,0.99,-0.10
-1.0195312,3.0711433E-4,5.567963E-4,-7.365546E-4,-0.12,0.99,-0.1,15297,9360.10,0,0,165,-0.28,-0.21,0.49,-0.12,0.99,-0.10
-1.0195312,3.0711433E-4,-4.4320407E-4,2.6344554E-4,-0.12,0.99,-0.11,15313,9360.10,0,0,0,-0.28,-0.28,0.56,-0.12,0.99,-0.11
-0.119140625,-6.9288537E-4,-0.0014432038,-7.365546E-4,-0.12,0.99,-0.11,15328,9361.00,0,0,165,-0.35,-0.35,0.49,-0.12,0.99,-0.11
-1.0195312,0.0013071147,5.567963E-4,2.6344554E-4,-0.12,0.99,-0.11,15335,9360.10,0,0,0,-0.21,-0.21,0.56,-0.12,0.99,-0.11
-1.0195312,-6.9288537E-4,5.567963E-4,2.6344554E-4,-0.11,0.99,-0.11,15350,9360.10,0,0,165,-0.35,-0.21,0.56,-0.11,0.99,-0.11
0.8808594,-6.9288537E-4,-4.4320407E-4,-7.365546E-4,-0.12,0.99,-0.11,15365,9362.00,0,0,0,-0.35,-0.28,0.49,-0.12,0.99,-0.11
-1.0195312,3.0711433E-4,5.567963E-4,-0.0017365552,-0.12,0.99,-0.11,15374,9360.10,0,0,165,-0.28,-0.21,0.42,-0.12,0.99,-0.11
-0.119140625,0.0013071147,-4.4320407E-4,-7.365546E-4,-0.12,0.99,-0.11,15387,9361.00,0,0,0,-0.21,-0.28,0.49,-0.12,0.99,-0.11
-0.119140625,3.0711433E-4,5.567963E-4,-7.365546E-4,-0.12,0.99,-0.1,15403,9361.00,0,0,165,-0.28,-0.21,0.49,-0.12,0.99,-0.10
-0.71875,3.0711433E-4,5.567963E-4,-0.0017365552,-0.12,1.0,-0.11,15411,9360.40,0,0,0,-0.28,-0.21,0.42,-0.12,1.00,-0.11
-1.0195312,3.0711433E-4,-4.4320407E-4,-7.365546E-4,-0.12,0.99,-0.11,15425,9360.10,0,0,165,-0.28,-0.28,0.49,-0.12,0.99,-0.11
-1.0195312,0.0013071147,5.567963E-4,2.6344554E-4,-0.11,0.99,-0.11,15441,9360.10,0,0,0,-0.21,-0.21,0.56,-0.11,0.99,-0.11
-0.119140625,-6.9288537E-4,-4.4320407E-4,-7.365546E-4,-0.12,0.99,-0.11,15448,9361.00,0,0,165,-0.35,-0.28,0.49,-0.12,0.99,-0.11
-1.0195312,0.0013071147,-4.4320407E-4,-0.0017365552,-0.12,0.99,-0.11,15462,9360.10,0,0,0,-0.21,-0.28,0.42,-0.12,0.99,-0.11
-0.119140625,-6.9288537E-4,-4.4320407E-4,-7.365546E-4,-0.12,0.99,-0.11,15479,9361.00,0,0,165,-0.35,-0.28,0.49,-0.12,0.99,-0.11
-1.0195312,3.0711433E-4,-4.4320407E-4,2.6344554E-4,-0.12,0.99,-0.11,15485,9360.10,0,0,0,-0.28,-0.28,0.56,-0.12,0.99,-0.11
-0.119140625,0.0013071147,5.567963E-4,-7.365546E-4,-0.12,0.99,-0.11,15501,9361.00,0,0,165,-0.21,-0.21,0.49,-0.12,0.99,-0.11
-1.0195312,3.0711433E-4,-4.4320407E-4,2.6344554E-4,-0.11,0.99,-0.11,15516,9360.10,0,0,0,-0.28,-0.28,0.56,-0.11,0.99,-0.11
-0.119140625,-6.9288537E-4,-0.0014432038,2.6344554E-4,-0.11,0.99,-0.11,15524,9361.00,0,0,165,-0.35,-0.35,0.56,-0.11,0.99,-0.11
-0.4189453,3.0711433E-4,-4.4320407E-4,-7.365546E-4,-0.11,0.99,-0.11,15538,9360.70,0,0,0,-0.28,-0.28,0.49,-0.11,0.99,-0.11
-1.0195312,-6.9288537E-4,5.567963E-4,2.6344554E-4,-0.12,0.99,-0.1,15553,9360.10,0,0,165,-0.35,-0.21,0.56,-0.12,0.99,-0.10
-0.119140625,3.0711433E-4,5.567963E-4,-7.365546E-4,-0.12,0.99,-0.11,15561,9361.00,0,0,0,-0.28,-0.21,0.49,-0.12,0.99,-0.11
-0.119140625,3.0711433E-4,5.567963E-4,2.6344554E-4,-0.12,0.99,-0.1,15576,9361.00,0,0,165,-0.28,-0.21,0.56,-0.12,0.99,-0.10
-1.0195312,3.0711433E-4,5.567963E-4,2.6344554E-4,-0.12,0.99,-0.11,15590,9360.10,0,0,0,-0.28,-0.21,0.56,-0.12,0.99,-0.11
-0.119140625,0.0013071147,-4.4320407E-4,-7.365546E-4,-0.11,0.99,-0.11,15599,9361.00,0,0,165,-0.21,-0.28,0.49,-0.11,0.99,-0.11
-0.119140625,-6.9288537E-4,-4.4320407E-4,-7.365546E-4,-0.12,0.99,-0.11,15612,9361.00,0,0,0,-0.35,-0.28,0.49,-0.12,0.99,-0.11
-0.119140625,0.0013071147,-4.4320407E-4,-7.365546E-4,-0.12,0.99,-0.11,15628,9361.00,0,0,165,-0.21,-0.28,0.49,-0.12,0.99,-0.11
-0.119140625,3.0711433E-4,5.567963E-4,2.6344554E-4,-0.12,0.99,-0.11,15636,9361.00,0,0,0,-0.28,-0.21,0.56,-0.12,0.99,-0.11
-0.119140625,0.0013071147,-4.4320407E-4,2.6344554E-4,-0.12,0.99,-0.1,15650,9361.00,0,0,165,-0.21,-0.28,0.56,-0.12,0.99,-0.10
-0.119140625,3.0711433E-4,-4.4320407E-4,-0.0017365552,-0.12,0.99,-0.11,15665,9361.00,0,0,0,-0.28,-0.28,0.42,-0.12,0.99,-0.11
-0.119140625,0.0013071147,-4.4320407E-4,2.6344554E-4,-0.11,0.99,-0.11,15673,9361.00,0,0,165,-0.21,-0.28,0.56,-0.11,0.99,-0.11
-0.119140625,0.0013071147,-4.4320407E-4,0.0012634448,-0.11,0.99,-0.11,15688,9361.00,0,0,0,-0.21,-0.28,0.63,-0.11,0.99,-0.11
-0.119140625,3.0711433E-4,-4.4320407E-4,2.6344554E-4,-0.12,0.99,-0.11,15703,9361.00,0,0,165,-0.28,-0.28,0.56,-0.12,0.99,-0.11
-0.119140625,3.0711433E-4,5.567963E-4,-0.0017365552,-0.12,0.99,-0.11,15711,9361.00,0,0,0,-0.28,-0.21,0.42,-0.12,0.99,-0.11
-0.119140625,-6.9288537E-4,-4.4320407E-4,-0.0017365552,-0.12,0.99,-0.11,15725,9361.00,0,0,165,-0.35,-0.28,0.42,-0.12,0.99,-0.11
-0.4189453,0.0013071147,-4.4320407E-4,-7.365546E-4,-0.12,0.99,-0.11,15741,9360.70,0,0,0,-0.21,-0.28,0.49,-0.12,0.99,-0.11
-0.119140625,3.0711433E-4,-4.4320407E-4,-7.365546E-4,-0.12,0.99,-0.11,15747,9361.00,0,0,165,-0.28,-0.28,0.49,-0.12,0.99,-0.11
-0.119140625,3.0711433E-4,-4.4320407E-4,-7.365546E-4,-0.11,0.99,-0.11,15762,9361.00,0,0,0,-0.28,-0.28,0.49,-0.11,0.99,-0.11
-0.119140625,3.0711433E-4,5.567963E-4,2.6344554E-4,-0.11,0.99,-0.11,15777,9361.00,0,0,165,-0.28,-0.21,0.56,-0.11,0.99,-0.11
-1.0195312,3.0711433E-4,-4.4320407E-4,2.6344554E-4,-0.12,1.0,-0.11,15785,9360.10,0,0,0,-0.28,-0.28,0.56,-0.12,1.00,-0.11
-0.119140625,-6.9288537E-4,5.567963E-4,-7.365546E-4,-0.12,0.99,-0.11,15800,9361.00,0,0,165,-0.35,-0.21,0.49,-0.12,0.99,-0.11
-0.119140625,-6.9288537E-4,-4.4320407E-4,-7.365546E-4,-0.12,0.99,-0.11,15816,9361.00,0,0,0,-0.35,-0.28,0.49,-0.12,0.99,-0.11
-0.119140625,3.0711433E-4,5.567963E-4,-0.0037365546,-0.12,0.99,-0.1,15823,9361.00,0,0,165,-0.28,-0.21,0.28,-0.12,0.99,-0.10
-1.0195312,0.0013071147,5.567963E-4,-0.0017365552,-0.12,0.99,-0.11,15838,9360.10,0,0,0,-0.21,-0.21,0.42,-0.12,0.99,-0.11
-0.119140625,0.0013071147,-4.4320407E-4,-7.365546E-4,-0.11,0.99,-0.11,15853,9361.00,0,0,165,-0.21,-0.28,0.49,-0.11,0.99,-0.11
-0.119140625,3.0711433E-4,5.567963E-4,0.0012634448,-0.12,1.0,-0.11,15861,9361.00,0,0,0,-0.28,-0.21,0.63,-0.12,1.00,-0.11
-0.119140625,-6.9288537E-4,-4.4320407E-4,-7.365546E-4,-0.12,0.99,-0.11,15875,9361.00,0,0,165,-0.35,-0.28,0.49,-0.12,0.99,-0.11
-1.0195312,3.0711433E-4,-4.4320407E-4,2.6344554E-4,-0.12,0.99,-0.1,15891,9360.10,0,0,0,-0.28,-0.28,0.56,-0.12,0.99,-0.10
-0.119140625,-6.9288537E-4,-4.4320407E-4,2.6344554E-4,-0.12,0.99,-0.11,15898,9361.00,0,0,165,-0.35,-0.28,0.56,-0.12,0.99,-0.11
-0.119140625,-6.9288537E-4,5.567963E-4,-7.365546E-4,-0.12,0.99,-0.11,15913,9361.00,0,0,0,-0.35,-0.21,0.49,-0.12,0.99,-0.11
-1.0195312,3.0711433E-4,-4.4320407E-4,0.0012634448,-0.12,0.99,-0.11,15928,9360.10,0,0,165,-0.28,-0.28,0.63,-0.12,0.99,-0.11
-0.119140625,0.0013071147,5.567963E-4,-0.002736555,-0.12,0.99,-0.11,15936,9361.00,0,0,0,-0.21,-0.21,0.35,-0.12,0.99,-0.11
-1.0195312,3.0711433E-4,5.567963E-4,-7.365546E-4,-0.12,0.99,-0.11,15950,9360.10,0,0,165,-0.28,-0.21,0.49,-0.12,0.99,-0.11
-1.0195312,3.0711433E-4,-4.4320407E-4,-0.0017365552,-0.12,0.99,-0.11,15965,9360.10,0,0,0,-0.28,-0.28,0.42,-0.12,0.99,-0.11
-0.119140625,0.0013071147,5.567963E-4,-0.0017365552,-0.12,0.99,-0.11,15974,9361.00,0,0,165,-0.21,-0.21,0.42,-0.12,0.99,-0.11
-0.119140625,-6.9288537E-4,5.567963E-4,-7.365546E-4,-0.12,0.99,-0.1,15987,9361.00,0,0,0,-0.35,-0.21,0.49,-0.12,0.99,-0.10
-0.119140625,3.0711433E-4,-4.4320407E-4,2.6344554E-4,-0.12,0.99,-0.11,16003,9361.00,0,0,165,-0.28,-0.28,0.56,-0.12,0.99,-0.11
-1.0195312,3.0711433E-4,5.567963E-4,-7.365546E-4,-0.12,0.99,-0.11,16011,9360.10,0,0,0,-0.28,-0.21,0.49,-0.12,0.99,-0.11
-1.0195312,-6.9288537E-4,5.567963E-4,0.0012634448,-0.11,0.99,-0.11,16026,9360.10,0,0,165,-0.35,-0.21,0.63,-0.11,0.99,-0.11
-0.119140625,0.0013071147,-4.4320407E-4,-7.365546E-4,-0.12,0.99,-0.11,16041,9361.00,0,0,0,-0.21,-0.28,0.49,-0.12,0.99,-0.11
-0.119140625,0.0013071147,-4.4320407E-4,-0.002736555,-0.12,0.99,-0.11,16048,9361.00,0,0,165,-0.21,-0.28,0.35,-0.12,0.99,-0.11
-0.4189453,-6.9288537E-4,-4.4320407E-4,-0.0017365552,-0.12,0.99,-0.11,16063,9360.70,0,0,0,-0.35,-0.28,0.42,-0.12,0.99,-0.11
-0.119140625,-6.9288537E-4,-4.4320407E-4,2.6344554E-4,-0.12,0.99,-0.11,16081,9361.00,0,0,165,-0.35,-0.28,0.56,-0.12,0.99,-0.11
-1.0195312,3.0711433E-4,-0.0014432038,2.6344554E-4,-0.12,0.99,-0.11,16086,9360.10,0,0,0,-0.28,-0.35,0.56,-0.12,0.99,-0.11
-0.119140625,3.0711433E-4,-4.4320407E-4,2.6344554E-4,-0.11,0.99,-0.11,16100,9361.00,0,0,165,-0.28,-0.28,0.56,-0.11,0.99,-0.11
-0.119140625,3.0711433E-4,5.567963E-4,-7.365546E-4,-0.11,0.99,-0.11,16115,9361.00,0,0,0,-0.28,-0.21,0.49,-0.11,0.99,-0.11
-0.119140625,3.0711433E-4,-4.4320407E-4,0.0012634448,-0.12,0.99,-0.11,16123,9361.00,0,0,165,-0.28,-0.28,0.63,-0.12,0.99,-0.11
-0.119140625,3.0711433E-4,-4.4320407E-4,2.6344554E-4,-0.12,0.99,-0.11,16138,9361.00,0,0,0,-0.28,-0.28,0.56,-0.12,0.99,-0.11
-1.0195312,3.0711433E-4,-4.4320407E-4,-0.002736555,-0.12,0.99,-0.11,16153,9360.10,0,0,165,-0.28,-0.28,0.35,-0.12,0.99,-0.11
-0.119140625,3.0711433E-4,5.567963E-4,2.6344554E-4,-0.12,0.99,-0.11,16169,9361.00,0,0,0,-0.28,-0.21,0.56,-0.12,0.99,-0.11
-0.4189453,3.0711433E-4,5.567963E-4,-7.365546E-4,-0.12,0.99,-0.1,16176,9360.70,0,0,165,-0.28,-0.21,0.49,-0.12,0.99,-0.10
-0.119140625,0.0013071147,-4.4320407E-4,-0.0017365552,-0.12,0.99,-0.11,16191,9361.00,0,0,0,-0.21,-0.28,0.42,-0.12,0.99,-0.11
-0.119140625,-6.9288537E-4,5.567963E-4,-0.0017365552,-0.11,0.99,-0.11,16206,9361.00,0,0,165,-0.35,-0.21,0.42,-0.11,0.99,-0.11
-0.4189453,0.0013071147,5.567963E-4,2.6344554E-4,-0.12,0.99,-0.11,16213,9360.70,0,0,0,-0.21,-0.21,0.56,-0.12,0.99,-0.11
-0.119140625,0.0013071147,5.567963E-4,-7.365546E-4,-0.12,0.99,-0.11,16228,9361.00,0,0,165,-0.21,-0.21,0.49,-0.12,0.99,-0.11
-0.119140625,3.0711433E-4,-0.0014432038,-7.365546E-4,-0.12,0.99,-0.11,16235,9361.00,0,0,0,-0.28,-0.35,0.49,-0.12,0.99,-0.11
-0.4189453,3.0711433E-4,-0.0014432038,-7.365546E-4,-0.12,0.99,-0.11,16250,9360.70,0,0,165,-0.28,-0.35,0.49,-0.12,0.99,-0.11
-0.119140625,-6.9288537E-4,5.567963E-4,0.0012634448,-0.12,0.99,-0.11,16266,9361.00,0,0,0,-0.35,-0.21,0.63,-0.12,0.99,-0.11
-0.119140625,-6.9288537E-4,5.567963E-4,-7.365546E-4,-0.12,0.99,-0.11,16273,9361.00,0,0,165,-0.35,-0.21,0.49,-0.12,0.99,-0.11
-1.3193359,0.0013071147,5.567963E-4,0.0012634448,-0.11,0.99,-0.11,16288,9359.80,0,0,0,-0.21,-0.21,0.63,-0.11,0.99,-0.11
-0.119140625,-6.9288537E-4,-4.4320407E-4,2.6344554E-4,-0.12,0.99,-0.11,16303,9361.00,0,0,165,-0.35,-0.28,0.56,-0.12,0.99,-0.11
0.8808594,3.0711433E-4,-4.4320407E-4,-7.365546E-4,-0.12,0.99,-0.11,16311,9362.00,0,0,0,-0.28,-0.28,0.49,-0.12,0.99,-0.11
-1.3193359,3.0711433E-4,5.567963E-4,-7.365546E-4,-0.12,0.99,-0.11,16325,9359.80,0,0,165,-0.28,-0.21,0.49,-0.12,0.99,-0.11
-0.4189453,3.0711433E-4,-4.4320407E-4,2.6344554E-4,-0.12,0.99,-0.1,16341,9360.70,0,0,0,-0.28,-0.28,0.56,-0.12,0.99,-0.10
-1.3193359,0.0013071147,-4.4320407E-4,-7.365546E-4,-0.12,0.99,-0.11,16348,9359.80,0,0,165,-0.21,-0.28,0.49,-0.12,0.99,-0.11
-1.3193359,3.0711433E-4,-4.4320407E-4,-0.0017365552,-0.11,0.99,-0.11,16364,9359.80,0,0,0,-0.28,-0.28,0.42,-0.11,0.99,-0.11
-0.119140625,-6.9288537E-4,5.567963E-4,0.0012634448,-0.12,0.99,-0.11,16378,9361.00,0,0,165,-0.35,-0.21,0.63,-0.12,0.99,-0.11
-0.119140625,3.0711433E-4,-4.4320407E-4,-7.365546E-4,-0.12,0.99,-0.11,16385,9361.00,0,0,0,-0.28,-0.28,0.49,-0.12,0.99,-0.11
0.8808594,3.0711433E-4,5.567963E-4,-0.0017365552,-0.12,0.99,-0.11,16401,9362.00,0,0,165,-0.28,-0.21,0.42,-0.12,0.99,-0.11
-0.4189453,-6.9288537E-4,-4.4320407E-4,-7.365546E-4,-0.12,0.99,-0.11,16416,9360.70,0,0,0,-0.35,-0.28,0.49,-0.12,0.99,-0.11
-0.4189453,0.0013071147,-4.4320407E-4,-0.0017365552,-0.12,0.99,-0.11,16423,9360.70,0,0,165,-0.21,-0.28,0.42,-0.12,0.99,-0.11
-0.4189453,0.0013071147,5.567963E-4,-7.365546E-4,-0.11,0.99,-0.11,16438,9360.70,0,0,0,-0.21,-0.21,0.49,-0.11,0.99,-0.11
-0.119140625,3.0711433E-4,5.567963E-4,0.0012634448,-0.11,0.99,-0.11,16453,9361.00,0,0,165,-0.28,-0.21,0.63,-0.11,0.99,-0.11
-1.3193359,3.0711433E-4,-4.4320407E-4,2.6344554E-4,-0.12,0.99,-0.11,16460,9359.80,0,0,0,-0.28,-0.28,0.56,-0.12,0.99,-0.11
-0.4189453,-6.9288537E-4,-4.4320407E-4,-7.365546E-4,-0.12,1.0,-0.11,16475,9360.70,0,0,165,-0.35,-0.28,0.49,-0.12,1.00,-0.11
0.5810547,0.0013071147,5.567963E-4,2.6344554E-4,-0.12,0.99,-0.11,16490,9361.70,0,0,0,-0.21,-0.21,0.56,-0.12,0.99,-0.11
-0.4189453,3.0711433E-4,5.567963E-4,2.6344554E-4,-0.12,0.99,-0.11,16498,9360.70,0,0,165,-0.28,-0.21,0.56,-0.12,0.99,-0.11
-0.119140625,-6.9288537E-4,5.567963E-4,2.6344554E-4,-0.12,0.99,-0.11,16514,9361.00,0,0,0,-0.35,-0.21,0.56,-0.12,0.99,-0.11
-0.4189453,3.0711433E-4,-0.0014432038,2.6344554E-4,-0.12,0.99,-0.11,16528,9360.70,0,0,165,-0.28,-0.35,0.56,-0.12,0.99,-0.11
-1.3193359,3.0711433E-4,5.567963E-4,2.6344554E-4,-0.12,0.99,-0.11,16535,9359.80,0,0,0,-0.28,-0.21,0.56,-0.12,0.99,-0.11
-0.119140625,3.0711433E-4,-4.4320407E-4,-7.365546E-4,-0.11,0.99,-0.11,16550,9361.00,0,0,165,-0.28,-0.28,0.49,-0.11,0.99,-0.11
-0.119140625,3.0711433E-4,-4.4320407E-4,-7.365546E-4,-0.12,0.99,-0.11,16566,9361.00,0,0,0,-0.28,-0.28,0.49,-0.12,0.99,-0.11
-1.3193359,3.0711433E-4,-4.4320407E-4,2.6344554E-4,-0.12,0.99,-0.11,16574,9359.80,0,0,165,-0.28,-0.28,0.56,-0.12,0.99,-0.11
-0.119140625,3.0711433E-4,-4.4320407E-4,2.6344554E-4,-0.12,0.99,-0.11,16588,9361.00,0,0,0,-0.28,-0.28,0.56,-0.12,0.99,-0.11
-1.3193359,0.0013071147,5.567963E-4,0.0012634448,-0.12,0.99,-0.1,16602,9359.80,0,0,165,-0.21,-0.21,0.63,-0.12,0.99,-0.10
-0.119140625,3.0711433E-4,5.567963E-4,2.6344554E-4,-0.11,0.99,-0.11,16610,9361.00,0,0,0,-0.28,-0.21,0.56,-0.11,0.99,-0.11
-0.4189453,0.0013071147,5.567963E-4,2.6344554E-4,-0.12,0.99,-0.11,16625,9360.70,0,0,165,-0.21,-0.21,0.56,-0.12,0.99,-0.11
-0.119140625,3.0711433E-4,5.567963E-4,2.6344554E-4,-0.12,0.99,-0.11,16641,9361.00,0,0,0,-0.28,-0.21,0.56,-0.12,0.99,-0.11
-1.3193359,3.0711433E-4,-4.4320407E-4,-0.0017365552,-0.11,0.99,-0.11,16648,9359.80,0,0,165,-0.28,-0.28,0.42,-0.11,0.99,-0.11
-1.3193359,3.0711433E-4,-4.4320407E-4,-0.0017365552,-0.12,0.99,-0.11,16664,9359.80,0,0,0,-0.28,-0.28,0.42,-0.12,0.99,-0.11
-0.119140625,3.0711433E-4,5.567963E-4,2.6344554E-4,-0.12,1.0,-0.11,16678,9361.00,0,0,165,-0.28,-0.21,0.56,-0.12,1.00,-0.11
-0.119140625,3.0711433E-4,-4.4320407E-4,0.0012634448,-0.11,0.99,-0.11,16685,9361.00,0,0,0,-0.28,-0.28,0.63,-0.11,0.99,-0.11
-0.4189453,0.0013071147,5.567963E-4,2.6344554E-4,-0.12,0.99,-0.11,16700,9360.70,0,0,165,-0.21,-0.21,0.56,-0.12,0.99,-0.11
-0.4189453,3.0711433E-4,-4.4320407E-4,-7.365546E-4,-0.11,0.99,-0.11,16715,9360.70,0,0,0,-0.28,-0.28,0.49,-0.11,0.99,-0.11
-0.119140625,3.0711433E-4,-4.4320407E-4,-7.365546E-4,-0.12,0.99,-0.11,16723,9361.00,0,0,165,-0.28,-0.28,0.49,-0.12,0.99,-0.11
-0.4189453,3.0711433E-4,5.567963E-4,2.6344554E-4,-0.12,0.99,-0.11,16738,9360.70,0,0,0,-0.28,-0.21,0.56,-0.12,0.99,-0.11
-0.4189453,3.0711433E-4,-0.0014432038,0.0012634448,-0.12,0.99,-0.1,16753,9360.70,0,0,165,-0.28,-0.35,0.63,-0.12,0.99,-0.10
-0.4189453,-6.9288537E-4,-4.4320407E-4,-0.002736555,-0.12,0.99,-0.11,16760,9360.70,0,0,0,-0.35,-0.28,0.35,-0.12,0.99,-0.11
-1.0195312,0.0013071147,-4.4320407E-4,2.6344554E-4,-0.12,1.0,-0.11,16776,9360.10,0,0,165,-0.21,-0.28,0.56,-0.12,1.00,-0.11
-0.4189453,3.0711433E-4,-4.4320407E-4,-7.365546E-4,-0.12,0.99,-0.11,16790,9360.70,0,0,0,-0.28,-0.28,0.49,-0.12,0.99,-0.11
-0.4189453,0.0013071147,5.567963E-4,2.6344554E-4,-0.11,0.99,-0.11,16798,9360.70,0,0,165,-0.21,-0.21,0.56,-0.11,0.99,-0.11
-0.4189453,-6.9288537E-4,-4.4320407E-4,2.6344554E-4,-0.12,0.99,-0.11,16813,9360.70,0,0,0,-0.35,-0.28,0.56,-0.12,0.99,-0.11
-1.3193359,-0.0016928851,-4.4320407E-4,-7.365546E-4,-0.12,0.99,-0.11,16828,9359.80,0,0,165,-0.42,-0.28,0.49,-0.12,0.99,-0.11
-0.4189453,0.0013071147,-4.4320407E-4,-7.365546E-4,-0.12,0.99,-0.11,16835,9360.70,0,0,0,-0.21,-0.28,0.49,-0.12,0.99,-0.11
-0.4189453,-6.9288537E-4,-4.4320407E-4,2.6344554E-4,-0.12,0.99,-0.11,16850,9360.70,0,0,165,-0.35,-0.28,0.56,-0.12,0.99,-0.11
-1.3193359,-6.9288537E-4,5.567963E-4,2.6344554E-4,-0.12,0.99,-0.11,16865,9359.80,0,0,0,-0.35,-0.21,0.56,-0.12,0.99,-0.11
-0.4189453,3.0711433E-4,-4.4320407E-4,-0.0017365552,-0.12,0.99,-0.11,16873,9360.70,0,0,165,-0.28,-0.28,0.42,-0.12,0.99,-0.11
-1.0195312,3.0711433E-4,-4.4320407E-4,0.0012634448,-0.12,0.99,-0.11,16888,9360.10,0,0,0,-0.28,-0.28,0.63,-0.12,0.99,-0.11
-1.3193359,-6.9288537E-4,5.567963E-4,-7.365546E-4,-0.12,0.99,-0.11,16904,9359.80,0,0,165,-0.35,-0.21,0.49,-0.12,0.99,-0.11
-0.4189453,-6.9288537E-4,5.567963E-4,-7.365546E-4,-0.12,0.99,-0.11,16911,9360.70,0,0,0,-0.35,-0.21,0.49,-0.12,0.99,-0.11
-1.0195312,-6.9288537E-4,5.567963E-4,2.6344554E-4,-0.12,0.99,-0.11,16926,9360.10,0,0,165,-0.35,-0.21,0.56,-0.12,0.99,-0.11
-1.3193359,3.0711433E-4,5.567963E-4,0.0012634448,-0.12,0.99,-0.11,16940,9359.80,0,0,0,-0.28,-0.21,0.63,-0.12,0.99,-0.11
-0.4189453,3.0711433E-4,-4.4320407E-4,-7.365546E-4,-0.12,0.99,-0.11,16948,9360.70,0,0,165,-0.28,-0.28,0.49,-0.12,0.99,-0.11
-0.4189453,-6.9288537E-4,-4.4320407E-4,-7.365546E-4,-0.12,0.99,-0.11,16970,9360.70,0,0,0,-0.35,-0.28,0.49,-0.12,0.99,-0.11
-0.4189453,-6.9288537E-4,-4.4320407E-4,2.6344554E-4,-0.12,0.99,-0.11,16978,9360.70,0,0,165,-0.35,-0.28,0.56,-0.12,0.99,-0.11
-0.4189453,0.0013071147,-4.4320407E-4,-0.0017365552,-0.11,0.99,-0.11,16986,9360.70,0,0,0,-0.21,-0.28,0.42,-0.11,0.99,-0.11
-0.4189453,3.0711433E-4,-4.4320407E-4,-7.365546E-4,-0.12,0.99,-0.11,17000,9360.70,0,0,165,-0.28,-0.28,0.49,-0.12,0.99,-0.11
-0.4189453,3.0711433E-4,-4.4320407E-4,-7.365546E-4,-0.12,0.99,-0.11,17015,9360.70,0,0,0,-0.28,-0.28,0.49,-0.12,0.99,-0.11
-0.4189453,3.0711433E-4,5.567963E-4,0.0012634448,-0.12,0.99,-0.11,17023,9360.70,0,0,165,-0.28,-0.21,0.63,-0.12,0.99,-0.11
-0.4189453,3.0711433E-4,-4.4320407E-4,-7.365546E-4,-0.11,0.99,-0.11,17038,9360.70,0,0,0,-0.28,-0.28,0.49,-0.11,0.99,-0.11
0.5810547,3.0711433E-4,-4.4320407E-4,0.0012634448,-0.12,0.99,-0.11,17060,9361.70,0,0,165,-0.28,-0.28,0.63,-0.12,0.99,-0.11
-0.4189453,-6.9288537E-4,5.567963E-4,-7.365546E-4,-0.12,0.99,-0.11,17061,9360.70,0,0,0,-0.35,-0.21,0.49,-0.12,0.99,-0.11
-1.3193359,0.0023071144,-4.4320407E-4,2.6344554E-4,-0.12,0.99,-0.11,17075,9359.80,0,0,165,-0.14,-0.28,0.56,-0.12,0.99,-0.11
-0.4189453,3.0711433E-4,-4.4320407E-4,-0.0017365552,-0.11,0.99,-0.11,17090,9360.70,0,0,0,-0.28,-0.28,0.42,-0.11,0.99,-0.11
-1.3193359,0.0013071147,-4.4320407E-4,-7.365546E-4,-0.12,0.99,-0.1,17098,9359.80,0,0,165,-0.21,-0.28,0.49,-0.12,0.99,-0.10
-1.3193359,-6.9288537E-4,-4.4320407E-4,-0.0017365552,-0.12,0.99,-0.11,17112,9359.80,0,0,0,-0.35,-0.28,0.42,-0.12,0.99,-0.11
-1.3193359,3.0711433E-4,-4.4320407E-4,-7.365546E-4,-0.12,1.0,-0.11,17127,9359.80,0,0,165,-0.28,-0.28,0.49,-0.12,1.00,-0.11
-0.4189453,3.0711433E-4,-4.4320407E-4,0.0012634448,-0.12,0.99,-0.11,17135,9360.70,0,0,0,-0.28,-0.28,0.63,-0.12,0.99,-0.11
-1.3193359,3.0711433E-4,-4.4320407E-4,-7.365546E-4,-0.12,0.99,-0.11,17151,9359.80,0,0,165,-0.28,-0.28,0.49,-0.12,0.99,-0.11
-0.4189453,0.0013071147,5.567963E-4,-7.365546E-4,-0.12,0.99,-0.11,17165,9360.70,0,0,0,-0.21,-0.21,0.49,-0.12,0.99,-0.11
-0.4189453,0.0023071144,5.567963E-4,2.6344554E-4,-0.12,0.99,-0.11,17174,9360.70,0,0,165,-0.14,-0.21,0.56,-0.12,0.99,-0.11
-0.4189453,-6.9288537E-4,0.001556796,-7.365546E-4,-0.12,0.99,-0.11,17188,9360.70,0,0,0,-0.35,-0.14,0.49,-0.12,0.99,-0.11
-0.4189453,0.0023071144,-4.4320407E-4,-7.365546E-4,-0.12,0.99,-0.11,17203,9360.70,0,0,165,-0.14,-0.28,0.49,-0.12,0.99,-0.11
-0.4189453,0.0013071147,-4.4320407E-4,0.0012634448,-0.12,0.99,-0.11,17211,9360.70,0,0,0,-0.21,-0.28,0.63,-0.12,0.99,-0.11
-1.3193359,-6.9288537E-4,-4.4320407E-4,0.0012634448,-0.11,1.0,-0.11,17226,9359.80,0,0,165,-0.35,-0.28,0.63,-0.11,1.00,-0.11
-1.3193359,-6.9288537E-4,-4.4320407E-4,2.6344554E-4,-0.12,0.99,-0.11,17240,9359.80,0,0,0,-0.35,-0.28,0.56,-0.12,0.99,-0.11
-1.3193359,3.0711433E-4,-4.4320407E-4,2.6344554E-4,-0.12,0.99,-0.11,17248,9359.80,0,0,165,-0.28,-0.28,0.56,-0.12,0.99,-0.11
-0.4189453,3.0711433E-4,5.567963E-4,0.0012634448,-0.12,0.99,-0.11,17263,9360.70,0,0,0,-0.28,-0.21,0.63,-0.12,0.99,-0.11
-0.4189453,0.0013071147,-4.4320407E-4,0.0012634448,-0.12,0.99,-0.1,17278,9360.70,0,0,165,-0.21,-0.28,0.63,-0.12,0.99,-0.10
-0.4189453,0.0013071147,-4.4320407E-4,0.0012634448,-0.12,0.99,-0.11,17285,9360.70,0,0,0,-0.21,-0.28,0.63,-0.12,0.99,-0.11
-0.4189453,-6.9288537E-4,-4.4320407E-4,-7.365546E-4,-0.12,0.99,-0.11,17300,9360.70,0,0,165,-0.35,-0.28,0.49,-0.12,0.99,-0.11
-0.4189453,3.0711433E-4,5.567963E-4,2.6344554E-4,-0.12,0.99,-0.11,17315,9360.70,0,0,0,-0.28,-0.21,0.56,-0.12,0.99,-0.11
-1.3193359,-6.9288537E-4,5.567963E-4,2.6344554E-4,-0.12,0.99,-0.11,17326,9359.80,0,0,165,-0.35,-0.21,0.56,-0.12,0.99,-0.11
-0.4189453,3.0711433E-4,5.567963E-4,-7.365546E-4,-0.12,0.99,-0.11,17338,9360.70,0,0,0,-0.28,-0.21,0.49,-0.12,0.99,-0.11
-0.4189453,-6.9288537E-4,-4.4320407E-4,-7.365546E-4,-0.12,0.99,-0.11,17353,9360.70,0,0,165,-0.35,-0.28,0.49,-0.12,0.99,-0.11
-0.4189453,0.0013071147,5.567963E-4,2.6344554E-4,-0.12,0.99,-0.11,17360,9360.70,0,0,0,-0.21,-0.21,0.56,-0.12,0.99,-0.11
-0.4189453,3.0711433E-4,5.567963E-4,2.6344554E-4,-0.12,0.99,-0.1,17375,9360.70,0,0,165,-0.28,-0.21,0.56,-0.12,0.99,-0.10
-0.4189453,3.0711433E-4,5.567963E-4,2.6344554E-4,-0.12,0.99,-0.11,17390,9360.70,0,0,0,-0.28,-0.21,0.56,-0.12,0.99,-0.11
-0.4189453,3.0711433E-4,-4.4320407E-4,-7.365546E-4,-0.12,0.99,-0.11,17398,9360.70,0,0,165,-0.28,-0.28,0.49,-0.12,0.99,-0.11
-0.4189453,3.0711433E-4,-4.4320407E-4,2.6344554E-4,-0.12,0.99,-0.11,17413,9360.70,0,0,0,-0.28,-0.28,0.56,-0.12,0.99,-0.11
-0.4189453,3.0711433E-4,-0.0014432038,2.6344554E-4,-0.12,0.99,-0.11,17428,9360.70,0,0,165,-0.28,-0.35,0.56,-0.12,0.99,-0.11
-0.4189453,3.0711433E-4,-4.4320407E-4,-7.365546E-4,-0.12,0.99,-0.11,17435,9360.70,0,0,0,-0.28,-0.28,0.49,-0.12,0.99,-0.11
-1.3193359,0.0013071147,5.567963E-4,-7.365546E-4,-0.12,0.99,-0.11,17450,9359.80,0,0,165,-0.21,-0.21,0.49,-0.12,0.99,-0.11
-1.3193359,-6.9288537E-4,-4.4320407E-4,-0.0017365552,-0.12,0.99,-0.11,17465,9359.80,0,0,0,-0.35,-0.28,0.42,-0.12,0.99,-0.11
-0.4189453,3.0711433E-4,-4.4320407E-4,0.0012634448,-0.12,0.99,-0.11,17473,9360.70,0,0,165,-0.28,-0.28,0.63,-0.12,0.99,-0.11
-0.4189453,3.0711433E-4,5.567963E-4,2.6344554E-4,-0.12,0.99,-0.11,17488,9360.70,0,0,0,-0.28,-0.21,0.56,-0.12,0.99,-0.11
-0.71875,3.0711433E-4,5.567963E-4,-7.365546E-4,-0.12,0.99,-0.11,17503,9360.40,0,0,165,-0.28,-0.21,0.49,-0.12,0.99,-0.11
-0.4189453,3.0711433E-4,-4.4320407E-4,0.0012634448,-0.12,0.99,-0.11,17510,9360.70,0,0,0,-0.28,-0.28,0.63,-0.12,0.99,-0.11
-0.4189453,3.0711433E-4,-4.4320407E-4,-7.365546E-4,-0.12,0.99,-0.11,17526,9360.70,0,0,165,-0.28,-0.28,0.49,-0.12,0.99,-0.11
-0.4189453,-6.9288537E-4,-4.4320407E-4,0.0012634448,-0.12,0.99,-0.1,17541,9360.70,0,0,0,-0.35,-0.28,0.63,-0.12,0.99,-0.10
-0.4189453,3.0711433E-4,-4.4320407E-4,-7.365546E-4,-0.12,0.99,-0.11,17548,9360.70,0,0,165,-0.28,-0.28,0.49,-0.12,0.99,-0.11
-0.4189453,3.0711433E-4,-4.4320407E-4,2.6344554E-4,-0.12,0.99,-0.11,17562,9360.70,0,0,0,-0.28,-0.28,0.56,-0.12,0.99,-0.11
-0.4189453,-6.9288537E-4,5.567963E-4,-0.002736555,-0.12,0.99,-0.11,17577,9360.70,0,0,165,-0.35,-0.21,0.35,-0.12,0.99,-0.11
-0.4189453,3.0711433E-4,-4.4320407E-4,-7.365546E-4,-0.12,0.99,-0.11,17585,9360.70,0,0,0,-0.28,-0.28,0.49,-0.12,0.99,-0.11
0.5810547,-6.9288537E-4,5.567963E-4,2.6344554E-4,-0.12,0.99,-0.11,17601,9361.70,0,0,165,-0.35,-0.21,0.56,-0.12,0.99,-0.11
-1.6191406,3.0711433E-4,-4.4320407E-4,-7.365546E-4,-0.12,0.99,-0.11,17616,9359.50,0,0,0,-0.28,-0.28,0.49,-0.12,0.99,-0.11
-0.4189453,-6.9288537E-4,-0.0014432038,2.6344554E-4,-0.12,0.99,-0.11,17626,9360.70,0,0,165,-0.35,-0.35,0.56,-0.12,0.99,-0.11
-0.4189453,3.0711433E-4,5.567963E-4,2.6344554E-4,-0.12,0.99,-0.11,17638,9360.70,0,0,0,-0.28,-0.21,0.56,-0.12,0.99,-0.11
-0.4189453,-6.9288537E-4,-0.0014432038,0.0012634448,-0.12,0.99,-0.11,17653,9360.70,0,0,165,-0.35,-0.35,0.63,-0.12,0.99,-0.11
-0.4189453,3.0711433E-4,-4.4320407E-4,2.6344554E-4,-0.12,0.99,-0.11,17661,9360.70,0,0,0,-0.28,-0.28,0.56,-0.12,0.99,-0.11
-1.3193359,-6.9288537E-4,-4.4320407E-4,-7.365546E-4,-0.12,0.99,-0.11,17675,9359.80,0,0,165,-0.35,-0.28,0.49,-0.12,0.99,-0.11
-1.3193359,3.0711433E-4,-4.4320407E-4,-0.0017365552,-0.12,0.99,-0.11,17691,9359.80,0,0,0,-0.28,-0.28,0.42,-0.12,0.99,-0.11
-0.4189453,3.0711433E-4,-4.4320407E-4,-0.0017365552,-0.12,0.99,-0.11,17697,9360.70,0,0,165,-0.28,-0.28,0.42,-0.12,0.99,-0.11
-1.6191406,3.0711433E-4,-0.0014432038,-7.365546E-4,-0.12,0.99,-0.11,17713,9359.50,0,0,0,-0.28,-0.35,0.49,-0.12,0.99,-0.11
-1.3193359,3.0711433E-4,-0.0014432038,-7.365546E-4,-0.12,0.99,-0.11,17728,9359.80,0,0,165,-0.28,-0.35,0.49,-0.12,0.99,-0.11
-0.4189453,3.0711433E-4,-4.4320407E-4,-0.0017365552,-0.12,0.99,-0.11,17735,9360.70,0,0,0,-0.28,-0.28,0.42,-0.12,0.99,-0.11
-0.4189453,-6.9288537E-4,0.001556796,-7.365546E-4,-0.12,0.99,-0.11,17750,9360.70,0,0,165,-0.35,-0.14,0.49,-0.12,0.99,-0.11
-0.71875,-6.9288537E-4,-4.4320407E-4,2.6344554E-4,-0.12,0.99,-0.11,17765,9360.40,0,0,0,-0.35,-0.28,0.56,-0.12,0.99,-0.11
-1.3193359,0.0013071147,0.001556796,-7.365546E-4,-0.12,0.99,-0.11,17773,9359.80,0,0,165,-0.21,-0.14,0.49,-0.12,0.99,-0.11
-0.4189453,-6.9288537E-4,5.567963E-4,-7.365546E-4,-0.12,0.99,-0.11,17788,9360.70,0,0,0,-0.35,-0.21,0.49,-0.12,0.99,-0.11
-0.4189453,3.0711433E-4,0.0025567962,-7.365546E-4,-0.12,0.99,-0.11,17802,9360.70,0,0,165,-0.28,-0.07,0.49,-0.12,0.99,-0.11
-0.4189453,3.0711433E-4,-4.4320407E-4,2.6344554E-4,-0.12,0.99,-0.11,17811,9360.70,0,0,0,-0.28,-0.28,0.56,-0.12,0.99,-0.11
-0.71875,3.0711433E-4,-4.4320407E-4,-7.365546E-4,-0.12,0.99,-0.11,17825,9360.40,0,0,165,-0.28,-0.28,0.49,-0.12,0.99,-0.11
-0.4189453,3.0711433E-4,5.567963E-4,2.6344554E-4,-0.11,0.99,-0.11,17841,9360.70,0,0,0,-0.28,-0.21,0.56,-0.11,0.99,-0.11
-0.4189453,0.0013071147,5.567963E-4,-7.365546E-4,-0.12,0.99,-0.11,17848,9360.70,0,0,165,-0.21,-0.21,0.49,-0.12,0.99,-0.11
-0.71875,3.0711433E-4,5.567963E-4,2.6344554E-4,-0.12,0.99,-0.11,17863,9360.40,0,0,0,-0.28,-0.21,0.56,-0.12,0.99,-0.11
-1.3193359,-6.9288537E-4,5.567963E-4,2.6344554E-4,-0.12,0.99,-0.11,17877,9359.80,0,0,165,-0.35,-0.21,0.56,-0.12,0.99,-0.11
-0.4189453,3.0711433E-4,-4.4320407E-4,-7.365546E-4,-0.12,0.99,-0.11,17885,9360.70,0,0,0,-0.28,-0.28,0.49,-0.12,0.99,-0.11
-0.4189453,0.0013071147,-4.4320407E-4,-0.0017365552,-0.12,0.99,-0.11,17900,9360.70,0,0,165,-0.21,-0.28,0.42,-0.12,0.99,-0.11
0.5810547,-6.9288537E-4,5.567963E-4,2.6344554E-4,-0.12,0.99,-0.11,17915,9361.70,0,0,0,-0.35,-0.21,0.56,-0.12,0.99,-0.11
-0.71875,-6.9288537E-4,-4.4320407E-4,-0.0017365552,-0.12,0.99,-0.11,17922,9360.40,0,0,165,-0.35,-0.28,0.42,-0.12,0.99,-0.11
-0.4189453,3.0711433E-4,-4.4320407E-4,-7.365546E-4,-0.12,0.99,-0.11,17937,9360.70,0,0,0,-0.28,-0.28,0.49,-0.12,0.99,-0.11
-0.4189453,-6.9288537E-4,5.567963E-4,2.6344554E-4,-0.11,0.99,-0.11,17953,9360.70,0,0,165,-0.35,-0.21,0.56,-0.11,0.99,-0.11
0.5810547,-6.9288537E-4,5.567963E-4,-7.365546E-4,-0.12,0.99,-0.11,17960,9361.70,0,0,0,-0.35,-0.21,0.49,-0.12,0.99,-0.11
-0.4189453,-6.9288537E-4,-4.4320407E-4,2.6344554E-4,-0.12,0.99,-0.11,17975,9360.70,0,0,165,-0.35,-0.28,0.56,-0.12,0.99,-0.11
-0.71875,3.0711433E-4,5.567963E-4,0.0012634448,-0.12,0.99,-0.11,17990,9360.40,0,0,0,-0.28,-0.21,0.63,-0.12,0.99,-0.11
-0.4189453,3.0711433E-4,-4.4320407E-4,-0.0017365552,-0.11,0.99,-0.11,17998,9360.70,0,0,165,-0.28,-0.28,0.42,-0.11,0.99,-0.11
-0.4189453,3.0711433E-4,-4.4320407E-4,-0.0017365552,-0.12,0.99,-0.11,18013,9360.70,0,0,0,-0.28,-0.28,0.42,-0.12,0.99,-0.11
-0.71875,-6.9288537E-4,5.567963E-4,-0.0017365552,-0.12,0.99,-0.11,18028,9360.40,0,0,165,-0.35,-0.21,0.42,-0.12,0.99,-0.11
-0.71875,-6.9288537E-4,-4.4320407E-4,-7.365546E-4,-0.12,0.99,-0.11,18035,9360.40,0,0,0,-0.35,-0.28,0.49,-0.12,0.99,-0.11
-0.4189453,3.0711433E-4,-4.4320407E-4,-0.0017365552,-0.12,0.99,-0.11,18050,9360.70,0,0,165,-0.28,-0.28,0.42,-0.12,0.99,-0.11
-0.71875,3.0711433E-4,-4.4320407E-4,-7.365546E-4,-0.12,0.99,-0.11,18073,9360.40,0,0,0,-0.28,-0.28,0.49,-0.12,0.99,-0.11
-0.4189453,-6.9288537E-4,-0.0014432038,0.0012634448,-0.12,0.99,-0.11,18076,9360.70,0,0,165,-0.35,-0.35,0.63,-0.12,0.99,-0.11
-0.71875,-6.9288537E-4,-0.0014432038,2.6344554E-4,-0.12,0.99,-0.11,18088,9360.40,0,0,0,-0.35,-0.35,0.56,-0.12,0.99,-0.11
-0.71875,-6.9288537E-4,-4.4320407E-4,0.0012634448,-0.12,0.99,-0.11,18103,9360.40,0,0,165,-0.35,-0.28,0.63,-0.12,0.99,-0.11
-0.4189453,-6.9288537E-4,-4.4320407E-4,2.6344554E-4,-0.12,0.99,-0.11,18118,9360.70,0,0,0,-0.35,-0.28,0.56,-0.12,0.99,-0.11
-1.6191406,3.0711433E-4,-4.4320407E-4,2.6344554E-4,-0.12,0.99,-0.11,18125,9359.50,0,0,165,-0.28,-0.28,0.56,-0.12,0.99,-0.11
-0.4189453,3.0711433E-4,5.567963E-4,0.0012634448,-0.12,0.99,-0.11,18141,9360.70,0,0,0,-0.28,-0.21,0.63,-0.12,0.99,-0.11
-0.4189453,3.0711433E-4,5.567963E-4,2.6344554E-4,-0.12,0.99,-0.11,18148,9360.70,0,0,165,-0.28,-0.21,0.56,-0.12,0.99,-0.11
-0.4189453,3.0711433E-4,-4.4320407E-4,-0.0017365552,-0.12,0.99,-0.11,18162,9360.70,0,0,0,-0.28,-0.28,0.42,-0.12,0.99,-0.11
0.28125,3.0711433E-4,5.567963E-4,-7.365546E-4,-0.12,0.99,-0.11,18178,9361.40,0,0,165,-0.28,-0.21,0.49,-0.12,0.99,-0.11
-0.71875,-6.9288537E-4,-4.4320407E-4,-7.365546E-4,-0.11,0.99,-0.11,18185,9360.40,0,0,0,-0.35,-0.28,0.49,-0.11,0.99,-0.11
-0.4189453,3.0711433E-4,5.567963E-4,-7.365546E-4,-0.12,0.99,-0.11,18200,9360.70,0,0,165,-0.28,-0.21,0.49,-0.12,0.99,-0.11
-0.4189453,3.0711433E-4,-4.4320407E-4,0.0012634448,-0.12,0.99,-0.11,18216,9360.70,0,0,0,-0.28,-0.28,0.63,-0.12,0.99,-0.11
0.5810547,0.0013071147,-4.4320407E-4,2.6344554E-4,-0.12,0.99,-0.11,18222,9361.70,0,0,165,-0.21,-0.28,0.56,-0.12,0.99,-0.11
-0.4189453,3.0711433E-4,-4.4320407E-4,2.6344554E-4,-0.12,0.99,-0.11,18237,9360.70,0,0,0,-0.28,-0.28,0.56,-0.12,0.99,-0.11
-1.6191406,3.0711433E-4,-4.4320407E-4,-7.365546E-4,-0.11,1.0,-0.11,18253,9359.50,0,0,165,-0.28,-0.28,0.49,-0.11,1.00,-0.11
-0.71875,-0.0016928851,5.567963E-4,-0.0017365552,-0.12,0.99,-0.11,18260,9360.40,0,0,0,-0.42,-0.21,0.42,-0.12,0.99,-0.11
-0.71875,3.0711433E-4,5.567963E-4,2.6344554E-4,-0.12,0.99,-0.11,18275,9360.40,0,0,165,-0.28,-0.21,0.56,-0.12,0.99,-0.11
0.28125,3.0711433E-4,5.567963E-4,-7.365546E-4,-0.12,0.99,-0.11,18290,9361.40,0,0,0,-0.28,-0.21,0.49,-0.12,0.99,-0.11
0.5810547,3.0711433E-4,-4.4320407E-4,-7.365546E-4,-0.12,0.99,-0.11,18298,9361.70,0,0,165,-0.28,-0.28,0.49,-0.12,0.99,-0.11
-1.3193359,3.0711433E-4,5.567963E-4,-7.365546E-4,-0.12,0.99,-0.11,18320,9359.80,0,0,0,-0.28,-0.21,0.49,-0.12,0.99,-0.11
-0.4189453,-6.9288537E-4,-4.4320407E-4,2.6344554E-4,-0.12,0.99,-0.11,18328,9360.70,0,0,165,-0.35,-0.28,0.56,-0.12,0.99,-0.11
-0.4189453,0.0013071147,5.567963E-4,-7.365546E-4,-0.12,0.99,-0.11,18335,9360.70,0,0,0,-0.21,-0.21,0.49,-0.12,0.99,-0.11
-0.71875,3.0711433E-4,-4.4320407E-4,-7.365546E-4,-0.12,0.99,-0.11,18350,9360.40,0,0,165,-0.28,-0.28,0.49,-0.12,0.99,-0.11
-1.3193359,3.0711433E-4,5.567963E-4,2.6344554E-4,-0.12,0.99,-0.11,18365,9359.80,0,0,0,-0.28,-0.21,0.56,-0.12,0.99,-0.11
-0.71875,3.0711433E-4,5.567963E-4,-0.0017365552,-0.11,0.99,-0.11,18373,9360.40,0,0,165,-0.28,-0.21,0.42,-0.11,0.99,-0.11
-0.71875,3.0711433E-4,5.567963E-4,-0.0017365552,-0.12,0.99,-0.11,18388,9360.40,0,0,0,-0.28,-0.21,0.42,-0.12,0.99,-0.11
-0.71875,3.0711433E-4,5.567963E-4,-0.0017365552,-0.12,0.99,-0.11,18403,9360.40,0,0,165,-0.28,-0.21,0.42,-0.12,0.99,-0.11
-0.71875,-6.9288537E-4,-4.4320407E-4,0.0012634448,-0.12,0.99,-0.11,18410,9360.40,0,0,0,-0.35,-0.28,0.63,-0.12,0.99,-0.11
-0.71875,3.0711433E-4,5.567963E-4,2.6344554E-4,-0.12,0.99,-0.11,18426,9360.40,0,0,165,-0.28,-0.21,0.56,-0.12,0.99,-0.11
-0.71875,3.0711433E-4,5.567963E-4,-7.365546E-4,-0.12,0.99,-0.11,18441,9360.40,0,0,0,-0.28,-0.21,0.49,-0.12,0.99,-0.11
-0.71875,3.0711433E-4,-4.4320407E-4,0.002263445,-0.11,0.99,-0.11,18448,9360.40,0,0,165,-0.28,-0.28,0.70,-0.11,0.99,-0.11
-0.4189453,3.0711433E-4,-4.4320407E-4,-0.0017365552,-0.12,1.0,-0.11,18463,9360.70,0,0,0,-0.28,-0.28,0.42,-0.12,1.00,-0.11
-1.6191406,-0.019692883,-0.0064432034,-0.14073655,-0.19,0.98,-0.07,18478,9359.50,0,0,165,-1.68,-0.70,-9.31,-0.19,0.98,-0.07
-0.71875,-0.17069288,-0.052443206,-0.14073655,-0.05,1.01,-0.15,18485,9360.40,0,0,0,-12.25,-3.92,-9.31,-0.05,1.01,-0.15
-0.71875,-0.08069289,0.039556794,-0.028736554,-0.21,0.95,-0.1,18500,9360.40,0,0,165,-5.95,2.52,-1.47,-0.21,0.95,-0.10
-0.4189453,0.24830712,0.16855681,0.04026344,-0.21,1.04,-0.07,18515,9360.70,0,0,0,17.08,11.55,3.36,-0.21,1.04,-0.07
-0.71875,-0.15169288,0.1475568,-0.12573655,-0.13,0.98,-0.04,18524,9360.40,0,0,165,-10.92,10.08,-8.26,-0.13,0.98,-0.04
-0.4189453,0.15130712,0.3155568,0.17326345,-0.47,0.96,0.16,18539,9360.70,0,0,0,10.29,21.84,12.67,-0.47,0.96,0.16
-1.6191406,-0.6156929,0.8905568,-0.28173658,-0.92,0.76,0.35,18553,9359.50,0,0,165,-43.40,62.09,-19.18,-0.92,0.76,0.35
-1.6191406,-0.3946929,2.7915568,-0.11973656,-0.32,0.81,0.15,18561,9359.50,0,0,0,-27.93,195.16,-7.84,-0.32,0.81,0.15
-2.319336,-1.0106928,3.2265568,0.8222634,0.13,1.27,-0.58,18576,9358.80,0,0,165,-71.05,225.61,58.10,0.13,1.27,-0.58
-2.6191406,-0.44169286,2.060557,0.19726345,0.32,1.55,-0.64,18591,9358.50,0,0,0,-31.22,143.99,14.35,0.32,1.55,-0.64
-2.6191406,0.19730712,1.1295569,-0.11473655,0.09,1.31,-0.29,18598,9358.50,0,0,165,13.51,78.82,-7.49,0.09,1.31,-0.29
-3.5195312,-0.12569289,0.9585568,0.36426345,0.07,1.21,-0.05,18613,9357.60,0,0,0,-9.10,66.85,26.04,0.07,1.21,-0.05
-3.5195312,-0.5876929,0.9525568,0.6742635,0.04,1.24,0.11,18628,9357.60,0,0,165,-41.44,66.43,47.74,0.04,1.24,0.11
-2.6191406,-1.4026928,1.1835568,0.8262634,-0.1,1.2,0.22,18635,9358.50,0,0,0,-98.49,82.60,58.38,-0.10,1.20,0.22
-2.6191406,-2.1786928,1.7055569,0.89026344,-0.35,1.25,0.29,18651,9358.50,0,0,165,-152.81,119.14,62.86,-0.35,1.25,0.29
-2.6191406,-2.732693,2.3375568,0.6102634,-0.31,1.31,0.38,18665,9358.50,0,0,0,-191.59,163.38,43.26,-0.31,1.31,0.38
-2.6191406,-3.150693,2.6535568,0.45826343,-0.19,1.29,0.49,18673,9358.50,0,0,165,-220.85,185.50,32.62,-0.19,1.29,0.49
-2.6191406,-3.8986928,2.6465566,0.8092634,-0.02,1.21,0.87,18688,9358.50,0,0,0,-273.21,185.01,57.19,-0.02,1.21,0.87
-2.6191406,-4.5396924,2.5885568,0.9772634,-0.11,1.38,1.08,18703,9358.50,0,0,165,-318.08,180.95,68.95,-0.11,1.38,1.08
-2.6191406,-5.255693,2.8835568,0.92326343,-0.05,1.24,1.31,18710,9358.50,0,0,0,-368.20,201.60,65.17,-0.05,1.24,1.31
-2.319336,-6.2876925,3.2555568,1.2562635,-0.01,1.24,1.36,18725,9358.80,0,0,165,-440.44,227.64,88.48,-0.01,1.24,1.36
-1.6191406,-7.1416926,3.7115567,1.2472634,-0.07,1.31,1.3,18740,9359.50,0,0,0,-500.22,259.56,87.85,-0.07,1.31,1.30
-2.319336,-7.546693,3.9145565,0.80126345,-0.12,1.36,1.21,18748,9358.80,0,0,165,-528.57,273.77,56.63,-0.12,1.36,1.21
-1.6191406,-7.414693,4.0605564,-0.69373655,-0.47,1.25,1.01,18763,9359.50,0,0,0,-519.33,283.99,-48.02,-0.47,1.25,1.01
-0.71875,-7.2596927,3.6985567,-2.1187365,-0.43,0.78,1.05,18778,9360.40,0,0,165,-508.48,258.65,-147.77,-0.43,0.78,1.05
-0.71875,-7.5696926,2.7935567,-2.3857365,-0.32,0.55,1.1,18785,9360.40,0,0,0,-530.18,195.30,-166.46,-0.32,0.55,1.10
-0.71875,-7.781693,2.0925567,-1.8047366,-0.16,0.69,1.13,18800,9360.40,0,0,165,-545.02,146.23,-125.79,-0.16,0.69,1.13
-0.71875,-7.5446925,0.6845568,-1.4867365,-0.04,0.83,1.16,18815,9360.40,0,0,0,-528.43,47.67,-103.53,-0.04,0.83,1.16
-1.6191406,-6.972693,-0.1734432,-1.7307366,-0.1,0.81,1.17,18823,9359.50,0,0,165,-488.39,-12.39,-120.61,-0.10,0.81,1.17
-1.3193359,-6.217693,-0.24444321,-1.9557365,-0.34,0.91,1.34,18838,9359.80,0,0,0,-435.54,-17.36,-136.36,-0.34,0.91,1.34
-1.6191406,-5.7326927,-0.039443206,-2.2657363,-0.28,0.6,1.15,18853,9359.50,0,0,165,-401.59,-3.01,-158.06,-0.28,0.60,1.15
-1.6191406,-6.072693,0.7515568,-1.9547365,-0.32,0.4,1.0,18867,9359.50,0,0,0,-425.39,52.36,-136.29,-0.32,0.40,1.00
-1.6191406,-6.060693,0.93155676,-1.8867365,-0.3,0.39,0.95,18875,9359.50,0,0,165,-424.55,64.96,-131.53,-0.30,0.39,0.95
-1.6191406,-5.6136928,1.0135568,-1.8137366,-0.24,0.33,1.0,18890,9359.50,0,0,0,-393.26,70.70,-126.42,-0.24,0.33,1.00
-1.6191406,-5.1006927,1.1485568,-1.6877365,-0.2,0.16,0.96,18898,9359.50,0,0,165,-357.35,80.15,-117.60,-0.20,0.16,0.96
-0.71875,-4.847693,1.0795568,-1.6467366,-0.14,0.01,0.81,18913,9360.40,0,0,0,-339.64,75.32,-114.73,-0.14,0.01,0.81
-0.71875,-4.3446927,0.60255677,-1.6087365,-0.12,-0.11,0.62,18928,9360.40,0,0,165,-304.43,41.93,-112.07,-0.12,-0.11,0.62
0.28125,-3.383693,-0.2544432,-1.3747365,-0.05,-0.28,0.59,18936,9361.40,0,0,0,-237.16,-18.06,-95.69,-0.05,-0.28,0.59
-0.71875,-3.054693,-1.0594432,-1.0697365,0.0,-0.42,0.7,18950,9360.40,0,0,165,-214.13,-74.41,-74.34,0.00,-0.42,0.70
-1.6191406,-3.149693,-1.3374432,-0.7937366,-0.18,-0.45,0.85,18965,9359.50,0,0,0,-220.78,-93.87,-55.02,-0.18,-0.45,0.85
-0.71875,-3.0526931,-1.1954432,-0.7617366,-0.31,-0.42,0.91,18973,9360.40,0,0,165,-213.99,-83.93,-52.78,-0.31,-0.42,0.91
-0.71875,-3.0856931,-0.5564432,-0.92873657,-0.34,-0.44,0.72,18988,9360.40,0,0,0,-216.30,-39.20,-64.47,-0.34,-0.44,0.72
0.28125,-3.0076928,-0.31944323,-1.1117365,-0.25,-0.42,0.57,19002,9361.40,0,0,165,-210.84,-22.61,-77.28,-0.25,-0.42,0.57
-0.71875,-2.7336931,-0.1324432,-1.2407365,-0.21,-0.41,0.45,19010,9360.40,0,0,0,-191.66,-9.52,-86.31,-0.21,-0.41,0.45
-0.01953125,-2.1326928,-0.3434432,-1.2257366,-0.12,-0.48,0.54,19026,9361.10,0,0,165,-149.59,-24.29,-85.26,-0.12,-0.48,0.54
1.1806641,-1.8166928,-0.44744322,-1.2247366,-0.13,-0.52,0.65,19041,9362.30,0,0,0,-127.47,-31.57,-85.19,-0.13,-0.52,0.65
-0.71875,-1.9156928,-0.2674432,-1.2737366,-0.13,-0.54,0.6,19047,9360.40,0,0,165,-134.40,-18.97,-88.62,-0.13,-0.54,0.60
-0.01953125,-1.9146929,-0.2654432,-1.3877366,-0.11,-0.61,0.5,19063,9361.10,0,0,0,-134.33,-18.83,-96.60,-0.11,-0.61,0.50
-0.71875,-1.5486928,-0.7704432,-1.5167365,-0.15,-0.63,0.43,19078,9360.40,0,0,165,-108.71,-54.18,-105.63,-0.15,-0.63,0.43
-0.71875,-1.1396929,-0.94344324,-1.5937365,-0.19,-0.62,0.43,19086,9360.40,0,0,0,-80.08,-66.29,-111.02,-0.19,-0.62,0.43
0.28125,-1.0286928,-0.6304432,-1.5907365,-0.2,-0.58,0.46,19100,9361.40,0,0,165,-72.31,-44.38,-110.81,-0.20,-0.58,0.46
0.28125,-1.1156929,-0.12244321,-1.6967366,-0.12,-0.55,0.48,19115,9361.40,0,0,0,-78.40,-8.82,-118.23,-0.12,-0.55,0.48
-0.71875,-1.1856929,0.2555568,-1.6597365,-0.03,-0.51,0.45,19123,9360.40,0,0,165,-83.30,17.64,-115.64,-0.03,-0.51,0.45
-0.01953125,-0.98369294,0.3255568,-1.5917366,0.05,-0.49,0.41,19138,9361.10,0,0,0,-69.16,22.54,-110.88,0.05,-0.49,0.41
-1.6191406,-0.83169293,0.2745568,-1.4857366,0.07,-0.47,0.38,19153,9359.50,0,0,165,-58.52,18.97,-103.46,0.07,-0.47,0.38
0.28125,-0.60369295,0.1965568,-1.4617366,0.07,-0.41,0.43,19161,9361.40,0,0,0,-42.56,13.51,-101.78,0.07,-0.41,0.43
-0.71875,-0.5316929,0.2745568,-1.4307365,0.19,-0.4,0.45,19176,9360.40,0,0,165,-37.52,18.97,-99.61,0.19,-0.40,0.45
-2.0195312,-0.5256929,0.2135568,-1.1507366,0.23,-0.4,0.4,19191,9359.10,0,0,0,-37.10,14.70,-80.01,0.23,-0.40,0.40
0.28125,-0.34869286,-0.003443204,-0.9097366,0.21,-0.39,0.26,19197,9361.40,0,0,165,-24.71,-0.49,-63.14,0.21,-0.39,0.26
-0.71875,0.13130713,-0.27044323,-0.69273657,0.23,-0.37,0.22,19213,9360.40,0,0,0,8.89,-19.18,-47.95,0.23,-0.37,0.22
-0.01953125,0.3573071,-0.3854432,-0.45673656,0.2,-0.42,0.25,19227,9361.10,0,0,165,24.71,-27.23,-31.43,0.20,-0.42,0.25
-1.0195312,0.38430712,-0.3534432,-0.35373655,0.16,-0.44,0.32,19235,9360.10,0,0,0,26.60,-24.99,-24.22,0.16,-0.44,0.32
-0.71875,0.38930714,-0.2464432,-0.41973656,0.12,-0.47,0.39,19250,9360.40,0,0,165,26.95,-17.50,-28.84,0.12,-0.47,0.39
-0.71875,0.58030707,-0.1094432,-0.46073654,-0.01,-0.52,0.3,19266,9360.40,0,0,0,40.32,-7.91,-31.71,-0.01,-0.52,0.30
-0.71875,0.8663071,0.2535568,-0.66273654,-0.26,-0.57,0.35,19273,9360.40,0,0,165,60.34,17.50,-45.85,-0.26,-0.57,0.35
-0.71875,1.0313071,1.2465569,-0.90773654,-0.06,-0.55,0.37,19288,9360.40,0,0,0,71.89,87.01,-63.00,-0.06,-0.55,0.37
-1.0195312,1.1043072,1.6675569,-0.7517366,0.39,-0.59,0.36,19303,9360.10,0,0,165,77.00,116.48,-52.08,0.39,-0.59,0.36
-1.6191406,1.1633071,0.9995568,-0.30773658,0.73,-0.51,0.21,19310,9359.50,0,0,0,81.13,69.72,-21.00,0.73,-0.51,0.21
-1.6191406,1.4263072,-0.074443206,0.42226344,0.47,-0.41,0.13,19325,9359.50,0,0,165,99.54,-5.46,30.10,0.47,-0.41,0.13
-1.6191406,2.731307,-0.6224432,0.35226345,0.17,-0.59,0.2,19340,9359.50,0,0,0,190.89,-43.82,25.20,0.17,-0.59,0.20
-0.71875,3.554307,-0.94244325,0.11326345,0.05,-0.67,0.54,19347,9360.40,0,0,165,248.50,-66.22,8.47,0.05,-0.67,0.54
-1.0195312,3.606307,-0.7344432,0.06926344,-0.01,-0.84,0.75,19362,9360.10,0,0,0,252.14,-51.66,5.39,-0.01,-0.84,0.75
-1.0195312,2.9363072,-0.1764432,0.19626345,-0.07,-0.87,0.82,19378,9360.10,0,0,165,205.24,-12.60,14.28,-0.07,-0.87,0.82
-1.0195312,2.397307,0.3695568,0.19426346,-0.07,-0.84,0.91,19385,9360.10,0,0,0,167.51,25.62,14.14,-0.07,-0.84,0.91
0.28125,1.9483072,0.79255676,0.08826344,0.02,-0.8,0.9,19400,9361.40,0,0,165,136.08,55.23,6.72,0.02,-0.80,0.90
0.28125,1.9143071,0.89455676,-0.22673655,0.04,-0.7,0.93,19415,9361.40,0,0,0,133.70,62.37,-15.33,0.04,-0.70,0.93
-0.71875,1.4303071,0.93155676,-0.14373656,0.24,-0.54,0.97,19423,9360.40,0,0,165,99.82,64.96,-9.52,0.24,-0.54,0.97
-0.71875,1.2373071,1.1125568,-0.46073654,0.11,-0.48,0.94,19438,9360.40,0,0,0,86.31,77.63,-31.71,0.11,-0.48,0.94
-0.71875,1.4633071,1.0375568,-0.68573654,-0.07,-0.48,0.93,19453,9360.40,0,0,165,102.13,72.38,-47.46,-0.07,-0.48,0.93
-1.0195312,1.9143071,1.7185569,-1.3877366,-0.28,-0.52,1.21,19460,9360.10,0,0,0,133.70,120.05,-96.60,-0.28,-0.52,1.21
0.28125,2.260307,1.2985569,-2.2077365,0.31,-0.53,1.31,19475,9361.40,0,0,165,157.92,90.65,-154.00,0.31,-0.53,1.31
-1.0195312,1.7973071,0.5545568,-2.1827364,0.15,-0.63,1.22,19490,9360.10,0,0,0,125.51,38.57,-152.25,0.15,-0.63,1.22
-0.71875,1.1873071,0.63955677,-1.8197365,-0.06,-0.55,1.18,19498,9360.40,0,0,165,82.81,44.52,-126.84,-0.06,-0.55,1.18
-0.71875,0.3823071,1.0615568,-1.8717365,-0.0,-0.41,1.07,19513,9360.40,0,0,0,26.46,74.06,-130.48,-0.00,-0.41,1.07
-1.0195312,0.15130712,1.2795569,-2.0667365,0.11,-0.31,0.94,19529,9360.10,0,0,165,10.29,89.32,-144.13,0.11,-0.31,0.94
-0.71875,0.42730713,1.3185569,-2.1757364,0.18,-0.1,0.88,19535,9360.40,0,0,0,29.61,92.05,-151.76,0.18,-0.10,0.88
-1.0195312,0.9313071,1.3775568,-2.4527364,0.23,-0.14,0.65,19550,9360.10,0,0,165,64.89,96.18,-171.15,0.23,-0.14,0.65
-0.71875,0.8243071,1.9775567,-2.4177363,0.15,-0.16,0.72,19565,9360.40,0,0,0,57.40,138.18,-168.70,0.15,-0.16,0.72
-1.0195312,1.0783072,2.1455567,-2.3227365,0.22,-0.1,0.8,19573,9360.10,0,0,165,75.18,149.94,-162.05,0.22,-0.10,0.80
-1.6191406,1.4703072,2.1175566,-1.7807366,0.11,-0.22,0.9,19589,9359.50,0,0,0,102.62,147.98,-124.11,0.11,-0.22,0.90
-0.71875,1.5623071,2.116557,-1.0627365,-0.07,-0.34,1.04,19596,9360.40,0,0,165,109.06,147.91,-73.85,-0.07,-0.34,1.04
-1.0195312,1.5753071,2.0915568,-0.8727366,0.04,-0.33,1.17,19618,9360.10,0,0,0,109.97,146.16,-60.55,0.04,-0.33,1.17
-0.71875,1.2133071,1.7695569,-0.7567366,-0.07,-0.48,1.21,19626,9360.40,0,0,165,84.63,123.62,-52.43,-0.07,-0.48,1.21
0.28125,0.66030705,1.6195569,-0.6597366,-0.11,-0.42,1.23,19632,9361.40,0,0,0,45.92,113.12,-45.64,-0.11,-0.42,1.23
-0.01953125,0.22030713,1.4725568,-0.63773656,-0.08,-0.34,1.07,19648,9361.10,0,0,165,15.12,102.83,-44.10,-0.08,-0.34,1.07
-0.01953125,0.036307115,1.3925569,-0.61873657,-0.07,-0.31,0.94,19663,9361.10,0,0,0,2.24,97.23,-42.77,-0.07,-0.31,0.94
0.28125,0.07530711,1.4285568,-0.42073655,-0.03,-0.28,0.8,19671,9361.40,0,0,165,4.97,99.75,-28.91,-0.03,-0.28,0.80
0.28125,0.15830712,1.4375569,-0.40573657,-0.22,-0.38,0.84,19685,9361.40,0,0,0,10.78,100.38,-27.86,-0.22,-0.38,0.84
-0.71875,0.039307114,1.8185569,-0.7477366,-0.24,-0.4,0.95,19701,9360.40,0,0,165,2.45,127.05,-51.80,-0.24,-0.40,0.95
-1.0195312,-0.13969287,2.106557,-0.77373654,-0.17,-0.34,0.96,19708,9360.10,0,0,0,-10.08,147.21,-53.62,-0.17,-0.34,0.96
-0.71875,-0.11769289,1.9185569,-0.8677366,-0.17,-0.32,1.05,19724,9360.40,0,0,165,-8.54,134.05,-60.20,-0.17,-0.32,1.05
0.28125,-0.061692886,1.7105569,-0.93473655,-0.12,-0.36,1.01,19738,9361.40,0,0,0,-4.62,119.49,-64.89,-0.12,-0.36,1.01
-1.0195312,0.09830711,1.3115568,-0.76873654,-0.12,-0.31,1.06,19745,9360.10,0,0,165,6.58,91.56,-53.27,-0.12,-0.31,1.06
-0.71875,0.26130712,1.0945569,-0.58673656,-0.22,-0.38,1.04,19760,9360.40,0,0,0,17.99,76.37,-40.53,-0.22,-0.38,1.04
-1.6191406,0.30130714,0.9515568,-0.53173655,-0.25,-0.32,1.06,19775,9359.50,0,0,165,20.79,66.36,-36.68,-0.25,-0.32,1.06
-1.0195312,0.22130711,0.8275568,-0.55873656,-0.23,-0.32,1.01,19783,9360.10,0,0,0,15.19,57.68,-38.57,-0.23,-0.32,1.01
-2.0195312,-0.17069288,0.63955677,0.054263446,-0.21,-0.24,0.86,19798,9359.10,0,0,165,-12.25,44.52,4.34,-0.21,-0.24,0.86
-0.71875,0.027307115,0.9115568,-0.039736558,-0.3,-0.08,0.81,19813,9360.40,0,0,0,1.61,63.56,-2.24,-0.30,-0.08,0.81
-1.0195312,0.38930714,1.2455568,-0.29973656,-0.31,-0.15,0.79,19821,9360.10,0,0,165,26.95,86.94,-20.44,-0.31,-0.15,0.79
-1.0195312,1.0303072,1.4575568,-0.30473658,-0.28,-0.18,0.82,19835,9360.10,0,0,0,71.82,101.78,-20.79,-0.28,-0.18,0.82
-1.0195312,1.1673073,1.3805568,-0.41873658,-0.28,-0.23,0.85,19850,9360.10,0,0,165,81.41,96.39,-28.77,-0.28,-0.23,0.85
-0.71875,1.0183072,1.0555569,-0.6877366,-0.31,-0.36,0.97,19858,9360.40,0,0,0,70.98,73.64,-47.60,-0.31,-0.36,0.97
-0.01953125,0.3753071,0.5765568,-0.62473655,-0.38,-0.45,1.06,19874,9361.10,0,0,165,25.97,40.11,-43.19,-0.38,-0.45,1.06
-1.0195312,-0.37869287,0.2485568,-0.37073657,-0.41,-0.43,1.03,19888,9360.10,0,0,0,-26.81,17.15,-25.41,-0.41,-0.43,1.03
-0.71875,-0.56669295,0.113556795,-0.36173657,-0.44,-0.28,0.95,19894,9360.40,0,0,165,-39.97,7.70,-24.78,-0.44,-0.28,0.95
14.480469,-0.8246929,0.014556796,-0.47073656,-0.44,-0.26,0.87,19910,9375.60,0,0,0,-58.03,0.77,-32.41,-0.44,-0.26,0.87
17.980469,-0.5326929,0.121556796,-0.54673654,-0.39,-0.35,0.78,19925,9379.10,0,0,165,-37.59,8.26,-37.73,-0.39,-0.35,0.78
23.680664,-0.48769286,0.3295568,-0.36673656,-0.41,-0.3,0.85,19932,9384.80,0,0,0,-34.44,22.82,-25.13,-0.41,-0.30,0.85
18.980469,-0.29169288,0.43155676,-0.22573656,-0.39,-0.21,0.86,19948,9380.10,0,0,165,-20.72,29.96,-15.26,-0.39,-0.21,0.86
17.980469,0.062307112,0.4195568,-0.25773656,-0.33,-0.22,0.88,19963,9379.10,0,0,0,4.06,29.12,-17.50,-0.33,-0.22,0.88
19.88086,0.26530713,0.2855568,-0.21773654,-0.35,-0.23,0.91,19970,9381.00,0,0,165,18.27,19.74,-14.70,-0.35,-0.23,0.91
23.680664,0.3573071,0.1115568,-0.26573655,-0.36,-0.29,0.91,19985,9384.80,0,0,0,24.71,7.56,-18.06,-0.36,-0.29,0.91
31.38086,0.32630715,0.022556797,-0.38973656,-0.38,-0.33,0.89,20000,9392.50,0,0,165,22.54,1.33,-26.74,-0.38,-0.33,0.89
42.78125,0.15330712,0.017556796,-0.50273657,-0.41,-0.39,0.87,20008,9403.90,0,0,0,10.43,0.98,-34.65,-0.41,-0.39,0.87
55.180664,-0.038692888,0.08555679,-0.47173655,-0.39,-0.38,0.84,20024,9416.30,0,0,165,-3.01,5.74,-32.48,-0.39,-0.38,0.84
77.98047,-0.17169288,0.1655568,-0.42673656,-0.39,-0.35,0.84,20039,9439.10,0,0,0,-12.32,11.34,-29.33,-0.39,-0.35,0.84
96.98047,-0.31669286,0.1895568,-0.40473658,-0.35,-0.29,0.85,20046,9458.10,0,0,165,-22.47,13.02,-27.79,-0.35,-0.29,0.85
116.081055,-0.2566929,0.0885568,-0.25873655,-0.32,-0.24,0.87,20061,9477.20,0,0,0,-18.27,5.95,-17.57,-0.32,-0.24,0.87
135.08105,-0.08069289,-0.022443205,-0.06873655,-0.36,-0.23,0.9,20076,9496.20,0,0,165,-5.95,-1.82,-4.27,-0.36,-0.23,0.90
155.08105,0.013307114,-0.057443205,-0.06373656,-0.4,-0.24,0.91,20082,9516.20,0,0,0,0.63,-4.27,-3.92,-0.40,-0.24,0.91
178.88086,0.020307116,0.001556796,-0.120736554,-0.43,-0.3,0.89,20097,9540.00,0,0,165,1.12,-0.14,-7.91,-0.43,-0.30,0.89
202.68066,0.044307113,0.09755679,-0.18073654,-0.39,-0.33,0.85,20113,9563.80,0,0,0,2.80,6.58,-12.11,-0.39,-0.33,0.85
221.98047,0.049307115,0.1275568,-0.19073656,-0.38,-0.36,0.86,20120,9583.10,0,0,165,3.15,8.68,-12.81,-0.38,-0.36,0.86
238.78125,-0.041692887,0.084556796,-0.19973654,-0.37,-0.37,0.9,20135,9599.90,0,0,0,-3.22,5.67,-13.44,-0.37,-0.37,0.90
250.28125,-0.115692884,0.045556795,-0.16173655,-0.38,-0.36,0.9,20150,9611.40,0,0,165,-8.40,2.94,-10.78,-0.38,-0.36,0.90
254.98047,-0.13669288,0.036556795,-0.09073655,-0.38,-0.35,0.89,20158,9616.10,0,0,0,-9.87,2.31,-5.81,-0.38,-0.35,0.89
251.18066,-0.07669289,0.028556796,0.015263446,-0.37,-0.34,0.88,20173,9612.30,0,0,165,-5.67,1.75,1.61,-0.37,-0.34,0.88
235.98047,0.04530711,0.005556796,0.13626345,-0.36,-0.33,0.87,20187,9597.10,0,0,0,2.87,0.14,10.08,-0.36,-0.33,0.87
215.98047,0.15030712,-0.0014432038,0.25426343,-0.36,-0.3,0.88,20195,9577.10,0,0,165,10.22,-0.35,18.34,-0.36,-0.30,0.88
189.38086,0.17130712,-0.017443204,0.33226344,-0.35,-0.27,0.87,20210,9550.50,0,0,0,11.69,-1.47,23.80,-0.35,-0.27,0.87
163.68066,0.25830713,-0.054443203,0.38226342,-0.36,-0.27,0.87,20225,9524.80,0,0,165,17.78,-4.06,27.30,-0.36,-0.27,0.87
136.98047,0.33030713,-0.1014432,0.37426344,-0.38,-0.28,0.9,20233,9498.10,0,0,0,22.82,-7.35,26.74,-0.38,-0.28,0.90
116.98047,0.34130713,-0.1364432,0.30326346,-0.4,-0.3,0.94,20248,9478.10,0,0,165,23.59,-9.80,21.77,-0.40,-0.30,0.94
96.98047,0.3683071,-0.2164432,0.21026346,-0.4,-0.3,0.95,20263,9458.10,0,0,0,25.48,-15.40,15.26,-0.40,-0.30,0.95
81.78125,0.3173071,-0.2514432,0.039263442,-0.42,-0.3,0.96,20270,9442.90,0,0,165,21.91,-17.85,3.29,-0.42,-0.30,0.96
68.48047,0.2873071,-0.22544321,-0.15473655,-0.4,-0.32,0.9,20285,9429.60,0,0,0,19.81,-16.03,-10.29,-0.40,-0.32,0.90
59.88086,0.30130714,-0.0984432,-0.23573655,-0.37,-0.35,0.83,20300,9421.00,0,0,165,20.79,-7.14,-15.96,-0.37,-0.35,0.83
54.180664,0.22930712,0.023556795,-0.28373656,-0.36,-0.31,0.86,20308,9415.30,0,0,0,15.75,1.40,-19.32,-0.36,-0.31,0.86
49.38086,0.26730713,0.0675568,-0.17673655,-0.34,-0.3,0.87,20322,9410.50,0,0,165,18.41,4.48,-11.83,-0.34,-0.30,0.87
46.581055,0.3383071,0.10855679,-0.11673656,-0.37,-0.25,0.89,20338,9407.70,0,0,0,23.38,7.35,-7.63,-0.37,-0.25,0.89
43.680664,0.3073071,0.1285568,0.011263447,-0.36,-0.19,0.84,20345,9404.80,0,0,165,21.21,8.75,1.33,-0.36,-0.19,0.84
38.98047,0.54430705,0.1005568,-0.120736554,-0.36,-0.19,0.87,20367,9400.10,0,0,0,37.80,6.79,-7.91,-0.36,-0.19,0.87
32.28125,0.5563071,0.07255679,-0.15973656,-0.36,-0.25,0.89,20376,9393.40,0,0,165,38.64,4.83,-10.64,-0.36,-0.25,0.89
24.680664,0.4563071,-0.037443202,-0.19173655,-0.36,-0.26,0.91,20383,9385.80,0,0,0,31.64,-2.87,-12.88,-0.36,-0.26,0.91
24.680664,0.24630713,-0.1644432,-0.16173655,-0.35,-0.28,0.91,20399,9385.80,0,0,165,16.94,-11.76,-10.78,-0.35,-0.28,0.91
23.680664,0.14530712,-0.22544321,-0.13273655,-0.37,-0.29,0.91,20413,9384.80,0,0,0,9.87,-16.03,-8.75,-0.37,-0.29,0.91
24.680664,0.09830711,-0.22944319,-0.11173656,-0.34,-0.27,0.87,20420,9385.80,0,0,165,6.58,-16.31,-7.28,-0.34,-0.27,0.87
23.680664,0.11130711,-0.2404432,-0.07973655,-0.33,-0.24,0.87,20435,9384.80,0,0,0,7.49,-17.08,-5.04,-0.33,-0.24,0.87
23.680664,0.20930712,-0.2054432,0.020263446,-0.33,-0.2,0.86,20450,9384.80,0,0,165,14.35,-14.63,1.96,-0.33,-0.20,0.86
24.680664,0.37030715,-0.1684432,0.15826344,-0.32,-0.18,0.86,20458,9385.80,0,0,0,25.62,-12.04,11.62,-0.32,-0.18,0.86
24.680664,0.4683071,-0.14744319,0.31326342,-0.33,-0.18,0.88,20473,9385.80,0,0,165,32.48,-10.57,22.47,-0.33,-0.18,0.88
25.680664,0.5323071,-0.1194432,0.40126342,-0.34,-0.18,0.89,20487,9386.80,0,0,0,36.96,-8.61,28.63,-0.34,-0.18,0.89
25.680664,0.6303071,-0.08944321,0.43726343,-0.35,-0.19,0.89,20495,9386.80,0,0,165,43.82,-6.51,31.15,-0.35,-0.19,0.89
24.680664,0.6743071,-0.051443204,0.36026344,-0.37,-0.24,0.92,20510,9385.80,0,0,0,46.90,-3.85,25.76,-0.37,-0.24,0.92
25.680664,0.51530707,-0.020443203,0.30626342,-0.39,-0.3,0.95,20525,9386.80,0,0,165,35.77,-1.68,21.98,-0.39,-0.30,0.95
25.680664,0.13330711,0.007556796,0.12326344,-0.41,-0.31,0.99,20532,9386.80,0,0,0,9.03,0.28,9.17,-0.41,-0.31,0.99
24.680664,-0.12369289,0.017556796,-0.084736556,-0.38,-0.29,0.97,20548,9385.80,0,0,165,-8.96,0.98,-5.39,-0.38,-0.29,0.97
26.581055,-0.20269288,0.005556796,-0.23673657,-0.35,-0.23,0.95,20563,9387.70,0,0,0,-14.49,0.14,-16.03,-0.35,-0.23,0.95
25.28125,-0.17369288,0.008556796,-0.25173655,-0.33,-0.2,0.92,20570,9386.40,0,0,165,-12.46,0.35,-17.08,-0.33,-0.20,0.92
25.680664,-0.07669289,0.033556797,-0.11473655,-0.31,-0.17,0.88,20585,9386.80,0,0,0,-5.67,2.10,-7.49,-0.31,-0.17,0.88
26.581055,0.07030711,0.0715568,-0.0087365545,-0.31,-0.15,0.88,20601,9387.70,0,0,165,4.62,4.76,-0.07,-0.31,-0.15,0.88
25.680664,0.15730712,0.098556794,0.10526344,-0.33,-0.18,0.9,20607,9386.80,0,0,0,10.71,6.65,7.91,-0.33,-0.18,0.90
25.680664,0.18930712,0.1155568,0.14226346,-0.34,-0.19,0.92,20623,9386.80,0,0,165,12.95,7.84,10.50,-0.34,-0.19,0.92
25.680664,0.20330712,0.1125568,0.17826346,-0.35,-0.21,0.92,20638,9386.80,0,0,0,13.93,7.63,13.02,-0.35,-0.21,0.92
26.581055,0.22230713,0.1355568,0.18026344,-0.36,-0.23,0.93,20645,9387.70,0,0,165,15.26,9.24,13.16,-0.36,-0.23,0.93
26.581055,0.21130712,0.1375568,0.10026345,-0.37,-0.23,0.94,20661,9387.70,0,0,0,14.49,9.38,7.56,-0.37,-0.23,0.94
26.581055,0.11630712,0.106556796,0.029263446,-0.38,-0.23,0.96,20675,9387.70,0,0,165,7.84,7.21,2.59,-0.38,-0.23,0.96
26.581055,-0.039692886,0.062556796,-0.106736556,-0.37,-0.22,0.96,20683,9387.70,0,0,0,-3.08,4.13,-6.93,-0.37,-0.22,0.96
26.581055,-0.09869289,0.028556796,-0.18373655,-0.36,-0.19,0.94,20698,9387.70,0,0,165,-7.21,1.75,-12.32,-0.36,-0.19,0.94
26.581055,-0.036692884,0.039556794,-0.07173656,-0.32,-0.17,0.91,20713,9387.70,0,0,0,-2.87,2.52,-4.48,-0.32,-0.17,0.91
26.581055,0.08830711,0.017556796,0.06926344,-0.32,-0.11,0.87,20721,9387.70,0,0,165,5.88,0.98,5.39,-0.32,-0.11,0.87
27.581055,0.27230713,0.021556795,0.25026342,-0.34,-0.14,0.88,20735,9388.70,0,0,0,18.76,1.26,18.06,-0.34,-0.14,0.88
26.581055,0.3943071,0.062556796,0.27126345,-0.36,-0.18,0.9,20750,9387.70,0,0,165,27.30,4.13,19.53,-0.36,-0.18,0.90
27.581055,0.38430712,0.0665568,0.30926344,-0.34,-0.24,0.91,20758,9388.70,0,0,0,26.60,4.41,22.19,-0.34,-0.24,0.91
29.480469,0.29130712,0.005556796,0.5312634,-0.31,-0.2,0.93,20780,9390.60,0,0,165,20.09,0.14,37.73,-0.31,-0.20,0.93
40.88086,0.11730711,-0.09344321,0.6202634,-0.34,-0.12,0.92,20788,9402.00,0,0,0,7.91,-6.79,43.96,-0.34,-0.12,0.92
59.88086,0.20030713,-0.1324432,0.42626342,-0.4,-0.17,0.95,20796,9421.00,0,0,165,13.72,-9.52,30.38,-0.40,-0.17,0.95
84.680664,0.051307112,-0.1014432,0.110263444,-0.42,-0.16,0.95,20810,9445.80,0,0,0,3.29,-7.35,8.26,-0.42,-0.16,0.95
104.581055,-0.086692885,-0.07544321,-0.091736555,-0.41,-0.16,0.95,20826,9465.70,0,0,165,-6.37,-5.53,-5.88,-0.41,-0.16,0.95
123.680664,-0.11469288,-0.052443206,0.041263446,-0.37,-0.15,0.94,20833,9484.80,0,0,0,-8.33,-3.92,3.43,-0.37,-0.15,0.94
140.48047,-0.15369289,-0.026443204,0.10526344,-0.39,-0.14,0.91,20848,9501.60,0,0,165,-11.06,-2.10,7.91,-0.39,-0.14,0.91
156.98047,-0.041692887,-0.23644319,0.50626343,-0.1,-0.01,0.89,20863,9518.10,0,0,0,-3.22,-16.80,35.98,-0.10,-0.01,0.89
175.98047,0.11230712,-0.114443205,0.034263443,-0.6,-0.17,0.91,20871,9537.10,0,0,165,7.56,-8.26,2.94,-0.60,-0.17,0.91
194.08105,-0.13669288,0.056556795,-0.021736555,-0.29,-0.08,0.91,20885,9555.20,0,0,0,-9.87,3.71,-0.98,-0.29,-0.08,0.91
204.58105,0.108307116,0.0095567955,0.13926345,-0.33,-0.06,0.88,20900,9565.70,0,0,165,7.28,0.42,10.29,-0.33,-0.06,0.88
217.88086,0.25230712,0.023556795,0.14126346,-0.35,-0.1,0.87,20915,9579.00,0,0,0,17.36,1.40,10.43,-0.35,-0.10,0.87
228.38086,0.3323071,0.0635568,0.19526345,-0.34,-0.17,0.89,20930,9589.50,0,0,165,22.96,4.20,14.21,-0.34,-0.17,0.89
237.88086,0.3183071,0.07455679,0.29626346,-0.35,-0.17,0.9,20937,9599.00,0,0,0,21.98,4.97,21.28,-0.35,-0.17,0.90
243.58105,0.28430712,0.060556795,0.32226345,-0.36,-0.17,0.92,20945,9604.70,0,0,165,19.60,3.99,23.10,-0.36,-0.17,0.92
247.38086,0.14730713,0.020556796,0.26226342,-0.37,-0.15,0.95,20961,9608.50,0,0,0,10.01,1.19,18.90,-0.37,-0.15,0.95
253.08105,0.06930712,0.0035567961,0.17926346,-0.4,-0.14,0.98,20982,9614.20,0,0,165,4.55,0.00,13.09,-0.40,-0.14,0.98
263.58105,-0.031692885,-0.022443205,0.08326344,-0.39,-0.13,0.99,20984,9624.70,0,0,0,-2.52,-1.82,6.37,-0.39,-0.13,0.99
269.28125,-0.06769288,-0.045443207,0.095263444,-0.38,-0.15,0.96,20999,9630.40,0,0,165,-5.04,-3.43,7.21,-0.38,-0.15,0.96
272.18066,-0.058692887,-0.034443207,0.10226344,-0.38,-0.12,0.92,21013,9633.30,0,0,0,-4.41,-2.66,7.70,-0.38,-0.12,0.92
270.28125,-0.043692883,-0.028443206,0.023263447,-0.38,-0.11,0.92,21020,9631.40,0,0,165,-3.36,-2.24,2.17,-0.38,-0.11,0.92
260.68066,0.0043071145,-0.0014432038,-0.06873655,-0.39,-0.12,0.92,21035,9621.80,0,0,0,0.00,-0.35,-4.27,-0.39,-0.12,0.92
243.58105,0.13630712,0.007556796,-0.20173655,-0.4,-0.11,0.93,21050,9604.70,0,0,165,9.24,0.28,-13.58,-0.40,-0.11,0.93
215.98047,0.3183071,0.032556795,-0.32273656,-0.4,-0.14,0.93,21058,9577.10,0,0,0,21.98,2.03,-22.05,-0.40,-0.14,0.93
186.78125,0.3943071,0.080556795,-0.34973657,-0.37,-0.11,0.94,21073,9547.90,0,0,165,27.30,5.39,-23.94,-0.37,-0.11,0.94
156.98047,0.3173071,0.1275568,-0.31373656,-0.33,-0.06,0.92,21088,9518.10,0,0,0,21.91,8.68,-21.42,-0.33,-0.06,0.92
131.28125,0.2553071,0.09455679,-0.33673656,-0.33,-0.05,0.94,21095,9492.40,0,0,165,17.57,6.37,-23.03,-0.33,-0.05,0.94
106.581055,0.2743071,0.004556796,-0.29973656,-0.33,-0.11,0.93,21110,9467.70,0,0,0,18.90,0.07,-20.44,-0.33,-0.11,0.93
87.78125,0.31630713,-0.0694432,-0.17573655,-0.34,-0.1,0.98,21125,9448.90,0,0,165,21.84,-5.11,-11.76,-0.34,-0.10,0.98
64.680664,0.31030712,-0.14044319,0.06326344,-0.35,-0.09,0.95,21133,9425.80,0,0,0,21.42,-10.08,4.97,-0.35,-0.09,0.95
47.48047,0.24530713,-0.1864432,0.09326345,-0.36,-0.13,0.95,21147,9408.60,0,0,165,16.87,-13.30,7.07,-0.36,-0.13,0.95
46.88086,-0.047692887,-0.1494432,0.07626344,-0.36,-0.11,0.92,21163,9408.00,0,0,0,-3.64,-10.71,5.88,-0.36,-0.11,0.92
45.581055,-0.09669289,-0.09744321,0.0052634454,-0.37,-0.09,0.91,21170,9406.70,0,0,165,-7.07,-7.07,0.91,-0.37,-0.09,0.91
44.98047,0.009307114,-0.033443205,-0.024736555,-0.36,-0.1,0.91,21185,9406.10,0,0,0,0.35,-2.59,-1.19,-0.36,-0.10,0.91
44.680664,0.015307114,-0.018443204,0.003263445,-0.35,-0.09,0.9,21200,9405.80,0,0,165,0.77,-1.54,0.77,-0.35,-0.09,0.90
44.680664,0.024307113,0.0025567962,0.023263447,-0.37,-0.09,0.91,21207,9405.80,0,0,0,1.40,-0.07,2.17,-0.37,-0.09,0.91
44.38086,0.062307112,0.035556797,0.007263445,-0.38,-0.08,0.93,21223,9405.50,0,0,165,4.06,2.24,1.05,-0.38,-0.08,0.93
44.680664,0.07930712,0.044556793,-0.004736555,-0.37,-0.1,0.95,21238,9405.80,0,0,0,5.25,2.87,0.21,-0.37,-0.10,0.95
43.680664,0.07630711,0.004556796,-0.013736554,-0.37,-0.1,0.96,21245,9404.80,0,0,165,5.04,0.07,-0.42,-0.37,-0.10,0.96
45.581055,0.063307114,-0.019443205,-0.021736555,-0.36,-0.14,0.94,21260,9406.70,0,0,0,4.13,-1.61,-0.98,-0.36,-0.14,0.94
44.680664,0.061307114,-0.021443205,0.0042634443,-0.36,-0.16,0.93,21275,9405.80,0,0,165,3.99,-1.75,0.84,-0.36,-0.16,0.93
44.680664,0.025307115,5.567963E-4,0.025263445,-0.37,-0.14,0.93,21282,9405.80,0,0,0,1.47,-0.21,2.31,-0.37,-0.14,0.93
43.98047,-0.023692887,0.024556795,-0.025736554,-0.37,-0.13,0.92,21297,9405.10,0,0,165,-1.96,1.47,-1.26,-0.37,-0.13,0.92
45.88086,-0.079692885,0.030556796,-0.035736557,-0.37,-0.11,0.92,21313,9407.00,0,0,0,-5.88,1.89,-1.96,-0.37,-0.11,0.92
44.680664,-0.07169289,0.044556793,-0.035736557,-0.37,-0.09,0.91,21320,9405.80,0,0,165,-5.32,2.87,-1.96,-0.37,-0.09,0.91
44.680664,0.028307114,0.043556795,-0.0087365545,-0.36,-0.08,0.91,21334,9405.80,0,0,0,1.68,2.80,-0.07,-0.36,-0.08,0.91
44.680664,0.042307116,0.008556796,0.020263446,-0.36,-0.07,0.92,21350,9405.80,0,0,165,2.66,0.35,1.96,-0.36,-0.07,0.92
44.680664,0.04530711,-0.037443202,0.019263446,-0.36,-0.08,0.93,21358,9405.80,0,0,0,2.87,-2.87,1.89,-0.36,-0.08,0.93
43.680664,0.042307116,-0.062443204,0.09826344,-0.35,-0.08,0.92,21373,9404.80,0,0,165,2.66,-4.62,7.42,-0.35,-0.08,0.92
44.680664,0.030307114,-0.077443205,0.14026345,-0.35,-0.09,0.92,21388,9405.80,0,0,0,1.82,-5.67,10.36,-0.35,-0.09,0.92
44.98047,0.023307115,-0.041443206,0.13926345,-0.36,-0.1,0.91,21396,9406.10,0,0,165,1.33,-3.15,10.29,-0.36,-0.10,0.91
45.88086,0.09130712,0.023556795,0.053263444,-0.37,-0.13,0.93,21410,9407.00,0,0,0,6.09,1.40,4.27,-0.37,-0.13,0.93
44.98047,0.13630712,0.053556796,-0.0017365552,-0.35,-0.14,0.94,21425,9406.10,0,0,165,9.24,3.50,0.42,-0.35,-0.14,0.94
44.98047,0.13930711,0.0665568,0.032263443,-0.31,-0.12,0.93,21432,9406.10,0,0,0,9.45,4.41,2.80,-0.31,-0.12,0.93
76.38086,-0.28269288,-0.066443205,0.21826345,-0.32,-0.06,0.95,21456,9437.50,0,0,165,-20.09,-4.90,15.82,-0.32,-0.06,0.95
87.78125,-0.20469289,-0.040443204,0.25226346,-0.39,-0.02,0.94,21463,9448.90,0,0,0,-14.63,-3.08,18.20,-0.39,-0.02,0.94
95.081055,-0.07069289,-0.017443204,0.11326345,-0.41,-0.08,0.97,21471,9456.20,0,0,165,-5.25,-1.47,8.47,-0.41,-0.08,0.97
98.28125,-0.031692885,-0.041443206,0.044263445,-0.39,-0.09,0.96,21485,9459.40,0,0,0,-2.52,-3.15,3.64,-0.39,-0.09,0.96
99.180664,0.010307115,-0.037443202,0.010263445,-0.39,-0.1,0.94,21493,9460.30,0,0,165,0.42,-2.87,1.26,-0.39,-0.10,0.94
96.38086,0.032307114,-0.008443203,-0.046736557,-0.36,-0.08,0.91,21515,9457.50,0,0,0,1.96,-0.84,-2.73,-0.36,-0.08,0.91
93.48047,0.033307113,0.0155567955,-0.076736555,-0.34,-0.07,0.89,21522,9454.60,0,0,165,2.03,0.84,-4.83,-0.34,-0.07,0.89
91.581055,0.08130711,0.016556796,-0.039736558,-0.33,-0.09,0.89,21531,9452.70,0,0,0,5.39,0.91,-2.24,-0.33,-0.09,0.89
89.680664,0.18230712,0.050556794,0.018263446,-0.36,-0.1,0.91,21546,9450.80,0,0,165,12.46,3.29,1.82,-0.36,-0.10,0.91
83.081055,0.27530712,0.07555679,-0.08273656,-0.38,-0.12,0.97,21561,9444.20,0,0,0,18.97,5.04,-5.25,-0.38,-0.12,0.97
74.48047,0.23630711,0.080556795,-0.22373655,-0.39,-0.11,0.98,21567,9435.60,0,0,165,16.24,5.39,-15.12,-0.39,-0.11,0.98
63.98047,0.16730712,0.0635568,-0.30173656,-0.37,-0.07,0.97,21582,9425.10,0,0,0,11.41,4.20,-20.58,-0.37,-0.07,0.97
51.680664,0.07730711,0.0025567962,-0.31273657,-0.34,-0.06,0.95,21597,9412.80,0,0,165,5.11,-0.07,-21.35,-0.34,-0.06,0.95
46.88086,-0.17369288,-0.1334432,-0.029736554,-0.29,0.02,0.96,21605,9408.00,0,0,0,-12.46,-9.59,-1.54,-0.29,0.02,0.96
48.78125,-0.115692884,-0.1744432,0.13526346,-0.34,-0.03,0.87,21620,9409.90,0,0,165,-8.40,-12.46,10.01,-0.34,-0.03,0.87
48.78125,0.085307114,-0.073443204,0.16326346,-0.34,-0.08,0.87,21635,9409.90,0,0,0,5.67,-5.39,11.97,-0.34,-0.08,0.87
48.78125,0.21930712,-0.051443204,0.15726346,-0.33,-0.15,0.93,21642,9409.90,0,0,165,15.05,-3.85,11.55,-0.33,-0.15,0.93
49.78125,0.16030712,-0.036443204,0.18126345,-0.37,-0.18,0.98,21657,9410.90,0,0,0,10.92,-2.80,13.23,-0.37,-0.18,0.98
48.78125,0.051307112,-0.015443205,0.12126344,-0.38,-0.16,0.99,21673,9409.90,0,0,165,3.29,-1.33,9.03,-0.38,-0.16,0.99
48.78125,0.074307114,0.0345568,0.038263444,-0.36,-0.12,0.96,21680,9409.90,0,0,0,4.90,2.17,3.22,-0.36,-0.12,0.96
49.081055,0.14030713,0.025556795,0.103263445,-0.32,-0.08,0.94,21702,9410.20,0,0,165,9.52,1.54,7.77,-0.32,-0.08,0.94
48.78125,0.26730713,-0.012443204,0.14826345,-0.35,-0.05,0.92,21726,9409.90,0,0,0,18.41,-1.12,10.92,-0.35,-0.05,0.92
48.78125,0.36330712,-0.009443204,0.19726345,-0.34,-0.04,0.92,21727,9409.90,0,0,165,25.13,-0.91,14.35,-0.34,-0.04,0.92
59.28125,0.16130711,-0.056443203,0.29726344,-0.35,-0.02,0.94,21733,9420.40,0,0,0,10.99,-4.20,21.35,-0.35,-0.02,0.94
78.28125,-0.09869289,-0.113443196,0.23526345,-0.38,-0.0,0.93,21756,9439.40,0,0,165,-7.21,-8.19,17.01,-0.38,-0.00,0.93
88.081055,-0.101692885,-0.035443205,0.11926345,-0.41,-0.02,0.93,21758,9449.20,0,0,0,-7.42,-2.73,8.89,-0.41,-0.02,0.93
95.78125,-0.15069288,0.0025567962,-0.09473656,-0.38,-0.04,0.93,21769,9456.90,0,0,165,-10.85,-0.07,-6.09,-0.38,-0.04,0.93
102.38086,-0.21469288,5.567963E-4,-0.14673655,-0.37,-0.05,0.94,21785,9463.50,0,0,0,-15.33,-0.21,-9.73,-0.37,-0.05,0.94
103.98047,-0.11969289,0.013556796,-0.16373655,-0.38,-0.07,0.94,21793,9465.10,0,0,165,-8.68,0.70,-10.92,-0.38,-0.07,0.94
100.48047,-0.018692885,0.037556797,-0.24373655,-0.38,-0.07,0.94,21815,9461.60,0,0,0,-1.61,2.38,-16.52,-0.38,-0.07,0.94
90.98047,0.09930711,0.043556795,-0.30673656,-0.37,-0.09,0.94,21830,9452.10,0,0,165,6.65,2.80,-20.93,-0.37,-0.09,0.94
80.48047,0.10930711,0.056556795,-0.28773656,-0.35,-0.07,0.94,21832,9441.60,0,0,0,7.35,3.71,-19.60,-0.35,-0.07,0.94
70.081055,0.08430711,0.053556796,-0.21373655,-0.33,-0.05,0.91,21846,9431.20,0,0,165,5.60,3.50,-14.42,-0.33,-0.05,0.91
61.48047,0.085307114,0.038556796,-0.084736556,-0.32,-0.06,0.92,21861,9422.60,0,0,0,5.67,2.45,-5.39,-0.32,-0.06,0.92
54.78125,0.049307115,-0.035443205,0.08726344,-0.3,-0.07,0.92,21868,9415.90,0,0,165,3.15,-2.73,6.65,-0.30,-0.07,0.92
53.88086,-0.05969289,-0.08344321,0.14426346,-0.35,-0.05,0.93,21883,9415.00,0,0,0,-4.48,-6.09,10.64,-0.35,-0.05,0.93
52.88086,-0.034692887,-0.0764432,0.10826344,-0.36,-0.07,0.93,21897,9414.00,0,0,165,-2.73,-5.60,8.12,-0.36,-0.07,0.93
50.98047,-0.0076928847,-0.081443205,0.059263445,-0.35,-0.1,0.95,21906,9412.10,0,0,0,-0.84,-5.95,4.69,-0.35,-0.10,0.95
51.98047,0.0023071144,-0.058443207,0.06826345,-0.35,-0.12,0.95,21921,9413.10,0,0,165,-0.14,-4.34,5.32,-0.35,-0.12,0.95
50.98047,0.035307117,-0.008443203,0.08826344,-0.35,-0.12,0.95,21935,9412.10,0,0,0,2.17,-0.84,6.72,-0.35,-0.12,0.95
51.98047,0.031307116,0.020556796,0.07826345,-0.34,-0.1,0.94,21943,9413.10,0,0,165,1.89,1.19,6.02,-0.34,-0.10,0.94
51.98047,0.089307114,0.0155567955,0.053263444,-0.35,-0.07,0.95,21958,9413.10,0,0,0,5.95,0.84,4.27,-0.35,-0.07,0.95
51.98047,0.11730711,-4.4320407E-4,0.04026344,-0.32,-0.07,0.95,21980,9413.10,0,0,165,7.91,-0.28,3.36,-0.32,-0.07,0.95
72.88086,-0.29069287,-0.06444321,0.16526344,-0.31,-0.0,0.93,21982,9434.00,0,0,0,-20.65,-4.76,12.11,-0.31,-0.00,0.93
87.180664,-0.32269287,-0.053443205,0.19126345,-0.37,0.01,0.89,22003,9448.30,0,0,165,-22.89,-3.99,13.93,-0.37,0.01,0.89
92.88086,-0.050692886,0.017556796,0.07826345,-0.4,-0.03,0.92,22010,9454.00,0,0,0,-3.85,0.98,6.02,-0.40,-0.03,0.92
92.88086,-0.0036928859,0.021556795,-0.061736558,-0.38,-0.07,0.94,22033,9454.00,0,0,165,-0.56,1.26,-3.78,-0.38,-0.07,0.94
86.180664,0.030307114,0.019556796,-0.17073655,-0.38,-0.1,0.95,22034,9447.30,0,0,0,1.82,1.12,-11.41,-0.38,-0.10,0.95
78.581055,0.024307113,0.0155567955,-0.22173654,-0.37,-0.09,0.94,22048,9439.70,0,0,165,1.40,0.84,-14.98,-0.37,-0.09,0.94
67.48047,-0.012692886,0.025556795,-0.28473654,-0.36,-0.04,0.93,22056,9428.60,0,0,0,-1.19,1.54,-19.39,-0.36,-0.04,0.93
60.48047,0.039307114,0.010556797,-0.26373658,-0.33,-0.05,0.92,22071,9421.60,0,0,165,2.45,0.49,-17.92,-0.33,-0.05,0.92
56.680664,-0.028692886,-0.045443207,-0.0037365546,-0.29,-0.06,0.91,22093,9417.80,0,0,0,-2.31,-3.43,0.28,-0.29,-0.06,0.91
53.88086,-0.041692887,-0.10544321,0.14826345,-0.33,-0.03,0.92,22094,9415.00,0,0,165,-3.22,-7.63,10.92,-0.33,-0.03,0.92
54.180664,0.062307112,-0.077443205,0.15026346,-0.36,-0.07,0.94,22108,9415.30,0,0,0,4.06,-5.67,11.06,-0.36,-0.07,0.94
53.88086,0.064307116,-0.053443205,0.095263444,-0.37,-0.12,0.96,22123,9415.00,0,0,165,4.20,-3.99,7.21,-0.37,-0.12,0.96
53.88086,-0.017692886,-0.024443205,0.066263445,-0.36,-0.14,0.97,22131,9415.00,0,0,0,-1.54,-1.96,5.18,-0.36,-0.14,0.97
54.180664,-0.043692883,-0.003443204,0.051263444,-0.35,-0.12,0.96,22146,9415.30,0,0,165,-3.36,-0.49,4.13,-0.35,-0.12,0.96
52.88086,-0.054692887,0.036556795,0.016263444,-0.34,-0.1,0.93,22160,9414.00,0,0,0,-4.13,2.31,1.68,-0.34,-0.10,0.93
53.180664,-0.0056928853,0.0655568,0.0042634443,-0.33,-0.07,0.92,22168,9414.30,0,0,165,-0.70,4.34,0.84,-0.33,-0.07,0.92
54.180664,0.05230711,0.076556794,0.06726345,-0.33,-0.06,0.93,22183,9415.30,0,0,0,3.36,5.11,5.25,-0.33,-0.06,0.93
54.180664,0.12930712,0.050556794,0.11526344,-0.31,-0.07,0.94,22213,9415.30,0,0,165,8.75,3.29,8.61,-0.31,-0.07,0.94
81.78125,-0.19969288,-0.035443205,0.21726345,-0.33,-0.01,0.94,22214,9442.90,0,0,0,-14.28,-2.73,15.75,-0.33,-0.01,0.94
97.98047,-0.21269287,-0.0054432033,0.18126345,-0.39,-0.02,0.92,22229,9459.10,0,0,165,-15.19,-0.63,13.23,-0.39,-0.02,0.92
105.581055,-0.14869288,0.047556795,0.024263447,-0.39,-0.04,0.92,22235,9466.70,0,0,0,-10.71,3.08,2.24,-0.39,-0.04,0.92
104.581055,-0.11069289,0.043556795,-0.07473656,-0.37,-0.06,0.93,22244,9465.70,0,0,165,-8.05,2.80,-4.69,-0.37,-0.06,0.93
101.78125,-0.021692887,0.031556796,-0.12373655,-0.38,-0.08,0.94,22280,9462.90,0,0,0,-1.82,1.96,-8.12,-0.38,-0.08,0.94
93.180664,-0.008692886,0.011556797,-0.20373656,-0.38,-0.07,0.94,22287,9454.30,0,0,165,-0.91,0.56,-13.72,-0.38,-0.07,0.94
81.78125,0.026307113,0.016556796,-0.26673654,-0.37,-0.08,0.94,22289,9442.90,0,0,0,1.54,0.91,-18.13,-0.37,-0.08,0.94
59.88086,0.021307115,0.028556796,-0.18173656,-0.33,-0.06,0.92,22303,9421.00,0,0,165,1.19,1.75,-12.18,-0.33,-0.06,0.92
56.98047,-0.009692886,0.0025567962,-0.023736555,-0.32,-0.05,0.96,22310,9418.10,0,0,0,-0.98,-0.07,-1.12,-0.32,-0.05,0.96
56.081055,-0.061692886,-0.022443205,0.09926344,-0.32,-0.06,0.92,22325,9417.20,0,0,165,-4.62,-1.82,7.49,-0.32,-0.06,0.92
55.38086,-0.034692887,-0.013443205,0.10826344,-0.35,-0.09,0.94,22333,9416.50,0,0,0,-2.73,-1.19,8.12,-0.35,-0.09,0.94
56.081055,-0.011692886,-0.016443204,0.059263445,-0.35,-0.12,0.96,22347,9417.20,0,0,165,-1.12,-1.40,4.69,-0.35,-0.12,0.96
55.081055,-0.043692883,-0.032443203,0.038263444,-0.34,-0.12,0.96,22363,9416.20,0,0,0,-3.36,-2.52,3.22,-0.34,-0.12,0.96
56.081055,-0.08069289,-0.029443204,0.041263446,-0.34,-0.12,0.93,22400,9417.20,0,0,165,-5.95,-2.31,3.43,-0.34,-0.12,0.93
55.081055,-0.041692887,0.028556796,0.061263442,-0.34,-0.11,0.9,22401,9416.20,0,0,0,-3.22,1.75,4.83,-0.34,-0.11,0.90
56.081055,0.028307114,0.0715568,0.09026345,-0.33,-0.08,0.91,22402,9417.20,0,0,165,1.68,4.76,6.86,-0.33,-0.08,0.91
55.38086,0.108307116,0.036556795,0.11526344,-0.35,-0.06,0.96,22415,9416.50,0,0,0,7.28,2.31,8.61,-0.35,-0.06,0.96
59.88086,-0.06969289,0.019556796,0.13826345,-0.34,-0.08,0.95,22445,9421.00,0,0,165,-5.18,1.12,10.22,-0.34,-0.08,0.95
90.680664,-0.28569287,-0.066443205,0.17126344,-0.37,-0.03,0.92,22447,9451.80,0,0,0,-20.30,-4.90,12.53,-0.37,-0.03,0.92
98.88086,-0.17769288,0.012556796,0.12526345,-0.4,-0.05,0.91,22476,9460.00,0,0,165,-12.74,0.63,9.31,-0.40,-0.05,0.91
100.78125,-0.07469289,0.045556795,-0.011736555,-0.38,-0.08,0.94,22478,9461.90,0,0,0,-5.53,2.94,-0.28,-0.38,-0.08,0.94
97.28125,0.028307114,0.030556796,-0.13873655,-0.39,-0.12,0.96,22505,9458.40,0,0,165,1.68,1.89,-9.17,-0.39,-0.12,0.96
90.680664,0.016307114,0.026556795,-0.23573655,-0.38,-0.12,0.95,22507,9451.80,0,0,0,0.84,1.61,-15.96,-0.38,-0.12,0.95
80.180664,-0.009692886,0.020556796,-0.29273656,-0.37,-0.11,0.94,22509,9441.30,0,0,165,-0.98,1.19,-19.95,-0.37,-0.11,0.94
63.38086,0.0023071144,0.050556794,-0.15473655,-0.33,-0.07,0.91,22550,9424.50,0,0,0,-0.14,3.29,-10.29,-0.33,-0.07,0.91
59.28125,-0.06569289,0.039556794,-0.033736557,-0.35,-0.01,0.94,22551,9420.40,0,0,165,-4.90,2.52,-1.82,-0.35,-0.01,0.94
58.28125,-0.061692886,0.045556795,0.058263443,-0.35,-0.03,0.9,22553,9419.40,0,0,0,-4.62,2.94,4.62,-0.35,-0.03,0.90
58.28125,0.038307115,0.0645568,0.031263445,-0.36,-0.1,0.94,22581,9419.40,0,0,165,2.38,4.27,2.73,-0.36,-0.10,0.94
58.28125,0.060307115,-0.004443204,-0.017736554,-0.36,-0.14,0.98,22582,9419.40,0,0,0,3.92,-0.56,-0.70,-0.36,-0.14,0.98
57.28125,0.060307115,-0.022443205,-0.021736555,-0.36,-0.16,0.98,22626,9418.40,0,0,165,3.92,-1.82,-0.98,-0.36,-0.16,0.98
57.28125,-0.0036928859,-0.015443205,-0.036736555,-0.34,-0.15,0.94,22627,9418.40,0,0,0,-0.56,-1.33,-2.03,-0.34,-0.15,0.94
57.680664,-0.053692885,-0.0024432035,0.012263445,-0.33,-0.12,0.92,22628,9418.80,0,0,165,-4.06,-0.42,1.40,-0.33,-0.12,0.92
58.28125,0.017307114,0.014556796,0.052263442,-0.33,-0.1,0.91,22629,9419.40,0,0,0,0.91,0.77,4.20,-0.33,-0.10,0.91
57.28125,0.16230713,0.024556795,0.10226344,-0.33,-0.1,0.93,22648,9418.40,0,0,165,11.06,1.47,7.70,-0.33,-0.10,0.93
57.680664,0.21130712,0.021556795,0.18326345,-0.33,-0.1,0.93,22663,9418.80,0,0,0,14.49,1.26,13.37,-0.33,-0.10,0.93
58.28125,0.13930711,0.030556796,0.25826344,-0.26,-0.08,0.87,22678,9419.40,0,0,165,9.45,1.89,18.62,-0.26,-0.08,0.87
80.180664,-0.3306929,-0.035443205,0.38126343,-0.33,-0.01,0.9,22680,9441.30,0,0,0,-23.45,-2.73,27.23,-0.33,-0.01,0.90
83.081055,-0.06769288,0.0705568,0.22426344,-0.44,-0.06,0.92,22701,9444.20,0,0,165,-5.04,4.69,16.24,-0.44,-0.06,0.92
81.48047,0.036307115,0.0905568,-0.052736558,-0.4,-0.15,0.97,22708,9442.60,0,0,0,2.24,6.09,-3.15,-0.40,-0.15,0.97
73.78125,-0.022692885,0.0685568,-0.084736556,-0.4,-0.16,0.99,22716,9434.90,0,0,165,-1.89,4.55,-5.39,-0.40,-0.16,0.99
65.28125,-0.108692884,0.051556792,-0.005736555,-0.39,-0.14,0.97,22730,9426.40,0,0,0,-7.91,3.36,0.14,-0.39,-0.14,0.97
56.680664,-0.13169289,0.069556795,-0.027736554,-0.38,-0.07,0.94,22745,9417.80,0,0,165,-9.52,4.62,-1.40,-0.38,-0.07,0.94
58.581055,-0.25969288,-0.036443204,0.11526344,-0.34,-0.02,0.93,22753,9419.70,0,0,0,-18.48,-2.80,8.61,-0.34,-0.02,0.93
58.28125,-0.35369286,-0.06444321,0.19526345,-0.36,0.01,0.87,22767,9419.40,0,0,165,-25.06,-4.76,14.21,-0.36,0.01,0.87
58.581055,-0.19669287,-0.1024432,0.09126344,-0.37,-0.02,0.89,22782,9419.70,0,0,0,-14.07,-7.42,6.93,-0.37,-0.02,0.89
59.581055,0.039307114,-0.06144321,0.0142634455,-0.39,-0.1,0.92,22797,9420.70,0,0,165,2.45,-4.55,1.54,-0.39,-0.10,0.92
58.581055,0.17830713,-0.012443204,0.002263445,-0.38,-0.15,0.93,22806,9419.70,0,0,0,12.18,-1.12,0.70,-0.38,-0.15,0.93
59.581055,0.21430711,0.014556796,-7.365546E-4,-0.42,-0.16,0.94,22827,9420.70,0,0,165,14.70,0.77,0.49,-0.42,-0.16,0.94
59.581055,0.18530712,0.043556795,0.038263444,-0.39,-0.13,0.95,22829,9420.70,0,0,0,12.67,2.80,3.22,-0.39,-0.13,0.95
59.581055,0.3503071,0.087556794,0.12426344,-0.37,-0.14,0.96,22842,9420.70,0,0,165,24.22,5.88,9.24,-0.37,-0.14,0.96
58.581055,0.4963071,0.098556794,0.15726346,-0.35,-0.09,0.95,22858,9419.70,0,0,0,34.44,6.65,11.55,-0.35,-0.09,0.95
58.581055,0.7173071,0.018556796,-0.028736554,-0.33,0.0,0.91,22865,9419.70,0,0,165,49.91,1.05,-1.47,-0.33,0.00,0.91
58.581055,0.9233071,0.091556795,0.114263445,-0.33,-0.11,0.92,22880,9419.70,0,0,0,64.33,6.16,8.54,-0.33,-0.11,0.92
58.581055,0.93830705,0.117556795,0.22226346,-0.35,-0.04,0.93,22895,9419.70,0,0,165,65.38,7.98,16.10,-0.35,-0.04,0.93
68.081055,0.3173071,0.1005568,0.21626346,-0.5,0.17,0.93,22902,9429.20,0,0,0,21.91,6.79,15.68,-0.50,0.17,0.93
77.680664,0.2693071,0.1045568,0.16426346,-0.43,-0.03,0.9,22917,9438.80,0,0,165,18.55,7.07,12.04,-0.43,-0.03,0.90
82.38086,0.5143071,0.2285568,0.106263444,-0.45,-0.09,0.94,22933,9443.50,0,0,0,35.70,15.75,7.98,-0.45,-0.09,0.94
84.28125,0.5703071,0.2075568,0.03326344,-0.43,-0.14,0.96,22940,9445.40,0,0,165,39.62,14.28,2.87,-0.43,-0.14,0.96
74.180664,0.4803071,0.17555681,0.13726345,-0.41,-0.09,1.01,22954,9435.30,0,0,0,33.32,12.04,10.15,-0.41,-0.09,1.01
66.180664,0.4243071,0.1505568,0.34426343,-0.37,-0.07,0.99,22970,9427.30,0,0,165,29.40,10.29,24.64,-0.37,-0.07,0.99
63.680664,0.34930712,-0.043443203,0.53326344,-0.4,-0.02,0.94,22977,9424.80,0,0,0,24.15,-3.29,37.87,-0.40,-0.02,0.94
61.78125,0.21830711,-0.046443205,0.36426345,-0.38,-0.01,0.87,22993,9422.90,0,0,165,14.98,-3.50,26.04,-0.38,-0.01,0.87
59.88086,-0.0076928847,-0.10544321,0.5352634,-0.35,0.04,0.87,23008,9421.00,0,0,0,-0.84,-7.63,38.01,-0.35,0.04,0.87
60.78125,0.06630712,-0.081443205,0.65326345,-0.36,0.09,0.84,23014,9421.90,0,0,165,4.34,-5.95,46.27,-0.36,0.09,0.84
60.48047,0.27530712,-0.029443204,0.6872634,-0.38,0.07,0.87,23029,9421.60,0,0,0,18.97,-2.31,48.65,-0.38,0.07,0.87
59.88086,0.4173071,0.010556797,0.69526345,-0.4,0.03,0.91,23045,9421.00,0,0,165,28.91,0.49,49.21,-0.40,0.03,0.91
59.88086,0.42330712,0.008556796,0.6792634,-0.39,0.01,0.94,23053,9421.00,0,0,0,29.33,0.35,48.09,-0.39,0.01,0.94
58.88086,0.29730713,-0.10544321,0.73126346,-0.38,-0.0,0.98,23068,9420.00,0,0,165,20.51,-7.63,51.73,-0.38,-0.00,0.98
58.88086,0.14430712,-0.20744321,0.7902635,-0.38,0.01,0.97,23083,9420.00,0,0,0,9.80,-14.77,55.86,-0.38,0.01,0.97
60.78125,0.24730712,-0.1964432,0.6842634,-0.39,0.03,0.93,23091,9421.90,0,0,165,17.01,-14.00,48.44,-0.39,0.03,0.93
59.88086,0.39230713,-0.1674432,0.6042634,-0.36,0.02,0.93,23105,9421.00,0,0,0,27.16,-11.97,42.84,-0.36,0.02,0.93
59.88086,0.31130713,-0.1784432,0.66626346,-0.36,0.04,0.91,23120,9421.00,0,0,165,21.49,-12.74,47.18,-0.36,0.04,0.91
59.88086,0.32130712,-0.1374432,0.5582634,-0.38,0.06,0.9,23128,9421.00,0,0,0,22.19,-9.87,39.62,-0.38,0.06,0.90
60.180664,0.3313071,-0.1034432,0.54826343,-0.36,0.06,0.91,23143,9421.30,0,0,165,22.89,-7.49,38.92,-0.36,0.06,0.91
58.88086,0.41430712,-0.051443204,0.37126344,-0.39,0.07,0.91,23158,9420.00,0,0,0,28.70,-3.85,26.53,-0.39,0.07,0.91
60.78125,0.5113071,-0.003443204,0.17026345,-0.4,0.05,0.94,23165,9421.90,0,0,165,35.49,-0.49,12.46,-0.40,0.05,0.94
58.88086,0.5423071,0.030556796,0.037263446,-0.42,0.06,0.98,23181,9420.00,0,0,0,37.66,1.89,3.15,-0.42,0.06,0.98
59.88086,0.47830713,0.022556797,-0.024736555,-0.4,0.07,0.99,23195,9421.00,0,0,165,33.18,1.33,-1.19,-0.40,0.07,0.99
60.180664,0.34630713,-0.003443204,-0.15573655,-0.43,0.13,0.95,23202,9421.30,0,0,0,23.94,-0.49,-10.36,-0.43,0.13,0.95
60.180664,0.3063071,-0.023443205,-0.30473658,-0.38,0.07,0.93,23218,9421.30,0,0,165,21.14,-1.89,-20.79,-0.38,0.07,0.93
60.180664,0.22330712,-0.066443205,-0.19973654,-0.36,0.1,0.89,23233,9421.30,0,0,0,15.33,-4.90,-13.44,-0.36,0.10,0.89
60.180664,0.27130714,-0.09444321,-0.13273655,-0.35,0.11,0.89,23240,9421.30,0,0,165,18.69,-6.86,-8.75,-0.35,0.11,0.89
58.88086,0.4543071,-0.08644321,-0.14073655,-0.36,0.12,0.89,23255,9420.00,0,0,0,31.50,-6.30,-9.31,-0.36,0.12,0.89
58.88086,0.63230705,-0.0874432,-0.13773656,-0.35,0.1,0.89,23270,9420.00,0,0,165,43.96,-6.37,-9.10,-0.35,0.10,0.89
59.180664,0.7483071,-0.118443206,-0.015736556,-0.37,0.06,0.92,23278,9420.30,0,0,0,52.08,-8.54,-0.56,-0.37,0.06,0.92
59.180664,0.8383071,-0.12444321,0.117263444,-0.4,0.06,0.95,23293,9420.30,0,0,165,58.38,-8.96,8.75,-0.40,0.06,0.95
59.180664,0.7163071,-0.16244319,0.21926345,-0.41,0.05,0.99,23308,9420.30,0,0,0,49.84,-11.62,15.89,-0.41,0.05,0.99
59.180664,0.4493071,-0.1984432,0.18226345,-0.43,0.09,0.99,23316,9420.30,0,0,165,31.15,-14.14,13.30,-0.43,0.09,0.99
65.88086,-0.2556929,-0.2994432,0.30126342,-0.37,0.14,0.98,23338,9427.00,0,0,0,-18.20,-21.21,21.63,-0.37,0.14,0.98
86.78125,-0.4066929,-0.41444322,0.13826345,-0.42,0.26,0.93,23345,9447.90,0,0,165,-28.77,-29.26,10.22,-0.42,0.26,0.93
112.48047,-0.4066929,-0.39644322,0.20526345,-0.58,0.04,1.05,23353,9473.60,0,0,0,-28.77,-28.00,14.91,-0.58,0.04,1.05
121.081055,-0.73469293,0.012556796,0.027263446,-0.54,0.15,0.95,23368,9482.20,0,0,165,-51.73,0.63,2.45,-0.54,0.15,0.95
125.88086,-0.4326929,0.1075568,-0.41473657,-0.48,0.22,0.88,23382,9487.00,0,0,0,-30.59,7.28,-28.49,-0.48,0.22,0.88
120.180664,0.017307114,0.1965568,-0.48173657,-0.41,0.15,0.91,23391,9481.30,0,0,165,0.91,13.51,-33.18,-0.41,0.15,0.91
110.581055,0.32830712,0.19055681,-0.37073657,-0.41,0.14,0.87,23406,9471.70,0,0,0,22.68,13.09,-25.41,-0.41,0.14,0.87
90.581055,0.4063071,0.1725568,-0.40773657,-0.41,0.15,0.88,23420,9451.70,0,0,165,28.14,11.83,-28.00,-0.41,0.15,0.88
76.38086,0.37430713,0.0965568,-0.47973657,-0.37,0.17,0.88,23427,9437.50,0,0,0,25.90,6.51,-33.04,-0.37,0.17,0.88
64.88086,0.38630712,0.010556797,-0.5987365,-0.37,0.22,0.88,23442,9426.00,0,0,165,26.74,0.49,-41.37,-0.37,0.22,0.88
62.081055,0.10330711,-0.2604432,-0.41273656,-0.35,0.21,0.86,23457,9423.20,0,0,0,6.93,-18.48,-28.35,-0.35,0.21,0.86
62.081055,0.034307115,-0.3284432,-0.39773655,-0.38,0.23,0.84,23465,9423.20,0,0,165,2.10,-23.24,-27.30,-0.38,0.23,0.84
61.38086,0.21930712,-0.38444322,-0.50973654,-0.42,0.12,0.9,23480,9422.50,0,0,0,15.05,-27.16,-35.14,-0.42,0.12,0.90
61.38086,0.33030713,-0.33144322,-0.5567366,-0.45,0.03,0.96,23496,9422.50,0,0,165,22.82,-23.45,-38.43,-0.45,0.03,0.96
60.48047,0.3253071,-0.2434432,-0.65673655,-0.47,-0.01,0.97,23502,9421.60,0,0,0,22.47,-17.29,-45.43,-0.47,-0.01,0.97
60.78125,0.27930713,-0.1334432,-0.7037366,-0.42,0.0,0.9,23517,9421.90,0,0,165,19.25,-9.59,-48.72,-0.42,0.00,0.90
60.48047,0.32330713,-0.113443196,-0.69373655,-0.39,0.06,0.86,23532,9421.60,0,0,0,22.33,-8.19,-48.02,-0.39,0.06,0.86
60.48047,0.42730713,-0.0914432,-0.66473657,-0.38,-0.02,0.92,23542,9421.60,0,0,165,29.61,-6.65,-45.99,-0.38,-0.02,0.92
60.48047,-0.23669289,-0.1414432,-0.49473655,-0.41,0.2,0.88,23555,9421.60,0,0,0,-16.87,-10.15,-34.09,-0.41,0.20,0.88
106.180664,-0.55869293,-0.2124432,-0.26173657,-0.36,0.5,0.78,23571,9467.30,0,0,165,-39.41,-15.12,-17.78,-0.36,0.50,0.78
112.88086,0.046307113,-0.1964432,-0.5157366,-0.35,0.43,0.79,23578,9474.00,0,0,0,2.94,-14.00,-35.56,-0.35,0.43,0.79
112.88086,0.5993071,-0.2224432,-0.49073657,-0.39,0.28,0.81,23593,9474.00,0,0,165,41.65,-15.82,-33.81,-0.39,0.28,0.81
108.98047,0.8333071,-0.1854432,-0.5197366,-0.38,0.12,0.86,23608,9470.10,0,0,0,58.03,-13.23,-35.84,-0.38,0.12,0.86
108.081055,0.7503071,-0.21344319,-0.48573655,-0.38,0.06,0.87,23616,9469.20,0,0,165,52.22,-15.19,-33.46,-0.38,0.06,0.87
108.081055,0.63230705,-0.21944319,-0.47073656,-0.4,0.03,0.92,23630,9469.20,0,0,0,43.96,-15.61,-32.41,-0.40,0.03,0.92
108.081055,0.29830712,-0.15344319,-0.50073653,-0.41,0.06,0.92,23646,9469.20,0,0,165,20.58,-10.99,-34.51,-0.41,0.06,0.92
103.28125,0.09230711,-0.13844319,-0.64773655,-0.4,0.1,0.94,23653,9464.40,0,0,0,6.16,-9.94,-44.80,-0.40,0.10,0.94
97.581055,0.06630712,-0.13144319,-0.6517366,-0.37,0.12,0.92,23669,9458.70,0,0,165,4.34,-9.45,-45.08,-0.37,0.12,0.92
91.88086,0.17330712,-0.1544432,-0.6157366,-0.35,0.2,0.91,23683,9453.00,0,0,0,11.83,-11.06,-42.56,-0.35,0.20,0.91
83.680664,0.28430712,-0.2054432,-0.62773657,-0.33,0.21,0.93,23690,9444.80,0,0,165,19.60,-14.63,-43.40,-0.33,0.21,0.93
66.48047,0.42830712,-0.3324432,-0.60673654,-0.31,0.13,0.89,23706,9427.60,0,0,0,29.68,-23.52,-41.93,-0.31,0.13,0.89
63.38086,0.115307115,-0.4464432,-0.55073655,-0.32,0.22,0.88,23720,9424.50,0,0,165,7.77,-31.50,-38.01,-0.32,0.22,0.88
63.680664,0.23130712,-0.46744323,-0.55973655,-0.36,0.21,0.9,23728,9424.80,0,0,0,15.89,-32.97,-38.64,-0.36,0.21,0.90
63.680664,0.2803071,-0.4274432,-0.5427366,-0.35,0.13,0.91,23750,9424.80,0,0,165,19.32,-30.17,-37.45,-0.35,0.13,0.91
63.680664,0.20330712,-0.38844323,-0.57673657,-0.33,0.11,0.91,23758,9424.80,0,0,0,13.93,-27.44,-39.83,-0.33,0.11,0.91
62.680664,0.20230712,-0.3744432,-0.56973654,-0.32,0.11,0.9,23765,9423.80,0,0,165,13.86,-26.46,-39.34,-0.32,0.11,0.90
63.680664,0.24030712,-0.34544322,-0.52273655,-0.31,0.09,0.88,23781,9424.80,0,0,0,16.52,-24.43,-36.05,-0.31,0.09,0.88
62.680664,0.22430712,-0.3304432,-0.44973657,-0.32,0.11,0.89,23788,9423.80,0,0,165,15.40,-23.38,-30.94,-0.32,0.11,0.89
62.680664,0.22830713,-0.2584432,-0.44973657,-0.33,0.15,0.9,23804,9423.80,0,0,0,15.68,-18.34,-30.94,-0.33,0.15,0.90
62.680664,0.23530713,-0.1924432,-0.41173658,-0.29,0.2,0.87,23818,9423.80,0,0,165,16.17,-13.72,-28.28,-0.29,0.20,0.87
61.78125,0.28430712,-0.17944321,-0.35473657,-0.25,0.26,0.87,23826,9422.90,0,0,0,19.60,-12.81,-24.29,-0.25,0.26,0.87
61.78125,0.31030712,-0.1854432,-0.31973657,-0.24,0.27,0.87,23840,9422.90,0,0,165,21.42,-13.23,-21.84,-0.24,0.27,0.87
62.680664,0.15930712,-0.1594432,-0.08173656,-0.19,0.19,0.9,23856,9423.80,0,0,0,10.85,-11.41,-5.18,-0.19,0.19,0.90
93.180664,-0.4556929,-0.2404432,-0.057736557,-0.29,0.43,0.9,23863,9454.30,0,0,165,-32.20,-17.08,-3.50,-0.29,0.43,0.90
111.28125,-0.3256929,-0.16244319,-0.28673658,-0.32,0.32,0.94,23878,9472.40,0,0,0,-23.10,-11.62,-19.53,-0.32,0.32,0.94
121.680664,-0.30369288,-0.1154432,-0.32873654,-0.28,0.28,0.96,23894,9482.80,0,0,165,-21.56,-8.33,-22.47,-0.28,0.28,0.96
124.581055,-0.23369287,-0.1544432,-0.39073655,-0.29,0.29,0.96,23900,9485.70,0,0,0,-16.66,-11.06,-26.81,-0.29,0.29,0.96
121.98047,-0.11469288,-0.1434432,-0.38673657,-0.31,0.26,0.99,23916,9483.10,0,0,165,-8.33,-10.29,-26.53,-0.31,0.26,0.99
111.581055,-0.019692883,-0.099443205,-0.39673656,-0.32,0.29,1.0,23937,9472.70,0,0,0,-1.68,-7.21,-27.23,-0.32,0.29,1.00
92.180664,0.10530712,-0.06144321,-0.44673654,-0.31,0.32,0.98,23945,9453.30,0,0,165,7.07,-4.55,-30.73,-0.31,0.32,0.98
79.180664,0.2743071,-0.013443205,-0.44573656,-0.28,0.4,1.04,23953,9440.30,0,0,0,18.90,-1.19,-30.66,-0.28,0.40,1.04
66.78125,0.32830712,0.022556797,-0.32773656,-0.28,0.23,1.04,23968,9427.90,0,0,165,22.68,1.33,-22.40,-0.28,0.23,1.04
64.88086,0.07330711,0.057556797,-0.21473655,-0.33,0.27,1.05,23976,9426.00,0,0,0,4.83,3.78,-14.49,-0.33,0.27,1.05
64.581055,0.015307114,0.0905568,-0.23673657,-0.34,0.2,1.06,23991,9425.70,0,0,165,0.77,6.09,-16.03,-0.34,0.20,1.06
64.581055,-0.08169289,0.084556796,-0.26273656,-0.31,0.17,1.04,24005,9425.70,0,0,0,-6.02,5.67,-17.85,-0.31,0.17,1.04
64.581055,-0.14269288,0.044556793,-0.27573657,-0.29,0.17,1.01,24012,9425.70,0,0,165,-10.29,2.87,-18.76,-0.29,0.17,1.01
63.680664,-0.08269289,-0.0064432034,-0.21873656,-0.28,0.16,1.0,24028,9424.80,0,0,0,-6.09,-0.70,-14.77,-0.28,0.16,1.00
64.581055,-0.030692887,-0.035443205,-0.17873655,-0.25,0.17,0.98,24043,9425.70,0,0,165,-2.45,-2.73,-11.97,-0.25,0.17,0.98
62.98047,0.018307116,-0.07244321,-0.13773656,-0.24,0.2,0.97,24050,9424.10,0,0,0,0.98,-5.32,-9.10,-0.24,0.20,0.97
63.680664,0.034307115,-0.1024432,-0.10573656,-0.24,0.19,0.96,24065,9424.80,0,0,165,2.10,-7.42,-6.86,-0.24,0.19,0.96
64.88086,0.050307114,-0.12444321,-0.113736555,-0.24,0.21,0.96,24081,9426.00,0,0,0,3.22,-8.96,-7.42,-0.24,0.21,0.96
62.98047,0.13130713,-0.1374432,-0.14673655,-0.2,0.25,0.99,24088,9424.10,0,0,165,8.89,-9.87,-9.73,-0.20,0.25,0.99
96.28125,-0.6576929,-0.25944322,0.18326345,-0.2,0.31,0.94,24103,9457.40,0,0,0,-46.34,-18.41,13.37,-0.20,0.31,0.94
117.28125,-0.4696929,-0.2184432,-0.08973655,-0.34,0.4,0.9,24117,9478.40,0,0,165,-33.18,-15.54,-5.74,-0.34,0.40,0.90
121.98047,-0.14869288,-0.06444321,-0.26073655,-0.3,0.28,0.83,24125,9483.10,0,0,0,-10.71,-4.76,-17.71,-0.30,0.28,0.83
119.180664,-0.004692885,0.035556797,-0.28073657,-0.27,0.24,0.83,24140,9480.30,0,0,165,-0.63,2.24,-19.11,-0.27,0.24,0.83
111.581055,0.20730712,0.0935568,-0.27073658,-0.25,0.24,0.81,24155,9472.70,0,0,0,14.21,6.30,-18.41,-0.25,0.24,0.81
95.38086,0.4323071,0.121556796,-0.27973658,-0.25,0.27,0.87,24163,9456.50,0,0,165,29.96,8.26,-19.04,-0.25,0.27,0.87
72.48047,0.6063071,0.1305568,-0.18573655,-0.19,0.33,1.02,24178,9433.60,0,0,0,42.14,8.89,-12.46,-0.19,0.33,1.02
67.78125,0.4943071,-0.020443203,0.15426345,-0.2,0.32,0.91,24193,9428.90,0,0,165,34.30,-1.68,11.34,-0.20,0.32,0.91
66.78125,0.24230711,-0.099443205,0.22626343,-0.27,0.44,0.94,24200,9427.90,0,0,0,16.66,-7.21,16.38,-0.27,0.44,0.94
66.78125,0.2943071,-0.041443206,0.28426343,-0.29,0.4,0.93,24214,9427.90,0,0,165,20.30,-3.15,20.44,-0.29,0.40,0.93
65.88086,0.42930713,-4.4320407E-4,0.34926343,-0.31,0.38,0.95,24230,9427.00,0,0,0,29.75,-0.28,24.99,-0.31,0.38,0.95
64.88086,0.46230716,-0.063443206,0.8082634,-0.34,0.37,0.95,24238,9426.00,0,0,165,32.06,-4.69,57.12,-0.34,0.37,0.95
65.180664,0.82230705,-0.077443205,0.8312634,-0.28,0.39,0.99,24253,9426.30,0,0,0,57.26,-5.67,58.73,-0.28,0.39,0.99
64.88086,1.0993072,-0.049443204,0.98626345,-0.28,0.38,1.02,24268,9426.00,0,0,165,76.65,-3.71,69.58,-0.28,0.38,1.02
65.88086,1.3493072,-0.062443204,1.2122635,-0.25,0.41,0.98,24276,9427.00,0,0,0,94.15,-4.62,85.40,-0.25,0.41,0.98
64.88086,1.6333071,-0.084443204,1.5282633,-0.24,0.49,1.01,24290,9426.00,0,0,165,114.03,-6.16,107.52,-0.24,0.49,1.01
64.88086,2.0573072,-0.054443203,1.7642634,-0.24,0.45,0.97,24306,9426.00,0,0,0,143.71,-4.06,124.04,-0.24,0.45,0.97
64.88086,2.327307,-0.08344321,2.1142635,-0.2,0.49,0.93,24321,9426.00,0,0,165,162.61,-6.09,148.54,-0.20,0.49,0.93
64.88086,2.699307,-0.1154432,2.2242637,-0.19,0.55,0.92,24328,9426.00,0,0,0,188.65,-8.33,156.24,-0.19,0.55,0.92
65.180664,3.031307,-0.052443206,2.1682637,-0.22,0.68,0.89,24343,9426.30,0,0,165,211.89,-3.92,152.32,-0.22,0.68,0.89
64.88086,3.3213072,0.040556796,2.0982635,-0.2,0.52,0.91,24351,9426.00,0,0,0,232.19,2.59,147.42,-0.20,0.52,0.91
65.180664,2.988307,0.1505568,2.1442635,-0.18,0.54,0.88,24365,9426.30,0,0,165,208.88,10.29,150.64,-0.18,0.54,0.88
64.28125,2.778307,0.23455681,1.9902635,-0.18,0.59,0.86,24380,9425.40,0,0,0,194.18,16.17,139.86,-0.18,0.59,0.86
64.28125,2.734307,0.3185568,1.7432635,-0.16,0.64,0.82,24388,9425.40,0,0,165,191.10,22.05,122.57,-0.16,0.64,0.82
64.28125,2.780307,0.45555678,1.5892634,-0.11,0.71,0.74,24403,9425.40,0,0,0,194.32,31.64,111.79,-0.11,0.71,0.74
64.28125,2.8803072,0.5095568,1.7132635,-0.03,0.79,0.66,24418,9425.40,0,0,165,201.32,35.42,120.47,-0.03,0.79,0.66
63.28125,3.1413069,0.4805568,2.1662633,-0.02,0.8,0.64,24426,9424.40,0,0,0,219.59,33.39,152.18,-0.02,0.80,0.64
63.28125,3.0803072,0.5495568,2.3982635,-0.16,0.75,0.73,24441,9424.40,0,0,165,215.32,38.22,168.42,-0.16,0.75,0.73
62.98047,2.824307,0.7735568,2.0552635,-0.16,0.78,0.78,24456,9424.10,0,0,0,197.40,53.90,144.41,-0.16,0.78,0.78
63.28125,2.757307,0.8245568,1.4492635,-0.09,0.8,0.72,24462,9424.40,0,0,165,192.71,57.47,101.99,-0.09,0.80,0.72
63.28125,2.711307,0.6735568,0.5582634,-0.03,0.72,0.68,24478,9424.40,0,0,0,189.49,46.90,39.62,-0.03,0.72,0.68
64.28125,2.548307,0.6035568,0.7722634,0.0,0.7,0.68,24493,9425.40,0,0,165,178.08,42.00,54.60,0.00,0.70,0.68
62.38086,2.021307,0.6835568,1.6372634,0.03,0.71,0.61,24500,9423.50,0,0,0,141.19,47.60,115.15,0.03,0.71,0.61
63.28125,1.5353072,0.65955675,1.8502634,0.04,0.81,0.51,24515,9424.40,0,0,165,107.17,45.92,130.06,0.04,0.81,0.51
63.28125,1.3333071,0.5085568,1.3302635,0.06,0.84,0.49,24530,9424.40,0,0,0,93.03,35.35,93.66,0.06,0.84,0.49
63.28125,1.1783072,0.44855678,0.92226344,0.03,0.78,0.5,24537,9424.40,0,0,165,82.18,31.15,65.10,0.03,0.78,0.50
62.38086,1.1213071,0.4085568,0.71426344,0.07,0.77,0.49,24553,9423.50,0,0,0,78.19,28.35,50.54,0.07,0.77,0.49
63.28125,1.1803071,0.4215568,0.78426343,0.07,0.78,0.45,24590,9424.40,0,0,165,82.32,29.26,55.44,0.07,0.78,0.45
62.38086,1.3183072,0.4335568,0.8592634,0.07,0.77,0.41,24591,9423.50,0,0,0,91.98,30.10,60.69,0.07,0.77,0.41
62.38086,1.4923072,0.41855678,0.9212634,0.08,0.78,0.39,24593,9423.50,0,0,165,104.16,29.05,65.03,0.08,0.78,0.39
61.38086,1.5243071,0.3785568,0.8362635,0.1,0.86,0.41,24606,9422.50,0,0,0,106.40,26.25,59.08,0.10,0.86,0.41
62.38086,1.3163071,0.3265568,0.6322634,0.08,0.86,0.44,24613,9423.50,0,0,165,91.84,22.61,44.80,0.08,0.86,0.44
62.680664,1.0213072,0.28855678,0.35526344,0.09,0.84,0.46,24628,9423.80,0,0,0,71.19,19.95,25.41,0.09,0.84,0.46
61.38086,0.70630705,0.23455681,0.24426346,0.1,0.86,0.47,24643,9422.50,0,0,165,49.14,16.17,17.64,0.10,0.86,0.47
62.38086,0.5283071,0.1735568,0.27726343,0.1,0.89,0.44,24650,9423.50,0,0,0,36.68,11.90,19.95,0.10,0.89,0.44
61.38086,0.45130715,0.1515568,0.28726342,0.09,0.85,0.37,24665,9422.50,0,0,165,31.29,10.36,20.65,0.09,0.85,0.37
62.680664,0.5653071,0.14655681,0.29626346,0.08,0.86,0.34,24680,9423.80,0,0,0,39.27,10.01,21.28,0.08,0.86,0.34
61.680664,0.7543071,0.1145568,0.21626346,0.19,0.89,0.43,24688,9422.80,0,0,165,52.50,7.77,15.68,0.19,0.89,0.43
61.38086,1.4313072,-0.43244323,-0.9537366,0.05,1.03,0.38,24702,9422.50,0,0,0,99.89,-30.52,-66.22,0.05,1.03,0.38
61.680664,1.7143071,-0.33844322,-1.0697365,-0.08,0.93,0.39,24717,9422.80,0,0,165,119.70,-23.94,-74.34,-0.08,0.93,0.39
60.78125,1.3453072,-0.25644323,-0.91973656,-0.07,0.83,0.51,24725,9421.90,0,0,0,93.87,-18.20,-63.84,-0.07,0.83,0.51
60.78125,0.4173071,-0.16044319,-0.38373655,-0.05,0.93,0.48,24740,9421.90,0,0,165,28.91,-11.48,-26.32,-0.05,0.93,0.48
60.48047,-0.10469289,-0.13844319,-0.14973654,0.0,1.04,0.31,24754,9421.60,0,0,0,-7.63,-9.94,-9.94,0.00,1.04,0.31
60.78125,-0.19469288,-0.2164432,-0.13473655,0.02,1.06,0.2,24762,9421.90,0,0,165,-13.93,-15.40,-8.89,0.02,1.06,0.20
60.78125,-0.2626929,-0.1804432,0.0062634456,0.06,1.04,0.1,24786,9421.90,0,0,0,-18.69,-12.88,0.98,0.06,1.04,0.10
60.78125,-0.17469287,-0.1904432,0.16026345,0.06,1.02,0.1,24793,9421.90,0,0,165,-12.53,-13.58,11.76,0.06,1.02,0.10
60.78125,-1.2796928,-0.23844321,-0.17073655,-0.24,0.13,0.45,24801,9421.90,0,0,0,-89.88,-16.94,-11.41,-0.24,0.13,0.45
59.78125,-2.2446928,0.43055677,1.5072634,0.08,1.43,0.2,24814,9420.90,0,0,165,-157.43,29.89,106.05,0.08,1.43,0.20
60.78125,-0.5056929,0.2855568,0.58826345,-0.04,1.42,0.09,24830,9421.90,0,0,0,-35.70,19.74,41.72,-0.04,1.42,0.09
59.78125,0.38630712,0.27255678,0.06726345,0.08,0.83,0.23,24838,9420.90,0,0,165,26.74,18.83,5.25,0.08,0.83,0.23
61.680664,-0.25469285,0.2995568,0.59226346,0.14,0.7,0.19,24852,9422.80,0,0,0,-18.13,20.72,42.00,0.14,0.70,0.19
60.78125,-0.27669287,0.1935568,1.0452634,0.11,0.91,0.12,24876,9421.90,0,0,165,-19.67,13.30,73.71,0.11,0.91,0.12
60.78125,0.057307113,0.1275568,0.75026345,0.1,0.94,0.14,24877,9421.90,0,0,0,3.71,8.68,53.06,0.10,0.94,0.14
59.78125,0.17830713,0.036556795,0.53826344,0.16,0.86,0.11,24890,9420.90,0,0,165,12.18,2.31,38.22,0.16,0.86,0.11
60.78125,0.055307113,-0.020443203,0.49026343,0.17,0.87,0.06,24905,9421.90,0,0,0,3.57,-1.68,34.86,0.17,0.87,0.06
59.78125,0.07330711,-0.1354432,0.5172634,0.15,0.95,0.11,24912,9420.90,0,0,165,4.83,-9.73,36.75,0.15,0.95,0.11
60.081055,0.2993071,-0.2614432,0.46326345,0.08,0.96,0.18,24928,9421.20,0,0,0,20.65,-18.55,32.97,0.08,0.96,0.18
59.78125,0.34430712,-0.3584432,0.34826344,0.09,0.9,0.22,24942,9420.90,0,0,165,23.80,-25.34,24.92,0.09,0.90,0.22
58.88086,0.18230712,-0.44044322,0.0042634443,0.11,0.91,0.18,24958,9420.00,0,0,0,12.46,-31.08,0.84,0.11,0.91,0.18
59.78125,-0.054692887,-0.36844322,0.21826345,0.1,0.94,0.1,24964,9420.90,0,0,165,-4.13,-26.04,15.82,0.10,0.94,0.10
58.88086,-0.10469289,-0.14744319,0.10426345,0.03,0.94,0.11,24980,9420.00,0,0,0,-7.63,-10.57,7.84,0.03,0.94,0.11
59.78125,-0.021692887,0.2785568,-0.11473655,0.12,1.08,-0.12,24987,9420.90,0,0,165,-1.82,19.25,-7.49,0.12,1.08,-0.12
58.88086,0.89030707,0.19055681,-0.3297366,0.26,0.86,-0.13,25002,9420.00,0,0,0,62.02,13.09,-22.54,0.26,0.86,-0.13
58.88086,1.0733072,0.1695568,0.20026346,0.12,0.81,0.04,25017,9420.00,0,0,165,74.83,11.62,14.56,0.12,0.81,0.04
59.180664,0.95530707,0.2005568,0.41526344,0.06,0.85,0.16,25026,9420.30,0,0,0,66.57,13.79,29.61,0.06,0.85,0.16
59.180664,0.42230713,0.2425568,0.38626343,0.06,0.95,0.14,25040,9420.30,0,0,165,29.26,16.73,27.58,0.06,0.95,0.14
59.180664,0.6013071,0.4295568,0.16326346,0.12,1.46,0.08,25056,9420.30,0,0,0,41.79,29.82,11.97,0.12,1.46,0.08
59.180664,0.8333071,0.1245568,-0.53673655,0.16,0.84,0.14,25063,9420.30,0,0,165,58.03,8.47,-37.03,0.16,0.84,0.14
59.78125,-0.026692886,0.073556796,-0.35673657,0.08,0.8,0.2,25077,9420.90,0,0,0,-2.17,4.90,-24.43,0.08,0.80,0.20
59.180664,-0.3996929,0.17755681,-0.34773657,0.09,1.03,0.18,25093,9420.30,0,0,165,-28.28,12.18,-23.80,0.09,1.03,0.18
59.180664,-0.4276929,0.2235568,-0.47073656,0.12,0.99,0.16,25100,9420.30,0,0,0,-30.24,15.40,-32.41,0.12,0.99,0.16
59.180664,-0.5316929,0.2205568,-0.42073655,0.16,1.03,0.13,25115,9420.30,0,0,165,-37.52,15.19,-28.91,0.16,1.03,0.13
58.180664,-0.3806929,0.20555681,-0.47973657,0.18,1.05,0.08,25130,9419.30,0,0,0,-26.95,14.14,-33.04,0.18,1.05,0.08
58.180664,-0.21269287,0.2305568,-0.35073656,0.18,1.03,0.06,25137,9419.30,0,0,165,-15.19,15.89,-24.01,0.18,1.03,0.06
58.180664,0.13730712,0.19955681,-0.23773655,0.19,1.03,0.07,25153,9419.30,0,0,0,9.31,13.72,-16.10,0.19,1.03,0.07
59.180664,0.3693071,0.1255568,-0.15273654,0.17,1.03,0.13,25167,9420.30,0,0,165,25.55,8.54,-10.15,0.17,1.03,0.13
58.180664,0.5263071,0.017556796,-0.07273656,0.13,1.07,0.19,25175,9419.30,0,0,0,36.54,0.98,-4.55,0.13,1.07,0.19
58.180664,0.37830713,-0.062443204,-0.16473654,0.12,1.06,0.22,25190,9419.30,0,0,165,26.18,-4.62,-10.99,0.12,1.06,0.22
58.48047,0.13230713,-0.16944319,-0.21973655,0.12,1.06,0.18,25206,9419.60,0,0,0,8.96,-12.11,-14.84,0.12,1.06,0.18
57.28125,-0.10769289,-0.2534432,-0.32073656,0.18,1.09,0.11,25213,9418.40,0,0,165,-7.84,-17.99,-21.91,0.18,1.09,0.11
58.180664,-0.31569287,-0.26344323,-0.36373657,0.18,1.1,0.01,25227,9419.30,0,0,0,-22.40,-18.69,-24.92,0.18,1.10,0.01
57.28125,-0.22369288,-0.1154432,1.0302635,0.11,1.17,0.04,25243,9418.40,0,0,165,-15.96,-8.33,72.66,0.11,1.17,0.04
57.28125,0.37830713,0.091556795,0.88126343,0.25,1.05,-0.15,25250,9418.40,0,0,0,26.18,6.16,62.23,0.25,1.05,-0.15
57.28125,0.6143071,-0.0444432,0.42926344,0.24,0.94,-0.11,25265,9418.40,0,0,165,42.70,-3.36,30.59,0.24,0.94,-0.11
57.28125,0.4723071,0.0645568,0.6982634,0.21,1.09,-0.01,25281,9418.40,0,0,0,32.76,4.27,49.42,0.21,1.09,-0.01
57.581055,0.6253071,0.043556795,1.0852635,0.2,1.11,0.07,25287,9418.70,0,0,165,43.47,2.80,76.51,0.20,1.11,0.07
57.581055,0.5593071,-0.037443202,1.0202634,0.22,1.01,0.12,25303,9418.70,0,0,0,38.85,-2.87,71.96,0.22,1.01,0.12
57.28125,0.041307114,-0.053443205,0.62926346,0.19,0.94,0.12,25317,9418.40,0,0,165,2.59,-3.99,44.59,0.19,0.94,0.12
57.28125,-0.28369287,-0.1034432,0.20226344,0.24,0.94,0.1,25326,9418.40,0,0,0,-20.16,-7.49,14.70,0.24,0.94,0.10
56.581055,-0.6306929,-0.107443206,-0.17473654,0.22,0.93,0.0,25340,9417.70,0,0,165,-44.45,-7.77,-11.69,0.22,0.93,0.00
57.28125,-0.69169295,-0.17744319,-0.46373656,0.27,0.99,-0.12,25355,9418.40,0,0,0,-48.72,-12.67,-31.92,0.27,0.99,-0.12
56.581055,-0.40569288,-0.1434432,-0.26373658,0.23,1.05,-0.15,25363,9417.70,0,0,165,-28.70,-10.29,-17.92,0.23,1.05,-0.15
57.28125,0.11130711,-0.035443205,0.12426344,0.23,1.14,-0.14,25377,9418.40,0,0,0,7.49,-2.73,9.24,0.23,1.14,-0.14
56.581055,0.41830713,0.016556796,0.43526343,0.22,1.1,-0.07,25392,9417.70,0,0,165,28.98,0.91,31.01,0.22,1.10,-0.07
57.581055,0.5033071,-0.22844319,-0.044736557,0.1,1.08,0.19,25399,9418.70,0,0,0,34.93,-16.24,-2.59,0.10,1.08,0.19
56.28125,0.4473071,-0.06144321,-0.08673656,0.16,0.94,0.05,25415,9417.40,0,0,165,31.01,-4.55,-5.53,0.16,0.94,0.05
56.581055,-0.15669289,0.018556796,-0.20873654,0.18,0.86,-0.02,25430,9417.70,0,0,0,-11.27,1.05,-14.07,0.18,0.86,-0.02
56.581055,-0.72769296,-0.049443204,-0.6587366,0.13,0.84,0.01,25438,9417.70,0,0,165,-51.24,-3.71,-45.57,0.13,0.84,0.01
55.680664,-0.6976929,-0.1804432,-0.7417366,0.23,0.85,0.24,25461,9416.80,0,0,0,-49.14,-12.88,-51.38,0.23,0.85,0.24
55.680664,-0.7106929,-0.2464432,-0.016736554,0.16,1.19,0.0,25467,9416.80,0,0,165,-50.05,-17.50,-0.63,0.16,1.19,0.00
55.680664,-0.22069287,-0.0694432,-0.39673656,0.09,1.07,-0.07,25475,9416.80,0,0,0,-15.75,-5.11,-27.23,0.09,1.07,-0.07
56.581055,-0.083692886,0.08655679,-0.45773655,0.17,0.98,-0.06,25491,9417.70,0,0,165,-6.16,5.81,-31.50,0.17,0.98,-0.06
56.581055,-0.08869289,0.17755681,-0.020736555,0.13,1.0,-0.02,25506,9417.70,0,0,0,-6.51,12.18,-0.91,0.13,1.00,-0.02
55.680664,0.13930711,0.1595568,0.21126345,0.09,1.06,0.05,25512,9416.80,0,0,165,9.45,10.92,15.33,0.09,1.06,0.05
54.680664,0.33430713,0.14055681,0.24526344,0.06,1.06,0.15,25528,9415.80,0,0,0,23.10,9.59,17.71,0.06,1.06,0.15
56.581055,0.33430713,0.109556794,0.24426346,0.06,1.02,0.2,25542,9417.70,0,0,165,23.10,7.42,17.64,0.06,1.02,0.20
55.680664,0.18530712,0.043556795,0.24226345,0.06,1.01,0.21,25549,9416.80,0,0,0,12.67,2.80,17.50,0.06,1.01,0.21
54.680664,-0.015692886,0.036556795,0.14926344,0.06,1.02,0.18,25564,9415.80,0,0,165,-1.40,2.31,10.99,0.06,1.02,0.18
54.680664,-0.16669288,0.0645568,0.023263447,0.06,1.01,0.14,25580,9415.80,0,0,0,-11.97,4.27,2.17,0.06,1.01,0.14
54.680664,-0.24769288,0.08355679,0.038263444,0.08,1.02,0.08,25587,9415.80,0,0,165,-17.64,5.60,3.22,0.08,1.02,0.08
55.680664,-0.20969287,0.1295568,0.06326344,0.08,1.03,0.06,25603,9416.80,0,0,0,-14.98,8.82,4.97,0.08,1.03,0.06
54.680664,-0.08869289,0.1605568,0.12026345,0.09,1.05,0.06,25617,9415.80,0,0,165,-6.51,10.99,8.96,0.09,1.05,0.06
54.38086,-0.07469289,0.16855681,0.19426346,0.11,1.06,0.12,25625,9415.50,0,0,0,-5.53,11.55,14.14,0.11,1.06,0.12
54.680664,-0.036692884,0.1505568,0.22826345,0.1,1.05,0.11,25640,9415.80,0,0,165,-2.87,10.29,16.52,0.10,1.05,0.11
54.680664,0.07030711,0.14655681,0.18126345,0.09,0.97,0.08,25655,9415.80,0,0,0,4.62,10.01,13.23,0.09,0.97,0.08
53.78125,0.074307114,0.11655679,0.16626346,0.13,0.9,0.09,25662,9414.90,0,0,165,4.90,7.91,12.18,0.13,0.90,0.09
53.78125,-0.048692886,0.12055679,0.13226345,0.12,0.91,0.11,25677,9414.90,0,0,0,-3.71,8.19,9.80,0.12,0.91,0.11
53.78125,-0.08869289,0.1185568,0.11526344,0.16,0.92,0.07,25692,9414.90,0,0,165,-6.51,8.05,8.61,0.16,0.92,0.07
54.680664,0.2503071,0.08555679,0.077263445,0.17,0.91,0.04,25700,9415.80,0,0,0,17.22,5.74,5.95,0.17,0.91,0.04
53.78125,0.015307114,0.1035568,0.077263445,0.18,0.91,0.06,25716,9414.90,0,0,165,0.77,7.00,5.95,0.18,0.91,0.06
53.78125,-0.022692885,0.109556794,0.11326345,0.17,0.94,0.06,25730,9414.90,0,0,0,-1.89,7.42,8.47,0.17,0.94,0.06
54.680664,-0.05969289,0.1305568,0.073263444,0.18,0.98,0.08,25738,9415.80,0,0,165,-4.48,8.89,5.67,0.18,0.98,0.08
52.78125,-0.08969288,0.10855679,0.024263447,0.19,0.98,0.09,25753,9413.90,0,0,0,-6.58,7.35,2.24,0.19,0.98,0.09
54.081055,-0.079692885,0.069556795,0.06926344,0.19,0.98,0.08,25767,9415.20,0,0,165,-5.88,4.62,5.39,0.19,0.98,0.08
54.081055,-0.06369289,0.076556794,0.095263444,0.19,0.99,0.06,25775,9415.20,0,0,0,-4.76,5.11,7.21,0.19,0.99,0.06
52.78125,-0.072692886,0.1045568,0.081263445,0.2,1.0,0.07,25790,9413.90,0,0,165,-5.39,7.07,6.23,0.20,1.00,0.07
54.081055,-0.039692886,0.08355679,0.109263435,0.22,0.99,0.08,25806,9415.20,0,0,0,-3.08,5.60,8.19,0.22,0.99,0.08
53.78125,-0.013692885,0.0965568,0.13726345,0.21,0.99,0.05,25813,9414.90,0,0,165,-1.26,6.51,10.15,0.21,0.99,0.05
53.081055,-0.043692883,0.1655568,0.118263446,0.22,0.99,0.02,25828,9414.20,0,0,0,-3.36,11.34,8.82,0.22,0.99,0.02
52.78125,-0.031692885,0.2045568,0.14726345,0.22,1.0,0.04,25842,9413.90,0,0,165,-2.52,14.07,10.85,0.22,1.00,0.04
53.081055,0.06830712,0.23455681,0.22326346,0.2,1.01,0.07,25849,9414.20,0,0,0,4.48,16.17,16.17,0.20,1.01,0.07
54.081055,0.18230712,0.2015568,0.31026343,0.19,1.01,0.11,25865,9415.20,0,0,165,12.46,13.86,22.26,0.19,1.01,0.11
52.78125,0.16330712,0.1845568,0.32326344,0.18,1.02,0.14,25880,9413.90,0,0,0,11.13,12.67,23.17,0.18,1.02,0.14
52.180664,0.054307114,0.1815568,0.27426344,0.18,1.05,0.14,25887,9413.30,0,0,165,3.50,12.46,19.74,0.18,1.05,0.14
53.081055,-6.9288537E-4,0.1655568,0.19926345,0.18,1.06,0.13,25902,9414.20,0,0,0,-0.35,11.34,14.49,0.18,1.06,0.13
54.081055,0.028307114,0.1265568,0.16326346,0.17,1.02,0.1,25918,9415.20,0,0,165,1.68,8.61,11.97,0.17,1.02,0.10
53.081055,0.061307114,0.1015568,0.21026346,0.18,0.99,0.08,25926,9414.20,0,0,0,3.99,6.86,15.26,0.18,0.99,0.08
52.78125,0.115307115,0.102556795,0.30026343,0.17,1.0,0.05,25940,9413.90,0,0,165,7.77,6.93,21.56,0.17,1.00,0.05
52.180664,0.17030711,0.1525568,0.37226343,0.18,1.0,0.03,25954,9413.30,0,0,0,11.62,10.43,26.60,0.18,1.00,0.03
52.180664,0.22630712,0.2015568,0.35926345,0.16,0.97,0.06,25962,9413.30,0,0,165,15.54,13.86,25.69,0.16,0.97,0.06
52.180664,0.16330712,0.2745568,0.21826345,0.12,0.92,0.13,25977,9413.30,0,0,0,11.13,18.97,15.82,0.12,0.92,0.13
52.180664,0.09230711,0.3155568,0.16226345,0.13,0.89,0.15,25992,9413.30,0,0,165,6.16,21.84,11.90,0.13,0.89,0.15
52.180664,0.10030711,0.27955678,0.16126345,0.17,0.89,0.11,26000,9413.30,0,0,0,6.72,19.32,11.83,0.17,0.89,0.11
51.180664,0.089307114,0.21455681,0.14626345,0.2,0.91,0.08,26015,9412.30,0,0,165,5.95,14.77,10.78,0.20,0.91,0.08
52.180664,0.04530711,0.2005568,0.06926344,0.21,0.93,0.08,26030,9413.30,0,0,0,2.87,13.79,5.39,0.21,0.93,0.08
52.180664,-0.011692886,0.2185568,0.0012634448,0.21,0.92,0.1,26038,9413.30,0,0,165,-1.12,15.05,0.63,0.21,0.92,0.10
51.180664,-0.13169289,0.2595568,-0.069736555,0.2,0.91,0.12,26068,9412.30,0,0,0,-9.52,17.92,-4.34,0.20,0.91,0.12
52.180664,-0.21969289,0.29355678,-0.076736555,0.22,0.91,0.13,26069,9413.30,0,0,165,-15.68,20.30,-4.83,0.22,0.91,0.13
51.180664,-0.17969288,0.3075568,-0.054736555,0.22,0.91,0.11,26076,9412.30,0,0,0,-12.88,21.28,-3.29,0.22,0.91,0.11
51.180664,-0.045692887,0.29155678,-0.029736554,0.23,0.87,0.11,26090,9412.30,0,0,165,-3.50,20.16,-1.54,0.23,0.87,0.11
51.180664,0.067307115,0.2465568,0.047263443,0.22,0.87,0.15,26106,9412.30,0,0,0,4.41,17.01,3.85,0.22,0.87,0.15
51.180664,0.054307114,0.23455681,0.052263442,0.2,0.88,0.17,26143,9412.30,0,0,165,3.50,16.17,4.20,0.20,0.88,0.17
51.180664,-0.049692888,0.2635568,-0.08673656,0.21,0.89,0.18,26144,9412.30,0,0,0,-3.78,18.20,-5.53,0.21,0.89,0.18
50.28125,-0.14569288,0.2705568,-0.17873655,0.22,0.89,0.17,26146,9411.40,0,0,165,-10.50,18.69,-11.97,0.22,0.89,0.17
51.180664,-0.19369288,0.26855677,-0.17673655,0.23,0.91,0.16,26158,9412.30,0,0,0,-13.86,18.55,-11.83,0.23,0.91,0.16
51.180664,-0.19769289,0.26555678,-0.10473656,0.24,0.93,0.15,26165,9412.30,0,0,165,-14.14,18.34,-6.79,0.24,0.93,0.15
51.180664,-0.19269288,0.2695568,-0.084736556,0.24,0.96,0.16,26173,9412.30,0,0,0,-13.79,18.62,-5.39,0.24,0.96,0.16
51.180664,-0.18569288,0.3015568,-0.076736555,0.23,0.98,0.19,26188,9412.30,0,0,165,-13.30,20.86,-4.83,0.23,0.98,0.19
51.180664,-0.15369289,0.33255678,-0.09473656,0.22,0.98,0.2,26203,9412.30,0,0,0,-11.06,23.03,-6.09,0.22,0.98,0.20
50.28125,-0.055692885,0.3385568,-0.10173655,0.2,0.99,0.21,26225,9411.40,0,0,165,-4.20,23.45,-6.58,0.20,0.99,0.21
50.581055,0.0023071144,0.3635568,-0.07273656,0.18,1.04,0.24,26226,9411.70,0,0,0,-0.14,25.20,-4.55,0.18,1.04,0.24
50.28125,0.061307114,0.36155677,-0.047736555,0.17,1.07,0.25,26240,9411.40,0,0,165,3.99,25.06,-2.80,0.17,1.07,0.25
50.28125,0.119307116,0.31755677,-0.047736555,0.16,1.08,0.28,26248,9411.40,0,0,0,8.05,21.98,-2.80,0.16,1.08,0.28
50.28125,0.054307114,0.2895568,-0.0147365555,0.17,1.09,0.28,26270,9411.40,0,0,165,3.50,20.02,-0.49,0.17,1.09,0.28
50.581055,-0.048692886,0.26255676,-0.025736554,0.18,1.07,0.28,26278,9411.70,0,0,0,-3.71,18.13,-1.26,0.18,1.07,0.28
50.28125,-0.07769288,0.2225568,-0.08373656,0.17,1.01,0.3,26293,9411.40,0,0,165,-5.74,15.33,-5.32,0.17,1.01,0.30
49.28125,-0.12169289,0.2185568,-0.14573655,0.18,0.93,0.3,26300,9410.40,0,0,0,-8.82,15.05,-9.66,0.18,0.93,0.30
50.28125,-0.15469287,0.1855568,-0.12773655,0.23,0.88,0.27,26314,9411.40,0,0,165,-11.13,12.74,-8.40,0.23,0.88,0.27
50.28125,-0.058692887,0.091556795,-0.073736556,0.25,0.87,0.23,26323,9411.40,0,0,0,-4.41,6.16,-4.62,0.25,0.87,0.23
50.28125,0.121307105,0.037556797,-0.07973655,0.25,0.85,0.21,26337,9411.40,0,0,165,8.19,2.38,-5.04,0.25,0.85,0.21
49.581055,0.30830714,-0.036443204,0.0052634454,0.28,0.83,0.2,26353,9410.70,0,0,0,21.28,-2.80,0.91,0.28,0.83,0.20
49.581055,0.37730712,-0.088443205,0.024263447,0.26,0.84,0.21,26360,9410.70,0,0,165,26.11,-6.44,2.24,0.26,0.84,0.21
48.680664,0.35230714,-0.066443205,-0.043736555,0.23,0.87,0.21,26375,9409.80,0,0,0,24.36,-4.90,-2.52,0.23,0.87,0.21
49.28125,0.26430714,-0.029443204,-0.08573656,0.24,0.93,0.19,26383,9410.40,0,0,165,18.20,-2.31,-5.46,0.24,0.93,0.19
49.28125,0.16530713,0.028556796,-0.09673656,0.23,1.0,0.16,26398,9410.40,0,0,0,11.27,1.75,-6.23,0.23,1.00,0.16
50.28125,0.16830711,0.0645568,-0.12273656,0.2,1.04,0.16,26413,9411.40,0,0,165,11.48,4.27,-8.05,0.20,1.04,0.16
49.581055,0.115307115,0.1245568,-0.08173656,0.16,1.1,0.23,26420,9410.70,0,0,0,7.77,8.47,-5.18,0.16,1.10,0.23
48.38086,0.07030711,0.1895568,-0.021736555,0.15,1.14,0.27,26435,9409.50,0,0,165,4.62,13.02,-0.98,0.15,1.14,0.27
48.38086,0.15330712,0.1875568,-0.002736555,0.17,1.1,0.23,26450,9409.50,0,0,0,10.43,12.88,0.35,0.17,1.10,0.23
49.581055,0.22330712,0.1895568,0.010263445,0.19,1.02,0.21,26458,9410.70,0,0,165,15.33,13.02,1.26,0.19,1.02,0.21
48.38086,0.22930712,0.1915568,0.08326344,0.2,0.95,0.19,26472,9409.50,0,0,0,15.75,13.16,6.37,0.20,0.95,0.19
49.28125,0.20730712,0.2025568,0.14026345,0.21,0.92,0.18,26488,9410.40,0,0,165,14.21,13.93,10.36,0.21,0.92,0.18
49.581055,0.14730713,0.2095568,0.12626345,0.23,0.9,0.18,26495,9410.70,0,0,0,10.01,14.42,9.38,0.23,0.90,0.18
49.28125,0.048307113,0.2225568,0.07526344,0.23,0.85,0.17,26510,9410.40,0,0,165,3.08,15.33,5.81,0.23,0.85,0.17
48.680664,-0.023692887,0.2255568,0.044263445,0.24,0.81,0.16,26525,9409.80,0,0,0,-1.96,15.54,3.64,0.24,0.81,0.16
48.680664,-0.07069289,0.2205568,0.084263444,0.23,0.82,0.16,26533,9409.80,0,0,165,-5.25,15.19,6.44,0.23,0.82,0.16
48.680664,-0.13169289,0.2505568,0.12426344,0.24,0.86,0.19,26548,9409.80,0,0,0,-9.52,17.29,9.24,0.24,0.86,0.19
48.680664,-0.108692884,0.5135568,0.13026345,0.24,0.88,0.19,26562,9409.80,0,0,165,-7.91,35.70,9.66,0.24,0.88,0.19
48.680664,-0.054692887,0.2855568,0.109263435,0.24,0.86,0.19,26571,9409.80,0,0,0,-4.13,19.74,8.19,0.24,0.86,0.19
49.581055,0.0023071144,0.3085568,0.07826345,0.23,0.84,0.21,26586,9410.70,0,0,165,-0.14,21.35,6.02,0.23,0.84,0.21
48.38086,-0.048692886,0.36155677,0.039263442,0.23,0.86,0.22,26600,9409.50,0,0,0,-3.71,25.06,3.29,0.23,0.86,0.22
48.680664,-0.11669289,0.38355678,-0.039736558,0.23,0.89,0.23,26607,9409.80,0,0,165,-8.47,26.60,-2.24,0.23,0.89,0.23
49.581055,-0.14369288,0.3455568,-0.11173656,0.22,0.92,0.26,26622,9410.70,0,0,0,-10.36,23.94,-7.28,0.22,0.92,0.26
48.38086,-0.16169287,0.3005568,-0.09473656,0.21,0.96,0.28,26639,9409.50,0,0,165,-11.62,20.79,-6.09,0.21,0.96,0.28
47.680664,-0.23469287,0.2825568,-0.10773656,0.19,1.02,0.29,26646,9408.80,0,0,0,-16.73,19.53,-7.00,0.19,1.02,0.29
47.680664,-0.26069286,0.2715568,-0.08173656,0.2,1.1,0.29,26660,9408.80,0,0,165,-18.55,18.76,-5.18,0.20,1.10,0.29
47.680664,-0.15869288,0.2605568,-0.012736555,0.2,1.11,0.27,26675,9408.80,0,0,0,-11.41,17.99,-0.35,0.20,1.11,0.27
48.680664,0.0033071144,0.19755681,0.050263442,0.2,1.08,0.29,26682,9409.80,0,0,165,-0.07,13.58,4.06,0.20,1.08,0.29
47.680664,0.09230711,0.1695568,0.070263445,0.18,1.04,0.31,26697,9408.80,0,0,0,6.16,11.62,5.46,0.18,1.04,0.31
47.680664,0.08830711,0.1435568,0.07126345,0.19,1.01,0.31,26712,9408.80,0,0,165,5.88,9.80,5.53,0.19,1.01,0.31
