Pressure_Rel,GyroX_Rel,GyroY_Rel,GyroZ_Rel,AccX_Rel,AccY_Rel,AccZ_Rel,Timestamp,Pressure_abs,HeartRate,Oxygen,Status,GyroX,GyroY,GyroZ,AccX,AccY,AccZ
0.0,0.0,0.0,0.0,0.0,0.0,0.0,2192,10110.30,0,0,0,-17.15,-39.97,-69.16,0.19,0.92,0.32
0.0,0.0,0.0,0.0,0.0,0.0,0.0,2206,10108.00,0,0,0,109.41,-150.29,-328.44,0.19,0.93,0.33
0.0,0.0,0.0,0.0,0.0,0.0,0.0,2214,10109.90,0,0,165,30.38,-74.69,-28.98,0.19,0.93,0.33
0.0,0.0,0.0,0.0,0.0,0.0,0.0,2229,10110.30,0,0,0,-0.28,-0.56,0.56,0.19,0.93,0.33
0.0,0.0,0.0,0.0,0.0,0.0,0.0,2243,10110.30,0,0,165,-0.49,-0.49,0.56,0.19,0.92,0.33
0.0,0.0,0.0,0.0,0.0,0.0,0.0,2252,10110.30,0,0,0,-0.84,-0.49,0.77,0.19,0.92,0.33
0.0,0.0,0.0,0.0,0.0,0.0,0.0,2265,10110.30,0,0,165,-0.98,-0.49,0.70,0.19,0.92,0.33
0.0,0.0,0.0,0.0,0.0,0.0,0.0,2281,10110.30,0,0,0,-1.05,-0.56,0.63,0.19,0.92,0.33
0.0,0.0,0.0,0.0,0.0,0.0,0.0,2288,10109.30,0,0,165,-0.84,-0.56,0.56,0.19,0.92,0.33
0.0,0.0,0.0,0.0,0.0,0.0,0.0,2303,10110.30,0,0,0,-0.77,-0.63,0.63,0.19,0.92,0.33
0.0,0.0,0.0,0.0,0.0,0.0,0.0,2319,10109.30,0,0,165,-0.84,-0.84,0.63,0.19,0.92,0.33
0.0,0.0,0.0,0.0,0.0,0.0,0.0,2326,10110.30,0,0,0,-0.98,-0.84,1.05,0.19,0.92,0.33
0.0,0.0,0.0,0.0,0.0,0.0,0.0,2341,10109.30,0,0,165,-1.19,-0.63,1.47,0.19,0.92,0.34
0.0,0.0,0.0,0.0,0.0,0.0,0.0,2356,10110.30,0,0,0,-1.26,-0.21,1.47,0.19,0.92,0.34
0.0,0.0,0.0,0.0,0.0,0.0,0.0,2363,10110.30,0,0,165,-1.19,0.21,1.40,0.18,0.93,0.34
0.0,0.0,0.0,0.0,0.0,0.0,0.0,2378,10110.30,0,0,0,-0.91,0.63,1.05,0.18,0.93,0.34
0.0,0.0,0.0,0.0,0.0,0.0,0.0,2394,10110.30,0,0,165,-0.63,0.70,0.70,0.19,0.93,0.34
0.0,0.0,0.0,0.0,0.0,0.0,0.0,2400,10110.30,0,0,0,-0.56,0.56,0.63,0.19,0.92,0.34
0.0,0.0,0.0,0.0,0.0,0.0,0.0,2415,10111.20,0,0,165,-0.70,0.14,0.56,0.19,0.92,0.34
0.0,0.0,0.0,0.0,0.0,0.0,0.0,2431,10110.60,0,0,0,-0.49,-0.14,0.70,0.19,0.92,0.34
0.0,0.0,0.0,0.0,0.0,0.0,0.0,2439,10110.60,0,0,165,-0.42,-0.21,0.98,0.19,0.93,0.34
0.0,0.0,0.0,0.0,0.0,0.0,0.0,2453,10110.60,0,0,0,-0.07,-0.28,0.84,0.18,0.93,0.34
0.0,0.0,0.0,0.0,0.0,0.0,0.0,2468,10111.60,0,0,165,0.49,-0.21,0.56,0.19,0.93,0.34
0.0,0.0,0.0,0.0,0.0,0.0,0.0,2475,10111.60,0,0,0,0.77,-0.14,0.56,0.19,0.93,0.34
0.0,0.0,0.0,0.0,0.0,0.0,0.0,2491,10110.60,0,0,165,1.12,-0.42,0.56,0.20,0.93,0.34
0.0,0.0,0.0,0.0,0.0,0.0,0.0,2506,10109.70,0,0,0,1.40,-0.70,0.49,0.19,0.93,0.33
0.0,0.0,0.0,0.0,0.0,0.0,0.0,2512,10111.60,0,0,165,1.40,-1.05,0.49,0.19,0.93,0.33
0.0,0.0,0.0,0.0,0.0,0.0,0.0,2528,10110.60,0,0,0,1.40,-1.26,0.35,0.19,0.93,0.33
0.0,0.0,0.0,0.0,0.0,0.0,0.0,2542,10111.60,0,0,165,1.26,-1.47,0.35,0.19,0.92,0.34
0.0,0.0,0.0,0.0,0.0,0.0,0.0,2550,10111.90,0,0,0,1.26,-1.61,0.28,0.19,0.92,0.34
0.0,0.0,0.0,0.0,0.0,0.0,0.0,2567,10111.60,0,0,165,1.19,-1.54,0.14,0.19,0.92,0.34
0.0,0.0,0.0,0.0,0.0,0.0,0.0,2581,10110.90,0,0,0,1.12,-1.40,0.28,0.19,0.92,0.34
0.0,0.0,0.0,0.0,0.0,0.0,0.0,2595,10110.90,0,0,165,1.05,-1.12,0.42,0.19,0.92,0.34
0.0,0.0,0.0,0.0,0.0,0.0,0.0,2604,10111.90,0,0,0,1.05,-0.98,0.35,0.19,0.92,0.33
0.0,0.0,0.0,0.0,0.0,0.0,0.0,2611,10110.90,0,0,165,1.12,-0.98,0.21,0.19,0.93,0.33
0.0,0.0,0.0,0.0,0.0,0.0,0.0,2625,10110.90,0,0,0,1.12,-1.05,0.14,0.19,0.93,0.34
0.0,0.0,0.0,0.0,0.0,0.0,0.0,2641,10111.90,0,0,165,1.12,-1.12,0.28,0.19,0.92,0.33
0.0,0.0,0.0,0.0,0.0,0.0,0.0,2649,10110.60,0,0,0,1.26,-1.26,0.56,0.19,0.92,0.33
0.0,0.0,0.0,0.0,0.0,0.0,0.0,2663,10110.90,0,0,165,1.26,-1.40,0.63,0.19,0.93,0.33
0.0,0.0,0.0,0.0,0.0,0.0,0.0,2678,10111.90,0,0,0,1.26,-1.40,0.70,0.19,0.93,0.33
0.0,0.0,0.0,0.0,0.0,0.0,0.0,2685,10110.90,0,0,165,1.33,-1.54,0.91,0.19,0.93,0.33
0.0,0.0,0.0,0.0,0.0,0.0,0.0,2700,10110.90,0,0,0,1.54,-1.54,0.84,0.19,0.93,0.33
0.0,0.0,0.0,0.0,0.0,0.0,0.0,2714,10111.90,0,0,165,1.47,-1.54,0.84,0.19,0.93,0.33
0.0,0.0,0.0,0.0,0.0,0.0,0.0,2722,10111.90,0,0,0,1.61,-1.82,0.91,0.19,0.93,0.33
0.0,0.0,0.0,0.0,0.0,0.0,0.0,2738,10110.90,0,0,165,1.61,-1.96,0.77,0.19,0.93,0.33
0.0,0.0,0.0,0.0,0.0,0.0,0.0,2752,10110.90,0,0,0,1.68,-2.03,0.70,0.19,0.93,0.33
0.0,0.0,0.0,0.0,0.0,0.0,0.0,2761,10111.90,0,0,165,1.75,-2.17,0.63,0.19,0.93,0.33
0.0,0.0,0.0,0.0,0.0,0.0,0.0,2775,10111.90,0,0,0,1.82,-2.03,0.21,0.19,0.93,0.33
0.0,0.0,0.0,0.0,0.0,0.0,0.0,2791,10111.90,0,0,165,1.75,-1.96,0.00,0.19,0.93,0.33
0.0,0.0,0.0,0.0,0.0,0.0,0.0,2798,10111.90,0,0,0,1.61,-1.96,-0.28,0.19,0.93,0.33
0.0,0.0,0.0,0.0,0.0,0.0,0.0,2813,10113.20,0,0,165,1.40,-1.89,-0.42,0.19,0.93,0.33
0.0,0.0,0.0,0.0,0.0,0.0,0.0,2828,10113.20,0,0,0,1.12,-1.68,-0.70,0.19,0.93,0.33
0.0,0.0,0.0,0.0,0.0,0.0,0.0,2836,10112.20,0,0,165,0.91,-1.47,-0.91,0.19,0.93,0.33
0.0,0.0,0.0,0.0,0.0,0.0,0.0,2850,10112.20,0,0,0,0.98,-1.05,-0.91,0.19,0.93,0.33
0.0,0.0,0.0,0.0,0.0,0.0,0.0,2866,10112.20,0,0,165,0.91,-0.63,-0.98,0.19,0.93,0.33
0.0,0.0,0.0,0.0,0.0,0.0,0.0,2873,10112.90,0,0,0,0.84,-0.35,-1.05,0.19,0.93,0.33
0.0,0.0,0.0,0.0,0.0,0.0,0.0,2888,10113.20,0,0,165,0.70,-0.28,-1.12,0.19,0.92,0.33
0.0,0.0,0.0,0.0,0.0,0.0,0.0,2903,10111.30,0,0,0,0.28,-0.42,-1.05,0.19,0.93,0.32
0.0,0.0,0.0,0.0,0.0,0.0,0.0,2911,10113.20,0,0,165,0.28,-0.56,-0.98,0.19,0.92,0.32
0.0,0.0,0.0,0.0,0.0,0.0,0.0,2926,10111.30,0,0,0,0.63,-0.77,-0.84,0.19,0.92,0.32
0.0,0.0,0.0,0.0,0.0,0.0,0.0,2941,10112.20,0,0,165,0.56,-0.98,-0.35,0.19,0.92,0.32
0.0,0.0,0.0,0.0,0.0,0.0,0.0,2947,10112.20,0,0,0,0.42,-1.33,0.00,0.19,0.92,0.32
0.0,0.0,0.0,0.0,0.0,0.0,0.0,2963,10112.20,0,0,165,0.28,-1.54,0.21,0.19,0.93,0.32
0.0,0.0,0.0,0.0,0.0,0.0,0.0,2978,10110.30,0,0,0,0.07,-1.68,0.28,0.18,0.92,0.33
0.0,0.0,0.0,0.0,0.0,0.0,0.0,2984,10112.20,0,0,165,-0.21,-1.54,0.14,0.19,0.93,0.32
0.0,0.0,0.0,0.0,0.0,0.0,0.0,3001,10112.20,0,0,0,-0.28,-1.40,0.00,0.18,0.93,0.32
0.0,0.0,0.0,0.0,0.0,0.0,0.0,3016,10113.20,0,0,165,-0.35,-1.26,0.28,0.19,0.93,0.32
0.0,0.0,0.0,0.0,0.0,0.0,0.0,3023,10113.50,0,0,0,-0.21,-1.33,0.28,0.19,0.93,0.32
0.0,0.0,0.0,0.0,0.0,0.0,0.0,3039,10113.20,0,0,165,-0.28,-1.54,0.28,0.19,0.93,0.32
0.0,0.0,0.0,0.0,0.0,0.0,0.0,3053,10112.60,0,0,0,-0.14,-1.89,0.28,0.19,0.93,0.32
0.0,0.0,0.0,0.0,0.0,0.0,0.0,3060,10113.20,0,0,165,-0.21,-2.31,0.42,0.19,0.92,0.32
0.0,0.0,0.0,0.0,0.0,0.0,0.0,3076,10112.20,0,0,0,-0.07,-2.66,0.49,0.19,0.92,0.32
0.0,0.0,0.0,0.0,0.0,0.0,0.0,3090,10113.50,0,0,165,0.14,-2.87,0.63,0.19,0.92,0.32
0.0,0.0,0.0,0.0,0.0,0.0,0.0,3105,10112.20,0,0,0,0.07,-2.94,0.77,0.19,0.93,0.32
0.0,0.0,0.0,0.0,0.0,0.0,0.0,3114,10113.50,0,0,165,-0.07,-3.01,0.84,0.19,0.93,0.32
0.0,0.0,0.0,0.0,0.0,0.0,0.0,3129,10112.20,0,0,0,-0.21,-3.08,0.98,0.19,0.92,0.32
0.0,0.0,0.0,0.0,0.0,0.0,0.0,3136,10113.50,0,0,165,-0.49,-3.15,0.98,0.19,0.92,0.32
0.0,0.0,0.0,0.0,0.0,0.0,0.0,3151,10112.20,0,0,0,-0.84,-3.29,1.19,0.19,0.92,0.32
0.0,0.0,0.0,0.0,0.0,0.0,0.0,3165,10114.50,0,0,165,-1.12,-3.22,1.40,0.19,0.92,0.32
0.0,0.0,0.0,0.0,0.0,0.0,0.0,3173,10113.50,0,0,0,-1.33,-3.01,1.47,0.19,0.93,0.32
0.0,0.0,0.0,0.0,0.0,0.0,0.0,3189,10113.50,0,0,165,-1.47,-2.87,1.54,0.19,0.93,0.32
0.0,0.0,0.0,0.0,0.0,0.0,0.0,3203,10113.50,0,0,0,-1.54,-2.52,1.75,0.19,0.93,0.33
0.0,0.0,0.0,0.0,0.0,0.0,0.0,3210,10113.50,0,0,165,-1.68,-2.17,1.89,0.19,0.93,0.33
0.0,0.0,0.0,0.0,0.0,0.0,0.0,3226,10112.60,0,0,0,-1.61,-1.75,1.61,0.19,0.93,0.33
0.0,0.0,0.0,0.0,0.0,0.0,0.0,3240,10114.50,0,0,165,-1.61,-1.47,1.40,0.19,0.93,0.33
0.0,0.0,0.0,0.0,0.0,0.0,0.0,3248,10113.50,0,0,0,-1.47,-1.19,1.19,0.19,0.93,0.33
0.0,0.0,0.0,0.0,0.0,0.0,0.0,3263,10113.50,0,0,165,-1.33,-1.26,0.84,0.19,0.93,0.32
0.0,0.0,0.0,0.0,0.0,0.0,0.0,3278,10111.60,0,0,0,-1.47,-1.61,0.77,0.20,0.93,0.33
0.0,0.0,0.0,0.0,0.0,0.0,0.0,3286,10114.50,0,0,165,-1.61,-1.75,0.63,0.20,0.93,0.33
0.0,0.0,0.0,0.0,0.0,0.0,0.0,3301,10113.50,0,0,0,-1.68,-1.96,0.49,0.20,0.93,0.33
0.0,0.0,0.0,0.0,0.0,0.0,0.0,3316,10113.50,0,0,165,-1.61,-2.03,0.63,0.20,0.93,0.33
0.0,0.0,0.0,0.0,0.0,0.0,0.0,3323,10114.50,0,0,0,-1.33,-2.03,0.56,0.20,0.94,0.33
0.0,0.0,0.0,0.0,0.0,0.0,0.0,3338,10113.50,0,0,165,-1.05,-1.89,0.28,0.19,0.94,0.33
0.0,0.0,0.0,0.0,0.0,0.0,0.0,3353,10112.90,0,0,0,-0.70,-1.82,-0.14,0.20,0.94,0.33
0.0,0.0,0.0,0.0,0.0,0.0,0.0,3361,10113.50,0,0,165,-0.42,-1.89,-0.21,0.20,0.93,0.33
0.0,0.0,0.0,0.0,0.0,0.0,0.0,3376,10113.90,0,0,0,-0.28,-2.17,-0.28,0.20,0.93,0.33
0.0,0.0,0.0,0.0,0.0,0.0,0.0,3390,10113.90,0,0,165,-0.35,-2.31,-0.28,0.20,0.93,0.33
0.0,0.0,0.0,0.0,0.0,0.0,0.0,3398,10114.80,0,0,0,-0.35,-2.80,-0.42,0.20,0.93,0.33
0.0,0.0,0.0,0.0,0.0,0.0,0.0,3413,10114.80,0,0,165,-0.42,-3.01,-0.28,0.20,0.93,0.32
0.0,0.0,0.0,0.0,0.0,0.0,0.0,3429,10113.90,0,0,0,-0.42,-3.22,-0.28,0.20,0.92,0.33
0.0,0.0,0.0,0.0,0.0,0.0,0.0,3435,10113.90,0,0,165,-0.28,-3.22,-0.14,0.20,0.93,0.32
0.0,0.0,0.0,0.0,0.0,0.0,0.0,3450,10113.90,0,0,0,-0.21,-3.22,-0.07,0.20,0.93,0.32
0.0,0.0,0.0,0.0,0.0,0.0,0.0,3466,10113.90,0,0,165,-0.14,-3.15,0.07,0.20,0.93,0.33
0.0,0.0,0.0,0.0,0.0,0.0,0.0,3473,10114.80,0,0,0,-0.21,-3.29,-0.07,0.20,0.93,0.33
0.0,0.0,0.0,0.0,0.0,0.0,0.0,3488,10114.80,0,0,165,-0.07,-3.36,-0.14,0.20,0.93,0.32
0.0,0.0,0.0,0.0,0.0,0.0,0.0,3503,10114.80,0,0,0,0.00,-3.43,-0.14,0.20,0.93,0.32
0.0,0.0,0.0,0.0,0.0,0.0,0.0,3510,10114.80,0,0,165,0.07,-3.64,0.14,0.21,0.93,0.32
0.0,0.0,0.0,0.0,0.0,0.0,0.0,3525,10113.90,0,0,0,0.21,-3.92,0.28,0.20,0.93,0.32
0.0,0.0,0.0,0.0,0.0,0.0,0.0,3541,10114.80,0,0,165,0.35,-4.20,0.21,0.20,0.93,0.32
0.0,0.0,0.0,0.0,0.0,0.0,0.0,3548,10113.90,0,0,0,0.56,-4.48,-0.07,0.20,0.93,0.31
0.0,0.0,0.0,0.0,0.0,0.0,0.0,3563,10115.10,0,0,165,0.42,-4.97,-0.21,0.20,0.93,0.32
0.0,0.0,0.0,0.0,0.0,0.0,0.0,3578,10115.10,0,0,0,0.28,-5.46,-0.35,0.20,0.93,0.31
0.0,0.0,0.0,0.0,0.0,0.0,0.0,3585,10114.80,0,0,165,0.07,-5.95,-0.35,0.20,0.93,0.32
0.0,0.0,0.0,0.0,0.0,0.0,0.0,3600,10114.80,0,0,0,-0.28,-6.44,-0.28,0.20,0.93,0.32
0.0,0.0,0.0,0.0,0.0,0.0,0.0,3615,10115.10,0,0,165,-0.35,-7.00,-0.35,0.20,0.93,0.32
0.0,0.0,0.0,0.0,0.0,0.0,0.0,3623,10114.80,0,0,0,-0.56,-7.49,-0.28,0.20,0.93,0.31
0.0,0.0,0.0,0.0,0.0,0.0,0.0,3638,10114.80,0,0,165,-0.70,-8.19,-0.35,0.20,0.93,0.31
0.0,0.0,0.0,0.0,0.0,0.0,0.0,3653,10114.20,0,0,0,-0.70,-8.61,-0.56,0.20,0.92,0.31
0.0,0.0,0.0,0.0,0.0,0.0,0.0,3660,10114.80,0,0,165,-0.63,-9.03,-0.49,0.20,0.93,0.31
0.0,0.0,0.0,0.0,0.0,0.0,0.0,3676,10114.80,0,0,0,-0.70,-9.31,-0.56,0.20,0.93,0.31
0.0,0.0,0.0,0.0,0.0,0.0,0.0,3691,10115.10,0,0,165,-0.63,-9.31,-0.49,0.20,0.92,0.32
0.0,0.0,0.0,0.0,0.0,0.0,0.0,3698,10115.10,0,0,0,-0.91,-9.31,-0.28,0.20,0.92,0.32
0.0,0.0,0.0,0.0,0.0,0.0,0.0,3713,10115.10,0,0,165,-1.12,-9.03,0.00,0.20,0.92,0.32
0.0,0.0,0.0,0.0,0.0,0.0,0.0,3728,10114.20,0,0,0,-1.47,-8.54,0.21,0.20,0.92,0.32
0.0,0.0,0.0,0.0,0.0,0.0,0.0,3735,10116.10,0,0,165,-1.82,-8.19,0.35,0.19,0.92,0.32
0.0,0.0,0.0,0.0,0.0,0.0,0.0,3751,10115.10,0,0,0,-2.10,-7.49,0.21,0.19,0.92,0.32
0.0,0.0,0.0,0.0,0.0,0.0,0.0,3766,10115.10,0,0,165,-2.31,-6.65,0.49,0.19,0.92,0.33
0.0,0.0,0.0,0.0,0.0,0.0,0.0,3773,10115.10,0,0,0,-2.38,-5.95,0.63,0.19,0.92,0.33
0.0,0.0,0.0,0.0,0.0,0.0,0.0,3788,10115.10,0,0,165,-2.52,-4.97,0.77,0.19,0.92,0.33
0.0,0.0,0.0,0.0,0.0,0.0,0.0,3802,10115.10,0,0,0,-2.66,-3.99,0.98,0.19,0.93,0.33
0.0,0.0,0.0,0.0,0.0,0.0,0.0,3810,10115.50,0,0,165,-2.66,-2.87,1.19,0.19,0.93,0.33
0.0,0.0,0.0,0.0,0.0,0.0,0.0,3826,10115.10,0,0,0,-2.52,-1.89,1.19,0.19,0.92,0.33
0.0,0.0,0.0,0.0,0.0,0.0,0.0,3840,10115.10,0,0,165,-2.80,-1.47,1.26,0.20,0.92,0.33
0.0,0.0,0.0,0.0,0.0,0.0,0.0,3847,10115.50,0,0,0,-3.08,-0.98,1.26,0.20,0.92,0.33
0.0,0.0,0.0,0.0,0.0,0.0,0.0,3863,10114.50,0,0,165,-3.50,-0.77,1.68,0.20,0.92,0.33
0.0,0.0,0.0,0.0,0.0,0.0,0.0,3878,10115.10,0,0,0,-3.85,-0.70,1.75,0.20,0.92,0.33
0.0,0.0,0.0,0.0,0.0,0.0,0.0,3885,10115.50,0,0,165,-4.06,-0.42,1.96,0.20,0.92,0.33
0.0,0.0,0.0,0.0,0.0,0.0,0.0,3900,10116.40,0,0,0,-3.92,0.00,1.96,0.20,0.93,0.33
0.0,0.0,0.0,0.0,0.0,0.0,0.0,3923,10115.50,0,0,165,-3.85,0.42,1.75,0.20,0.93,0.33
0.0,0.0,0.0,0.0,0.0,0.0,0.0,3924,10115.50,0,0,0,-3.43,0.98,1.68,0.20,0.93,0.33
0.0,0.0,0.0,0.0,0.0,0.0,0.0,3937,10116.40,0,0,165,-3.22,1.19,1.75,0.20,0.93,0.33
0.0,0.0,0.0,0.0,0.0,0.0,0.0,3952,10116.40,0,0,0,-3.01,1.40,1.82,0.20,0.92,0.33
0.0,0.0,0.0,0.0,0.0,0.0,0.0,3959,10116.40,0,0,165,-2.87,1.47,2.03,0.21,0.92,0.33
0.0,0.0,0.0,0.0,0.0,0.0,0.0,3975,10115.50,0,0,0,-2.87,1.33,2.31,0.21,0.92,0.33
0.0,0.0,0.0,0.0,0.0,0.0,0.0,3990,10115.50,0,0,165,-2.94,1.26,2.24,0.21,0.92,0.33
0.0,0.0,0.0,0.0,0.0,0.0,0.0,3997,10115.50,0,0,0,-2.87,1.26,2.31,0.21,0.93,0.33
0.0,0.0,0.0,0.0,0.0,0.0,0.0,4013,10116.40,0,0,165,-2.66,1.40,2.45,0.20,0.93,0.33
0.0,0.0,0.0,0.0,0.0,0.0,0.0,4027,10114.50,0,0,0,-2.59,1.61,2.45,0.21,0.93,0.33
0.0,0.0,0.0,0.0,0.0,0.0,0.0,4035,10116.40,0,0,165,-2.45,1.82,2.38,0.21,0.93,0.34
0.0,0.0,0.0,0.0,0.0,0.0,0.0,4050,10116.40,0,0,0,-2.24,1.96,2.17,0.21,0.93,0.33
0.0,0.0,0.0,0.0,0.0,0.0,0.0,4065,10116.40,0,0,165,-2.17,2.10,1.96,0.21,0.93,0.33
0.0,0.0,0.0,0.0,0.0,0.0,0.0,4073,10117.40,0,0,0,-1.96,2.17,1.61,0.21,0.93,0.33
0.0,0.0,0.0,0.0,0.0,0.0,0.0,4088,10116.80,0,0,165,-1.96,2.10,1.61,0.21,0.92,0.33
0.0,0.0,0.0,0.0,0.0,0.0,0.0,4103,10116.80,0,0,0,-1.96,2.03,1.33,0.21,0.93,0.34
15.957031,-0.0059202025,-0.013309238,-0.0013553635,0.17,0.95,0.26,14131,10149.20,0,0,165,-0.14,-0.14,0.42,0.17,0.95,0.26
17.256836,-0.004920203,-0.011309237,0.0026446367,0.17,0.95,0.26,14138,10150.50,0,0,0,-0.07,0.00,0.70,0.17,0.95,0.26
16.957031,-0.0039202026,-0.009309237,0.0036446368,0.17,0.95,0.26,14168,10150.20,0,0,165,0.00,0.14,0.77,0.17,0.95,0.26
15.957031,-0.0069202026,-0.0053092376,0.004644636,0.16,0.95,0.26,14170,10149.20,0,0,0,-0.21,0.42,0.84,0.16,0.95,0.26
16.957031,-0.007920203,-0.0033092368,0.004644636,0.17,0.95,0.26,14182,10150.20,0,0,165,-0.28,0.56,0.84,0.17,0.95,0.26
16.256836,-0.010920202,-0.0013092374,0.0026446367,0.16,0.95,0.26,14190,10149.50,0,0,0,-0.49,0.70,0.70,0.16,0.95,0.26
15.957031,-0.010920202,6.9076195E-4,6.446373E-4,0.17,0.95,0.26,14205,10149.20,0,0,165,-0.49,0.84,0.56,0.17,0.95,0.26
15.957031,-0.010920202,-3.0923728E-4,-0.0023553632,0.17,0.95,0.26,14212,10149.20,0,0,0,-0.49,0.77,0.35,0.17,0.95,0.26
17.256836,-0.0119202025,-3.0923728E-4,-0.0013553635,0.17,0.95,0.26,14228,10150.50,0,0,165,-0.56,0.77,0.42,0.17,0.95,0.26
16.256836,-0.010920202,-0.0023092376,6.446373E-4,0.17,0.95,0.26,14250,10149.50,0,0,0,-0.49,0.63,0.56,0.17,0.95,0.26
16.957031,-0.007920203,-0.0063092373,0.0036446368,0.17,0.95,0.26,14253,10150.20,0,0,165,-0.28,0.35,0.77,0.17,0.95,0.26
16.256836,-0.0069202026,-0.007309237,0.0076446366,0.17,0.95,0.26,14265,10149.50,0,0,0,-0.21,0.28,1.05,0.17,0.95,0.26
17.256836,-0.0059202025,-0.009309237,0.008644638,0.17,0.95,0.26,14280,10150.50,0,0,165,-0.14,0.14,1.12,0.17,0.95,0.26
17.256836,-0.0039202026,-0.008309238,0.011644638,0.17,0.95,0.26,14287,10150.50,0,0,0,0.00,0.21,1.33,0.17,0.95,0.26
17.256836,-0.0019202025,-0.009309237,0.013644637,0.17,0.95,0.26,14302,10150.50,0,0,165,0.14,0.14,1.47,0.17,0.95,0.26
16.256836,-0.0029202024,-0.009309237,0.014644637,0.17,0.95,0.26,14318,10149.50,0,0,0,0.07,0.14,1.54,0.17,0.95,0.26
17.256836,-0.0019202025,-0.008309238,0.013644637,0.16,0.95,0.26,14325,10150.50,0,0,165,0.14,0.21,1.47,0.16,0.95,0.26
16.256836,-0.0029202024,-0.008309238,0.013644637,0.17,0.95,0.26,14340,10149.50,0,0,0,0.07,0.21,1.47,0.17,0.95,0.26
17.256836,-0.0039202026,-0.008309238,0.013644637,0.17,0.95,0.26,14355,10150.50,0,0,165,0.00,0.21,1.47,0.17,0.95,0.26
17.55664,-0.0039202026,-0.0063092373,0.013644637,0.17,0.95,0.26,14362,10150.80,0,0,0,0.00,0.35,1.47,0.17,0.95,0.26
17.256836,-0.004920203,-0.0053092376,0.013644637,0.17,0.95,0.26,14378,10150.50,0,0,165,-0.07,0.42,1.47,0.17,0.95,0.26
16.256836,-0.0069202026,-0.0063092373,0.014644637,0.17,0.95,0.26,14393,10149.50,0,0,0,-0.21,0.35,1.54,0.17,0.95,0.26
17.256836,-0.0069202026,-0.0053092376,0.016644634,0.17,0.95,0.26,14400,10150.50,0,0,165,-0.21,0.42,1.68,0.17,0.95,0.26
17.55664,-0.007920203,-0.0053092376,0.018644638,0.17,0.95,0.26,14415,10150.80,0,0,0,-0.28,0.42,1.82,0.17,0.95,0.26
17.55664,-0.0069202026,-0.0063092373,0.017644636,0.17,0.95,0.26,14430,10150.80,0,0,165,-0.21,0.35,1.75,0.17,0.95,0.26
16.256836,-0.0069202026,-0.009309237,0.019644637,0.17,0.95,0.26,14437,10149.50,0,0,0,-0.21,0.14,1.89,0.17,0.95,0.26
16.256836,-0.004920203,-0.012309237,0.019644637,0.17,0.95,0.25,14452,10149.50,0,0,165,-0.07,-0.07,1.89,0.17,0.95,0.25
17.256836,-0.0029202024,-0.019309238,0.018644638,0.18,0.95,0.25,14466,10150.50,0,0,0,0.07,-0.56,1.82,0.18,0.95,0.25
17.55664,-0.0039202026,-0.024309237,0.020644639,0.18,0.95,0.26,14474,10150.80,0,0,165,0.00,-0.91,1.96,0.18,0.95,0.26
17.256836,-0.0039202026,-0.031309236,0.018644638,0.18,0.95,0.25,14490,10150.50,0,0,0,0.00,-1.40,1.82,0.18,0.95,0.25
17.256836,-0.004920203,-0.033309236,0.016644634,0.18,0.95,0.26,14505,10150.50,0,0,165,-0.07,-1.54,1.68,0.18,0.95,0.26
17.55664,-0.0059202025,-0.035309236,0.018644638,0.18,0.95,0.26,14512,10150.80,0,0,0,-0.14,-1.68,1.82,0.18,0.95,0.26
17.55664,-0.007920203,-0.03630924,0.015644636,0.17,0.95,0.26,14527,10150.80,0,0,165,-0.28,-1.75,1.61,0.17,0.95,0.26
17.55664,-0.009920202,-0.035309236,0.014644637,0.17,0.95,0.26,14542,10150.80,0,0,0,-0.42,-1.68,1.54,0.17,0.95,0.26
17.55664,-0.0119202025,-0.032309238,0.012644636,0.17,0.95,0.26,14550,10150.80,0,0,165,-0.56,-1.47,1.40,0.17,0.95,0.26
17.55664,-0.012920203,-0.029309236,0.0076446366,0.17,0.96,0.26,14565,10150.80,0,0,0,-0.63,-1.26,1.05,0.17,0.96,0.26
16.657227,-0.014920203,-0.027309239,0.005644637,0.17,0.95,0.26,14580,10149.90,0,0,165,-0.77,-1.12,0.91,0.17,0.95,0.26
18.55664,-0.017920204,-0.025309239,0.0066446373,0.18,0.95,0.26,14587,10151.80,0,0,0,-0.98,-0.98,0.98,0.18,0.95,0.26
17.55664,-0.021920202,-0.027309239,0.004644636,0.18,0.95,0.26,14602,10150.80,0,0,165,-1.26,-1.12,0.84,0.18,0.95,0.26
18.55664,-0.026920203,-0.028309237,0.0036446368,0.17,0.95,0.26,14618,10151.80,0,0,0,-1.61,-1.19,0.77,0.17,0.95,0.26
17.55664,-0.028920203,-0.031309236,6.446373E-4,0.17,0.95,0.26,14625,10150.80,0,0,165,-1.75,-1.40,0.56,0.17,0.95,0.26
17.55664,-0.025920203,-0.033309236,-0.0013553635,0.17,0.95,0.26,14639,10150.80,0,0,0,-1.54,-1.54,0.42,0.17,0.95,0.26
17.55664,-0.024920203,-0.03430924,-0.0023553632,0.17,0.95,0.26,14655,10150.80,0,0,165,-1.47,-1.61,0.35,0.17,0.95,0.26
17.55664,-0.023920203,-0.03630924,-0.0023553632,0.17,0.95,0.26,14662,10150.80,0,0,0,-1.40,-1.75,0.35,0.17,0.95,0.26
18.55664,-0.024920203,-0.03630924,-3.553629E-4,0.17,0.95,0.26,14677,10151.80,0,0,165,-1.47,-1.75,0.49,0.17,0.95,0.26
17.55664,-0.021920202,-0.03630924,0.0026446367,0.17,0.95,0.26,14699,10150.80,0,0,0,-1.26,-1.75,0.70,0.17,0.95,0.26
17.957031,-0.017920204,-0.033309236,0.005644637,0.17,0.95,0.26,14700,10151.20,0,0,165,-0.98,-1.54,0.91,0.17,0.95,0.26
17.957031,-0.014920203,-0.031309236,0.008644638,0.17,0.95,0.26,14715,10151.20,0,0,0,-0.77,-1.40,1.12,0.17,0.95,0.26
17.957031,-0.014920203,-0.030309238,0.009644638,0.17,0.95,0.26,14731,10151.20,0,0,165,-0.77,-1.33,1.19,0.17,0.95,0.26
17.957031,-0.016920203,-0.031309236,0.012644636,0.17,0.95,0.26,14744,10151.20,0,0,0,-0.91,-1.40,1.40,0.17,0.95,0.26
16.957031,-0.021920202,-0.035309236,0.013644637,0.18,0.95,0.27,14753,10150.20,0,0,165,-1.26,-1.68,1.47,0.18,0.95,0.27
17.957031,-0.026920203,-0.03830924,0.013644637,0.17,0.95,0.26,14768,10151.20,0,0,0,-1.61,-1.89,1.47,0.17,0.95,0.26
17.957031,-0.027920201,-0.03830924,0.012644636,0.17,0.95,0.26,14775,10151.20,0,0,165,-1.68,-1.89,1.40,0.17,0.95,0.26
18.856445,-0.022920204,-0.037309237,0.016644634,0.18,0.95,0.26,14790,10152.10,0,0,0,-1.33,-1.82,1.68,0.18,0.95,0.26
16.957031,-0.017920204,-0.035309236,0.015644636,0.18,0.96,0.26,14812,10150.20,0,0,165,-0.98,-1.68,1.61,0.18,0.96,0.26
18.856445,-0.016920203,-0.033309236,0.019644637,0.18,0.95,0.26,14815,10152.10,0,0,0,-0.91,-1.54,1.89,0.18,0.95,0.26
17.957031,-0.013920203,-0.033309236,0.022644635,0.18,0.95,0.26,14828,10151.20,0,0,165,-0.70,-1.54,2.10,0.18,0.95,0.26
17.957031,-0.010920202,-0.032309238,0.021644637,0.18,0.95,0.26,14842,10151.20,0,0,0,-0.49,-1.47,2.03,0.18,0.95,0.26
17.957031,-0.009920202,-0.031309236,0.019644637,0.18,0.95,0.26,14850,10151.20,0,0,165,-0.42,-1.40,1.89,0.18,0.95,0.26
18.856445,-0.008920202,-0.032309238,0.015644636,0.18,0.95,0.26,14865,10152.10,0,0,0,-0.35,-1.47,1.61,0.18,0.95,0.26
17.957031,-0.009920202,-0.032309238,0.014644637,0.18,0.95,0.26,14879,10151.20,0,0,165,-0.42,-1.47,1.54,0.18,0.95,0.26
18.856445,-0.009920202,-0.032309238,0.011644638,0.18,0.95,0.26,14888,10152.10,0,0,0,-0.42,-1.47,1.33,0.18,0.95,0.26
17.957031,-0.013920203,-0.033309236,0.010644636,0.18,0.95,0.26,14902,10151.20,0,0,165,-0.70,-1.54,1.26,0.18,0.95,0.26
18.256836,-0.015920201,-0.03430924,0.008644638,0.18,0.95,0.26,14916,10151.50,0,0,0,-0.84,-1.61,1.12,0.18,0.95,0.26
17.957031,-0.016920203,-0.035309236,0.008644638,0.18,0.95,0.26,14933,10151.20,0,0,165,-0.91,-1.68,1.12,0.18,0.95,0.26
17.957031,-0.017920204,-0.03630924,0.008644638,0.18,0.95,0.26,14941,10151.20,0,0,0,-0.98,-1.75,1.12,0.18,0.95,0.26
19.157227,-0.018920202,-0.037309237,0.0076446366,0.18,0.95,0.26,14955,10152.40,0,0,165,-1.05,-1.82,1.05,0.18,0.95,0.26
19.157227,-0.019920204,-0.035309236,0.0066446373,0.18,0.95,0.26,14963,10152.40,0,0,0,-1.12,-1.68,0.98,0.18,0.95,0.26
18.256836,-0.019920204,-0.033309236,0.004644636,0.18,0.96,0.27,14977,10151.50,0,0,165,-1.12,-1.54,0.84,0.18,0.96,0.27
19.157227,-0.019920204,-0.032309238,0.0036446368,0.18,0.95,0.27,14993,10152.40,0,0,0,-1.12,-1.47,0.77,0.18,0.95,0.27
18.256836,-0.020920204,-0.028309237,0.0016446365,0.18,0.95,0.26,14999,10151.50,0,0,165,-1.19,-1.19,0.63,0.18,0.95,0.26
19.157227,-0.015920201,-0.024309237,0.0016446365,0.18,0.95,0.26,15015,10152.40,0,0,0,-0.84,-0.91,0.63,0.18,0.95,0.26
19.157227,-0.010920202,-0.020309236,0.0026446367,0.18,0.95,0.26,15030,10152.40,0,0,165,-0.49,-0.63,0.70,0.18,0.95,0.26
19.157227,-0.007920203,-0.019309238,0.0036446368,0.18,0.95,0.27,15036,10152.40,0,0,0,-0.28,-0.56,0.77,0.18,0.95,0.27
18.856445,-0.014920203,-0.020309236,0.0026446367,0.18,0.94,0.27,15052,10152.10,0,0,165,-0.77,-0.63,0.70,0.18,0.94,0.27
19.157227,-0.019920204,-0.022309236,0.0016446365,0.18,0.94,0.26,15066,10152.40,0,0,0,-1.12,-0.77,0.63,0.18,0.94,0.26
19.157227,-0.019920204,-0.025309239,0.0026446367,0.18,0.95,0.26,15074,10152.40,0,0,165,-1.12,-0.98,0.70,0.18,0.95,0.26
19.157227,-0.018920202,-0.027309239,0.005644637,0.18,0.95,0.26,15090,10152.40,0,0,0,-1.05,-1.12,0.91,0.18,0.95,0.26
20.157227,-0.014920203,-0.027309239,0.008644638,0.18,0.95,0.26,15105,10153.40,0,0,165,-0.77,-1.12,1.12,0.18,0.95,0.26
18.256836,-0.0119202025,-0.023309236,0.011644638,0.18,0.95,0.26,15113,10151.50,0,0,0,-0.56,-0.84,1.33,0.18,0.95,0.26
18.256836,-0.008920202,-0.019309238,0.012644636,0.18,0.95,0.26,15128,10151.50,0,0,165,-0.35,-0.56,1.40,0.18,0.95,0.26
19.157227,-0.0059202025,-0.017309237,0.013644637,0.18,0.95,0.26,15143,10152.40,0,0,0,-0.14,-0.42,1.47,0.18,0.95,0.26
19.157227,-0.0069202026,-0.015309237,0.012644636,0.18,0.95,0.27,15150,10152.40,0,0,165,-0.21,-0.28,1.40,0.18,0.95,0.27
18.256836,-0.008920202,-0.012309237,0.009644638,0.18,0.95,0.26,15166,10151.50,0,0,0,-0.35,-0.07,1.19,0.18,0.95,0.26
19.157227,-0.0119202025,-0.011309237,0.008644638,0.18,0.94,0.26,15180,10152.40,0,0,165,-0.56,0.00,1.12,0.18,0.94,0.26
19.157227,-0.015920201,-0.010309237,0.008644638,0.18,0.95,0.26,15188,10152.40,0,0,0,-0.84,0.07,1.12,0.18,0.95,0.26
19.157227,-0.017920204,-0.009309237,0.008644638,0.18,0.95,0.26,15202,10152.40,0,0,165,-0.98,0.14,1.12,0.18,0.95,0.26
19.157227,-0.017920204,-0.009309237,0.009644638,0.18,0.95,0.26,15217,10152.40,0,0,0,-0.98,0.14,1.19,0.18,0.95,0.26
18.256836,-0.017920204,-0.008309238,0.008644638,0.18,0.95,0.26,15225,10151.50,0,0,165,-0.98,0.21,1.12,0.18,0.95,0.26
19.157227,-0.015920201,-0.009309237,0.0066446373,0.18,0.95,0.27,15239,10152.40,0,0,0,-0.84,0.14,0.98,0.18,0.95,0.27
19.157227,-0.014920203,-0.009309237,0.005644637,0.18,0.95,0.27,15255,10152.40,0,0,165,-0.77,0.14,0.91,0.18,0.95,0.27
19.55664,-0.012920203,-0.009309237,0.004644636,0.18,0.95,0.26,15262,10152.80,0,0,0,-0.63,0.14,0.84,0.18,0.95,0.26
19.55664,-0.008920202,-0.008309238,0.0026446367,0.18,0.95,0.26,15277,10152.80,0,0,165,-0.35,0.21,0.70,0.18,0.95,0.26
19.55664,-0.004920203,-0.0053092376,0.0026446367,0.18,0.95,0.27,15292,10152.80,0,0,0,-0.07,0.42,0.70,0.18,0.95,0.27
20.157227,-0.0029202024,-0.004309237,0.0036446368,0.18,0.95,0.26,15300,10153.40,0,0,165,0.07,0.49,0.77,0.18,0.95,0.26
20.157227,-9.202028E-4,-0.0023092376,0.0026446367,0.18,0.95,0.26,15315,10153.40,0,0,0,0.21,0.63,0.70,0.18,0.95,0.26
19.55664,7.979758E-5,-0.0013092374,0.0016446365,0.18,0.95,0.27,15330,10152.80,0,0,165,0.28,0.70,0.63,0.18,0.95,0.27
20.457031,-9.202028E-4,-0.0023092376,6.446373E-4,0.18,0.95,0.26,15338,10153.70,0,0,0,0.21,0.63,0.56,0.18,0.95,0.26
19.157227,-0.0019202025,-0.0013092374,-0.0013553635,0.18,0.95,0.26,15352,10152.40,0,0,165,0.14,0.70,0.42,0.18,0.95,0.26
20.457031,-9.202028E-4,-0.0023092376,-3.553629E-4,0.18,0.95,0.26,15367,10153.70,0,0,0,0.21,0.63,0.49,0.18,0.95,0.26
19.55664,-0.0019202025,-0.0023092376,-0.0023553632,0.18,0.95,0.26,15375,10152.80,0,0,165,0.14,0.63,0.35,0.18,0.95,0.26
20.457031,7.979758E-5,-0.0013092374,-0.003355363,0.18,0.95,0.26,15390,10153.70,0,0,0,0.28,0.70,0.28,0.18,0.95,0.26
19.55664,-9.202028E-4,-3.0923728E-4,-0.0013553635,0.18,0.95,0.26,15405,10152.80,0,0,165,0.21,0.77,0.42,0.18,0.95,0.26
19.55664,-9.202028E-4,6.9076195E-4,6.446373E-4,0.18,0.95,0.26,15412,10152.80,0,0,0,0.21,0.84,0.56,0.18,0.95,0.26
19.157227,7.979758E-5,0.001690763,6.446373E-4,0.18,0.95,0.26,15434,10152.40,0,0,165,0.28,0.91,0.56,0.18,0.95,0.26
20.457031,-0.0029202024,0.0026907632,-3.553629E-4,0.18,0.95,0.26,15443,10153.70,0,0,0,0.07,0.98,0.49,0.18,0.95,0.26
20.457031,-0.0029202024,0.001690763,-0.003355363,0.18,0.95,0.26,15449,10153.70,0,0,165,0.07,0.91,0.28,0.18,0.95,0.26
19.55664,-0.0059202025,-0.0013092374,-0.0043553635,0.18,0.95,0.26,15465,10152.80,0,0,0,-0.14,0.70,0.21,0.18,0.95,0.26
20.457031,-0.007920203,-0.0023092376,-0.0043553635,0.18,0.95,0.26,15473,10153.70,0,0,165,-0.28,0.63,0.21,0.18,0.95,0.26
19.856445,-0.010920202,-0.0053092376,-0.0023553632,0.18,0.94,0.26,15488,10153.10,0,0,0,-0.49,0.42,0.35,0.18,0.94,0.26
19.55664,-0.0119202025,-0.0063092373,0.0016446365,0.18,0.95,0.26,15502,10152.80,0,0,165,-0.56,0.35,0.63,0.18,0.95,0.26
20.457031,-0.010920202,-0.008309238,0.0016446365,0.18,0.95,0.26,15510,10153.70,0,0,0,-0.49,0.21,0.63,0.18,0.95,0.26
20.457031,-0.010920202,-0.008309238,0.0036446368,0.18,0.95,0.26,15525,10153.70,0,0,165,-0.49,0.21,0.77,0.18,0.95,0.26
20.457031,-0.0119202025,-0.008309238,0.004644636,0.18,0.95,0.26,15539,10153.70,0,0,0,-0.56,0.21,0.84,0.18,0.95,0.26
19.55664,-0.0119202025,-0.010309237,0.004644636,0.18,0.95,0.26,15548,10152.80,0,0,165,-0.56,0.07,0.84,0.18,0.95,0.26
19.856445,-0.013920203,-0.012309237,0.004644636,0.18,0.95,0.26,15562,10153.10,0,0,0,-0.70,-0.07,0.84,0.18,0.95,0.26
19.856445,-0.016920203,-0.013309238,0.004644636,0.18,0.95,0.26,15577,10153.10,0,0,165,-0.91,-0.14,0.84,0.18,0.95,0.26
19.856445,-0.017920204,-0.015309237,0.0036446368,0.18,0.95,0.26,15585,10153.10,0,0,0,-0.98,-0.28,0.77,0.18,0.95,0.26
20.856445,-0.015920201,-0.016309237,0.0026446367,0.18,0.95,0.26,15600,10154.10,0,0,165,-0.84,-0.35,0.70,0.18,0.95,0.26
19.856445,-0.014920203,-0.016309237,0.004644636,0.18,0.94,0.26,15614,10153.10,0,0,0,-0.77,-0.35,0.84,0.18,0.94,0.26
19.856445,-0.014920203,-0.017309237,0.0076446366,0.18,0.95,0.26,15622,10153.10,0,0,165,-0.77,-0.42,1.05,0.18,0.95,0.26
20.856445,-0.013920203,-0.017309237,0.0076446366,0.18,0.95,0.26,15637,10154.10,0,0,0,-0.70,-0.42,1.05,0.18,0.95,0.26
20.856445,-0.013920203,-0.016309237,0.011644638,0.18,0.95,0.26,15653,10154.10,0,0,165,-0.70,-0.35,1.33,0.18,0.95,0.26
20.856445,-0.010920202,-0.015309237,0.013644637,0.18,0.94,0.26,15660,10154.10,0,0,0,-0.49,-0.28,1.47,0.18,0.94,0.26
20.457031,-0.0119202025,-0.017309237,0.017644636,0.18,0.94,0.26,15675,10153.70,0,0,165,-0.56,-0.42,1.75,0.18,0.94,0.26
20.856445,-0.015920201,-0.017309237,0.020644639,0.18,0.95,0.26,15690,10154.10,0,0,0,-0.84,-0.42,1.96,0.18,0.95,0.26
20.856445,-0.018920202,-0.016309237,0.02664464,0.19,0.95,0.26,15705,10154.10,0,0,165,-1.05,-0.35,2.38,0.19,0.95,0.26
19.856445,-0.021920202,-0.017309237,0.027644638,0.19,0.95,0.27,15712,10153.10,0,0,0,-1.26,-0.42,2.45,0.19,0.95,0.27
21.756836,-0.026920203,-0.018309237,0.027644638,0.18,0.95,0.27,15727,10155.00,0,0,165,-1.61,-0.49,2.45,0.18,0.95,0.27
19.856445,-0.029920204,-0.014309237,0.02664464,0.19,0.95,0.27,15734,10153.10,0,0,0,-1.82,-0.21,2.38,0.19,0.95,0.27
20.856445,-0.028920203,-0.009309237,0.02664464,0.19,0.96,0.27,15758,10154.10,0,0,165,-1.75,0.14,2.38,0.19,0.96,0.27
20.157227,-0.024920203,-0.004309237,0.02464464,0.18,0.96,0.27,15765,10153.40,0,0,0,-1.47,0.49,2.24,0.18,0.96,0.27
20.157227,-0.020920204,6.9076195E-4,0.021644637,0.18,0.96,0.27,15773,10153.40,0,0,165,-1.19,0.84,2.03,0.18,0.96,0.27
20.856445,-0.018920202,0.0026907632,0.015644636,0.19,0.96,0.26,15788,10154.10,0,0,0,-1.05,0.98,1.61,0.19,0.96,0.26
21.157227,-0.017920204,0.0046907635,0.009644638,0.19,0.95,0.27,15802,10154.40,0,0,165,-0.98,1.12,1.19,0.19,0.95,0.27
21.157227,-0.014920203,0.001690763,0.0076446366,0.19,0.95,0.26,15810,10154.40,0,0,0,-0.77,0.91,1.05,0.19,0.95,0.26
20.856445,-0.013920203,6.9076195E-4,0.0026446367,0.19,0.95,0.27,15825,10154.10,0,0,165,-0.70,0.84,0.70,0.19,0.95,0.27
20.856445,-0.013920203,-3.0923728E-4,-3.553629E-4,0.19,0.95,0.26,15840,10154.10,0,0,0,-0.70,0.77,0.49,0.19,0.95,0.26
21.157227,-0.015920201,-0.0023092376,0.0016446365,0.19,0.95,0.26,15848,10154.40,0,0,165,-0.84,0.63,0.63,0.19,0.95,0.26
21.157227,-0.015920201,-0.0053092376,-0.0023553632,0.19,0.95,0.26,15862,10154.40,0,0,0,-0.84,0.42,0.35,0.19,0.95,0.26
22.157227,-0.015920201,-0.007309237,-3.553629E-4,0.19,0.95,0.27,15878,10155.40,0,0,165,-0.84,0.28,0.49,0.19,0.95,0.27
21.157227,-0.015920201,-0.010309237,-0.0023553632,0.19,0.95,0.27,15885,10154.40,0,0,0,-0.84,0.07,0.35,0.19,0.95,0.27
21.157227,-0.015920201,-0.009309237,-3.553629E-4,0.19,0.95,0.27,15900,10154.40,0,0,165,-0.84,0.14,0.49,0.19,0.95,0.27
22.157227,-0.013920203,-0.008309238,-0.0023553632,0.19,0.95,0.27,15915,10155.40,0,0,0,-0.70,0.21,0.35,0.19,0.95,0.27
21.157227,-0.012920203,-0.007309237,-0.0013553635,0.19,0.95,0.27,15922,10154.40,0,0,165,-0.63,0.28,0.42,0.19,0.95,0.27
21.157227,-0.0119202025,-0.007309237,6.446373E-4,0.19,0.95,0.27,15937,10154.40,0,0,0,-0.56,0.28,0.56,0.19,0.95,0.27
21.756836,-0.012920203,-0.0053092376,-3.553629E-4,0.19,0.95,0.27,15952,10155.00,0,0,165,-0.63,0.42,0.49,0.19,0.95,0.27
21.157227,-0.010920202,-0.0033092368,-0.0013553635,0.18,0.95,0.27,15960,10154.40,0,0,0,-0.49,0.56,0.42,0.18,0.95,0.27
21.157227,-0.004920203,-3.0923728E-4,6.446373E-4,0.18,0.95,0.26,15975,10154.40,0,0,165,-0.07,0.77,0.56,0.18,0.95,0.26
21.157227,-9.202028E-4,6.9076195E-4,6.446373E-4,0.19,0.95,0.26,15989,10154.40,0,0,0,0.21,0.84,0.56,0.19,0.95,0.26
21.157227,0.002079797,6.9076195E-4,0.0016446365,0.19,0.95,0.27,15998,10154.40,0,0,165,0.42,0.84,0.63,0.19,0.95,0.27
22.157227,-0.0019202025,-0.0023092376,-3.553629E-4,0.18,0.94,0.27,16011,10155.40,0,0,0,0.14,0.63,0.49,0.18,0.94,0.27
21.157227,-0.0029202024,-0.0033092368,-0.0013553635,0.19,0.94,0.27,16027,10154.40,0,0,165,0.07,0.56,0.42,0.19,0.94,0.27
21.457031,-0.004920203,-0.0023092376,6.446373E-4,0.19,0.94,0.27,16035,10154.70,0,0,0,-0.07,0.63,0.56,0.19,0.94,0.27
21.157227,-0.0039202026,-0.0023092376,0.005644637,0.18,0.95,0.27,16049,10154.40,0,0,165,0.00,0.63,0.91,0.18,0.95,0.27
21.157227,-0.0029202024,0.001690763,0.009644638,0.18,0.95,0.27,16072,10154.40,0,0,0,0.07,0.91,1.19,0.18,0.95,0.27
20.157227,-0.0019202025,0.0046907635,0.013644637,0.19,0.95,0.26,16080,10153.40,0,0,165,0.14,1.12,1.47,0.19,0.95,0.26
21.457031,7.979758E-5,0.0036907624,0.010644636,0.19,0.95,0.26,16088,10154.70,0,0,0,0.28,1.05,1.26,0.19,0.95,0.26
22.157227,7.979758E-5,0.0026907632,0.012644636,0.19,0.95,0.26,16110,10155.40,0,0,165,0.28,0.98,1.40,0.19,0.95,0.26
22.457031,-9.202028E-4,-3.0923728E-4,0.014644637,0.19,0.95,0.26,16112,10155.70,0,0,0,0.21,0.77,1.54,0.19,0.95,0.26
21.157227,-0.0039202026,-0.0023092376,0.015644636,0.19,0.95,0.26,16124,10154.40,0,0,165,0.00,0.63,1.61,0.19,0.95,0.26
21.157227,-0.0059202025,-0.0023092376,0.012644636,0.19,0.95,0.26,16139,10154.40,0,0,0,-0.14,0.63,1.40,0.19,0.95,0.26
22.457031,-0.008920202,-0.0023092376,0.010644636,0.19,0.95,0.27,16147,10155.70,0,0,165,-0.35,0.63,1.26,0.19,0.95,0.27
22.457031,-0.0119202025,-0.0023092376,0.0076446366,0.19,0.95,0.26,16162,10155.70,0,0,0,-0.56,0.63,1.05,0.19,0.95,0.26
21.457031,-0.013920203,-0.0023092376,0.005644637,0.19,0.95,0.26,16177,10154.70,0,0,165,-0.70,0.63,0.91,0.19,0.95,0.26
22.457031,-0.015920201,-0.0023092376,0.0016446365,0.19,0.95,0.27,16185,10155.70,0,0,0,-0.84,0.63,0.63,0.19,0.95,0.27
21.457031,-0.016920203,-0.0033092368,-0.0023553632,0.19,0.95,0.27,16199,10154.70,0,0,165,-0.91,0.56,0.35,0.19,0.95,0.27
21.457031,-0.016920203,-0.0053092376,-0.0043553635,0.19,0.95,0.27,16215,10154.70,0,0,0,-0.91,0.42,0.21,0.19,0.95,0.27
21.457031,-0.016920203,-0.0063092373,-0.005355363,0.19,0.95,0.27,16229,10154.70,0,0,165,-0.91,0.35,0.14,0.19,0.95,0.27
22.457031,-0.015920201,-0.008309238,-0.007355363,0.19,0.95,0.27,16238,10155.70,0,0,0,-0.84,0.21,0.00,0.19,0.95,0.27
21.457031,-0.014920203,-0.009309237,-0.006355363,0.19,0.95,0.27,16252,10154.70,0,0,165,-0.77,0.14,0.07,0.19,0.95,0.27
23.457031,-0.0119202025,-0.011309237,-0.006355363,0.19,0.95,0.27,16260,10156.70,0,0,0,-0.56,0.00,0.07,0.19,0.95,0.27
22.457031,-0.0119202025,-0.009309237,-0.003355363,0.19,0.95,0.27,16275,10155.70,0,0,165,-0.56,0.14,0.28,0.19,0.95,0.27
21.457031,-0.009920202,-0.009309237,6.446373E-4,0.19,0.95,0.27,16290,10154.70,0,0,0,-0.42,0.14,0.56,0.19,0.95,0.27
22.457031,-0.007920203,-0.008309238,0.005644637,0.19,0.95,0.27,16297,10155.70,0,0,165,-0.28,0.21,0.91,0.19,0.95,0.27
22.457031,-0.0069202026,-0.007309237,0.005644637,0.19,0.95,0.26,16312,10155.70,0,0,0,-0.21,0.28,0.91,0.19,0.95,0.26
22.756836,-0.0029202024,-0.007309237,0.004644636,0.19,0.95,0.26,16327,10156.00,0,0,165,0.07,0.28,0.84,0.19,0.95,0.26
22.457031,-9.202028E-4,-0.010309237,-3.553629E-4,0.19,0.95,0.27,16340,10155.70,0,0,0,0.21,0.07,0.49,0.19,0.95,0.27
22.756836,-9.202028E-4,-0.012309237,-0.0043553635,0.19,0.95,0.26,16350,10156.00,0,0,165,0.21,-0.07,0.21,0.19,0.95,0.26
22.457031,7.979758E-5,-0.019309238,-0.005355363,0.2,0.95,0.26,16365,10155.70,0,0,0,0.28,-0.56,0.14,0.20,0.95,0.26
22.457031,-9.202028E-4,-0.024309237,-0.008355363,0.2,0.94,0.27,16372,10155.70,0,0,165,0.21,-0.91,-0.07,0.20,0.94,0.27
22.457031,-0.0059202025,-0.031309236,-0.006355363,0.2,0.94,0.27,16388,10155.70,0,0,0,-0.14,-1.40,0.07,0.20,0.94,0.27
22.457031,-0.010920202,-0.037309237,-0.0043553635,0.2,0.94,0.27,16402,10155.70,0,0,165,-0.49,-1.82,0.21,0.20,0.94,0.27
22.756836,-0.012920203,-0.040309235,0.0016446365,0.19,0.94,0.27,16410,10156.00,0,0,0,-0.63,-2.03,0.63,0.19,0.94,0.27
22.756836,-0.015920201,-0.044309236,0.0016446365,0.19,0.94,0.27,16425,10156.00,0,0,165,-0.84,-2.31,0.63,0.19,0.94,0.27
22.756836,-0.019920204,-0.045309238,0.005644637,0.19,0.94,0.27,16440,10156.00,0,0,0,-1.12,-2.38,0.91,0.19,0.94,0.27
22.457031,-0.019920204,-0.045309238,0.009644638,0.19,0.94,0.27,16447,10155.70,0,0,165,-1.12,-2.38,1.19,0.19,0.94,0.27
22.457031,-0.015920201,-0.04230924,0.011644638,0.19,0.95,0.27,16463,10155.70,0,0,0,-0.84,-2.17,1.33,0.19,0.95,0.27
23.756836,-0.009920202,-0.040309235,0.013644637,0.19,0.95,0.27,16477,10157.00,0,0,165,-0.42,-2.03,1.47,0.19,0.95,0.27
22.756836,-0.0039202026,-0.037309237,0.014644637,0.19,0.95,0.27,16485,10156.00,0,0,0,0.00,-1.82,1.54,0.19,0.95,0.27
22.756836,0.0010797973,-0.03630924,0.012644636,0.19,0.95,0.27,16500,10156.00,0,0,165,0.35,-1.75,1.40,0.19,0.95,0.27
24.657227,0.006079797,-0.03630924,0.009644638,0.19,0.95,0.27,16515,10157.90,0,0,0,0.70,-1.75,1.19,0.19,0.95,0.27
22.756836,0.005079797,-0.03630924,0.0066446373,0.19,0.95,0.27,16522,10156.00,0,0,165,0.63,-1.75,0.98,0.19,0.95,0.27
22.756836,0.002079797,-0.035309236,0.0076446366,0.19,0.95,0.27,16537,10156.00,0,0,0,0.42,-1.68,1.05,0.19,0.95,0.27
22.756836,-0.0029202024,-0.032309238,0.0066446373,0.19,0.94,0.27,16553,10156.00,0,0,165,0.07,-1.47,0.98,0.19,0.94,0.27
22.756836,-0.008920202,-0.030309238,0.005644637,0.19,0.95,0.27,16559,10156.00,0,0,0,-0.35,-1.33,0.91,0.19,0.95,0.27
23.756836,-0.0119202025,-0.025309239,0.005644637,0.18,0.95,0.27,16583,10157.00,0,0,165,-0.56,-0.98,0.91,0.18,0.95,0.27
23.756836,-0.012920203,-0.020309236,0.005644637,0.19,0.94,0.27,16590,10157.00,0,0,0,-0.63,-0.63,0.91,0.19,0.94,0.27
22.756836,-0.0119202025,-0.019309238,0.005644637,0.19,0.95,0.27,16597,10156.00,0,0,165,-0.56,-0.56,0.91,0.19,0.95,0.27
23.756836,-0.014920203,-0.019309238,0.0016446365,0.19,0.95,0.27,16613,10157.00,0,0,0,-0.77,-0.56,0.63,0.19,0.95,0.27
23.756836,-0.015920201,-0.019309238,0.0026446367,0.19,0.94,0.27,16619,10157.00,0,0,165,-0.84,-0.56,0.70,0.19,0.94,0.27
23.756836,-0.017920204,-0.017309237,0.0036446368,0.19,0.94,0.27,16634,10157.00,0,0,0,-0.98,-0.42,0.77,0.19,0.94,0.27
23.756836,-0.016920203,-0.014309237,0.0066446373,0.19,0.94,0.26,16649,10157.00,0,0,165,-0.91,-0.21,0.98,0.19,0.94,0.26
23.157227,-0.014920203,-0.012309237,0.012644636,0.19,0.94,0.27,16658,10156.40,0,0,0,-0.77,-0.07,1.40,0.19,0.94,0.27
22.756836,-0.014920203,-0.015309237,0.015644636,0.19,0.94,0.27,16672,10156.00,0,0,165,-0.77,-0.28,1.61,0.19,0.94,0.27
24.05664,-0.017920204,-0.016309237,0.020644639,0.19,0.95,0.27,16687,10157.30,0,0,0,-0.98,-0.35,1.96,0.19,0.95,0.27
23.157227,-0.019920204,-0.018309237,0.021644637,0.19,0.95,0.27,16694,10156.40,0,0,165,-1.12,-0.49,2.03,0.19,0.95,0.27
23.756836,-0.019920204,-0.020309236,0.022644635,0.19,0.95,0.26,16710,10157.00,0,0,0,-1.12,-0.63,2.10,0.19,0.95,0.26
24.05664,-0.016920203,-0.023309236,0.02464464,0.2,0.95,0.26,16725,10157.30,0,0,165,-0.91,-0.84,2.24,0.20,0.95,0.26
25.05664,-0.0119202025,-0.024309237,0.02464464,0.2,0.95,0.26,16733,10158.30,0,0,0,-0.56,-0.91,2.24,0.20,0.95,0.26
23.157227,-0.008920202,-0.024309237,0.020644639,0.2,0.95,0.27,16748,10156.40,0,0,165,-0.35,-0.91,1.96,0.20,0.95,0.27
24.05664,-0.0059202025,-0.026309237,0.019644637,0.19,0.95,0.26,16763,10157.30,0,0,0,-0.14,-1.05,1.89,0.19,0.95,0.26
24.05664,-0.0029202024,-0.025309239,0.018644638,0.19,0.95,0.27,16770,10157.30,0,0,165,0.07,-0.98,1.82,0.19,0.95,0.27
24.05664,-0.0019202025,-0.026309237,0.016644634,0.2,0.94,0.27,16784,10157.30,0,0,0,0.14,-1.05,1.68,0.20,0.94,0.27
24.05664,-0.004920203,-0.028309237,0.014644637,0.2,0.94,0.27,16799,10157.30,0,0,165,-0.07,-1.19,1.54,0.20,0.94,0.27
24.05664,-0.0069202026,-0.029309236,0.013644637,0.19,0.95,0.26,16807,10157.30,0,0,0,-0.21,-1.26,1.47,0.19,0.95,0.26
24.05664,-0.010920202,-0.028309237,0.012644636,0.2,0.95,0.27,16822,10157.30,0,0,165,-0.49,-1.19,1.40,0.20,0.95,0.27
24.05664,-0.0119202025,-0.028309237,0.012644636,0.2,0.95,0.26,16838,10157.30,0,0,0,-0.56,-1.19,1.40,0.20,0.95,0.26
24.05664,-0.015920201,-0.028309237,0.013644637,0.2,0.95,0.26,16852,10157.30,0,0,165,-0.84,-1.19,1.47,0.20,0.95,0.26
24.05664,-0.016920203,-0.030309238,0.011644638,0.2,0.95,0.26,16859,10157.30,0,0,0,-0.91,-1.33,1.33,0.20,0.95,0.26
25.05664,-0.018920202,-0.031309236,0.010644636,0.2,0.94,0.26,16875,10158.30,0,0,165,-1.05,-1.40,1.26,0.20,0.94,0.26
24.05664,-0.022920204,-0.03430924,0.011644638,0.2,0.95,0.26,16883,10157.30,0,0,0,-1.33,-1.61,1.33,0.20,0.95,0.26
24.05664,-0.023920203,-0.039309237,0.009644638,0.2,0.94,0.26,16897,10157.30,0,0,165,-1.40,-1.96,1.19,0.20,0.94,0.26
23.157227,-0.025920203,-0.04230924,0.009644638,0.2,0.95,0.26,16913,10156.40,0,0,0,-1.54,-2.17,1.19,0.20,0.95,0.26
25.05664,-0.026920203,-0.045309238,0.011644638,0.2,0.95,0.26,16928,10158.30,0,0,165,-1.61,-2.38,1.33,0.20,0.95,0.26
24.05664,-0.024920203,-0.046309236,0.012644636,0.2,0.95,0.26,16935,10157.30,0,0,0,-1.47,-2.45,1.40,0.20,0.95,0.26
23.457031,-0.022920204,-0.046309236,0.010644636,0.2,0.95,0.26,16949,10156.70,0,0,165,-1.33,-2.45,1.26,0.20,0.95,0.26
24.05664,-0.017920204,-0.046309236,0.004644636,0.2,0.95,0.26,16958,10157.30,0,0,0,-0.98,-2.45,0.84,0.20,0.95,0.26
25.05664,-0.012920203,-0.045309238,-3.553629E-4,0.2,0.95,0.26,16972,10158.30,0,0,165,-0.63,-2.38,0.49,0.20,0.95,0.26
24.05664,-0.013920203,-0.046309236,-0.005355363,0.2,0.94,0.27,16987,10157.30,0,0,0,-0.70,-2.45,0.14,0.20,0.94,0.27
24.457031,-0.015920201,-0.047309235,-0.003355363,0.2,0.94,0.27,16995,10157.70,0,0,165,-0.84,-2.52,0.28,0.20,0.94,0.27
25.356445,-0.0119202025,-0.046309236,-0.0013553635,0.2,0.95,0.27,17009,10158.60,0,0,0,-0.56,-2.45,0.42,0.20,0.95,0.27
24.05664,-0.008920202,-0.045309238,0.0026446367,0.2,0.95,0.26,17025,10157.30,0,0,165,-0.35,-2.38,0.70,0.20,0.95,0.26
24.457031,-0.0029202024,-0.044309236,0.0026446367,0.2,0.95,0.26,17033,10157.70,0,0,0,0.07,-2.31,0.70,0.20,0.95,0.26
25.356445,-9.202028E-4,-0.045309238,6.446373E-4,0.2,0.95,0.26,17047,10158.60,0,0,165,0.21,-2.38,0.56,0.20,0.95,0.26
24.457031,7.979758E-5,-0.048309237,-0.003355363,0.2,0.94,0.26,17062,10157.70,0,0,0,0.28,-2.59,0.28,0.20,0.94,0.26
24.457031,-0.0019202025,-0.050309237,-0.007355363,0.2,0.94,0.26,17070,10157.70,0,0,165,0.14,-2.73,0.00,0.20,0.94,0.26
24.457031,-0.004920203,-0.053309236,-0.006355363,0.2,0.94,0.26,17085,10157.70,0,0,0,-0.07,-2.94,0.07,0.20,0.94,0.26
24.457031,-0.008920202,-0.053309236,-0.005355363,0.2,0.94,0.26,17100,10157.70,0,0,165,-0.35,-2.94,0.14,0.20,0.94,0.26
24.457031,-0.0119202025,-0.052309234,-0.006355363,0.2,0.94,0.26,17107,10157.70,0,0,0,-0.56,-2.87,0.07,0.20,0.94,0.26
25.356445,-0.016920203,-0.052309234,-0.006355363,0.2,0.94,0.27,17122,10158.60,0,0,165,-0.91,-2.87,0.07,0.20,0.94,0.27
24.457031,-0.020920204,-0.050309237,-0.005355363,0.2,0.94,0.27,17137,10157.70,0,0,0,-1.19,-2.73,0.14,0.20,0.94,0.27
25.356445,-0.022920204,-0.047309235,-0.007355363,0.2,0.94,0.27,17145,10158.60,0,0,165,-1.33,-2.52,0.00,0.20,0.94,0.27
24.457031,-0.022920204,-0.043309238,-0.0043553635,0.2,0.94,0.27,17159,10157.70,0,0,0,-1.33,-2.24,0.21,0.20,0.94,0.27
25.356445,-0.021920202,-0.039309237,-0.003355363,0.19,0.95,0.27,17175,10158.60,0,0,165,-1.26,-1.96,0.28,0.19,0.95,0.27
24.457031,-0.020920204,-0.03430924,-0.003355363,0.2,0.94,0.27,17181,10157.70,0,0,0,-1.19,-1.61,0.28,0.20,0.94,0.27
25.356445,-0.019920204,-0.032309238,-3.553629E-4,0.2,0.95,0.27,17198,10158.60,0,0,165,-1.12,-1.47,0.49,0.20,0.95,0.27
25.657227,-0.015920201,-0.030309238,6.446373E-4,0.2,0.95,0.27,17213,10158.90,0,0,0,-0.84,-1.33,0.56,0.20,0.95,0.27
25.356445,-0.014920203,-0.030309238,-3.553629E-4,0.2,0.95,0.27,17219,10158.60,0,0,165,-0.77,-1.33,0.49,0.20,0.95,0.27
25.657227,-0.010920202,-0.032309238,-0.0023553632,0.2,0.95,0.27,17235,10158.90,0,0,0,-0.49,-1.47,0.35,0.20,0.95,0.27
24.756836,-0.004920203,-0.033309236,-0.0023553632,0.2,0.95,0.27,17257,10158.00,0,0,165,-0.07,-1.54,0.35,0.20,0.95,0.27
24.756836,0.002079797,-0.03430924,-0.0043553635,0.2,0.95,0.26,17259,10158.00,0,0,0,0.42,-1.61,0.21,0.20,0.95,0.26
25.356445,0.006079797,-0.037309237,-0.0043553635,0.2,0.95,0.26,17273,10158.60,0,0,165,0.70,-1.82,0.21,0.20,0.95,0.26
24.457031,0.009079797,-0.041309237,-0.007355363,0.2,0.95,0.26,17287,10157.70,0,0,0,0.91,-2.10,0.00,0.20,0.95,0.26
24.756836,0.009079797,-0.044309236,-0.007355363,0.2,0.95,0.26,17295,10158.00,0,0,165,0.91,-2.31,0.00,0.20,0.95,0.26
26.356445,0.008079797,-0.047309235,-0.007355363,0.2,0.94,0.26,17310,10159.60,0,0,0,0.84,-2.52,0.00,0.20,0.94,0.26
25.356445,0.008079797,-0.047309235,-0.006355363,0.2,0.94,0.26,17325,10158.60,0,0,165,0.84,-2.52,0.07,0.20,0.94,0.26
25.657227,0.005079797,-0.04930924,-0.007355363,0.21,0.94,0.27,17340,10158.90,0,0,0,0.63,-2.66,0.00,0.21,0.94,0.27
25.356445,0.0030797976,-0.04930924,-0.007355363,0.2,0.94,0.27,17348,10158.60,0,0,165,0.49,-2.66,0.00,0.20,0.94,0.27
25.657227,-0.0039202026,-0.046309236,-0.006355363,0.2,0.94,0.27,17363,10158.90,0,0,0,0.00,-2.45,0.07,0.20,0.94,0.27
25.657227,-0.004920203,-0.043309238,-0.010355363,0.2,0.95,0.27,17370,10158.90,0,0,165,-0.07,-2.24,-0.21,0.20,0.95,0.27
25.657227,-0.008920202,-0.040309235,-0.013355363,0.2,0.95,0.27,17385,10158.90,0,0,0,-0.35,-2.03,-0.42,0.20,0.95,0.27
25.657227,-0.008920202,-0.03630924,-0.0153553635,0.2,0.95,0.26,17400,10158.90,0,0,165,-0.35,-1.75,-0.56,0.20,0.95,0.26
25.657227,-0.008920202,-0.035309236,-0.018355362,0.2,0.95,0.27,17407,10158.90,0,0,0,-0.35,-1.68,-0.77,0.20,0.95,0.27
25.657227,-0.008920202,-0.03630924,-0.019355362,0.2,0.95,0.26,17422,10158.90,0,0,165,-0.35,-1.75,-0.84,0.20,0.95,0.26
25.657227,-0.007920203,-0.039309237,-0.0153553635,0.21,0.95,0.26,17437,10158.90,0,0,0,-0.28,-1.96,-0.56,0.21,0.95,0.26
25.657227,-0.0039202026,-0.039309237,-0.013355363,0.2,0.95,0.26,17444,10158.90,0,0,165,0.00,-1.96,-0.42,0.20,0.95,0.26
24.756836,0.002079797,-0.043309238,-0.011355363,0.2,0.95,0.26,17468,10158.00,0,0,0,0.42,-2.24,-0.28,0.20,0.95,0.26
24.756836,0.004079798,-0.047309235,-0.011355363,0.2,0.95,0.26,17475,10158.00,0,0,165,0.56,-2.52,-0.28,0.20,0.95,0.26
25.657227,0.009079797,-0.051309235,-0.012355363,0.2,0.95,0.26,17482,10158.90,0,0,0,0.91,-2.80,-0.35,0.20,0.95,0.26
25.657227,0.012079798,-0.052309234,-0.014355363,0.2,0.95,0.26,17498,10158.90,0,0,165,1.12,-2.87,-0.49,0.20,0.95,0.26
25.657227,0.019079797,-0.052309234,-0.017355364,0.2,0.95,0.26,17512,10158.90,0,0,0,1.61,-2.87,-0.70,0.20,0.95,0.26
25.657227,0.023079798,-0.050309237,-0.022355363,0.19,0.94,0.26,17535,10158.90,0,0,165,1.89,-2.73,-1.05,0.19,0.94,0.26
25.657227,0.023079798,-0.046309236,-0.025355361,0.2,0.95,0.26,17537,10158.90,0,0,0,1.89,-2.45,-1.26,0.20,0.95,0.26
25.657227,0.021079797,-0.044309236,-0.023355365,0.2,0.95,0.26,17549,10158.90,0,0,165,1.75,-2.31,-1.12,0.20,0.95,0.26
26.657227,0.019079797,-0.043309238,-0.025355361,0.19,0.94,0.26,17557,10159.90,0,0,0,1.61,-2.24,-1.26,0.19,0.94,0.26
24.756836,0.016079796,-0.040309235,-0.028355364,0.19,0.94,0.25,17572,10158.00,0,0,165,1.40,-2.03,-1.47,0.19,0.94,0.25
26.05664,0.009079797,-0.041309237,-0.031355362,0.19,0.94,0.26,17579,10159.30,0,0,0,0.91,-2.10,-1.68,0.19,0.94,0.26
25.657227,0.0010797973,-0.041309237,-0.025355361,0.2,0.94,0.26,17595,10158.90,0,0,165,0.35,-2.10,-1.26,0.20,0.94,0.26
26.05664,-0.004920203,-0.040309235,-0.019355362,0.2,0.94,0.25,17610,10159.30,0,0,0,-0.07,-2.03,-0.84,0.20,0.94,0.25
26.957031,-0.009920202,-0.040309235,-0.012355363,0.2,0.94,0.25,17625,10160.20,0,0,165,-0.42,-2.03,-0.35,0.20,0.94,0.25
25.657227,-0.009920202,-0.04230924,-0.014355363,0.2,0.94,0.25,17632,10158.90,0,0,0,-0.42,-2.17,-0.49,0.20,0.94,0.25
26.05664,-0.0119202025,-0.044309236,-0.0153553635,0.2,0.95,0.25,17647,10159.30,0,0,165,-0.56,-2.31,-0.56,0.20,0.95,0.25
25.657227,-0.012920203,-0.047309235,-0.017355364,0.2,0.95,0.25,17702,10158.90,0,0,0,-0.63,-2.52,-0.70,0.20,0.95,0.25
26.05664,-0.012920203,-0.050309237,-0.018355362,0.2,0.95,0.25,17704,10159.30,0,0,165,-0.63,-2.73,-0.77,0.20,0.95,0.25
26.957031,-0.014920203,-0.051309235,-0.017355364,0.19,0.94,0.25,17706,10160.20,0,0,0,-0.77,-2.80,-0.70,0.19,0.94,0.25
26.957031,-0.014920203,-0.04930924,-0.017355364,0.19,0.94,0.25,17707,10160.20,0,0,165,-0.77,-2.66,-0.70,0.19,0.94,0.25
26.05664,-0.013920203,-0.045309238,-0.018355362,0.19,0.95,0.25,17709,10159.30,0,0,0,-0.70,-2.38,-0.77,0.19,0.95,0.25
26.657227,-0.013920203,-0.037309237,-0.013355363,0.19,0.94,0.26,17722,10159.90,0,0,165,-0.70,-1.82,-0.42,0.19,0.94,0.26
26.05664,-0.016920203,-0.029309236,-0.005355363,0.19,0.94,0.26,17738,10159.30,0,0,0,-0.91,-1.26,0.14,0.19,0.94,0.26
26.957031,-0.021920202,-0.025309239,-3.553629E-4,0.19,0.94,0.26,17745,10160.20,0,0,165,-1.26,-0.98,0.49,0.19,0.94,0.26
26.356445,-0.026920203,-0.022309236,0.0026446367,0.19,0.94,0.26,17760,10159.60,0,0,0,-1.61,-0.77,0.70,0.19,0.94,0.26
26.05664,-0.029920204,-0.020309236,0.004644636,0.19,0.95,0.26,17767,10159.30,0,0,165,-1.82,-0.63,0.84,0.19,0.95,0.26
26.957031,-0.0329202,-0.017309237,0.0026446367,0.19,0.96,0.26,17782,10160.20,0,0,0,-2.03,-0.42,0.70,0.19,0.96,0.26
26.957031,-0.0329202,-0.014309237,-0.0013553635,0.19,0.96,0.26,17798,10160.20,0,0,165,-2.03,-0.21,0.42,0.19,0.96,0.26
26.05664,-0.033920202,-0.013309238,-0.006355363,0.19,0.96,0.26,17805,10159.30,0,0,0,-2.10,-0.14,0.07,0.19,0.96,0.26
27.356445,-0.034920204,-0.012309237,-0.020355362,0.18,0.96,0.26,17820,10160.60,0,0,165,-2.17,-0.07,-0.91,0.18,0.96,0.26
27.356445,-0.035920203,-0.012309237,-0.029355362,0.19,0.95,0.26,17834,10160.60,0,0,0,-2.24,-0.07,-1.54,0.19,0.95,0.26
27.356445,-0.0369202,-0.011309237,-0.035355363,0.2,0.94,0.26,17841,10160.60,0,0,165,-2.31,0.00,-1.96,0.20,0.94,0.26
26.957031,-0.0399202,-0.0063092373,-0.032355364,0.2,0.93,0.26,17858,10160.20,0,0,0,-2.52,0.35,-1.75,0.20,0.93,0.26
26.05664,-0.042920202,-0.0053092376,-0.024355363,0.19,0.93,0.26,17871,10159.30,0,0,165,-2.73,0.42,-1.19,0.19,0.93,0.26
27.356445,-0.0459202,-0.004309237,-0.018355362,0.19,0.93,0.26,17880,10160.60,0,0,0,-2.94,0.49,-0.77,0.19,0.93,0.26
26.356445,-0.0449202,-0.0053092376,-0.008355363,0.19,0.94,0.26,17894,10159.60,0,0,165,-2.87,0.42,-0.07,0.19,0.94,0.26
26.356445,-0.0409202,-0.007309237,0.0016446365,0.19,0.94,0.26,17910,10159.60,0,0,0,-2.59,0.28,0.63,0.19,0.94,0.26
27.356445,-0.0369202,-0.009309237,0.012644636,0.19,0.94,0.26,17917,10160.60,0,0,165,-2.31,0.14,1.40,0.19,0.94,0.26
26.05664,-0.034920204,-0.011309237,0.020644639,0.19,0.94,0.26,17940,10159.30,0,0,0,-2.17,0.00,1.96,0.19,0.94,0.26
26.356445,-0.034920204,-0.011309237,0.02664464,0.19,0.95,0.26,17947,10159.60,0,0,165,-2.17,0.00,2.38,0.19,0.95,0.26
27.356445,-0.031920202,-0.009309237,0.028644636,0.19,0.95,0.26,17953,10160.60,0,0,0,-1.96,0.14,2.52,0.19,0.95,0.26
27.356445,-0.028920203,-0.008309238,0.03064464,0.19,0.96,0.26,17970,10160.60,0,0,165,-1.75,0.21,2.66,0.19,0.96,0.26
27.356445,-0.028920203,-0.004309237,0.03164464,0.19,0.96,0.27,17984,10160.60,0,0,0,-1.75,0.49,2.73,0.19,0.96,0.27
27.356445,-0.026920203,-0.0023092376,0.028644636,0.19,0.96,0.26,17992,10160.60,0,0,165,-1.61,0.63,2.52,0.19,0.96,0.26
27.356445,-0.026920203,0.001690763,0.028644636,0.19,0.95,0.27,18007,10160.60,0,0,0,-1.61,0.91,2.52,0.19,0.95,0.27
27.356445,-0.026920203,0.0056907637,0.022644635,0.19,0.95,0.27,18022,10160.60,0,0,165,-1.61,1.19,2.10,0.19,0.95,0.27
27.356445,-0.024920203,0.012690761,0.019644637,0.19,0.95,0.27,18037,10160.60,0,0,0,-1.47,1.68,1.89,0.19,0.95,0.27
27.356445,-0.021920202,0.017690763,0.016644634,0.19,0.95,0.27,18044,10160.60,0,0,165,-1.26,2.03,1.68,0.19,0.95,0.27
27.356445,-0.013920203,0.018690761,0.014644637,0.2,0.95,0.26,18060,10160.60,0,0,0,-0.70,2.10,1.54,0.20,0.95,0.26
27.356445,-0.009920202,0.019690763,0.015644636,0.2,0.95,0.26,18067,10160.60,0,0,165,-0.42,2.17,1.61,0.20,0.95,0.26
26.356445,-0.007920203,0.015690763,0.014644637,0.2,0.95,0.26,18081,10159.60,0,0,0,-0.28,1.89,1.54,0.20,0.95,0.26
26.356445,-0.009920202,0.010690763,0.013644637,0.2,0.95,0.26,18098,10159.60,0,0,165,-0.42,1.54,1.47,0.20,0.95,0.26
27.356445,-0.012920203,0.007690764,0.009644638,0.19,0.95,0.27,18104,10160.60,0,0,0,-0.63,1.33,1.19,0.19,0.95,0.27
27.356445,-0.015920201,0.006690762,0.0076446366,0.19,0.95,0.27,18120,10160.60,0,0,165,-0.84,1.26,1.05,0.19,0.95,0.27
26.356445,-0.015920201,0.007690764,0.0066446373,0.19,0.95,0.27,18135,10159.60,0,0,0,-0.84,1.33,0.98,0.19,0.95,0.27
27.657227,-0.009920202,0.011690763,0.0066446373,0.19,0.95,0.27,18142,10160.90,0,0,165,-0.42,1.61,0.98,0.19,0.95,0.27
27.356445,-0.0059202025,0.016690765,0.008644638,0.19,0.95,0.27,18158,10160.60,0,0,0,-0.14,1.96,1.12,0.19,0.95,0.27
26.356445,-0.004920203,0.019690763,0.009644638,0.19,0.94,0.27,18172,10159.60,0,0,165,-0.07,2.17,1.19,0.19,0.94,0.27
27.657227,-0.0059202025,0.023690764,0.009644638,0.19,0.94,0.27,18180,10160.90,0,0,0,-0.14,2.45,1.19,0.19,0.94,0.27
27.657227,-0.004920203,0.024690762,0.011644638,0.19,0.94,0.27,18195,10160.90,0,0,165,-0.07,2.52,1.33,0.19,0.94,0.27
26.657227,-0.0069202026,0.025690764,0.012644636,0.2,0.94,0.27,18210,10159.90,0,0,0,-0.21,2.59,1.40,0.20,0.94,0.27
27.657227,-0.0069202026,0.024690762,0.014644637,0.2,0.94,0.26,18218,10160.90,0,0,165,-0.21,2.52,1.54,0.20,0.94,0.26
27.657227,-0.0059202025,0.022690766,0.018644638,0.2,0.94,0.26,18232,10160.90,0,0,0,-0.14,2.38,1.82,0.20,0.94,0.26
27.657227,-0.0059202025,0.020690765,0.017644636,0.2,0.94,0.27,18247,10160.90,0,0,165,-0.14,2.24,1.75,0.20,0.94,0.27
28.657227,-0.010920202,0.023690764,0.014644637,0.19,0.94,0.28,18254,10161.90,0,0,0,-0.49,2.45,1.54,0.19,0.94,0.28
26.657227,-0.014920203,0.026690766,0.016644634,0.19,0.95,0.28,18270,10159.90,0,0,165,-0.77,2.66,1.68,0.19,0.95,0.28
27.657227,-0.013920203,0.028690763,0.015644636,0.2,0.95,0.27,18284,10160.90,0,0,0,-0.70,2.80,1.61,0.20,0.95,0.27
28.657227,-0.0119202025,0.027690765,0.017644636,0.2,0.94,0.27,18292,10161.90,0,0,165,-0.56,2.73,1.75,0.20,0.94,0.27
27.957031,-0.012920203,0.023690764,0.017644636,0.21,0.94,0.26,18307,10161.20,0,0,0,-0.63,2.45,1.75,0.21,0.94,0.26
28.657227,-0.012920203,0.015690763,0.015644636,0.21,0.94,0.27,18322,10161.90,0,0,165,-0.63,1.89,1.61,0.21,0.94,0.27
27.657227,-0.015920201,0.0046907635,0.014644637,0.21,0.94,0.27,18329,10160.90,0,0,0,-0.84,1.12,1.54,0.21,0.94,0.27
27.657227,-0.020920204,-0.0023092376,0.015644636,0.21,0.94,0.27,18344,10160.90,0,0,165,-1.19,0.63,1.61,0.21,0.94,0.27
27.657227,-0.021920202,-0.0063092373,0.015644636,0.2,0.94,0.27,18360,10160.90,0,0,0,-1.26,0.35,1.61,0.20,0.94,0.27
27.657227,-0.018920202,-0.0053092376,0.016644634,0.2,0.95,0.27,18367,10160.90,0,0,165,-1.05,0.42,1.68,0.20,0.95,0.27
28.657227,-0.013920203,-0.0023092376,0.019644637,0.2,0.95,0.27,18383,10161.90,0,0,0,-0.70,0.63,1.89,0.20,0.95,0.27
28.657227,-0.0059202025,0.0026907632,0.017644636,0.2,0.95,0.26,18405,10161.90,0,0,165,-0.14,0.98,1.75,0.20,0.95,0.26
27.957031,0.0030797976,0.008690762,0.018644638,0.2,0.95,0.27,18407,10161.20,0,0,0,0.49,1.40,1.82,0.20,0.95,0.27
27.657227,0.005079797,0.011690763,0.016644634,0.2,0.95,0.27,18419,10160.90,0,0,165,0.63,1.61,1.68,0.20,0.95,0.27
27.957031,0.005079797,0.012690761,0.016644634,0.2,0.94,0.27,18435,10161.20,0,0,0,0.63,1.68,1.68,0.20,0.94,0.27
27.657227,0.0010797973,0.011690763,0.012644636,0.2,0.94,0.27,18442,10160.90,0,0,165,0.35,1.61,1.40,0.20,0.94,0.27
28.957031,-0.007920203,0.007690764,0.011644638,0.2,0.94,0.27,18464,10162.20,0,0,0,-0.28,1.33,1.33,0.20,0.94,0.27
27.657227,-0.012920203,0.0046907635,0.012644636,0.2,0.94,0.27,18472,10160.90,0,0,165,-0.63,1.12,1.40,0.20,0.94,0.27
27.657227,-0.015920201,0.001690763,0.013644637,0.21,0.94,0.26,18487,10160.90,0,0,0,-0.84,0.91,1.47,0.21,0.94,0.26
28.957031,-0.018920202,-3.0923728E-4,0.016644634,0.21,0.94,0.26,18495,10162.20,0,0,165,-1.05,0.77,1.68,0.21,0.94,0.26
27.957031,-0.024920203,-0.004309237,0.019644637,0.21,0.94,0.26,18509,10161.20,0,0,0,-1.47,0.49,1.89,0.21,0.94,0.26
28.957031,-0.027920201,-0.007309237,0.020644639,0.21,0.94,0.27,18524,10162.20,0,0,165,-1.68,0.28,1.96,0.21,0.94,0.27
27.957031,-0.029920204,-0.009309237,0.018644638,0.2,0.94,0.27,18532,10161.20,0,0,0,-1.82,0.14,1.82,0.20,0.94,0.27
27.957031,-0.030920204,-0.008309238,0.019644637,0.2,0.94,0.27,18540,10161.20,0,0,165,-1.89,0.21,1.89,0.20,0.94,0.27
28.957031,-0.031920202,-0.007309237,0.021644637,0.2,0.94,0.27,18555,10162.20,0,0,0,-1.96,0.28,2.03,0.20,0.94,0.27
28.957031,-0.030920204,-0.0033092368,0.019644637,0.2,0.94,0.28,18570,10162.20,0,0,165,-1.89,0.56,1.89,0.20,0.94,0.28
27.957031,-0.028920203,0.0026907632,0.021644637,0.2,0.95,0.27,18577,10161.20,0,0,0,-1.75,0.98,2.03,0.20,0.95,0.27
28.957031,-0.027920201,0.007690764,0.019644637,0.2,0.95,0.28,18593,10162.20,0,0,165,-1.68,1.33,1.89,0.20,0.95,0.28
28.957031,-0.025920203,0.013690763,0.019644637,0.21,0.95,0.28,18607,10162.20,0,0,0,-1.54,1.75,1.89,0.21,0.95,0.28
28.356445,-0.022920204,0.016690765,0.016644634,0.21,0.94,0.28,18614,10161.60,0,0,165,-1.33,1.96,1.68,0.21,0.94,0.28
27.957031,-0.021920202,0.019690763,0.014644637,0.21,0.94,0.28,18630,10161.20,0,0,0,-1.26,2.17,1.54,0.21,0.94,0.28
26.05664,-0.020920204,0.020690765,0.011644638,0.2,0.94,0.28,18645,10159.30,0,0,165,-1.19,2.24,1.33,0.20,0.94,0.28
27.957031,-0.023920203,0.018690761,0.010644636,0.21,0.94,0.28,18652,10161.20,0,0,0,-1.40,2.10,1.26,0.21,0.94,0.28
27.957031,-0.021920202,0.013690763,0.0066446373,0.21,0.94,0.27,18668,10161.20,0,0,165,-1.26,1.75,0.98,0.21,0.94,0.27
28.356445,-0.019920204,0.006690762,0.008644638,0.21,0.95,0.27,18682,10161.60,0,0,0,-1.12,1.26,1.12,0.21,0.95,0.27
28.957031,-0.015920201,-3.0923728E-4,0.009644638,0.21,0.95,0.27,18689,10162.20,0,0,165,-0.84,0.77,1.19,0.21,0.95,0.27
29.256836,-0.014920203,-0.009309237,0.011644638,0.21,0.94,0.27,18704,10162.50,0,0,0,-0.77,0.14,1.33,0.21,0.94,0.27
28.356445,-0.012920203,-0.016309237,0.010644636,0.21,0.94,0.28,18720,10161.60,0,0,165,-0.63,-0.35,1.26,0.21,0.94,0.28
29.256836,-0.0119202025,-0.021309238,0.011644638,0.21,0.94,0.28,18727,10162.50,0,0,0,-0.56,-0.70,1.33,0.21,0.94,0.28
28.957031,-0.007920203,-0.021309238,0.014644637,0.21,0.94,0.28,18749,10162.20,0,0,165,-0.28,-0.70,1.54,0.21,0.94,0.28
28.957031,-0.007920203,-0.022309236,0.014644637,0.2,0.94,0.28,18757,10162.20,0,0,0,-0.28,-0.77,1.54,0.20,0.94,0.28
29.256836,-0.008920202,-0.021309238,0.014644637,0.2,0.94,0.28,18765,10162.50,0,0,165,-0.35,-0.70,1.54,0.20,0.94,0.28
29.256836,-0.008920202,-0.019309238,0.017644636,0.21,0.94,0.28,18780,10162.50,0,0,0,-0.35,-0.56,1.75,0.21,0.94,0.28
28.356445,-0.0069202026,-0.016309237,0.022644635,0.21,0.94,0.27,18795,10161.60,0,0,165,-0.21,-0.35,2.10,0.21,0.94,0.27
29.256836,-0.0019202025,-0.015309237,0.025644638,0.2,0.94,0.27,18802,10162.50,0,0,0,0.14,-0.28,2.31,0.20,0.94,0.27
27.957031,0.002079797,-0.016309237,0.02464464,0.21,0.95,0.27,18816,10161.20,0,0,165,0.42,-0.35,2.24,0.21,0.95,0.27
28.356445,0.006079797,-0.017309237,0.023644637,0.21,0.94,0.27,18832,10161.60,0,0,0,0.70,-0.42,2.17,0.21,0.94,0.27
29.256836,0.006079797,-0.019309238,0.02464464,0.21,0.94,0.27,18840,10162.50,0,0,165,0.70,-0.56,2.24,0.21,0.94,0.27
29.256836,0.004079798,-0.021309238,0.025644638,0.21,0.94,0.27,18855,10162.50,0,0,0,0.56,-0.70,2.31,0.21,0.94,0.27
29.256836,0.0010797973,-0.025309239,0.02664464,0.21,0.94,0.27,18870,10162.50,0,0,165,0.35,-0.98,2.38,0.21,0.94,0.27
29.256836,-0.004920203,-0.027309239,0.025644638,0.21,0.93,0.27,18877,10162.50,0,0,0,-0.07,-1.12,2.31,0.21,0.93,0.27
29.256836,-0.010920202,-0.026309237,0.027644638,0.21,0.94,0.27,18893,10162.50,0,0,165,-0.49,-1.05,2.45,0.21,0.94,0.27
29.256836,-0.018920202,-0.024309237,0.027644638,0.21,0.94,0.27,18907,10162.50,0,0,0,-1.05,-0.91,2.45,0.21,0.94,0.27
29.256836,-0.023920203,-0.020309236,0.027644638,0.21,0.94,0.28,18915,10162.50,0,0,165,-1.40,-0.63,2.45,0.21,0.94,0.28
29.256836,-0.027920201,-0.015309237,0.025644638,0.21,0.94,0.28,18930,10162.50,0,0,0,-1.68,-0.28,2.31,0.21,0.94,0.28
29.657227,-0.0329202,-0.009309237,0.023644637,0.21,0.94,0.28,18945,10162.90,0,0,165,-2.03,0.14,2.17,0.21,0.94,0.28
29.256836,-0.035920203,-0.0023092376,0.022644635,0.21,0.94,0.28,18952,10162.50,0,0,0,-2.24,0.63,2.10,0.21,0.94,0.28
29.256836,-0.0389202,0.001690763,0.020644639,0.21,0.94,0.28,18967,10162.50,0,0,165,-2.45,0.91,1.96,0.21,0.94,0.28
29.657227,-0.0409202,0.0046907635,0.014644637,0.21,0.94,0.28,18982,10162.90,0,0,0,-2.59,1.12,1.54,0.21,0.94,0.28
29.256836,-0.0399202,0.0056907637,0.011644638,0.21,0.94,0.28,18989,10162.50,0,0,165,-2.52,1.19,1.33,0.21,0.94,0.28
29.256836,-0.0369202,0.006690762,0.005644637,0.21,0.95,0.28,19004,10162.50,0,0,0,-2.31,1.26,0.91,0.21,0.95,0.28
27.756836,-0.034920204,0.0056907637,0.0016446365,0.21,0.95,0.28,19020,10161.00,0,0,165,-2.17,1.19,0.63,0.21,0.95,0.28
29.256836,-0.029920204,0.0046907635,-0.0023553632,0.22,0.95,0.28,19027,10162.50,0,0,0,-1.82,1.12,0.35,0.22,0.95,0.28
29.657227,-0.026920203,0.001690763,-0.003355363,0.22,0.94,0.28,19042,10162.90,0,0,165,-1.61,0.91,0.28,0.22,0.94,0.28
29.657227,-0.022920204,-0.0023092376,-0.0043553635,0.22,0.94,0.27,19057,10162.90,0,0,0,-1.33,0.63,0.21,0.22,0.94,0.27
29.657227,-0.021920202,-0.0063092373,-0.0043553635,0.22,0.94,0.28,19065,10162.90,0,0,165,-1.26,0.35,0.21,0.22,0.94,0.28
29.256836,-0.018920202,-0.011309237,-0.0023553632,0.22,0.94,0.27,19080,10162.50,0,0,0,-1.05,0.00,0.35,0.22,0.94,0.27
29.657227,-0.017920204,-0.015309237,-3.553629E-4,0.21,0.94,0.28,19095,10162.90,0,0,165,-0.98,-0.28,0.49,0.21,0.94,0.28
29.657227,-0.016920203,-0.020309236,-3.553629E-4,0.21,0.94,0.27,19103,10162.90,0,0,0,-0.91,-0.63,0.49,0.21,0.94,0.27
28.657227,-0.015920201,-0.023309236,-3.553629E-4,0.21,0.94,0.28,19118,10161.90,0,0,165,-0.84,-0.84,0.49,0.21,0.94,0.28
29.657227,-0.014920203,-0.027309239,-0.0013553635,0.21,0.94,0.28,19132,10162.90,0,0,0,-0.77,-1.12,0.42,0.21,0.94,0.28
30.55664,-0.010920202,-0.027309239,-0.0023553632,0.21,0.94,0.28,19140,10163.80,0,0,165,-0.49,-1.12,0.35,0.21,0.94,0.28
30.55664,-0.010920202,-0.027309239,-0.003355363,0.21,0.94,0.28,19155,10163.80,0,0,0,-0.49,-1.12,0.28,0.21,0.94,0.28
30.55664,-0.009920202,-0.027309239,-0.005355363,0.21,0.94,0.28,19170,10163.80,0,0,165,-0.42,-1.12,0.14,0.21,0.94,0.28
30.55664,-0.008920202,-0.026309237,-0.006355363,0.21,0.94,0.28,19177,10163.80,0,0,0,-0.35,-1.05,0.07,0.21,0.94,0.28
30.55664,-0.009920202,-0.027309239,-0.003355363,0.21,0.94,0.28,19192,10163.80,0,0,165,-0.42,-1.12,0.28,0.21,0.94,0.28
28.657227,-0.009920202,-0.028309237,-3.553629E-4,0.21,0.94,0.28,19207,10161.90,0,0,0,-0.42,-1.19,0.49,0.21,0.94,0.28
30.55664,-0.009920202,-0.029309236,6.446373E-4,0.21,0.94,0.28,19215,10163.80,0,0,165,-0.42,-1.26,0.56,0.21,0.94,0.28
29.657227,-0.010920202,-0.029309236,0.0036446368,0.21,0.94,0.28,19230,10162.90,0,0,0,-0.49,-1.26,0.77,0.21,0.94,0.28
30.957031,-0.012920203,-0.028309237,0.004644636,0.21,0.94,0.28,19244,10164.20,0,0,165,-0.63,-1.19,0.84,0.21,0.94,0.28
29.657227,-0.0119202025,-0.027309239,0.0016446365,0.21,0.94,0.28,19252,10162.90,0,0,0,-0.56,-1.12,0.63,0.21,0.94,0.28
29.657227,-0.0119202025,-0.025309239,0.0026446367,0.21,0.94,0.28,19267,10162.90,0,0,165,-0.56,-0.98,0.70,0.21,0.94,0.28
28.657227,-0.0119202025,-0.025309239,0.0016446365,0.21,0.94,0.28,19282,10161.90,0,0,0,-0.56,-0.98,0.63,0.21,0.94,0.28
29.957031,-0.012920203,-0.023309236,0.0026446367,0.21,0.94,0.28,19289,10163.20,0,0,165,-0.63,-0.84,0.70,0.21,0.94,0.28
30.957031,-0.0119202025,-0.022309236,0.0026446367,0.21,0.94,0.28,19305,10164.20,0,0,0,-0.56,-0.77,0.70,0.21,0.94,0.28
30.957031,-0.014920203,-0.022309236,0.0016446365,0.21,0.94,0.28,19319,10164.20,0,0,165,-0.77,-0.77,0.63,0.21,0.94,0.28
29.657227,-0.017920204,-0.022309236,0.0016446365,0.21,0.94,0.28,19327,10162.90,0,0,0,-0.98,-0.77,0.63,0.21,0.94,0.28
29.957031,-0.018920202,-0.022309236,-0.0023553632,0.21,0.94,0.28,19342,10163.20,0,0,165,-1.05,-0.77,0.35,0.21,0.94,0.28
30.957031,-0.013920203,-0.022309236,-0.005355363,0.21,0.94,0.28,19356,10164.20,0,0,0,-0.70,-0.77,0.14,0.21,0.94,0.28
29.957031,-0.0119202025,-0.019309238,-0.003355363,0.21,0.94,0.28,19365,10163.20,0,0,165,-0.56,-0.56,0.28,0.21,0.94,0.28
30.957031,-0.009920202,-0.016309237,-0.0043553635,0.21,0.94,0.28,19379,10164.20,0,0,0,-0.42,-0.35,0.21,0.21,0.94,0.28
29.957031,-0.007920203,-0.014309237,-0.003355363,0.21,0.94,0.28,19394,10163.20,0,0,165,-0.28,-0.21,0.28,0.21,0.94,0.28
29.957031,-0.0039202026,-0.010309237,-0.0013553635,0.21,0.94,0.28,19402,10163.20,0,0,0,0.00,0.07,0.42,0.21,0.94,0.28
28.957031,-0.0039202026,-0.0063092373,0.0026446367,0.21,0.94,0.28,19417,10162.20,0,0,165,0.00,0.35,0.70,0.21,0.94,0.28
30.957031,-0.0069202026,-0.0053092376,0.005644637,0.21,0.93,0.28,19432,10164.20,0,0,0,-0.21,0.42,0.91,0.21,0.93,0.28
30.957031,-0.012920203,-0.0063092373,0.008644638,0.21,0.93,0.28,19439,10164.20,0,0,165,-0.63,0.35,1.12,0.21,0.93,0.28
30.55664,-0.022920204,-0.009309237,0.009644638,0.21,0.93,0.28,19454,10163.80,0,0,0,-1.33,0.14,1.19,0.21,0.93,0.28
29.957031,-0.029920204,-0.012309237,0.0076446366,0.21,0.94,0.28,19469,10163.20,0,0,165,-1.82,-0.07,1.05,0.21,0.94,0.28
29.957031,-0.034920204,-0.012309237,0.009644638,0.21,0.94,0.28,19477,10163.20,0,0,0,-2.17,-0.07,1.19,0.21,0.94,0.28
31.856445,-0.0329202,-0.014309237,0.0076446366,0.21,0.94,0.28,19492,10165.10,0,0,165,-2.03,-0.21,1.05,0.21,0.94,0.28
30.957031,-0.029920204,-0.012309237,0.0076446366,0.21,0.94,0.28,19507,10164.20,0,0,0,-1.82,-0.07,1.05,0.21,0.94,0.28
30.957031,-0.024920203,-0.012309237,0.0066446373,0.21,0.94,0.28,19515,10164.20,0,0,165,-1.47,-0.07,0.98,0.21,0.94,0.28
30.256836,-0.020920204,-0.010309237,0.008644638,0.21,0.94,0.28,19530,10163.50,0,0,0,-1.19,0.07,1.12,0.21,0.94,0.28
31.256836,-0.020920204,-0.010309237,0.008644638,0.21,0.94,0.28,19545,10164.50,0,0,165,-1.19,0.07,1.12,0.21,0.94,0.28
30.957031,-0.017920204,-0.009309237,0.008644638,0.21,0.94,0.28,19552,10164.20,0,0,0,-0.98,0.14,1.12,0.21,0.94,0.28
31.256836,-0.017920204,-0.009309237,0.008644638,0.21,0.94,0.28,19567,10164.50,0,0,165,-0.98,0.14,1.12,0.21,0.94,0.28
29.356445,-0.017920204,-0.009309237,0.0076446366,0.21,0.94,0.28,19582,10162.60,0,0,0,-0.98,0.14,1.05,0.21,0.94,0.28
31.256836,-0.017920204,-0.009309237,0.010644636,0.22,0.94,0.28,19589,10164.50,0,0,165,-0.98,0.14,1.26,0.22,0.94,0.28
30.957031,-0.019920204,-0.010309237,0.010644636,0.22,0.94,0.28,19604,10164.20,0,0,0,-1.12,0.07,1.26,0.22,0.94,0.28
31.256836,-0.020920204,-0.011309237,0.010644636,0.22,0.94,0.28,19619,10164.50,0,0,165,-1.19,0.00,1.26,0.22,0.94,0.28
31.256836,-0.018920202,-0.013309238,0.0076446366,0.22,0.94,0.28,19627,10164.50,0,0,0,-1.05,-0.14,1.05,0.22,0.94,0.28
31.256836,-0.017920204,-0.014309237,0.005644637,0.22,0.94,0.28,19643,10164.50,0,0,165,-0.98,-0.21,0.91,0.22,0.94,0.28
30.256836,-0.016920203,-0.017309237,0.0016446365,0.22,0.94,0.28,19658,10163.50,0,0,0,-0.91,-0.42,0.63,0.22,0.94,0.28
31.256836,-0.014920203,-0.018309237,0.0016446365,0.22,0.94,0.28,19665,10164.50,0,0,165,-0.77,-0.49,0.63,0.22,0.94,0.28
31.256836,-0.012920203,-0.019309238,-3.553629E-4,0.22,0.94,0.28,19680,10164.50,0,0,0,-0.63,-0.56,0.49,0.22,0.94,0.28
31.256836,-0.0119202025,-0.018309237,0.0016446365,0.22,0.94,0.28,19695,10164.50,0,0,165,-0.56,-0.49,0.63,0.22,0.94,0.28
31.256836,-0.010920202,-0.018309237,0.004644636,0.22,0.94,0.28,19702,10164.50,0,0,0,-0.49,-0.49,0.84,0.22,0.94,0.28
31.256836,-0.010920202,-0.015309237,0.004644636,0.21,0.94,0.28,19718,10164.50,0,0,165,-0.49,-0.28,0.84,0.21,0.94,0.28
31.256836,-0.0119202025,-0.013309238,0.0016446365,0.21,0.94,0.28,19733,10164.50,0,0,0,-0.56,-0.14,0.63,0.21,0.94,0.28
31.256836,-0.009920202,-0.012309237,-0.0043553635,0.21,0.94,0.28,19740,10164.50,0,0,165,-0.42,-0.07,0.21,0.21,0.94,0.28
31.256836,-0.0069202026,-0.011309237,-0.006355363,0.22,0.94,0.28,19754,10164.50,0,0,0,-0.21,0.00,0.07,0.22,0.94,0.28
31.256836,-0.008920202,-0.012309237,-0.009355363,0.22,0.94,0.28,19770,10164.50,0,0,165,-0.35,-0.07,-0.14,0.22,0.94,0.28
30.256836,-0.010920202,-0.015309237,-0.012355363,0.22,0.94,0.28,19777,10163.50,0,0,0,-0.49,-0.28,-0.35,0.22,0.94,0.28
30.256836,-0.014920203,-0.017309237,-0.011355363,0.22,0.94,0.28,19792,10163.50,0,0,165,-0.77,-0.42,-0.28,0.22,0.94,0.28
30.256836,-0.014920203,-0.019309238,-0.011355363,0.22,0.94,0.28,19807,10163.50,0,0,0,-0.77,-0.56,-0.28,0.22,0.94,0.28
31.256836,-0.015920201,-0.020309236,-0.011355363,0.22,0.94,0.28,19814,10164.50,0,0,165,-0.84,-0.63,-0.28,0.22,0.94,0.28
31.256836,-0.015920201,-0.019309238,-0.009355363,0.21,0.94,0.28,19830,10164.50,0,0,0,-0.84,-0.56,-0.14,0.21,0.94,0.28
31.256836,-0.014920203,-0.018309237,-0.009355363,0.22,0.94,0.28,19845,10164.50,0,0,165,-0.77,-0.49,-0.14,0.22,0.94,0.28
32.157227,-0.014920203,-0.019309238,-0.007355363,0.21,0.94,0.28,19852,10165.40,0,0,0,-0.77,-0.56,0.00,0.21,0.94,0.28
32.55664,-0.015920201,-0.019309238,-0.006355363,0.21,0.93,0.28,19867,10165.80,0,0,165,-0.84,-0.56,0.07,0.21,0.93,0.28
32.157227,-0.015920201,-0.017309237,-0.006355363,0.21,0.94,0.28,19882,10165.40,0,0,0,-0.84,-0.42,0.07,0.21,0.94,0.28
31.55664,-0.017920204,-0.020309236,-0.008355363,0.22,0.94,0.28,19890,10164.80,0,0,165,-0.98,-0.63,-0.07,0.22,0.94,0.28
31.55664,-0.020920204,-0.020309236,-0.007355363,0.21,0.94,0.28,19912,10164.80,0,0,0,-1.19,-0.63,0.00,0.21,0.94,0.28
31.256836,-0.022920204,-0.021309238,-0.012355363,0.21,0.94,0.28,19920,10164.50,0,0,165,-1.33,-0.70,-0.35,0.21,0.94,0.28
32.55664,-0.021920202,-0.023309236,-0.010355363,0.21,0.94,0.28,19927,10165.80,0,0,0,-1.26,-0.84,-0.21,0.21,0.94,0.28
32.55664,-0.021920202,-0.022309236,-0.012355363,0.21,0.94,0.29,19942,10165.80,0,0,165,-1.26,-0.77,-0.35,0.21,0.94,0.29
30.657227,-0.020920204,-0.022309236,-0.011355363,0.21,0.94,0.28,19957,10163.90,0,0,0,-1.19,-0.77,-0.28,0.21,0.94,0.28
31.55664,-0.019920204,-0.021309238,-0.012355363,0.21,0.94,0.28,19964,10164.80,0,0,165,-1.12,-0.70,-0.35,0.21,0.94,0.28
32.55664,-0.017920204,-0.020309236,-0.010355363,0.21,0.94,0.29,19980,10165.80,0,0,0,-0.98,-0.63,-0.21,0.21,0.94,0.29
31.55664,-0.013920203,-0.020309236,-0.011355363,0.21,0.94,0.29,19995,10164.80,0,0,165,-0.70,-0.63,-0.28,0.21,0.94,0.29
31.55664,-0.0119202025,-0.018309237,-0.011355363,0.21,0.94,0.28,20002,10164.80,0,0,0,-0.56,-0.49,-0.28,0.21,0.94,0.28
31.55664,-0.007920203,-0.018309237,-0.011355363,0.21,0.94,0.29,20018,10164.80,0,0,165,-0.28,-0.49,-0.28,0.21,0.94,0.29
30.657227,-0.0069202026,-0.016309237,-0.011355363,0.21,0.94,0.29,20032,10163.90,0,0,0,-0.21,-0.35,-0.28,0.21,0.94,0.29
31.55664,-0.0069202026,-0.015309237,-0.009355363,0.21,0.94,0.29,20040,10164.80,0,0,165,-0.21,-0.28,-0.14,0.21,0.94,0.29
32.55664,-0.0059202025,-0.014309237,-0.010355363,0.21,0.94,0.28,20055,10165.80,0,0,0,-0.14,-0.21,-0.21,0.21,0.94,0.28
31.55664,-0.0059202025,-0.014309237,-0.009355363,0.21,0.94,0.28,20069,10164.80,0,0,165,-0.14,-0.21,-0.14,0.21,0.94,0.28
32.55664,-0.004920203,-0.013309238,-0.007355363,0.21,0.94,0.28,20077,10165.80,0,0,0,-0.07,-0.14,0.00,0.21,0.94,0.28
32.856445,-0.0069202026,-0.015309237,-0.012355363,0.21,0.94,0.28,20092,10166.10,0,0,165,-0.21,-0.28,-0.35,0.21,0.94,0.28
31.55664,-0.0069202026,-0.017309237,-0.011355363,0.21,0.94,0.28,20107,10164.80,0,0,0,-0.21,-0.42,-0.28,0.21,0.94,0.28
32.856445,-0.0069202026,-0.017309237,-0.010355363,0.21,0.93,0.28,20114,10166.10,0,0,165,-0.21,-0.42,-0.21,0.21,0.93,0.28
32.856445,-0.007920203,-0.017309237,-0.009355363,0.21,0.94,0.28,20130,10166.10,0,0,0,-0.28,-0.42,-0.14,0.21,0.94,0.28
32.856445,-0.007920203,-0.019309238,-0.011355363,0.21,0.94,0.28,20145,10166.10,0,0,165,-0.28,-0.56,-0.28,0.21,0.94,0.28
31.957031,-0.008920202,-0.018309237,-0.008355363,0.21,0.94,0.29,20152,10165.20,0,0,0,-0.35,-0.49,-0.07,0.21,0.94,0.29
31.957031,-0.008920202,-0.019309238,-0.008355363,0.21,0.94,0.28,20167,10165.20,0,0,165,-0.35,-0.56,-0.07,0.21,0.94,0.28
31.957031,-0.008920202,-0.019309238,-0.008355363,0.21,0.94,0.28,20182,10165.20,0,0,0,-0.35,-0.56,-0.07,0.21,0.94,0.28
32.856445,-0.008920202,-0.017309237,-0.009355363,0.21,0.94,0.28,20190,10166.10,0,0,165,-0.35,-0.42,-0.14,0.21,0.94,0.28
32.856445,-0.008920202,-0.019309238,-0.008355363,0.21,0.94,0.28,20203,10166.10,0,0,0,-0.35,-0.56,-0.07,0.21,0.94,0.28
31.957031,-0.008920202,-0.018309237,-0.006355363,0.21,0.93,0.28,20219,10165.20,0,0,165,-0.35,-0.49,0.07,0.21,0.93,0.28
32.856445,-0.0119202025,-0.019309238,-0.0043553635,0.21,0.93,0.28,20233,10166.10,0,0,0,-0.56,-0.56,0.21,0.21,0.93,0.28
31.957031,-0.0119202025,-0.020309236,-0.003355363,0.21,0.94,0.28,20242,10165.20,0,0,165,-0.56,-0.63,0.28,0.21,0.94,0.28
32.856445,-0.0119202025,-0.018309237,0.0016446365,0.21,0.93,0.28,20257,10166.10,0,0,0,-0.56,-0.49,0.63,0.21,0.93,0.28
32.856445,-0.012920203,-0.017309237,0.0026446367,0.21,0.93,0.28,20265,10166.10,0,0,165,-0.63,-0.42,0.70,0.21,0.93,0.28
31.957031,-0.0119202025,-0.016309237,0.0066446373,0.21,0.93,0.28,20279,10165.20,0,0,0,-0.56,-0.35,0.98,0.21,0.93,0.28
33.856445,-0.013920203,-0.013309238,0.0076446366,0.21,0.94,0.28,20298,10167.10,0,0,165,-0.70,-0.14,1.05,0.21,0.94,0.28
31.957031,-0.0119202025,-0.012309237,0.009644638,0.21,0.94,0.28,20302,10165.20,0,0,0,-0.56,-0.07,1.19,0.21,0.94,0.28
31.957031,-0.010920202,-0.010309237,0.010644636,0.21,0.94,0.28,20317,10165.20,0,0,165,-0.49,0.07,1.26,0.21,0.94,0.28
33.256836,-0.0119202025,-0.010309237,0.009644638,0.21,0.94,0.29,20340,10166.50,0,0,0,-0.56,0.07,1.19,0.21,0.94,0.29
32.856445,-0.010920202,-0.011309237,0.008644638,0.21,0.94,0.28,20342,10166.10,0,0,165,-0.49,0.00,1.12,0.21,0.94,0.28
32.856445,-0.010920202,-0.013309238,0.0076446366,0.21,0.94,0.28,20354,10166.10,0,0,0,-0.49,-0.14,1.05,0.21,0.94,0.28
32.856445,-0.007920203,-0.014309237,0.004644636,0.21,0.94,0.28,20370,10166.10,0,0,165,-0.28,-0.21,0.84,0.21,0.94,0.28
32.856445,-0.0039202026,-0.016309237,0.0026446367,0.21,0.94,0.28,20377,10166.10,0,0,0,0.00,-0.35,0.70,0.21,0.94,0.28
32.856445,-0.0029202024,-0.017309237,0.0016446365,0.21,0.94,0.28,20392,10166.10,0,0,165,0.07,-0.42,0.63,0.21,0.94,0.28
33.856445,-0.0029202024,-0.020309236,0.0016446365,0.21,0.94,0.28,20407,10167.10,0,0,0,0.07,-0.63,0.63,0.21,0.94,0.28
32.256836,-0.0029202024,-0.022309236,0.004644636,0.22,0.94,0.28,20415,10165.50,0,0,165,0.07,-0.77,0.84,0.22,0.94,0.28
34.157227,-9.202028E-4,-0.022309236,0.0036446368,0.21,0.93,0.28,20430,10167.40,0,0,0,0.21,-0.77,0.77,0.21,0.93,0.28
34.157227,7.979758E-5,-0.020309236,0.0076446366,0.22,0.93,0.28,20444,10167.40,0,0,165,0.28,-0.63,1.05,0.22,0.93,0.28
33.256836,-9.202028E-4,-0.019309238,0.011644638,0.22,0.94,0.28,20453,10166.50,0,0,0,0.21,-0.56,1.33,0.22,0.94,0.28
34.157227,-0.004920203,-0.018309237,0.015644636,0.22,0.94,0.28,20467,10167.40,0,0,165,-0.07,-0.49,1.61,0.22,0.94,0.28
32.856445,-0.009920202,-0.018309237,0.017644636,0.21,0.93,0.29,20489,10166.10,0,0,0,-0.42,-0.49,1.75,0.21,0.93,0.29
33.256836,-0.018920202,-0.018309237,0.013644637,0.21,0.93,0.29,20492,10166.50,0,0,165,-1.05,-0.49,1.47,0.21,0.93,0.29
34.157227,-0.023920203,-0.017309237,0.011644638,0.21,0.94,0.29,20503,10167.40,0,0,0,-1.40,-0.42,1.33,0.21,0.94,0.29
33.256836,-0.024920203,-0.014309237,0.010644636,0.21,0.94,0.29,20512,10166.50,0,0,165,-1.47,-0.21,1.26,0.21,0.94,0.29
32.856445,-0.022920204,-0.010309237,0.008644638,0.21,0.94,0.29,20526,10166.10,0,0,0,-1.33,0.07,1.12,0.21,0.94,0.29
32.256836,-0.019920204,-0.0063092373,0.009644638,0.21,0.94,0.29,20542,10165.50,0,0,165,-1.12,0.35,1.19,0.21,0.94,0.29
33.256836,-0.014920203,-3.0923728E-4,0.009644638,0.21,0.94,0.29,20549,10166.50,0,0,0,-0.77,0.77,1.19,0.21,0.94,0.29
33.256836,-0.009920202,0.0036907624,0.008644638,0.21,0.94,0.29,20565,10166.50,0,0,165,-0.42,1.05,1.12,0.21,0.94,0.29
32.856445,-0.004920203,0.007690764,0.008644638,0.21,0.94,0.28,20580,10166.10,0,0,0,-0.07,1.33,1.12,0.21,0.94,0.28
33.55664,-9.202028E-4,0.007690764,0.0076446366,0.22,0.94,0.29,20587,10166.80,0,0,165,0.21,1.33,1.05,0.22,0.94,0.29
32.856445,0.0010797973,0.007690764,0.0076446366,0.22,0.94,0.28,20602,10166.10,0,0,0,0.35,1.33,1.05,0.22,0.94,0.28
33.256836,0.004079798,0.007690764,0.010644636,0.21,0.93,0.28,20617,10166.50,0,0,165,0.56,1.33,1.26,0.21,0.93,0.28
33.55664,0.005079797,0.007690764,0.012644636,0.22,0.93,0.28,20624,10166.80,0,0,0,0.63,1.33,1.40,0.22,0.93,0.28
33.256836,0.005079797,0.0056907637,0.015644636,0.22,0.93,0.28,20639,10166.50,0,0,165,0.63,1.19,1.61,0.22,0.93,0.28
34.157227,0.0030797976,0.0026907632,0.015644636,0.22,0.94,0.28,20662,10167.40,0,0,0,0.49,0.98,1.61,0.22,0.94,0.28
34.157227,0.0010797973,-3.0923728E-4,0.016644634,0.22,0.93,0.28,20664,10167.40,0,0,165,0.35,0.77,1.68,0.22,0.93,0.28
33.256836,-9.202028E-4,-0.004309237,0.018644638,0.22,0.93,0.28,20677,10166.50,0,0,0,0.21,0.49,1.82,0.22,0.93,0.28
32.55664,-0.0019202025,-0.0063092373,0.020644639,0.22,0.94,0.28,20699,10165.80,0,0,165,0.14,0.35,1.96,0.22,0.94,0.28
33.256836,-0.0019202025,-0.007309237,0.021644637,0.21,0.94,0.28,20701,10166.50,0,0,0,0.14,0.28,2.03,0.21,0.94,0.28
33.256836,-9.202028E-4,-0.0053092376,0.021644637,0.22,0.94,0.28,20715,10166.50,0,0,165,0.21,0.42,2.03,0.22,0.94,0.28
34.157227,-0.0029202024,-0.004309237,0.023644637,0.22,0.94,0.29,20721,10167.40,0,0,0,0.07,0.49,2.17,0.22,0.94,0.29
34.45703,-0.0039202026,-0.0033092368,0.023644637,0.21,0.94,0.28,20737,10167.70,0,0,165,0.00,0.56,2.17,0.21,0.94,0.28
32.55664,-0.0019202025,-0.0023092376,0.017644636,0.21,0.94,0.28,20752,10165.80,0,0,0,0.14,0.63,1.75,0.21,0.94,0.28
34.45703,-9.202028E-4,6.9076195E-4,0.014644637,0.21,0.94,0.28,20760,10167.70,0,0,165,0.21,0.84,1.54,0.21,0.94,0.28
33.55664,0.002079797,-3.0923728E-4,0.014644637,0.22,0.93,0.28,20774,10166.80,0,0,0,0.42,0.77,1.54,0.22,0.93,0.28
34.157227,-0.0029202024,-0.0023092376,0.012644636,0.22,0.93,0.28,20790,10167.40,0,0,165,0.07,0.63,1.40,0.22,0.93,0.28
33.55664,-0.007920203,-0.0063092373,0.011644638,0.22,0.93,0.28,20797,10166.80,0,0,0,-0.28,0.35,1.33,0.22,0.93,0.28
34.45703,-0.010920202,-0.011309237,0.015644636,0.22,0.94,0.28,20812,10167.70,0,0,165,-0.49,0.00,1.61,0.22,0.94,0.28
34.45703,-0.0119202025,-0.016309237,0.013644637,0.22,0.94,0.28,20827,10167.70,0,0,0,-0.56,-0.35,1.47,0.22,0.94,0.28
33.55664,-0.010920202,-0.017309237,0.013644637,0.22,0.94,0.28,20835,10166.80,0,0,165,-0.49,-0.42,1.47,0.22,0.94,0.28
34.45703,-0.009920202,-0.018309237,0.012644636,0.22,0.94,0.28,20850,10167.70,0,0,0,-0.42,-0.49,1.40,0.22,0.94,0.28
33.55664,-0.008920202,-0.019309238,0.011644638,0.22,0.94,0.28,20864,10166.80,0,0,165,-0.35,-0.56,1.33,0.22,0.94,0.28
34.45703,-0.0059202025,-0.020309236,0.009644638,0.22,0.94,0.28,20872,10167.70,0,0,0,-0.14,-0.63,1.19,0.22,0.94,0.28
33.55664,-0.0059202025,-0.017309237,0.010644636,0.22,0.94,0.28,20887,10166.80,0,0,165,-0.14,-0.42,1.26,0.22,0.94,0.28
34.45703,-0.0059202025,-0.018309237,0.009644638,0.22,0.94,0.28,20902,10167.70,0,0,0,-0.14,-0.49,1.19,0.22,0.94,0.28
33.55664,-0.004920203,-0.017309237,0.009644638,0.22,0.94,0.28,20909,10166.80,0,0,165,-0.07,-0.42,1.19,0.22,0.94,0.28
34.45703,-0.0059202025,-0.017309237,0.008644638,0.22,0.94,0.28,20924,10167.70,0,0,0,-0.14,-0.42,1.12,0.22,0.94,0.28
34.45703,-0.0059202025,-0.017309237,0.0076446366,0.22,0.94,0.28,20939,10167.70,0,0,165,-0.14,-0.42,1.05,0.22,0.94,0.28
34.45703,-0.0059202025,-0.018309237,0.004644636,0.22,0.94,0.28,20947,10167.70,0,0,0,-0.14,-0.49,0.84,0.22,0.94,0.28
33.55664,-0.0059202025,-0.020309236,0.0016446365,0.22,0.94,0.28,20962,10166.80,0,0,165,-0.14,-0.63,0.63,0.22,0.94,0.28
34.45703,-0.004920203,-0.021309238,-0.0013553635,0.22,0.94,0.28,20977,10167.70,0,0,0,-0.07,-0.70,0.42,0.22,0.94,0.28
34.856445,-0.0029202024,-0.023309236,-0.005355363,0.22,0.95,0.28,20984,10168.10,0,0,165,0.07,-0.84,0.14,0.22,0.95,0.28
33.856445,0.0010797973,-0.025309239,-0.26235536,0.22,0.94,0.28,20999,10167.10,0,0,0,0.35,-0.98,-17.85,0.22,0.94,0.28
34.45703,0.005079797,-0.026309237,-0.012355363,0.22,0.94,0.28,21014,10167.70,0,0,165,0.63,-1.05,-0.35,0.22,0.94,0.28
34.856445,0.008079797,-0.030309238,-0.0153553635,0.23,0.94,0.28,21022,10168.10,0,0,0,0.84,-1.33,-0.56,0.23,0.94,0.28
33.856445,0.013079798,-0.030309238,-0.0153553635,0.22,0.94,0.28,21037,10167.10,0,0,165,1.19,-1.33,-0.56,0.22,0.94,0.28
33.856445,0.015079798,-0.030309238,-0.018355362,0.22,0.94,0.28,21052,10167.10,0,0,0,1.33,-1.33,-0.77,0.22,0.94,0.28
34.856445,0.018079797,-0.030309238,-0.021355364,0.22,0.94,0.28,21067,10168.10,0,0,165,1.54,-1.33,-0.98,0.22,0.94,0.28
33.856445,0.019079797,-0.029309236,-0.020355362,0.22,0.94,0.28,21074,10167.10,0,0,0,1.61,-1.26,-0.91,0.22,0.94,0.28
34.856445,0.018079797,-0.028309237,-0.022355363,0.22,0.93,0.28,21089,10168.10,0,0,165,1.54,-1.19,-1.05,0.22,0.93,0.28
34.856445,0.016079796,-0.028309237,-0.023355365,0.22,0.94,0.28,21097,10168.10,0,0,0,1.40,-1.19,-1.12,0.22,0.94,0.28
34.856445,0.013079798,-0.029309236,-0.021355364,0.22,0.93,0.28,21112,10168.10,0,0,165,1.19,-1.26,-0.98,0.22,0.93,0.28
32.95703,0.010079797,-0.028309237,-0.019355362,0.22,0.93,0.28,21128,10166.20,0,0,0,0.98,-1.19,-0.84,0.22,0.93,0.28
34.856445,0.0070797973,-0.029309236,-0.0153553635,0.22,0.93,0.28,21134,10168.10,0,0,165,0.77,-1.26,-0.56,0.22,0.93,0.28
35.756836,0.002079797,-0.029309236,-0.010355363,0.22,0.93,0.28,21158,10169.00,0,0,0,0.42,-1.26,-0.21,0.22,0.93,0.28
34.856445,0.0010797973,-0.029309236,-0.006355363,0.22,0.93,0.27,21165,10168.10,0,0,165,0.35,-1.26,0.07,0.22,0.93,0.27
33.856445,-9.202028E-4,-0.029309236,-0.0013553635,0.21,0.94,0.28,21172,10167.10,0,0,0,0.21,-1.26,0.42,0.21,0.94,0.28
34.856445,-9.202028E-4,-0.030309238,0.0016446365,0.22,0.94,0.28,21187,10168.10,0,0,165,0.21,-1.33,0.63,0.22,0.94,0.28
34.856445,0.002079797,-0.029309236,0.0016446365,0.22,0.94,0.28,21202,10168.10,0,0,0,0.42,-1.26,0.63,0.22,0.94,0.28
34.856445,0.004079798,-0.030309238,0.004644636,0.22,0.94,0.28,21209,10168.10,0,0,165,0.56,-1.33,0.84,0.22,0.94,0.28
34.856445,0.005079797,-0.028309237,0.008644638,0.22,0.94,0.28,21232,10168.10,0,0,0,0.63,-1.19,1.12,0.22,0.94,0.28
35.756836,0.006079797,-0.027309239,0.010644636,0.22,0.94,0.28,21239,10169.00,0,0,165,0.70,-1.12,1.26,0.22,0.94,0.28
35.157227,0.009079797,-0.025309239,0.010644636,0.22,0.94,0.28,21248,10168.40,0,0,0,0.91,-0.98,1.26,0.22,0.94,0.28
33.856445,0.009079797,-0.021309238,0.011644638,0.22,0.95,0.28,21262,10167.10,0,0,165,0.91,-0.70,1.33,0.22,0.95,0.28
34.856445,0.0110797975,-0.018309237,0.009644638,0.22,0.94,0.28,21277,10168.10,0,0,0,1.05,-0.49,1.19,0.22,0.94,0.28
34.856445,0.012079798,-0.016309237,0.0066446373,0.22,0.94,0.27,21284,10168.10,0,0,165,1.12,-0.35,0.98,0.22,0.94,0.27
36.157227,0.012079798,-0.016309237,0.0026446367,0.22,0.94,0.27,21299,10169.40,0,0,0,1.12,-0.35,0.70,0.22,0.94,0.27
36.157227,0.009079797,-0.017309237,-3.553629E-4,0.23,0.94,0.27,21315,10169.40,0,0,165,0.91,-0.42,0.49,0.23,0.94,0.27
35.157227,0.009079797,-0.020309236,-0.0023553632,0.23,0.95,0.27,21322,10168.40,0,0,0,0.91,-0.63,0.35,0.23,0.95,0.27
35.157227,0.0110797975,-0.025309239,-0.0023553632,0.23,0.95,0.27,21336,10168.40,0,0,165,1.05,-0.98,0.35,0.23,0.95,0.27
35.157227,0.015079798,-0.033309236,-0.0013553635,0.23,0.95,0.27,21352,10168.40,0,0,0,1.33,-1.54,0.42,0.23,0.95,0.27
36.157227,0.019079797,-0.041309237,-0.008355363,0.23,0.95,0.26,21359,10169.40,0,0,165,1.61,-2.10,-0.07,0.23,0.95,0.26
34.856445,0.023079798,-0.051309235,-0.013355363,0.23,0.94,0.27,21374,10168.10,0,0,0,1.89,-2.80,-0.42,0.23,0.94,0.27
35.157227,0.022079797,-0.059309233,-0.019355362,0.23,0.94,0.27,21389,10168.40,0,0,165,1.82,-3.36,-0.84,0.23,0.94,0.27
34.856445,0.023079798,-0.06530924,-0.021355364,0.23,0.94,0.27,21397,10168.10,0,0,0,1.89,-3.78,-0.98,0.23,0.94,0.27
36.157227,0.022079797,-0.06830924,-0.027355362,0.22,0.94,0.27,21412,10169.40,0,0,165,1.82,-3.99,-1.40,0.22,0.94,0.27
36.157227,0.022079797,-0.06530924,-0.030355364,0.22,0.94,0.26,21427,10169.40,0,0,0,1.82,-3.78,-1.61,0.22,0.94,0.26
36.157227,0.025079796,-0.059309233,-0.031355362,0.22,0.93,0.27,21435,10169.40,0,0,165,2.03,-3.36,-1.68,0.22,0.93,0.27
35.157227,0.023079798,-0.051309235,-0.030355364,0.21,0.93,0.27,21457,10168.40,0,0,0,1.89,-2.80,-1.61,0.21,0.93,0.27
36.157227,0.018079797,-0.044309236,-0.028355364,0.22,0.93,0.27,21464,10169.40,0,0,165,1.54,-2.31,-1.47,0.22,0.93,0.27
35.157227,0.012079798,-0.039309237,-0.021355364,0.22,0.94,0.27,21472,10168.40,0,0,0,1.12,-1.96,-0.98,0.22,0.94,0.27
36.157227,0.008079797,-0.03630924,-0.0153553635,0.22,0.94,0.27,21486,10169.40,0,0,165,0.84,-1.75,-0.56,0.22,0.94,0.27
33.256836,0.0030797976,-0.03430924,-0.011355363,0.22,0.94,0.27,21502,10166.50,0,0,0,0.49,-1.61,-0.28,0.22,0.94,0.27
36.157227,0.0010797973,-0.033309236,-0.007355363,0.22,0.94,0.26,21510,10169.40,0,0,165,0.35,-1.54,0.00,0.22,0.94,0.26
35.157227,0.002079797,-0.033309236,-0.005355363,0.22,0.94,0.26,21525,10168.40,0,0,0,0.42,-1.54,0.14,0.22,0.94,0.26
35.157227,0.002079797,-0.032309238,-0.005355363,0.22,0.94,0.26,21539,10168.40,0,0,165,0.42,-1.47,0.14,0.22,0.94,0.26
36.45703,0.005079797,-0.03430924,-0.0043553635,0.22,0.94,0.26,21547,10169.70,0,0,0,0.63,-1.61,0.21,0.22,0.94,0.26
36.157227,0.002079797,-0.03630924,-0.003355363,0.22,0.94,0.26,21562,10169.40,0,0,165,0.42,-1.75,0.28,0.22,0.94,0.26
36.45703,0.0030797976,-0.03830924,-0.0023553632,0.22,0.94,0.26,21577,10169.70,0,0,0,0.49,-1.89,0.35,0.22,0.94,0.26
35.157227,0.004079798,-0.040309235,-3.553629E-4,0.22,0.95,0.26,21584,10168.40,0,0,165,0.56,-2.03,0.49,0.22,0.95,0.26
35.45703,0.006079797,-0.039309237,6.446373E-4,0.22,0.95,0.26,21600,10168.70,0,0,0,0.70,-1.96,0.56,0.22,0.95,0.26
36.157227,0.010079797,-0.039309237,6.446373E-4,0.22,0.95,0.26,21615,10169.40,0,0,165,0.98,-1.96,0.56,0.22,0.95,0.26
35.45703,0.014079796,-0.040309235,-0.0023553632,0.22,0.95,0.26,21621,10168.70,0,0,0,1.26,-2.03,0.35,0.22,0.95,0.26
35.45703,0.016079796,-0.04230924,-0.0023553632,0.22,0.94,0.26,21638,10168.70,0,0,165,1.40,-2.17,0.35,0.22,0.94,0.26
36.45703,0.017079797,-0.044309236,-0.005355363,0.22,0.95,0.26,21652,10169.70,0,0,0,1.47,-2.31,0.14,0.22,0.95,0.26
35.157227,0.017079797,-0.048309237,-0.006355363,0.22,0.94,0.26,21660,10168.40,0,0,165,1.47,-2.59,0.07,0.22,0.94,0.26
36.45703,0.016079796,-0.051309235,-0.009355363,0.22,0.94,0.26,21674,10169.70,0,0,0,1.40,-2.80,-0.14,0.22,0.94,0.26
36.45703,0.013079798,-0.052309234,-0.011355363,0.22,0.94,0.26,21689,10169.70,0,0,165,1.19,-2.87,-0.28,0.22,0.94,0.26
35.45703,0.0110797975,-0.050309237,-0.0153553635,0.22,0.94,0.26,21697,10168.70,0,0,0,1.05,-2.73,-0.56,0.22,0.94,0.26
36.45703,0.008079797,-0.045309238,-0.014355363,0.22,0.94,0.26,21712,10169.70,0,0,165,0.84,-2.38,-0.49,0.22,0.94,0.26
36.157227,0.006079797,-0.040309235,-0.012355363,0.21,0.93,0.26,21727,10169.40,0,0,0,0.70,-2.03,-0.35,0.21,0.93,0.26
36.45703,0.006079797,-0.032309238,-0.0153553635,0.21,0.94,0.26,21735,10169.70,0,0,165,0.70,-1.47,-0.56,0.21,0.94,0.26
35.45703,0.004079798,-0.024309237,-0.012355363,0.21,0.94,0.26,21750,10168.70,0,0,0,0.56,-0.91,-0.35,0.21,0.94,0.26
36.45703,7.979758E-5,-0.019309238,-0.011355363,0.21,0.94,0.26,21765,10169.70,0,0,165,0.28,-0.56,-0.28,0.21,0.94,0.26
36.45703,-0.2599202,-0.017309237,-0.013355363,0.21,0.93,0.26,21772,10169.70,0,0,0,-17.92,-0.42,-0.42,0.21,0.93,0.26
36.45703,-0.010920202,-0.020309236,-0.012355363,0.21,0.94,0.26,21787,10169.70,0,0,165,-0.49,-0.63,-0.35,0.21,0.94,0.26
36.756836,-0.012920203,-0.024309237,-0.016355362,0.21,0.94,0.26,21802,10170.00,0,0,0,-0.63,-0.91,-0.63,0.21,0.94,0.26
35.45703,-0.014920203,-0.027309239,-0.016355362,0.21,0.94,0.26,21810,10168.70,0,0,165,-0.77,-1.12,-0.63,0.21,0.94,0.26
35.856445,-0.016920203,-0.031309236,-0.016355362,0.21,0.94,0.26,21824,10169.10,0,0,0,-0.91,-1.40,-0.63,0.21,0.94,0.26
36.45703,-0.012920203,-0.033309236,-0.013355363,0.21,0.94,0.26,21840,10169.70,0,0,165,-0.63,-1.54,-0.42,0.21,0.94,0.26
35.856445,-0.010920202,-0.03830924,-0.014355363,0.21,0.94,0.26,21847,10169.10,0,0,0,-0.49,-1.89,-0.49,0.21,0.94,0.26
36.45703,-0.009920202,-0.041309237,-0.014355363,0.21,0.94,0.26,21862,10169.70,0,0,165,-0.42,-2.10,-0.49,0.21,0.94,0.26
35.45703,-0.009920202,-0.04230924,-0.014355363,0.21,0.94,0.26,21877,10168.70,0,0,0,-0.42,-2.17,-0.49,0.21,0.94,0.26
35.856445,-0.010920202,-0.04230924,-0.013355363,0.21,0.94,0.26,21883,10169.10,0,0,165,-0.49,-2.17,-0.42,0.21,0.94,0.26
35.856445,-0.0119202025,-0.040309235,-0.013355363,0.21,0.94,0.26,21907,10169.10,0,0,0,-0.56,-2.03,-0.42,0.21,0.94,0.26
37.45703,-0.013920203,-0.037309237,-0.013355363,0.21,0.94,0.26,21914,10170.70,0,0,165,-0.70,-1.82,-0.42,0.21,0.94,0.26
36.756836,-0.013920203,-0.032309238,-0.011355363,0.21,0.94,0.26,21922,10170.00,0,0,0,-0.70,-1.47,-0.28,0.21,0.94,0.26
36.45703,-0.012920203,-0.027309239,-0.011355363,0.21,0.94,0.26,21937,10169.70,0,0,165,-0.63,-1.12,-0.28,0.21,0.94,0.26
35.856445,-0.014920203,-0.022309236,-0.010355363,0.21,0.94,0.26,21952,10169.10,0,0,0,-0.77,-0.77,-0.21,0.21,0.94,0.26
36.756836,-0.015920201,-0.017309237,-0.0043553635,0.21,0.94,0.26,21960,10170.00,0,0,165,-0.84,-0.42,0.21,0.21,0.94,0.26
36.756836,-0.017920204,-0.011309237,6.446373E-4,0.21,0.94,0.26,21975,10170.00,0,0,0,-0.98,0.00,0.56,0.21,0.94,0.26
36.45703,-0.017920204,-0.008309238,0.005644637,0.21,0.94,0.26,21989,10169.70,0,0,165,-0.98,0.21,0.91,0.21,0.94,0.26
36.756836,-0.016920203,-0.0033092368,0.009644638,0.21,0.94,0.26,21997,10170.00,0,0,0,-0.91,0.56,1.19,0.21,0.94,0.26
36.756836,-0.016920203,0.001690763,0.009644638,0.21,0.94,0.26,22012,10170.00,0,0,165,-0.91,0.91,1.19,0.21,0.94,0.26
35.856445,-0.015920201,0.0026907632,0.011644638,0.21,0.94,0.26,22027,10169.10,0,0,0,-0.84,0.98,1.33,0.21,0.94,0.26
35.856445,-0.014920203,0.0046907635,0.014644637,0.21,0.95,0.26,22034,10169.10,0,0,165,-0.77,1.12,1.54,0.21,0.95,0.26
36.756836,-0.012920203,0.0046907635,0.016644634,0.21,0.95,0.26,22050,10170.00,0,0,0,-0.63,1.12,1.68,0.21,0.95,0.26
36.45703,-0.012920203,0.0036907624,0.016644634,0.22,0.95,0.26,22064,10169.70,0,0,165,-0.63,1.05,1.68,0.22,0.95,0.26
36.756836,-0.010920202,6.9076195E-4,0.014644637,0.22,0.95,0.26,22072,10170.00,0,0,0,-0.49,0.84,1.54,0.22,0.95,0.26
35.856445,-0.008920202,-0.0033092368,0.009644638,0.22,0.95,0.26,22086,10169.10,0,0,165,-0.35,0.56,1.19,0.22,0.95,0.26
37.756836,-0.0069202026,-0.007309237,0.0066446373,0.22,0.95,0.26,22102,10171.00,0,0,0,-0.21,0.28,0.98,0.22,0.95,0.26
38.05664,-0.0069202026,-0.010309237,6.446373E-4,0.22,0.95,0.25,22110,10171.30,0,0,165,-0.21,0.07,0.56,0.22,0.95,0.25
37.157227,-0.004920203,-0.013309238,-0.005355363,0.22,0.95,0.26,22124,10170.40,0,0,0,-0.07,-0.14,0.14,0.22,0.95,0.26
37.756836,-0.004920203,-0.019309238,-0.010355363,0.22,0.95,0.25,22139,10171.00,0,0,165,-0.07,-0.56,-0.21,0.22,0.95,0.25
37.157227,-0.007920203,-0.024309237,-0.014355363,0.22,0.95,0.25,22148,10170.40,0,0,0,-0.28,-0.91,-0.49,0.22,0.95,0.25
37.157227,-0.010920202,-0.030309238,-0.018355362,0.22,0.95,0.25,22162,10170.40,0,0,165,-0.49,-1.33,-0.77,0.22,0.95,0.25
37.756836,-0.013920203,-0.033309236,-0.022355363,0.22,0.94,0.25,22177,10171.00,0,0,0,-0.70,-1.54,-1.05,0.22,0.94,0.25
37.157227,-0.015920201,-0.03830924,-0.024355363,0.22,0.95,0.25,22185,10170.40,0,0,165,-0.84,-1.89,-1.19,0.22,0.95,0.25
37.756836,-0.016920203,-0.03830924,-0.023355365,0.22,0.94,0.26,22199,10171.00,0,0,0,-0.91,-1.89,-1.12,0.22,0.94,0.26
37.157227,-0.015920201,-0.03630924,-0.021355364,0.22,0.94,0.26,22215,10170.40,0,0,165,-0.84,-1.75,-0.98,0.22,0.94,0.26
37.756836,-0.016920203,-0.03430924,-0.016355362,0.22,0.94,0.26,22222,10171.00,0,0,0,-0.91,-1.61,-0.63,0.22,0.94,0.26
37.756836,-0.016920203,-0.029309236,-0.012355363,0.22,0.94,0.26,22237,10171.00,0,0,165,-0.91,-1.26,-0.35,0.22,0.94,0.26
35.856445,-0.013920203,-0.026309237,-0.013355363,0.21,0.94,0.26,22252,10169.10,0,0,0,-0.70,-1.05,-0.42,0.21,0.94,0.26
37.157227,-0.012920203,-0.022309236,-0.012355363,0.22,0.94,0.26,22259,10170.40,0,0,165,-0.63,-0.77,-0.35,0.22,0.94,0.26
38.05664,-0.010920202,-0.021309238,-0.012355363,0.22,0.95,0.26,22274,10171.30,0,0,0,-0.49,-0.70,-0.35,0.22,0.95,0.26
36.756836,-0.008920202,-0.021309238,-0.013355363,0.21,0.95,0.26,22290,10170.00,0,0,165,-0.35,-0.70,-0.42,0.21,0.95,0.26
38.05664,-0.0059202025,-0.021309238,-0.0153553635,0.21,0.95,0.25,22297,10171.30,0,0,0,-0.14,-0.70,-0.56,0.21,0.95,0.25
37.157227,-0.0019202025,-0.021309238,-0.017355364,0.22,0.94,0.26,22312,10170.40,0,0,165,0.14,-0.70,-0.70,0.22,0.94,0.26
37.157227,7.979758E-5,-0.021309238,-0.0153553635,0.22,0.94,0.26,22327,10170.40,0,0,0,0.28,-0.70,-0.56,0.22,0.94,0.26
38.05664,-0.0019202025,-0.021309238,-0.012355363,0.21,0.94,0.26,22335,10171.30,0,0,165,0.14,-0.70,-0.35,0.21,0.94,0.26
38.05664,-0.004920203,-0.023309236,-0.013355363,0.21,0.95,0.26,22350,10171.30,0,0,0,-0.07,-0.84,-0.42,0.21,0.95,0.26
39.05664,-0.0059202025,-0.023309236,-0.012355363,0.21,0.95,0.26,22365,10172.30,0,0,165,-0.14,-0.84,-0.35,0.21,0.95,0.26
38.05664,-0.008920202,-0.022309236,-0.010355363,0.21,0.94,0.26,22370,10171.30,0,0,0,-0.35,-0.77,-0.21,0.21,0.94,0.26
38.05664,-0.009920202,-0.018309237,-0.005355363,0.21,0.94,0.26,22387,10171.30,0,0,165,-0.42,-0.49,0.14,0.21,0.94,0.26
37.157227,-0.009920202,-0.014309237,-0.0013553635,0.21,0.94,0.26,22401,10170.40,0,0,0,-0.42,-0.21,0.42,0.21,0.94,0.26
38.05664,-0.007920203,-0.010309237,0.0026446367,0.21,0.94,0.26,22410,10171.30,0,0,165,-0.28,0.07,0.70,0.21,0.94,0.26
38.05664,-0.004920203,-0.008309238,6.446373E-4,0.22,0.94,0.26,22425,10171.30,0,0,0,-0.07,0.21,0.56,0.22,0.94,0.26
37.157227,-0.0059202025,-0.007309237,0.0016446365,0.22,0.94,0.26,22440,10170.40,0,0,165,-0.14,0.28,0.63,0.22,0.94,0.26
37.157227,-0.004920203,-0.008309238,-3.553629E-4,0.22,0.94,0.26,22447,10170.40,0,0,0,-0.07,0.21,0.49,0.22,0.94,0.26
37.157227,-0.004920203,-0.008309238,-3.553629E-4,0.22,0.94,0.25,22462,10170.40,0,0,165,-0.07,0.21,0.49,0.22,0.94,0.25
39.356445,-0.0029202024,-0.009309237,-3.553629E-4,0.21,0.94,0.26,22477,10172.60,0,0,0,0.07,0.14,0.49,0.21,0.94,0.26
38.05664,-0.0039202026,-0.008309238,6.446373E-4,0.22,0.94,0.26,22484,10171.30,0,0,165,0.00,0.21,0.56,0.22,0.94,0.26
38.05664,-0.0029202024,-0.011309237,-0.0013553635,0.21,0.94,0.26,22499,10171.30,0,0,0,0.07,0.00,0.42,0.21,0.94,0.26
38.45703,-0.0029202024,-0.012309237,-0.0023553632,0.21,0.94,0.26,22514,10171.70,0,0,165,0.07,-0.07,0.35,0.21,0.94,0.26
39.356445,-0.004920203,-0.012309237,-0.0023553632,0.21,0.95,0.26,22522,10172.60,0,0,0,-0.07,-0.07,0.35,0.21,0.95,0.26
38.45703,-0.0059202025,-0.011309237,-0.005355363,0.21,0.95,0.26,22536,10171.70,0,0,165,-0.14,0.00,0.14,0.21,0.95,0.26
38.45703,-0.0069202026,-0.0053092376,-0.010355363,0.21,0.95,0.26,22551,10171.70,0,0,0,-0.21,0.42,-0.21,0.21,0.95,0.26
38.45703,-0.009920202,-3.0923728E-4,-0.011355363,0.21,0.94,0.26,22560,10171.70,0,0,165,-0.42,0.77,-0.28,0.21,0.94,0.26
38.45703,-0.0119202025,0.0056907637,-0.012355363,0.21,0.94,0.26,22574,10171.70,0,0,0,-0.56,1.19,-0.35,0.21,0.94,0.26
38.45703,-0.014920203,0.0096907625,-0.011355363,0.21,0.94,0.26,22590,10171.70,0,0,165,-0.77,1.47,-0.28,0.21,0.94,0.26
39.356445,-0.015920201,0.010690763,-0.009355363,0.22,0.94,0.26,22597,10172.60,0,0,0,-0.84,1.54,-0.14,0.22,0.94,0.26
38.45703,-0.016920203,0.0096907625,-0.008355363,0.21,0.94,0.26,22612,10171.70,0,0,165,-0.91,1.47,-0.07,0.21,0.94,0.26
37.45703,-0.016920203,0.006690762,-0.010355363,0.22,0.94,0.26,22627,10170.70,0,0,0,-0.91,1.26,-0.21,0.22,0.94,0.26
38.45703,-0.016920203,0.0026907632,-0.009355363,0.21,0.95,0.25,22634,10171.70,0,0,165,-0.91,0.98,-0.14,0.21,0.95,0.25
37.45703,-0.019920204,-0.0033092368,-0.007355363,0.21,0.94,0.26,22649,10170.70,0,0,0,-1.12,0.56,0.00,0.21,0.94,0.26
38.45703,-0.021920202,-0.010309237,-0.008355363,0.21,0.94,0.26,22664,10171.70,0,0,165,-1.26,0.07,-0.07,0.21,0.94,0.26
38.45703,-0.024920203,-0.014309237,-0.007355363,0.22,0.94,0.26,22671,10171.70,0,0,0,-1.47,-0.21,0.00,0.22,0.94,0.26
38.45703,-0.023920203,-0.015309237,-0.008355363,0.21,0.94,0.26,22687,10171.70,0,0,165,-1.40,-0.28,-0.07,0.21,0.94,0.26
38.45703,-0.023920203,-0.018309237,-0.005355363,0.21,0.94,0.26,22702,10171.70,0,0,0,-1.40,-0.49,0.14,0.21,0.94,0.26
38.45703,-0.021920202,-0.018309237,-0.0013553635,0.21,0.94,0.26,22709,10171.70,0,0,165,-1.26,-0.49,0.42,0.21,0.94,0.26
39.756836,-0.017920204,-0.019309238,-3.553629E-4,0.21,0.94,0.26,22725,10173.00,0,0,0,-0.98,-0.56,0.49,0.21,0.94,0.26
38.45703,-0.015920201,-0.019309238,0.004644636,0.21,0.95,0.26,22739,10171.70,0,0,165,-0.84,-0.56,0.84,0.21,0.95,0.26
38.45703,-0.014920203,-0.018309237,0.005644637,0.21,0.94,0.26,22748,10171.70,0,0,0,-0.77,-0.49,0.91,0.21,0.94,0.26
38.45703,-0.014920203,-0.016309237,0.0036446368,0.21,0.94,0.26,22762,10171.70,0,0,165,-0.77,-0.35,0.77,0.21,0.94,0.26
38.45703,-0.016920203,-0.014309237,0.0016446365,0.21,0.94,0.26,22777,10171.70,0,0,0,-0.91,-0.21,0.63,0.21,0.94,0.26
39.356445,-0.016920203,-0.010309237,6.446373E-4,0.21,0.95,0.26,22784,10172.60,0,0,165,-0.91,0.07,0.56,0.21,0.95,0.26
39.356445,-0.017920204,-0.0053092376,0.0016446365,0.21,0.94,0.27,22800,10172.60,0,0,0,-0.98,0.42,0.63,0.21,0.94,0.27
38.756836,-0.016920203,0.001690763,0.0026446367,0.21,0.94,0.27,22815,10172.00,0,0,165,-0.91,0.91,0.70,0.21,0.94,0.27
38.45703,-0.018920202,0.0036907624,0.0016446365,0.21,0.94,0.26,22822,10171.70,0,0,0,-1.05,1.05,0.63,0.21,0.94,0.26
38.756836,-0.020920204,0.0046907635,0.0026446367,0.21,0.94,0.26,22837,10172.00,0,0,165,-1.19,1.12,0.70,0.21,0.94,0.26
38.756836,-0.020920204,0.0036907624,6.446373E-4,0.21,0.94,0.26,22852,10172.00,0,0,0,-1.19,1.05,0.56,0.21,0.94,0.26
38.756836,-0.022920204,-0.0013092374,0.0026446367,0.21,0.94,0.26,22859,10172.00,0,0,165,-1.33,0.70,0.70,0.21,0.94,0.26
38.756836,-0.026920203,-0.0063092373,-0.0013553635,0.21,0.94,0.27,22874,10172.00,0,0,0,-1.61,0.35,0.42,0.21,0.94,0.27
39.756836,-0.026920203,-0.010309237,-0.0043553635,0.21,0.94,0.26,22890,10173.00,0,0,165,-1.61,0.07,0.21,0.21,0.94,0.26
38.756836,-0.025920203,-0.009309237,-0.0013553635,0.21,0.94,0.27,22897,10172.00,0,0,0,-1.54,0.14,0.42,0.21,0.94,0.27
39.756836,-0.022920204,-0.008309238,-0.0013553635,0.21,0.94,0.26,22913,10173.00,0,0,165,-1.33,0.21,0.42,0.21,0.94,0.26
39.356445,-0.019920204,-0.0063092373,6.446373E-4,0.21,0.94,0.27,22927,10172.60,0,0,0,-1.12,0.35,0.56,0.21,0.94,0.27
38.756836,-0.014920203,-0.0023092376,0.004644636,0.21,0.95,0.27,22935,10172.00,0,0,165,-0.77,0.63,0.84,0.21,0.95,0.27
38.756836,-0.010920202,6.9076195E-4,0.0066446373,0.21,0.94,0.26,22949,10172.00,0,0,0,-0.49,0.84,0.98,0.21,0.94,0.26
38.756836,-0.007920203,-3.0923728E-4,0.009644638,0.21,0.94,0.26,22965,10172.00,0,0,165,-0.28,0.77,1.19,0.21,0.94,0.26
38.756836,-0.007920203,-3.0923728E-4,0.011644638,0.21,0.93,0.26,22972,10172.00,0,0,0,-0.28,0.77,1.33,0.21,0.93,0.26
38.756836,-0.008920202,-0.004309237,0.012644636,0.21,0.93,0.26,22987,10172.00,0,0,165,-0.35,0.49,1.40,0.21,0.93,0.26
37.756836,-0.014920203,-0.007309237,0.014644637,0.21,0.94,0.26,23003,10171.00,0,0,0,-0.77,0.28,1.54,0.21,0.94,0.26
38.756836,-0.016920203,-0.011309237,0.016644634,0.21,0.94,0.26,23010,10172.00,0,0,165,-0.91,0.00,1.68,0.21,0.94,0.26
39.05664,-0.018920202,-0.011309237,0.017644636,0.21,0.94,0.27,23023,10172.30,0,0,0,-1.05,0.00,1.75,0.21,0.94,0.27
39.756836,-0.020920204,-0.010309237,0.017644636,0.21,0.95,0.27,23039,10173.00,0,0,165,-1.19,0.07,1.75,0.21,0.95,0.27
39.756836,-0.018920202,-0.0063092373,0.021644637,0.21,0.95,0.26,23047,10173.00,0,0,0,-1.05,0.35,2.03,0.21,0.95,0.26
38.756836,-0.015920201,-0.0023092376,0.020644639,0.21,0.95,0.27,23063,10172.00,0,0,165,-0.84,0.63,1.96,0.21,0.95,0.27
38.756836,-0.015920201,6.9076195E-4,0.019644637,0.21,0.95,0.27,23077,10172.00,0,0,0,-0.84,0.84,1.89,0.21,0.95,0.27
38.756836,-0.014920203,0.006690762,0.018644638,0.21,0.95,0.27,23085,10172.00,0,0,165,-0.77,1.26,1.82,0.21,0.95,0.27
39.756836,-0.012920203,0.011690763,0.019644637,0.22,0.94,0.27,23099,10173.00,0,0,0,-0.63,1.61,1.89,0.22,0.94,0.27
39.05664,-0.0119202025,0.013690763,0.020644639,0.22,0.94,0.27,23115,10172.30,0,0,165,-0.56,1.75,1.96,0.22,0.94,0.27
40.05664,-0.012920203,0.012690761,0.021644637,0.22,0.94,0.26,23145,10173.30,0,0,0,-0.63,1.68,2.03,0.22,0.94,0.26
39.05664,-0.012920203,0.0096907625,0.021644637,0.22,0.94,0.26,23147,10172.30,0,0,165,-0.63,1.47,2.03,0.22,0.94,0.26
41.05664,-0.012920203,0.0026907632,0.018644638,0.22,0.94,0.26,23159,10174.30,0,0,0,-0.63,0.98,1.82,0.22,0.94,0.26
39.05664,-0.014920203,-0.004309237,0.017644636,0.22,0.94,0.26,23162,10172.30,0,0,165,-0.77,0.49,1.75,0.22,0.94,0.26
39.05664,-0.015920201,-0.014309237,0.014644637,0.22,0.95,0.26,23175,10172.30,0,0,0,-0.84,-0.21,1.54,0.22,0.95,0.26
39.05664,-0.015920201,-0.021309238,0.010644636,0.22,0.94,0.26,23189,10172.30,0,0,165,-0.84,-0.70,1.26,0.22,0.94,0.26
41.05664,-0.015920201,-0.028309237,0.009644638,0.22,0.95,0.26,23204,10174.30,0,0,0,-0.84,-1.19,1.19,0.22,0.95,0.26
39.05664,-0.016920203,-0.031309236,0.009644638,0.22,0.94,0.26,23212,10172.30,0,0,165,-0.91,-1.40,1.19,0.22,0.94,0.26
39.05664,-0.017920204,-0.03430924,0.0066446373,0.22,0.94,0.27,23227,10172.30,0,0,0,-0.98,-1.61,0.98,0.22,0.94,0.27
39.05664,-0.019920204,-0.03630924,0.0076446366,0.22,0.94,0.27,23242,10172.30,0,0,165,-1.12,-1.75,1.05,0.22,0.94,0.27
40.05664,-0.018920202,-0.035309236,0.004644636,0.22,0.94,0.26,23257,10173.30,0,0,0,-1.05,-1.68,0.84,0.22,0.94,0.26
40.05664,-0.013920203,-0.033309236,0.005644637,0.22,0.94,0.26,23265,10173.30,0,0,165,-0.70,-1.54,0.91,0.22,0.94,0.26
40.05664,-0.007920203,-0.031309236,0.0036446368,0.22,0.94,0.27,23279,10173.30,0,0,0,-0.28,-1.40,0.77,0.22,0.94,0.27
40.05664,-0.0069202026,-0.029309236,0.0076446366,0.22,0.94,0.26,23287,10173.30,0,0,165,-0.21,-1.26,1.05,0.22,0.94,0.26
40.05664,-0.008920202,-0.029309236,0.010644636,0.22,0.94,0.27,23302,10173.30,0,0,0,-0.35,-1.26,1.26,0.22,0.94,0.27
40.05664,-0.014920203,-0.031309236,0.015644636,0.22,0.94,0.27,23317,10173.30,0,0,165,-0.77,-1.40,1.61,0.22,0.94,0.27
40.05664,-0.021920202,-0.03430924,0.016644634,0.22,0.93,0.27,23324,10173.30,0,0,0,-1.26,-1.61,1.68,0.22,0.93,0.27
40.05664,-0.025920203,-0.037309237,0.018644638,0.22,0.94,0.26,23339,10173.30,0,0,165,-1.54,-1.82,1.82,0.22,0.94,0.26
40.05664,-0.024920203,-0.037309237,0.020644639,0.22,0.94,0.26,23355,10173.30,0,0,0,-1.47,-1.82,1.96,0.22,0.94,0.26
40.05664,-0.021920202,-0.03630924,0.023644637,0.22,0.94,0.26,23362,10173.30,0,0,165,-1.26,-1.75,2.17,0.22,0.94,0.26
40.356445,-0.018920202,-0.03430924,0.025644638,0.22,0.94,0.27,23377,10173.60,0,0,0,-1.05,-1.61,2.31,0.22,0.94,0.27
40.05664,-0.019920204,-0.03430924,0.02464464,0.23,0.95,0.26,23392,10173.30,0,0,165,-1.12,-1.61,2.24,0.23,0.95,0.26
40.356445,-0.016920203,-0.037309237,0.021644637,0.23,0.94,0.26,23399,10173.60,0,0,0,-0.91,-1.82,2.03,0.23,0.94,0.26
41.05664,-0.015920201,-0.03630924,0.020644639,0.22,0.94,0.26,23415,10174.30,0,0,165,-0.84,-1.75,1.96,0.22,0.94,0.26
40.356445,-0.010920202,-0.03630924,0.014644637,0.23,0.94,0.26,23429,10173.60,0,0,0,-0.49,-1.75,1.54,0.23,0.94,0.26
40.356445,-0.010920202,-0.03630924,0.013644637,0.22,0.94,0.27,23437,10173.60,0,0,165,-0.49,-1.75,1.47,0.22,0.94,0.27
41.356445,-0.008920202,-0.03430924,0.009644638,0.22,0.94,0.26,23452,10174.60,0,0,0,-0.35,-1.61,1.19,0.22,0.94,0.26
40.05664,-0.010920202,-0.033309236,0.0076446366,0.22,0.94,0.27,23467,10173.30,0,0,165,-0.49,-1.54,1.05,0.22,0.94,0.27
40.05664,-0.0119202025,-0.033309236,0.005644637,0.22,0.94,0.27,23482,10173.30,0,0,0,-0.56,-1.54,0.91,0.22,0.94,0.27
40.356445,-0.012920203,-0.03430924,0.0036446368,0.22,0.94,0.27,23489,10173.60,0,0,165,-0.63,-1.61,0.77,0.22,0.94,0.27
40.356445,-0.013920203,-0.032309238,0.0016446365,0.22,0.94,0.26,23505,10173.60,0,0,0,-0.70,-1.47,0.63,0.22,0.94,0.26
40.356445,-0.016920203,-0.032309238,-3.553629E-4,0.22,0.94,0.26,23520,10173.60,0,0,165,-0.91,-1.47,0.49,0.22,0.94,0.26
40.356445,-0.017920204,-0.032309238,-0.0043553635,0.23,0.94,0.26,23526,10173.60,0,0,0,-0.98,-1.47,0.21,0.23,0.94,0.26
40.356445,-0.020920204,-0.032309238,-0.006355363,0.22,0.94,0.27,23542,10173.60,0,0,165,-1.19,-1.47,0.07,0.22,0.94,0.27
40.356445,-0.022920204,-0.031309236,-0.0043553635,0.23,0.94,0.27,23550,10173.60,0,0,0,-1.33,-1.40,0.21,0.23,0.94,0.27
39.45703,-0.024920203,-0.030309238,-0.0023553632,0.22,0.94,0.27,23564,10172.70,0,0,165,-1.47,-1.33,0.35,0.22,0.94,0.27
41.356445,-0.026920203,-0.029309236,-0.0013553635,0.22,0.94,0.27,23572,10174.60,0,0,0,-1.61,-1.26,0.42,0.22,0.94,0.27
40.356445,-0.027920201,-0.026309237,-3.553629E-4,0.22,0.94,0.27,23586,10173.60,0,0,165,-1.68,-1.05,0.49,0.22,0.94,0.27
40.356445,-0.027920201,-0.024309237,-0.003355363,0.22,0.94,0.27,23602,10173.60,0,0,0,-1.68,-0.91,0.28,0.22,0.94,0.27
40.356445,-0.025920203,-0.022309236,-0.0043553635,0.22,0.94,0.26,23610,10173.60,0,0,165,-1.54,-0.77,0.21,0.22,0.94,0.26
40.356445,-0.023920203,-0.022309236,-0.005355363,0.22,0.94,0.27,23624,10173.60,0,0,0,-1.40,-0.77,0.14,0.22,0.94,0.27
40.756836,-0.022920204,-0.025309239,-0.0043553635,0.23,0.94,0.26,23639,10174.00,0,0,165,-1.33,-0.98,0.21,0.23,0.94,0.26
40.756836,-0.022920204,-0.027309239,-0.0023553632,0.23,0.94,0.26,23647,10174.00,0,0,0,-1.33,-1.12,0.35,0.23,0.94,0.26
41.657227,-0.022920204,-0.031309236,6.446373E-4,0.23,0.94,0.26,23662,10174.90,0,0,165,-1.33,-1.40,0.56,0.23,0.94,0.26
40.756836,-0.022920204,-0.033309236,0.0026446367,0.22,0.94,0.27,23677,10174.00,0,0,0,-1.33,-1.54,0.70,0.22,0.94,0.27
41.356445,-0.020920204,-0.035309236,0.0036446368,0.23,0.94,0.27,23684,10174.60,0,0,165,-1.19,-1.68,0.77,0.23,0.94,0.27
41.356445,-0.019920204,-0.035309236,0.0016446365,0.23,0.94,0.27,23700,10174.60,0,0,0,-1.12,-1.68,0.63,0.23,0.94,0.27
40.356445,-0.017920204,-0.037309237,0.0016446365,0.23,0.94,0.27,23715,10173.60,0,0,165,-0.98,-1.82,0.63,0.23,0.94,0.27
40.356445,-0.016920203,-0.03630924,0.0016446365,0.23,0.94,0.27,23722,10173.60,0,0,0,-0.91,-1.75,0.63,0.23,0.94,0.27
41.356445,-0.017920204,-0.03630924,6.446373E-4,0.23,0.94,0.27,23737,10174.60,0,0,165,-0.98,-1.75,0.56,0.23,0.94,0.27
40.756836,-0.019920204,-0.03630924,-3.553629E-4,0.23,0.94,0.27,23752,10174.00,0,0,0,-1.12,-1.75,0.49,0.23,0.94,0.27
40.756836,-0.022920204,-0.035309236,-0.0023553632,0.23,0.94,0.27,23760,10174.00,0,0,165,-1.33,-1.68,0.35,0.23,0.94,0.27
41.657227,-0.025920203,-0.03430924,-0.005355363,0.22,0.94,0.27,23775,10174.90,0,0,0,-1.54,-1.61,0.14,0.22,0.94,0.27
40.756836,-0.027920201,-0.032309238,-0.006355363,0.23,0.94,0.27,23789,10174.00,0,0,165,-1.68,-1.47,0.07,0.23,0.94,0.27
41.657227,-0.028920203,-0.033309236,-0.006355363,0.23,0.94,0.27,23797,10174.90,0,0,0,-1.75,-1.54,0.07,0.23,0.94,0.27
41.657227,-0.028920203,-0.033309236,-0.0043553635,0.23,0.94,0.27,23812,10174.90,0,0,165,-1.75,-1.54,0.21,0.23,0.94,0.27
40.756836,-0.030920204,-0.03630924,-0.003355363,0.23,0.94,0.28,23827,10174.00,0,0,0,-1.89,-1.75,0.28,0.23,0.94,0.28
41.657227,-0.029920204,-0.03830924,-0.003355363,0.23,0.94,0.28,23834,10174.90,0,0,165,-1.82,-1.89,0.28,0.23,0.94,0.28
41.657227,-0.026920203,-0.037309237,-0.0013553635,0.22,0.94,0.27,23849,10174.90,0,0,0,-1.61,-1.82,0.42,0.22,0.94,0.27
41.657227,-0.022920204,-0.03630924,-0.0013553635,0.22,0.94,0.28,23864,10174.90,0,0,165,-1.33,-1.75,0.42,0.22,0.94,0.28
41.657227,-0.016920203,-0.033309236,-3.553629E-4,0.22,0.94,0.28,23872,10174.90,0,0,0,-0.91,-1.54,0.49,0.22,0.94,0.28
41.657227,-0.010920202,-0.030309238,-0.003355363,0.22,0.94,0.27,23886,10174.90,0,0,165,-0.49,-1.33,0.28,0.22,0.94,0.27
40.756836,-0.0059202025,-0.028309237,-0.0043553635,0.22,0.94,0.28,23902,10174.00,0,0,0,-0.14,-1.19,0.21,0.22,0.94,0.28
41.657227,-0.0019202025,-0.025309239,-0.006355363,0.22,0.94,0.27,23910,10174.90,0,0,165,0.14,-0.98,0.07,0.22,0.94,0.27
41.657227,0.002079797,-0.021309238,-0.009355363,0.22,0.94,0.27,23924,10174.90,0,0,0,0.42,-0.70,-0.14,0.22,0.94,0.27
41.657227,0.0030797976,-0.019309238,-0.011355363,0.22,0.94,0.27,23939,10174.90,0,0,165,0.49,-0.56,-0.28,0.22,0.94,0.27
41.657227,0.0010797973,-0.016309237,-0.009355363,0.22,0.94,0.27,23947,10174.90,0,0,0,0.35,-0.35,-0.14,0.22,0.94,0.27
41.657227,7.979758E-5,-0.014309237,-0.014355363,0.22,0.94,0.27,23962,10174.90,0,0,165,0.28,-0.21,-0.49,0.22,0.94,0.27
40.756836,-0.0059202025,-0.013309238,-0.014355363,0.22,0.94,0.27,23985,10174.00,0,0,0,-0.14,-0.14,-0.49,0.22,0.94,0.27
42.05664,-0.007920203,-0.013309238,-0.017355364,0.22,0.94,0.27,23987,10175.30,0,0,165,-0.28,-0.14,-0.70,0.22,0.94,0.27
42.05664,-0.0119202025,-0.013309238,-0.016355362,0.22,0.93,0.27,24000,10175.30,0,0,0,-0.56,-0.14,-0.63,0.22,0.93,0.27
41.657227,-0.014920203,-0.015309237,-0.0153553635,0.22,0.94,0.27,24015,10174.90,0,0,165,-0.77,-0.28,-0.56,0.22,0.94,0.27
41.657227,-0.016920203,-0.015309237,-0.016355362,0.22,0.93,0.27,24022,10174.90,0,0,0,-0.91,-0.28,-0.63,0.22,0.93,0.27
41.657227,-0.018920202,-0.016309237,-0.012355363,0.22,0.94,0.26,24036,10174.90,0,0,165,-1.05,-0.35,-0.35,0.22,0.94,0.26
41.657227,-0.020920204,-0.018309237,-0.009355363,0.22,0.93,0.26,24045,10174.90,0,0,0,-1.19,-0.49,-0.14,0.22,0.93,0.26
41.356445,-0.021920202,-0.020309236,-0.008355363,0.22,0.94,0.26,24059,10174.60,0,0,165,-1.26,-0.63,-0.07,0.22,0.94,0.26
41.657227,-0.020920204,-0.020309236,-0.006355363,0.22,0.94,0.26,24082,10174.90,0,0,0,-1.19,-0.63,0.07,0.22,0.94,0.26
42.05664,-0.021920202,-0.022309236,-0.005355363,0.22,0.94,0.26,24084,10175.30,0,0,165,-1.26,-0.77,0.14,0.22,0.94,0.26
42.05664,-0.019920204,-0.022309236,-0.0013553635,0.22,0.94,0.26,24097,10175.30,0,0,0,-1.12,-0.77,0.42,0.22,0.94,0.26
41.05664,-0.018920202,-0.021309238,6.446373E-4,0.22,0.94,0.27,24112,10174.30,0,0,165,-1.05,-0.70,0.56,0.22,0.94,0.27
41.657227,-0.020920204,-0.022309236,0.0026446367,0.22,0.94,0.27,24119,10174.90,0,0,0,-1.19,-0.77,0.70,0.22,0.94,0.27
42.05664,-0.020920204,-0.020309236,0.0026446367,0.22,0.94,0.27,24135,10175.30,0,0,165,-1.19,-0.63,0.70,0.22,0.94,0.27
42.05664,-0.022920204,-0.021309238,0.0026446367,0.22,0.94,0.27,24143,10175.30,0,0,0,-1.33,-0.70,0.70,0.22,0.94,0.27
42.95703,-0.023920203,-0.021309238,0.004644636,0.22,0.94,0.27,24156,10176.20,0,0,165,-1.40,-0.70,0.84,0.22,0.94,0.27
42.05664,-0.024920203,-0.021309238,0.005644637,0.22,0.94,0.27,24172,10175.30,0,0,0,-1.47,-0.70,0.91,0.22,0.94,0.27
42.05664,-0.026920203,-0.021309238,0.0076446366,0.22,0.94,0.27,24180,10175.30,0,0,165,-1.61,-0.70,1.05,0.22,0.94,0.27
42.05664,-0.026920203,-0.023309236,0.0076446366,0.22,0.94,0.27,24194,10175.30,0,0,0,-1.61,-0.84,1.05,0.22,0.94,0.27
42.95703,-0.028920203,-0.023309236,0.011644638,0.22,0.94,0.27,24209,10176.20,0,0,165,-1.75,-0.84,1.33,0.22,0.94,0.27
42.05664,-0.027920201,-0.024309237,0.012644636,0.22,0.94,0.27,24224,10175.30,0,0,0,-1.68,-0.91,1.40,0.22,0.94,0.27
42.05664,-0.027920201,-0.026309237,0.014644637,0.22,0.94,0.27,24231,10175.30,0,0,165,-1.68,-1.05,1.54,0.22,0.94,0.27
42.05664,-0.030920204,-0.027309239,0.012644636,0.22,0.94,0.27,24247,10175.30,0,0,0,-1.89,-1.12,1.40,0.22,0.94,0.27
43.256836,-0.029920204,-0.026309237,0.012644636,0.22,0.94,0.27,24254,10176.50,0,0,165,-1.82,-1.05,1.40,0.22,0.94,0.27
42.05664,-0.027920201,-0.025309239,0.012644636,0.22,0.94,0.27,24269,10175.30,0,0,0,-1.68,-0.98,1.40,0.22,0.94,0.27
42.05664,-0.026920203,-0.024309237,0.010644636,0.22,0.94,0.27,24285,10175.30,0,0,165,-1.61,-0.91,1.26,0.22,0.94,0.27
42.356445,-0.026920203,-0.023309236,0.012644636,0.22,0.94,0.27,24292,10175.60,0,0,0,-1.61,-0.84,1.40,0.22,0.94,0.27
42.356445,-0.030920204,-0.025309239,0.013644637,0.23,0.94,0.27,24307,10175.60,0,0,165,-1.89,-0.98,1.47,0.23,0.94,0.27
42.05664,-0.0389202,-0.029309236,0.011644638,0.22,0.94,0.28,24322,10175.30,0,0,0,-2.45,-1.26,1.33,0.22,0.94,0.28
42.05664,-0.0479202,-0.032309238,0.0066446373,0.22,0.94,0.27,24330,10175.30,0,0,165,-3.08,-1.47,0.98,0.22,0.94,0.27
43.256836,-0.051920198,-0.032309238,0.004644636,0.22,0.94,0.27,24344,10176.50,0,0,0,-3.36,-1.47,0.84,0.22,0.94,0.27
42.05664,-0.051920198,-0.030309238,0.0036446368,0.22,0.94,0.27,24360,10175.30,0,0,165,-3.36,-1.33,0.77,0.22,0.94,0.27
42.356445,-0.048920203,-0.025309239,0.0036446368,0.22,0.95,0.27,24366,10175.60,0,0,0,-3.15,-0.98,0.77,0.22,0.95,0.27
42.95703,-0.0449202,-0.024309237,0.0016446365,0.22,0.95,0.27,24382,10176.20,0,0,165,-2.87,-0.91,0.63,0.22,0.95,0.27
43.256836,-0.041920204,-0.022309236,0.0016446365,0.22,0.94,0.27,24397,10176.50,0,0,0,-2.66,-0.77,0.63,0.22,0.94,0.27
42.356445,-0.037920203,-0.021309238,0.0066446373,0.23,0.94,0.28,24412,10175.60,0,0,165,-2.38,-0.70,0.98,0.23,0.94,0.28
43.256836,-0.035920203,-0.020309236,0.011644638,0.23,0.93,0.28,24419,10176.50,0,0,0,-2.24,-0.63,1.33,0.23,0.93,0.28
42.356445,-0.0329202,-0.022309236,0.014644637,0.23,0.93,0.28,24427,10175.60,0,0,165,-2.03,-0.77,1.54,0.23,0.93,0.28
42.95703,-0.0329202,-0.025309239,0.019644637,0.24,0.93,0.28,24442,10176.20,0,0,0,-2.03,-0.98,1.89,0.24,0.93,0.28
42.95703,-0.031920202,-0.031309236,0.022644635,0.24,0.94,0.28,24457,10176.20,0,0,165,-1.96,-1.40,2.10,0.24,0.94,0.28
43.256836,-0.034920204,-0.03830924,0.029644638,0.24,0.94,0.28,24465,10176.50,0,0,0,-2.17,-1.89,2.59,0.24,0.94,0.28
42.356445,-0.034920204,-0.04930924,0.03164464,0.24,0.94,0.28,24479,10175.60,0,0,165,-2.17,-2.66,2.73,0.24,0.94,0.28
42.356445,-0.0329202,-0.057309236,0.032644637,0.25,0.94,0.29,24495,10175.60,0,0,0,-2.03,-3.22,2.80,0.25,0.94,0.29
43.256836,-0.031920202,-0.06330924,0.033644635,0.25,0.93,0.29,24509,10176.50,0,0,165,-1.96,-3.64,2.87,0.25,0.93,0.29
43.256836,-0.030920204,-0.06730924,0.038644638,0.25,0.93,0.3,24517,10176.50,0,0,0,-1.89,-3.92,3.22,0.25,0.93,0.30
43.256836,-0.027920201,-0.06730924,0.036644638,0.25,0.93,0.3,24532,10176.50,0,0,165,-1.68,-3.92,3.08,0.25,0.93,0.30
42.356445,-0.025920203,-0.06530924,0.032644637,0.25,0.94,0.3,24540,10175.60,0,0,0,-1.54,-3.78,2.80,0.25,0.94,0.30
42.95703,-0.022920204,-0.061309237,0.023644637,0.24,0.95,0.3,24555,10176.20,0,0,165,-1.33,-3.50,2.17,0.24,0.95,0.30
42.356445,-0.021920202,-0.056309238,0.012644636,0.24,0.96,0.3,24570,10175.60,0,0,0,-1.26,-3.15,1.40,0.24,0.96,0.30
42.657227,-0.020920204,-0.051309235,-0.003355363,0.24,0.96,0.3,24577,10175.90,0,0,165,-1.19,-2.80,0.28,0.24,0.96,0.30
42.356445,-0.0119202025,-0.041309237,-0.017355364,0.24,0.96,0.3,24592,10175.60,0,0,0,-0.56,-2.10,-0.70,0.24,0.96,0.30
43.256836,-0.0059202025,-0.030309238,-0.025355361,0.24,0.96,0.3,24606,10176.50,0,0,165,-0.14,-1.33,-1.26,0.24,0.96,0.30
43.256836,-0.0019202025,-0.017309237,-0.033355363,0.24,0.96,0.3,24615,10176.50,0,0,0,0.14,-0.42,-1.82,0.24,0.96,0.30
43.256836,-0.0029202024,-0.008309238,-0.041355364,0.23,0.96,0.3,24630,10176.50,0,0,165,0.07,0.21,-2.38,0.23,0.96,0.30
44.256836,-0.0039202026,0.0026907632,-0.052355364,0.23,0.96,0.3,24644,10177.50,0,0,0,0.00,0.98,-3.15,0.23,0.96,0.30
43.657227,-0.0019202025,0.013690763,-0.06635536,0.23,0.97,0.3,24652,10176.90,0,0,165,0.14,1.75,-4.13,0.23,0.97,0.30
43.657227,7.979758E-5,0.025690764,-0.07835536,0.22,0.96,0.29,24667,10176.90,0,0,0,0.28,2.59,-4.97,0.22,0.96,0.29
43.657227,0.0010797973,0.035690762,-0.09135536,0.22,0.96,0.29,24682,10176.90,0,0,165,0.35,3.29,-5.88,0.22,0.96,0.29
42.657227,0.004079798,0.045690764,-0.10735536,0.22,0.96,0.28,24690,10175.90,0,0,0,0.56,3.99,-7.00,0.22,0.96,0.28
43.657227,0.008079797,0.052690767,-0.11835536,0.22,0.95,0.27,24712,10176.90,0,0,165,0.84,4.48,-7.77,0.22,0.95,0.27
44.55664,0.0110797975,0.057690762,-0.122355364,0.22,0.94,0.27,24719,10177.80,0,0,0,1.05,4.83,-8.05,0.22,0.94,0.27
42.657227,0.013079798,0.058690764,-0.12535536,0.21,0.94,0.27,24727,10175.90,0,0,165,1.19,4.90,-8.26,0.21,0.94,0.27
43.657227,0.0110797975,0.06069076,-0.12635536,0.21,0.93,0.27,24742,10176.90,0,0,0,1.05,5.04,-8.33,0.21,0.93,0.27
43.657227,0.008079797,0.057690762,-0.12135536,0.21,0.93,0.27,24757,10176.90,0,0,165,0.84,4.83,-7.98,0.21,0.93,0.27
43.657227,0.0070797973,0.056690767,-0.11735536,0.21,0.93,0.27,24765,10176.90,0,0,0,0.77,4.76,-7.70,0.21,0.93,0.27
43.657227,0.002079797,0.05369077,-0.111355364,0.21,0.92,0.27,24779,10176.90,0,0,165,0.42,4.55,-7.28,0.21,0.92,0.27
43.657227,-0.004920203,0.051690765,-0.09835536,0.21,0.92,0.27,24794,10176.90,0,0,0,-0.07,4.41,-6.37,0.21,0.92,0.27
43.657227,-0.012920203,0.048690762,-0.086355366,0.21,0.92,0.27,24802,10176.90,0,0,165,-0.63,4.20,-5.53,0.21,0.92,0.27
44.55664,-0.023920203,0.043690763,-0.07935536,0.21,0.92,0.28,24817,10177.80,0,0,0,-1.40,3.85,-5.04,0.21,0.92,0.28
43.657227,-0.031920202,0.039690763,-0.07335536,0.2,0.92,0.28,24832,10176.90,0,0,165,-1.96,3.57,-4.62,0.20,0.92,0.28
42.657227,-0.0449202,0.035690762,-0.07335536,0.2,0.92,0.28,24839,10175.90,0,0,0,-2.87,3.29,-4.62,0.20,0.92,0.28
43.657227,-0.059920203,0.029690761,-0.06835537,0.2,0.91,0.29,24854,10176.90,0,0,165,-3.92,2.87,-4.27,0.20,0.91,0.29
44.55664,-0.076920204,0.022690766,-0.063355364,0.21,0.91,0.3,24870,10177.80,0,0,0,-5.11,2.38,-3.92,0.21,0.91,0.30
42.657227,-0.0949202,0.019690763,-0.050355364,0.22,0.91,0.3,24877,10175.90,0,0,165,-6.37,2.17,-3.01,0.22,0.91,0.30
44.55664,-0.11492021,0.015690763,-0.035355363,0.22,0.9,0.32,24892,10177.80,0,0,0,-7.77,1.89,-1.96,0.22,0.90,0.32
43.95703,-0.1369202,0.011690763,-0.017355364,0.22,0.9,0.33,24907,10177.20,0,0,165,-9.31,1.61,-0.70,0.22,0.90,0.33
44.55664,-0.1589202,0.008690762,-0.0043553635,0.22,0.9,0.34,24914,10177.80,0,0,0,-10.85,1.40,0.21,0.22,0.90,0.34
44.55664,-0.1799202,0.006690762,6.446373E-4,0.21,0.91,0.34,24929,10177.80,0,0,165,-12.32,1.26,0.56,0.21,0.91,0.34
44.55664,-0.19892019,0.007690764,0.004644636,0.22,0.91,0.35,24944,10177.80,0,0,0,-13.65,1.33,0.84,0.22,0.91,0.35
44.95703,-0.2109202,0.008690762,0.004644636,0.21,0.92,0.35,24952,10178.20,0,0,165,-14.49,1.40,0.84,0.21,0.92,0.35
43.95703,-0.2169202,0.011690763,0.004644636,0.21,0.93,0.36,24967,10177.20,0,0,0,-14.91,1.61,0.84,0.21,0.93,0.36
45.55664,-0.2109202,0.012690761,0.0026446367,0.21,0.94,0.36,24982,10178.80,0,0,165,-14.49,1.68,0.70,0.21,0.94,0.36
45.856445,-0.19592018,0.011690763,-0.005355363,0.21,0.96,0.34,24988,10179.10,0,0,0,-13.44,1.61,0.14,0.21,0.96,0.34
48.756836,-0.1719202,0.008690762,-0.009355363,0.22,0.95,0.36,25004,10182.00,0,0,165,-11.76,1.40,-0.14,0.22,0.95,0.36
52.55664,-0.1589202,0.001690763,-0.016355362,0.22,0.95,0.37,25019,10185.80,0,0,0,-10.85,0.91,-0.63,0.22,0.95,0.37
53.256836,-0.1469202,-0.009309237,-0.023355365,0.22,0.96,0.36,25027,10186.50,0,0,165,-10.01,0.14,-1.12,0.22,0.96,0.36
54.55664,-0.1269202,-0.022309236,-0.027355362,0.22,0.96,0.36,25041,10187.80,0,0,0,-8.61,-0.77,-1.40,0.22,0.96,0.36
54.55664,-0.1099202,-0.032309238,-0.028355364,0.22,0.95,0.36,25057,10187.80,0,0,165,-7.42,-1.47,-1.47,0.22,0.95,0.36
54.55664,-0.087920204,-0.046309236,-0.029355362,0.22,0.96,0.36,25063,10187.80,0,0,0,-5.88,-2.45,-1.54,0.22,0.96,0.36
53.55664,-0.07992021,-0.061309237,-0.029355362,0.22,0.95,0.37,25080,10186.80,0,0,165,-5.32,-3.50,-1.54,0.22,0.95,0.37
51.657227,-0.07092021,-0.07530924,-0.030355364,0.21,0.95,0.37,25094,10184.90,0,0,0,-4.69,-4.48,-1.61,0.21,0.95,0.37
49.756836,-0.0639202,-0.08930924,-0.033355363,0.21,0.95,0.37,25101,10183.00,0,0,165,-4.20,-5.46,-1.82,0.21,0.95,0.37
47.756836,-0.051920198,-0.10330924,-0.040355362,0.21,0.95,0.37,25117,10181.00,0,0,0,-3.36,-6.44,-2.31,0.21,0.95,0.37
45.856445,-0.0449202,-0.11430924,-0.050355364,0.2,0.95,0.37,25132,10179.10,0,0,165,-2.87,-7.21,-3.01,0.20,0.95,0.37
45.856445,-0.035920203,-0.11930924,-0.059355363,0.2,0.95,0.37,25139,10179.10,0,0,0,-2.24,-7.56,-3.64,0.20,0.95,0.37
46.856445,-0.033920202,-0.124309234,-0.06935537,0.19,0.94,0.38,25154,10180.10,0,0,165,-2.10,-7.91,-4.34,0.19,0.94,0.38
48.756836,-0.037920203,-0.12730923,-0.06935537,0.2,0.92,0.38,25169,10182.00,0,0,0,-2.38,-8.12,-4.34,0.20,0.92,0.38
51.657227,-0.048920203,-0.12830923,-0.061355364,0.19,0.92,0.39,25177,10184.90,0,0,165,-3.15,-8.19,-3.78,0.19,0.92,0.39
51.657227,-0.06792021,-0.12830923,-0.04935536,0.19,0.92,0.38,25192,10184.90,0,0,0,-4.48,-8.19,-2.94,0.19,0.92,0.38
51.657227,-0.07992021,-0.124309234,-0.040355362,0.18,0.92,0.38,25214,10184.90,0,0,165,-5.32,-7.91,-2.31,0.18,0.92,0.38
52.95703,-0.10192021,-0.11930924,-0.033355363,0.17,0.91,0.38,25216,10186.20,0,0,0,-6.86,-7.56,-1.82,0.17,0.91,0.38
52.55664,-0.117920205,-0.121309236,-0.029355362,0.18,0.9,0.39,25237,10185.80,0,0,165,-7.98,-7.70,-1.54,0.18,0.90,0.39
52.55664,-0.1399202,-0.124309234,-0.021355364,0.18,0.92,0.37,25245,10185.80,0,0,0,-9.52,-7.91,-0.98,0.18,0.92,0.37
53.856445,-0.13392021,-0.12930924,-0.034355365,0.17,0.94,0.36,25252,10187.10,0,0,165,-9.10,-8.26,-1.89,0.17,0.94,0.36
54.55664,-0.11192021,-0.13830924,-0.063355364,0.16,0.97,0.35,25267,10187.80,0,0,0,-7.56,-8.89,-3.92,0.16,0.97,0.35
54.856445,-0.09092021,-0.15230924,-0.104355365,0.16,0.98,0.36,25274,10188.10,0,0,165,-6.09,-9.87,-6.79,0.16,0.98,0.36
54.157227,-0.08192021,-0.17130923,-0.14535536,0.17,0.97,0.37,25289,10187.40,0,0,0,-5.46,-11.20,-9.66,0.17,0.97,0.37
53.856445,-0.08992021,-0.19830924,-0.18535537,0.17,0.95,0.37,25304,10187.10,0,0,165,-6.02,-13.09,-12.46,0.17,0.95,0.37
54.55664,-0.10092021,-0.23030923,-0.21035536,0.16,0.94,0.36,25319,10187.80,0,0,0,-6.79,-15.33,-14.21,0.16,0.94,0.36
54.55664,-0.11492021,-0.25330925,-0.23035535,0.16,0.93,0.36,25327,10187.80,0,0,165,-7.77,-16.94,-15.61,0.16,0.93,0.36
54.856445,-0.1409202,-0.28830922,-0.24135534,0.16,0.92,0.36,25342,10188.10,0,0,0,-9.59,-19.39,-16.38,0.16,0.92,0.36
55.756836,-0.16792019,-0.31930923,-0.24935538,0.17,0.9,0.36,25348,10189.00,0,0,165,-11.48,-21.56,-16.94,0.17,0.90,0.36
55.45703,-0.2019202,-0.35130924,-0.24435537,0.17,0.89,0.36,25364,10188.70,0,0,0,-13.86,-23.80,-16.59,0.17,0.89,0.36
56.756836,-0.2399202,-0.38130924,-0.24335536,0.16,0.88,0.36,25379,10190.00,0,0,165,-16.52,-25.90,-16.52,0.16,0.88,0.36
56.756836,-0.2839202,-0.40730923,-0.24135534,0.16,0.86,0.37,25387,10190.00,0,0,0,-19.60,-27.72,-16.38,0.16,0.86,0.37
57.756836,-0.33592018,-0.43630925,-0.24235538,0.16,0.86,0.37,25402,10191.00,0,0,165,-23.24,-29.75,-16.45,0.16,0.86,0.37
57.756836,-0.3909202,-0.47330925,-0.24135534,0.17,0.85,0.38,25418,10191.00,0,0,0,-27.09,-32.34,-16.38,0.17,0.85,0.38
57.756836,-0.44292018,-0.50430924,-0.22735536,0.19,0.83,0.37,25425,10191.00,0,0,165,-30.73,-34.51,-15.40,0.19,0.83,0.37
57.756836,-0.48792022,-0.5303093,-0.20935537,0.19,0.85,0.36,25439,10191.00,0,0,0,-33.88,-36.33,-14.14,0.19,0.85,0.36
56.756836,-0.5029202,-0.5473093,-0.18635535,0.19,0.85,0.37,25455,10190.00,0,0,165,-34.93,-37.52,-12.53,0.19,0.85,0.37
57.756836,-0.5099202,-0.55830926,-0.16735536,0.18,0.87,0.36,25463,10191.00,0,0,0,-35.42,-38.29,-11.20,0.18,0.87,0.36
57.756836,-0.5019202,-0.56430924,-0.15335536,0.19,0.87,0.37,25478,10191.00,0,0,165,-34.86,-38.71,-10.22,0.19,0.87,0.37
58.657227,-0.47392023,-0.55830926,-0.13835536,0.19,0.88,0.37,25492,10191.90,0,0,0,-32.90,-38.29,-9.17,0.19,0.88,0.37
57.756836,-0.4439202,-0.54930925,-0.12935537,0.19,0.89,0.39,25514,10191.00,0,0,165,-30.80,-37.66,-8.54,0.19,0.89,0.39
57.756836,-0.4139202,-0.5323093,-0.12835537,0.18,0.9,0.4,25516,10191.00,0,0,0,-28.70,-36.47,-8.47,0.18,0.90,0.40
58.657227,-0.3809202,-0.51230925,-0.13235536,0.18,0.91,0.42,25522,10191.90,0,0,165,-26.39,-35.07,-8.75,0.18,0.91,0.42
59.05664,-0.3469202,-0.4903092,-0.14035536,0.19,0.91,0.42,25537,10192.30,0,0,0,-24.01,-33.53,-9.31,0.19,0.91,0.42
58.657227,-0.31492022,-0.46730924,-0.14735536,0.19,0.91,0.42,25552,10191.90,0,0,165,-21.77,-31.92,-9.80,0.19,0.91,0.42
59.95703,-0.28092018,-0.44530922,-0.16035536,0.19,0.91,0.42,25560,10193.20,0,0,0,-19.39,-30.38,-10.71,0.19,0.91,0.42
59.657227,-0.23892021,-0.42930925,-0.16335537,0.2,0.92,0.41,25575,10192.90,0,0,165,-16.45,-29.26,-10.92,0.20,0.92,0.41
